"trial_type","trial_index","time_elapsed","internal_node_id","task_version","subject_id","interactions","blur_events","focus_events","fullscreenenter_events","fullscreenexit_events","success","view_history","rt","responses","num_errors","age","subject","participantId","rune","rune_set","hex","correct","choice","accuracy","outcome","keys","total_keys","block","practice","value","sub","trial","stimulus","robot","valence","action","sham"
"pavlovia","0","70","0.0-0.0","battery-v0.2","","""event"",""trial"",""time""
""fullscreenenter"",""1"",""1319""
","
","
","""event"",""trial"",""time""
""fullscreenenter"",""1"",""1319""
","
","","","","","","","","","","","","","","","","","","","","","","","","","","",""
"fullscreen","1","2314","0.0-1.0","battery-v0.2","","""event"",""trial"",""time""
""fullscreenenter"",""1"",""1319""
","
","
","""event"",""trial"",""time""
""fullscreenenter"",""1"",""1319""
","
","true","","","","","","","","","","","","","","","","","","","","","","","","","",""
"pit-instructions","2","6823","0.0-2.0-0.0","battery-v0.2","","""event"",""trial"",""time""
""fullscreenenter"",""1"",""1319""
","
","
","""event"",""trial"",""time""
""fullscreenenter"",""1"",""1319""
","
","","[{""page_index"":0,""viewing_time"":4506.70000000298}]","4507.10000000149","","","","","","","","","","","","","","","","","","","","","","","",""
"pit-comprehension","3","9158","0.0-2.0-1.0-0.0","battery-v0.2","","""event"",""trial"",""time""
""fullscreenenter"",""1"",""1319""
","
","
","""event"",""trial"",""time""
""fullscreenenter"",""1"",""1319""
","
","","","2331.4000000059605","[""shark""]","0","12","10976","5108","","","","","","","","","","","","","","","","","","",""
"pit-instructions","4","9947","0.0-2.0-1.0-1.0","battery-v0.2","","""event"",""trial"",""time""
""fullscreenenter"",""1"",""1319""
","
","
","""event"",""trial"",""time""
""fullscreenenter"",""1"",""1319""
","
","","[{""page_index"":0,""viewing_time"":781.5}]","781.7000000029802","","","","","","","","","","","","","","","","","","","","","","","",""
"pit-comprehension","5","12869","0.0-2.0-2.0-0.0","battery-v0.2","","""event"",""trial"",""time""
""fullscreenenter"",""1"",""1319""
","
","
","""event"",""trial"",""time""
""fullscreenenter"",""1"",""1319""
","
","","","2918.60000000149","[""tiger""]","0","12","10976","5108","","","","","","","","","","","","","","","","","","",""
"pit-instructions","6","13475","0.0-2.0-2.0-1.0","battery-v0.2","","""event"",""trial"",""time""
""fullscreenenter"",""1"",""1319""
","
","
","""event"",""trial"",""time""
""fullscreenenter"",""1"",""1319""
","
","","[{""page_index"":0,""viewing_time"":603.1000000014901}]","603.2999999970198","","","","","","","","","","","","","","","","","","","","","","","",""
"pit-instructions","7","106453","0.0-2.0-3.0","battery-v0.2","","""event"",""trial"",""time""
""fullscreenenter"",""1"",""1319""
","
","
","""event"",""trial"",""time""
""fullscreenenter"",""1"",""1319""
","
","","[{""page_index"":0,""viewing_time"":7422.60000000149},{""page_index"":1,""viewing_time"":5451.89999999851},{""page_index"":2,""viewing_time"":6027.79999999702},{""page_index"":3,""viewing_time"":5174.20000000298},{""page_index"":4,""viewing_time"":5889.19999999553},{""page_index"":5,""viewing_time"":6014.60000000149},{""page_index"":6,""viewing_time"":7510.10000000149},{""page_index"":7,""viewing_time"":6663.20000000298},{""page_index"":8,""viewing_time"":6170.5},{""page_index"":9,""viewing_time"":8360.19999999553},{""page_index"":10,""viewing_time"":8346.10000000149},{""page_index"":11,""viewing_time"":7517.20000000298},{""page_index"":12,""viewing_time"":6902.89999999851},{""page_index"":13,""viewing_time"":5522}]","92972.69999999553","","","","","","","","","","","","","","","","","","","","","","","",""
"pit-trial","8","109902","0.0-2.0-4.0-0.0","battery-v0.2","","""event"",""trial"",""time""
""fullscreenenter"",""1"",""1319""
","
","
","""event"",""trial"",""time""
""fullscreenenter"",""1"",""1319""
","
","","","593.3000000044703","","","12","10976","5108","&#9784;","elianto","#FFFFF080"," "," ","1","&#10004","[1444.5]","1","0","0","","","","","","","",""
"pit-trial","9","113505","0.0-2.0-4.1-0.1","battery-v0.2","","""event"",""trial"",""time""
""fullscreenenter"",""1"",""1319""
","
","
","""event"",""trial"",""time""
""fullscreenenter"",""1"",""1319""
","
","","","741.8999999985099","","","12","10976","5108","&#9784;","elianto","#FFFFF080"," "," ","1","&#10004","[1595.3999999985099]","1","0","0","","","","","","","",""
"pit-trial","10","116984","0.0-2.0-4.2-0.2","battery-v0.2","","""event"",""trial"",""time""
""fullscreenenter"",""1"",""1319""
","
","
","""event"",""trial"",""time""
""fullscreenenter"",""1"",""1319""
","
","","","609.8000000044703","","","12","10976","5108","&#9784;","elianto","#FFFFF080"," "," ","1","&#10004","[1468.7000000029802]","1","0","0","","","","","","","",""
"pit-trial","11","120450","0.0-2.0-4.3-0.3","battery-v0.2","","""event"",""trial"",""time""
""fullscreenenter"",""1"",""1319""
","
","
","""event"",""trial"",""time""
""fullscreenenter"",""1"",""1319""
","
","","","603.1999999955297","","","12","10976","5108","&#9784;","elianto","#FFFFF080"," "," ","1","&#10004","[1455]","1","0","0","","","","","","","",""
"pit-trial","12","123937","0.0-2.0-4.4-0.4","battery-v0.2","","""event"",""trial"",""time""
""fullscreenenter"",""1"",""1319""
","
","
","""event"",""trial"",""time""
""fullscreenenter"",""1"",""1319""
","
","","","624.7000000029802","","","12","10976","5108","&#9784;","elianto","#FFFFF080"," "," ","1","&#10004","[1476.3999999985099]","1","0","0","","","","","","","",""
"pit-instructions","13","146274","0.0-2.0-5.0","battery-v0.2","","""event"",""trial"",""time""
""fullscreenenter"",""1"",""1319""
","
","
","""event"",""trial"",""time""
""fullscreenenter"",""1"",""1319""
","
","","[{""page_index"":0,""viewing_time"":4702.70000000298},{""page_index"":1,""viewing_time"":7022},{""page_index"":2,""viewing_time"":5485.79999999702},{""page_index"":3,""viewing_time"":5123}]","22333.79999999702","","","","","","","","","","","","","","","","","","","","","","","",""
"pit-trial","14","151136","0.0-2.0-6.0-0.0","battery-v0.2","","""event"",""trial"",""time""
""fullscreenenter"",""1"",""1319""
","
","
","""event"",""trial"",""time""
""fullscreenenter"",""1"",""1319""
","
","","","-1","","","12","10976","5108","&#9854;","elianto","#FFFFF080","-1","-1","1","&#10004","[]","0","0","1","","","","","","","",""
"pit-trial","15","156000","0.0-2.0-6.1-0.1","battery-v0.2","","""event"",""trial"",""time""
""fullscreenenter"",""1"",""1319""
","
","
","""event"",""trial"",""time""
""fullscreenenter"",""1"",""1319""
","
","","","-1","","","12","10976","5108","&#9854;","elianto","#FFFFF080","-1","-1","1","&#10004","[]","0","0","1","","","","","","","",""
"pit-trial","16","160866","0.0-2.0-6.2-0.2","battery-v0.2","","""event"",""trial"",""time""
""fullscreenenter"",""1"",""1319""
","
","
","""event"",""trial"",""time""
""fullscreenenter"",""1"",""1319""
","
","","","-1","","","12","10976","5108","&#9854;","elianto","#FFFFF080","-1","-1","1","&#10004","[]","0","0","1","","","","","","","",""
"pit-trial","17","165730","0.0-2.0-6.3-0.3","battery-v0.2","","""event"",""trial"",""time""
""fullscreenenter"",""1"",""1319""
","
","
","""event"",""trial"",""time""
""fullscreenenter"",""1"",""1319""
","
","","","-1","","","12","10976","5108","&#9854;","elianto","#FFFFF080","-1","-1","1","&#10004","[]","0","0","1","","","","","","","",""
"pit-trial","18","170595","0.0-2.0-6.4-0.4","battery-v0.2","","""event"",""trial"",""time""
""fullscreenenter"",""1"",""1319""
","
","
","""event"",""trial"",""time""
""fullscreenenter"",""1"",""1319""
","
","","","-1","","","12","10976","5108","&#9854;","elianto","#FFFFF080","-1","-1","1","&#10004","[]","0","0","1","","","","","","","",""
"pit-instructions","19","291379","0.0-2.0-7.0","battery-v0.2","","""event"",""trial"",""time""
""fullscreenenter"",""1"",""1319""
","
","
","""event"",""trial"",""time""
""fullscreenenter"",""1"",""1319""
","
","","[{""page_index"":0,""viewing_time"":5242.30000000447},{""page_index"":1,""viewing_time"":7188.69999999553},{""page_index"":2,""viewing_time"":5822.4000000059605},{""page_index"":3,""viewing_time"":6498.79999999702},{""page_index"":4,""viewing_time"":5804.10000000149},{""page_index"":5,""viewing_time"":5551},{""page_index"":6,""viewing_time"":4762.79999999702},{""page_index"":7,""viewing_time"":7955.30000000447},{""page_index"":8,""viewing_time"":6531.89999999851},{""page_index"":9,""viewing_time"":7022.19999999553},{""page_index"":10,""viewing_time"":6247.70000000298},{""page_index"":11,""viewing_time"":4425},{""page_index"":12,""viewing_time"":12930.79999999702},{""page_index"":13,""viewing_time"":7241.20000000298},{""page_index"":14,""viewing_time"":7369},{""page_index"":15,""viewing_time"":6617},{""page_index"":16,""viewing_time"":6321},{""page_index"":17,""viewing_time"":7247.10000000149}]","120778.60000000149","","","","","","","","","","","","","","","","","","","","","","","",""
"pit-trial","20","294998","0.0-2.0-8.0-0.0","battery-v0.2","","""event"",""trial"",""time""
""fullscreenenter"",""1"",""1319""
","
","
","""event"",""trial"",""time""
""fullscreenenter"",""1"",""1319""
","
","","","752.6000000014901","","","12","10976","5108","&#9776;","elianto","#3366ff99"," "," ","1","+10","[1607.1000000014901]","1","0","1","","","","","","","",""
"pit-trial","21","298603","0.0-2.0-8.0-1.0","battery-v0.2","","""event"",""trial"",""time""
""fullscreenenter"",""1"",""1319""
","
","
","""event"",""trial"",""time""
""fullscreenenter"",""1"",""1319""
","
","","","746.1000000014901","","","12","10976","5108","&#9776;","elianto","#3366ff99"," "," ","1","+10","[1598.3999999985099]","1","0","1","","","","","","","",""
"pit-trial","22","302092","0.0-2.0-8.0-2.0","battery-v0.2","","""event"",""trial"",""time""
""fullscreenenter"",""1"",""1319""
","
","
","""event"",""trial"",""time""
""fullscreenenter"",""1"",""1319""
","
","","","628","","","12","10976","5108","&#9776;","elianto","#3366ff99"," "," ","1","+10","[1481.3999999985099]","1","0","1","","","","","","","",""
"pit-trial","23","305575","0.0-2.0-8.0-3.0","battery-v0.2","","""event"",""trial"",""time""
""fullscreenenter"",""1"",""1319""
","
","
","""event"",""trial"",""time""
""fullscreenenter"",""1"",""1319""
","
","","","616.2999999970198","","","12","10976","5108","&#9776;","elianto","#3366ff99"," "," ","1","0","[1468.6000000014901]","1","0","1","","","","","","","",""
"pit-trial","24","309059","0.0-2.0-8.0-4.0","battery-v0.2","","""event"",""trial"",""time""
""fullscreenenter"",""1"",""1319""
","
","
","""event"",""trial"",""time""
""fullscreenenter"",""1"",""1319""
","
","","","620.8000000044703","","","12","10976","5108","&#9776;","elianto","#3366ff99"," "," ","1","+10","[1473]","1","0","1","","","","","","","",""
"pit-trial","25","312623","0.0-2.0-8.1-0.1","battery-v0.2","","""event"",""trial"",""time""
""fullscreenenter"",""1"",""1319""
","
","
","""event"",""trial"",""time""
""fullscreenenter"",""1"",""1319""
","
","","","700.7999999970198","","","12","10976","5108","&#9776;","elianto","#3366ff99"," "," ","1","+10","[1556]","1","0","1","","","","","","","",""
"pit-trial","26","316263","0.0-2.0-8.1-1.1","battery-v0.2","","""event"",""trial"",""time""
""fullscreenenter"",""1"",""1319""
","
","
","""event"",""trial"",""time""
""fullscreenenter"",""1"",""1319""
","
","","","772.1000000014901","","","12","10976","5108","&#9776;","elianto","#3366ff99"," "," ","1","+10","[1625.5]","1","0","1","","","","","","","",""
"pit-trial","27","319766","0.0-2.0-8.1-2.1","battery-v0.2","","""event"",""trial"",""time""
""fullscreenenter"",""1"",""1319""
","
","
","""event"",""trial"",""time""
""fullscreenenter"",""1"",""1319""
","
","","","637.8000000044703","","","12","10976","5108","&#9776;","elianto","#3366ff99"," "," ","1","+10","[1496]","1","0","1","","","","","","","",""
"pit-trial","28","323031","0.0-2.0-8.1-3.1","battery-v0.2","","""event"",""trial"",""time""
""fullscreenenter"",""1"",""1319""
","
","
","""event"",""trial"",""time""
""fullscreenenter"",""1"",""1319""
","
","","","403.79999999701977","","","12","10976","5108","&#9776;","elianto","#3366ff99"," "," ","1","0","[1255.5]","1","0","1","","","","","","","",""
"pit-trial","29","326619","0.0-2.0-8.1-4.1","battery-v0.2","","""event"",""trial"",""time""
""fullscreenenter"",""1"",""1319""
","
","
","""event"",""trial"",""time""
""fullscreenenter"",""1"",""1319""
","
","","","726.2999999970198","","","12","10976","5108","&#9776;","elianto","#3366ff99"," "," ","1","+10","[1579.7000000029802]","1","0","1","","","","","","","",""
"pit-trial","30","329999","0.0-2.0-8.2-0.2","battery-v0.2","","""event"",""trial"",""time""
""fullscreenenter"",""1"",""1319""
","
","
","""event"",""trial"",""time""
""fullscreenenter"",""1"",""1319""
","
","","","511","","","12","10976","5108","&#9776;","elianto","#3366ff99"," "," ","1","+10","[1365.5,2344.5]","2","0","1","","","","","","","",""
"pit-trial","31","333848","0.0-2.0-8.2-1.2","battery-v0.2","","""event"",""trial"",""time""
""fullscreenenter"",""1"",""1319""
","
","
","""event"",""trial"",""time""
""fullscreenenter"",""1"",""1319""
","
","","","980.7999999970198","","","12","10976","5108","&#9776;","elianto","#3366ff99"," "," ","1","+10","[1833.8999999985099]","1","0","1","","","","","","","",""
"pit-trial","32","337197","0.0-2.0-8.2-2.2","battery-v0.2","","""event"",""trial"",""time""
""fullscreenenter"",""1"",""1319""
","
","
","""event"",""trial"",""time""
""fullscreenenter"",""1"",""1319""
","
","","","479.29999999701977","","","12","10976","5108","&#9776;","elianto","#3366ff99"," "," ","1","+10","[1337.3999999985099]","1","0","1","","","","","","","",""
"pit-trial","33","341116","0.0-2.0-8.2-3.2","battery-v0.2","","""event"",""trial"",""time""
""fullscreenenter"",""1"",""1319""
","
","
","""event"",""trial"",""time""
""fullscreenenter"",""1"",""1319""
","
","","","1062.5","","","12","10976","5108","&#9776;","elianto","#3366ff99"," "," ","1","0","[1915.1000000014901]","1","0","1","","","","","","","",""
"pit-trial","34","344709","0.0-2.0-8.2-4.2","battery-v0.2","","""event"",""trial"",""time""
""fullscreenenter"",""1"",""1319""
","
","
","""event"",""trial"",""time""
""fullscreenenter"",""1"",""1319""
","
","","","730.3000000044703","","","12","10976","5108","&#9776;","elianto","#3366ff99"," "," ","1","+10","[1584.6000000014901]","1","0","1","","","","","","","",""
"call-function","35","344710","0.0-2.0-9.0","battery-v0.2","","""event"",""trial"",""time""
""fullscreenenter"",""1"",""1319""
","
","
","""event"",""trial"",""time""
""fullscreenenter"",""1"",""1319""
","
","","","","","","","","","","","","","","","","","","","","","","","","","","",""
"pit-instructions","36","387693","0.0-2.0-10.0","battery-v0.2","","""event"",""trial"",""time""
""fullscreenenter"",""1"",""1319""
","
","
","""event"",""trial"",""time""
""fullscreenenter"",""1"",""1319""
","
","","[{""page_index"":0,""viewing_time"":6024},{""page_index"":1,""viewing_time"":8985.10000000149},{""page_index"":2,""viewing_time"":11214.79999999702},{""page_index"":3,""viewing_time"":9628},{""page_index"":4,""viewing_time"":7128.89999999851}]","42981","","","","","","","","","","","","","","","","","","","","","","","",""
"pit-trial","37","392557","0.0-2.0-11.0-0.0","battery-v0.2","","""event"",""trial"",""time""
""fullscreenenter"",""1"",""1319""
","
","
","""event"",""trial"",""time""
""fullscreenenter"",""1"",""1319""
","
","","","-1","","","12","10976","5108","&#9761;","elianto","#3366ff99","-1","-1","1","+10","[]","0","0","2","","","","","","","",""
"pit-trial","38","397421","0.0-2.0-11.0-1.0","battery-v0.2","","""event"",""trial"",""time""
""fullscreenenter"",""1"",""1319""
","
","
","""event"",""trial"",""time""
""fullscreenenter"",""1"",""1319""
","
","","","-1","","","12","10976","5108","&#9761;","elianto","#3366ff99","-1","-1","1","+10","[]","0","0","2","","","","","","","",""
"pit-trial","39","402286","0.0-2.0-11.0-2.0","battery-v0.2","","""event"",""trial"",""time""
""fullscreenenter"",""1"",""1319""
","
","
","""event"",""trial"",""time""
""fullscreenenter"",""1"",""1319""
","
","","","-1","","","12","10976","5108","&#9761;","elianto","#3366ff99","-1","-1","1","+10","[]","0","0","2","","","","","","","",""
"pit-trial","40","407151","0.0-2.0-11.0-3.0","battery-v0.2","","""event"",""trial"",""time""
""fullscreenenter"",""1"",""1319""
","
","
","""event"",""trial"",""time""
""fullscreenenter"",""1"",""1319""
","
","","","-1","","","12","10976","5108","&#9761;","elianto","#3366ff99","-1","-1","1","0","[]","0","0","2","","","","","","","",""
"pit-trial","41","412016","0.0-2.0-11.0-4.0","battery-v0.2","","""event"",""trial"",""time""
""fullscreenenter"",""1"",""1319""
","
","
","""event"",""trial"",""time""
""fullscreenenter"",""1"",""1319""
","
","","","-1","","","12","10976","5108","&#9761;","elianto","#3366ff99","-1","-1","1","+10","[]","0","0","2","","","","","","","",""
"pit-trial","42","416880","0.0-2.0-11.1-0.1","battery-v0.2","","""event"",""trial"",""time""
""fullscreenenter"",""1"",""1319""
","
","
","""event"",""trial"",""time""
""fullscreenenter"",""1"",""1319""
","
","","","-1","","","12","10976","5108","&#9761;","elianto","#3366ff99","-1","-1","1","+10","[]","0","0","2","","","","","","","",""
"pit-trial","43","421745","0.0-2.0-11.1-1.1","battery-v0.2","","""event"",""trial"",""time""
""fullscreenenter"",""1"",""1319""
","
","
","""event"",""trial"",""time""
""fullscreenenter"",""1"",""1319""
","
","","","-1","","","12","10976","5108","&#9761;","elianto","#3366ff99","-1","-1","1","+10","[]","0","0","2","","","","","","","",""
"pit-trial","44","426610","0.0-2.0-11.1-2.1","battery-v0.2","","""event"",""trial"",""time""
""fullscreenenter"",""1"",""1319""
","
","
","""event"",""trial"",""time""
""fullscreenenter"",""1"",""1319""
","
","","","-1","","","12","10976","5108","&#9761;","elianto","#3366ff99","-1","-1","1","+10","[]","0","0","2","","","","","","","",""
"pit-trial","45","431481","0.0-2.0-11.1-3.1","battery-v0.2","","""event"",""trial"",""time""
""fullscreenenter"",""1"",""1319""
","
","
","""event"",""trial"",""time""
""fullscreenenter"",""1"",""1319""
","
","","","-1","","","12","10976","5108","&#9761;","elianto","#3366ff99","-1","-1","1","0","[]","0","0","2","","","","","","","",""
"pit-trial","46","436346","0.0-2.0-11.1-4.1","battery-v0.2","","""event"",""trial"",""time""
""fullscreenenter"",""1"",""1319""
","
","
","""event"",""trial"",""time""
""fullscreenenter"",""1"",""1319""
","
","","","-1","","","12","10976","5108","&#9761;","elianto","#3366ff99","-1","-1","1","+10","[]","0","0","2","","","","","","","",""
"pit-trial","47","441213","0.0-2.0-11.2-0.2","battery-v0.2","","""event"",""trial"",""time""
""fullscreenenter"",""1"",""1319""
","
","
","""event"",""trial"",""time""
""fullscreenenter"",""1"",""1319""
","
","","","-1","","","12","10976","5108","&#9761;","elianto","#3366ff99","-1","-1","1","+10","[]","0","0","2","","","","","","","",""
"pit-trial","48","446081","0.0-2.0-11.2-1.2","battery-v0.2","","""event"",""trial"",""time""
""fullscreenenter"",""1"",""1319""
","
","
","""event"",""trial"",""time""
""fullscreenenter"",""1"",""1319""
","
","","","-1","","","12","10976","5108","&#9761;","elianto","#3366ff99","-1","-1","1","+10","[]","0","0","2","","","","","","","",""
"pit-trial","49","450946","0.0-2.0-11.2-2.2","battery-v0.2","","""event"",""trial"",""time""
""fullscreenenter"",""1"",""1319""
","
","
","""event"",""trial"",""time""
""fullscreenenter"",""1"",""1319""
","
","","","-1","","","12","10976","5108","&#9761;","elianto","#3366ff99","-1","-1","1","+10","[]","0","0","2","","","","","","","",""
"pit-trial","50","455811","0.0-2.0-11.2-3.2","battery-v0.2","","""event"",""trial"",""time""
""fullscreenenter"",""1"",""1319""
","
","
","""event"",""trial"",""time""
""fullscreenenter"",""1"",""1319""
","
","","","-1","","","12","10976","5108","&#9761;","elianto","#3366ff99","-1","-1","1","0","[]","0","0","2","","","","","","","",""
"pit-trial","51","460681","0.0-2.0-11.2-4.2","battery-v0.2","","""event"",""trial"",""time""
""fullscreenenter"",""1"",""1319""
","
","
","""event"",""trial"",""time""
""fullscreenenter"",""1"",""1319""
","
","","","-1","","","12","10976","5108","&#9761;","elianto","#3366ff99","-1","-1","1","+10","[]","0","0","2","","","","","","","",""
"pit-trial","52","465546","0.0-2.0-11.3-0.3","battery-v0.2","","""event"",""trial"",""time""
""fullscreenenter"",""1"",""1319""
","
","
","""event"",""trial"",""time""
""fullscreenenter"",""1"",""1319""
","
","","","-1","","","12","10976","5108","&#9761;","elianto","#3366ff99","-1","-1","1","+10","[]","0","0","2","","","","","","","",""
"pit-trial","53","470406","0.0-2.0-11.3-1.3","battery-v0.2","","""event"",""trial"",""time""
""fullscreenenter"",""1"",""1319""
","
","
","""event"",""trial"",""time""
""fullscreenenter"",""1"",""1319""
","
","","","-1","","","12","10976","5108","&#9761;","elianto","#3366ff99","-1","-1","1","+10","[]","0","0","2","","","","","","","",""
"pit-trial","54","475275","0.0-2.0-11.3-2.3","battery-v0.2","","""event"",""trial"",""time""
""fullscreenenter"",""1"",""1319""
","
","
","""event"",""trial"",""time""
""fullscreenenter"",""1"",""1319""
","
","","","-1","","","12","10976","5108","&#9761;","elianto","#3366ff99","-1","-1","1","+10","[]","0","0","2","","","","","","","",""
"pit-trial","55","480145","0.0-2.0-11.3-3.3","battery-v0.2","","""event"",""trial"",""time""
""fullscreenenter"",""1"",""1319""
","
","
","""event"",""trial"",""time""
""fullscreenenter"",""1"",""1319""
","
","","","-1","","","12","10976","5108","&#9761;","elianto","#3366ff99","-1","-1","1","0","[]","0","0","2","","","","","","","",""
"pit-trial","56","485009","0.0-2.0-11.3-4.3","battery-v0.2","","""event"",""trial"",""time""
""fullscreenenter"",""1"",""1319""
","
","
","""event"",""trial"",""time""
""fullscreenenter"",""1"",""1319""
","
","","","-1","","","12","10976","5108","&#9761;","elianto","#3366ff99","-1","-1","1","+10","[]","0","0","2","","","","","","","",""
"call-function","57","485010","0.0-2.0-12.0","battery-v0.2","","""event"",""trial"",""time""
""fullscreenenter"",""1"",""1319""
","
","
","""event"",""trial"",""time""
""fullscreenenter"",""1"",""1319""
","
","","","","","","","","","","","","","","","","","","","","","","","","","","",""
"pit-instructions","58","521644","0.0-2.0-13.0","battery-v0.2","","""event"",""trial"",""time""
""fullscreenenter"",""1"",""1319""
","
","
","""event"",""trial"",""time""
""fullscreenenter"",""1"",""1319""
","
","","[{""page_index"":0,""viewing_time"":4936.5},{""page_index"":1,""viewing_time"":7760.69999999553},{""page_index"":2,""viewing_time"":3461.2000000029802},{""page_index"":3,""viewing_time"":13843.69999999553},{""page_index"":4,""viewing_time"":6630.5}]","36632.79999999702","","","","","","","","","","","","","","","","","","","","","","","",""
"pit-trial","59","525681","0.0-2.0-14.0-0.0","battery-v0.2","","""event"",""trial"",""time""
""fullscreenenter"",""1"",""1319""
","
","
","""event"",""trial"",""time""
""fullscreenenter"",""1"",""1319""
","
","","","1168.1000000014901","","","12","10976","5108","&#9826;","elianto","#f73b6a7A","-1"," ","0","-10","[2025.1000000014901]","1","0","3","","","","","","","",""
"pit-trial","60","528930","0.0-2.0-14.0-1.0","battery-v0.2","","""event"",""trial"",""time""
""fullscreenenter"",""1"",""1319""
","
","
","""event"",""trial"",""time""
""fullscreenenter"",""1"",""1319""
","
","","","385.6000000014901","","","12","10976","5108","&#9826;","elianto","#f73b6a7A","-1"," ","0","-10","[1238.7999999970198]","1","0","3","","","","","","","",""
"pit-trial","61","533801","0.0-2.0-14.0-2.0","battery-v0.2","","""event"",""trial"",""time""
""fullscreenenter"",""1"",""1319""
","
","
","""event"",""trial"",""time""
""fullscreenenter"",""1"",""1319""
","
","","","-1","","","12","10976","5108","&#9826;","elianto","#f73b6a7A","-1","-1","1","0","[]","0","0","3","","","","","","","",""
"pit-trial","62","538666","0.0-2.0-14.0-3.0","battery-v0.2","","""event"",""trial"",""time""
""fullscreenenter"",""1"",""1319""
","
","
","""event"",""trial"",""time""
""fullscreenenter"",""1"",""1319""
","
","","","-1","","","12","10976","5108","&#9826;","elianto","#f73b6a7A","-1","-1","1","-10","[]","0","0","3","","","","","","","",""
"pit-trial","63","543530","0.0-2.0-14.0-4.0","battery-v0.2","","""event"",""trial"",""time""
""fullscreenenter"",""1"",""1319""
","
","
","""event"",""trial"",""time""
""fullscreenenter"",""1"",""1319""
","
","","","-1","","","12","10976","5108","&#9826;","elianto","#f73b6a7A","-1","-1","1","0","[]","0","0","3","","","","","","","",""
"pit-trial","64","548401","0.0-2.0-14.1-0.1","battery-v0.2","","""event"",""trial"",""time""
""fullscreenenter"",""1"",""1319""
","
","
","""event"",""trial"",""time""
""fullscreenenter"",""1"",""1319""
","
","","","-1","","","12","10976","5108","&#9826;","elianto","#f73b6a7A","-1","-1","1","0","[]","0","0","3","","","","","","","",""
"pit-trial","65","553267","0.0-2.0-14.1-1.1","battery-v0.2","","""event"",""trial"",""time""
""fullscreenenter"",""1"",""1319""
","
","
","""event"",""trial"",""time""
""fullscreenenter"",""1"",""1319""
","
","","","-1","","","12","10976","5108","&#9826;","elianto","#f73b6a7A","-1","-1","1","0","[]","0","0","3","","","","","","","",""
"pit-trial","66","558135","0.0-2.0-14.1-2.1","battery-v0.2","","""event"",""trial"",""time""
""fullscreenenter"",""1"",""1319""
","
","
","""event"",""trial"",""time""
""fullscreenenter"",""1"",""1319""
","
","","","-1","","","12","10976","5108","&#9826;","elianto","#f73b6a7A","-1","-1","1","0","[]","0","0","3","","","","","","","",""
"pit-trial","67","563002","0.0-2.0-14.1-3.1","battery-v0.2","","""event"",""trial"",""time""
""fullscreenenter"",""1"",""1319""
","
","
","""event"",""trial"",""time""
""fullscreenenter"",""1"",""1319""
","
","","","-1","","","12","10976","5108","&#9826;","elianto","#f73b6a7A","-1","-1","1","-10","[]","0","0","3","","","","","","","",""
"pit-trial","68","567867","0.0-2.0-14.1-4.1","battery-v0.2","","""event"",""trial"",""time""
""fullscreenenter"",""1"",""1319""
","
","
","""event"",""trial"",""time""
""fullscreenenter"",""1"",""1319""
","
","","","-1","","","12","10976","5108","&#9826;","elianto","#f73b6a7A","-1","-1","1","0","[]","0","0","3","","","","","","","",""
"pit-trial","69","572737","0.0-2.0-14.2-0.2","battery-v0.2","","""event"",""trial"",""time""
""fullscreenenter"",""1"",""1319""
","
","
","""event"",""trial"",""time""
""fullscreenenter"",""1"",""1319""
","
","","","-1","","","12","10976","5108","&#9826;","elianto","#f73b6a7A","-1","-1","1","0","[]","0","0","3","","","","","","","",""
"pit-trial","70","577602","0.0-2.0-14.2-1.2","battery-v0.2","","""event"",""trial"",""time""
""fullscreenenter"",""1"",""1319""
","
","
","""event"",""trial"",""time""
""fullscreenenter"",""1"",""1319""
","
","","","-1","","","12","10976","5108","&#9826;","elianto","#f73b6a7A","-1","-1","1","0","[]","0","0","3","","","","","","","",""
"pit-trial","71","582463","0.0-2.0-14.2-2.2","battery-v0.2","","""event"",""trial"",""time""
""fullscreenenter"",""1"",""1319""
","
","
","""event"",""trial"",""time""
""fullscreenenter"",""1"",""1319""
","
","","","-1","","","12","10976","5108","&#9826;","elianto","#f73b6a7A","-1","-1","1","0","[]","0","0","3","","","","","","","",""
"pit-trial","72","587328","0.0-2.0-14.2-3.2","battery-v0.2","","""event"",""trial"",""time""
""fullscreenenter"",""1"",""1319""
","
","
","""event"",""trial"",""time""
""fullscreenenter"",""1"",""1319""
","
","","","-1","","","12","10976","5108","&#9826;","elianto","#f73b6a7A","-1","-1","1","-10","[]","0","0","3","","","","","","","",""
"pit-trial","73","592191","0.0-2.0-14.2-4.2","battery-v0.2","","""event"",""trial"",""time""
""fullscreenenter"",""1"",""1319""
","
","
","""event"",""trial"",""time""
""fullscreenenter"",""1"",""1319""
","
","","","-1","","","12","10976","5108","&#9826;","elianto","#f73b6a7A","-1","-1","1","0","[]","0","0","3","","","","","","","",""
"pit-trial","74","597059","0.0-2.0-14.3-0.3","battery-v0.2","","""event"",""trial"",""time""
""fullscreenenter"",""1"",""1319""
","
","
","""event"",""trial"",""time""
""fullscreenenter"",""1"",""1319""
","
","","","-1","","","12","10976","5108","&#9826;","elianto","#f73b6a7A","-1","-1","1","0","[]","0","0","3","","","","","","","",""
"pit-trial","75","601922","0.0-2.0-14.3-1.3","battery-v0.2","","""event"",""trial"",""time""
""fullscreenenter"",""1"",""1319""
","
","
","""event"",""trial"",""time""
""fullscreenenter"",""1"",""1319""
","
","","","-1","","","12","10976","5108","&#9826;","elianto","#f73b6a7A","-1","-1","1","0","[]","0","0","3","","","","","","","",""
"pit-trial","76","606784","0.0-2.0-14.3-2.3","battery-v0.2","","""event"",""trial"",""time""
""fullscreenenter"",""1"",""1319""
","
","
","""event"",""trial"",""time""
""fullscreenenter"",""1"",""1319""
","
","","","-1","","","12","10976","5108","&#9826;","elianto","#f73b6a7A","-1","-1","1","0","[]","0","0","3","","","","","","","",""
"pit-trial","77","611648","0.0-2.0-14.3-3.3","battery-v0.2","","""event"",""trial"",""time""
""fullscreenenter"",""1"",""1319""
","
","
","""event"",""trial"",""time""
""fullscreenenter"",""1"",""1319""
","
","","","-1","","","12","10976","5108","&#9826;","elianto","#f73b6a7A","-1","-1","1","-10","[]","0","0","3","","","","","","","",""
"pit-trial","78","616513","0.0-2.0-14.3-4.3","battery-v0.2","","""event"",""trial"",""time""
""fullscreenenter"",""1"",""1319""
","
","
","""event"",""trial"",""time""
""fullscreenenter"",""1"",""1319""
","
","","","-1","","","12","10976","5108","&#9826;","elianto","#f73b6a7A","-1","-1","1","0","[]","0","0","3","","","","","","","",""
"call-function","79","616515","0.0-2.0-15.0","battery-v0.2","","""event"",""trial"",""time""
""fullscreenenter"",""1"",""1319""
","
","
","""event"",""trial"",""time""
""fullscreenenter"",""1"",""1319""
","
","","","","","","","","","","","","","","","","","","","","","","","","","","",""
"pit-instructions","80","642290","0.0-2.0-16.0","battery-v0.2","","""event"",""trial"",""time""
""fullscreenenter"",""1"",""1319""
","
","
","""event"",""trial"",""time""
""fullscreenenter"",""1"",""1319""
","
","","[{""page_index"":0,""viewing_time"":6970.5},{""page_index"":1,""viewing_time"":10173},{""page_index"":2,""viewing_time"":4296.10000000149},{""page_index"":3,""viewing_time"":4335}]","25774.79999999702","","","","","","","","","","","","","","","","","","","","","","","",""
"pit-trial","81","645706","0.0-2.0-17.0-0.0","battery-v0.2","","""event"",""trial"",""time""
""fullscreenenter"",""1"",""1319""
","
","
","""event"",""trial"",""time""
""fullscreenenter"",""1"",""1319""
","
","","","553.6000000014901","","","12","10976","5108","&#9789;","elianto","#f73b6a7A"," "," ","1","0","[1406.2000000029802]","1","0","4","","","","","","","",""
"pit-trial","82","649275","0.0-2.0-17.0-1.0","battery-v0.2","","""event"",""trial"",""time""
""fullscreenenter"",""1"",""1319""
","
","
","""event"",""trial"",""time""
""fullscreenenter"",""1"",""1319""
","
","","","704","","","12","10976","5108","&#9789;","elianto","#f73b6a7A"," "," ","1","0","[1557.8999999985099]","1","0","4","","","","","","","",""
"pit-trial","83","652433","0.0-2.0-17.0-2.0","battery-v0.2","","""event"",""trial"",""time""
""fullscreenenter"",""1"",""1319""
","
","
","""event"",""trial"",""time""
""fullscreenenter"",""1"",""1319""
","
","","","297.29999999701977","","","12","10976","5108","&#9789;","elianto","#f73b6a7A"," "," ","1","0","[1150]","1","0","4","","","","","","","",""
"pit-trial","84","655717","0.0-2.0-17.0-3.0","battery-v0.2","","""event"",""trial"",""time""
""fullscreenenter"",""1"",""1319""
","
","
","""event"",""trial"",""time""
""fullscreenenter"",""1"",""1319""
","
","","","423.5","","","12","10976","5108","&#9789;","elianto","#f73b6a7A"," "," ","1","-10","[1277.2000000029802]","1","0","4","","","","","","","",""
"pit-trial","85","659027","0.0-2.0-17.0-4.0","battery-v0.2","","""event"",""trial"",""time""
""fullscreenenter"",""1"",""1319""
","
","
","""event"",""trial"",""time""
""fullscreenenter"",""1"",""1319""
","
","","","447.3999999985099","","","12","10976","5108","&#9789;","elianto","#f73b6a7A"," "," ","1","0","[1300.3999999985099]","1","0","4","","","","","","","",""
"pit-trial","86","662429","0.0-2.0-17.1-0.1","battery-v0.2","","""event"",""trial"",""time""
""fullscreenenter"",""1"",""1319""
","
","
","""event"",""trial"",""time""
""fullscreenenter"",""1"",""1319""
","
","","","532.9000000059605","","","12","10976","5108","&#9789;","elianto","#f73b6a7A"," "," ","1","0","[1387.2999999970198]","1","0","4","","","","","","","",""
"pit-trial","87","665610","0.0-2.0-17.1-1.1","battery-v0.2","","""event"",""trial"",""time""
""fullscreenenter"",""1"",""1319""
","
","
","""event"",""trial"",""time""
""fullscreenenter"",""1"",""1319""
","
","","","318.70000000298023","","","12","10976","5108","&#9789;","elianto","#f73b6a7A"," "," ","1","0","[1170.2000000029802]","1","0","4","","","","","","","",""
"pit-trial","88","669219","0.0-2.0-17.1-2.1","battery-v0.2","","""event"",""trial"",""time""
""fullscreenenter"",""1"",""1319""
","
","
","""event"",""trial"",""time""
""fullscreenenter"",""1"",""1319""
","
","","","745.3999999985099","","","12","10976","5108","&#9789;","elianto","#f73b6a7A"," "," ","1","0","[1600.3999999985099]","1","0","4","","","","","","","",""
"pit-trial","89","673507","0.0-2.0-17.1-3.1","battery-v0.2","","""event"",""trial"",""time""
""fullscreenenter"",""1"",""1319""
","
","
","""event"",""trial"",""time""
""fullscreenenter"",""1"",""1319""
","
","","","1423.3000000044703","","","12","10976","5108","&#9789;","elianto","#f73b6a7A"," "," ","1","-10","[2277.4000000059605]","1","0","4","","","","","","","",""
"pit-trial","90","678370","0.0-2.0-17.1-4.1","battery-v0.2","","""event"",""trial"",""time""
""fullscreenenter"",""1"",""1319""
","
","
","""event"",""trial"",""time""
""fullscreenenter"",""1"",""1319""
","
","","","-1","","","12","10976","5108","&#9789;","elianto","#f73b6a7A"," ","-1","0","-10","[3265.7999999970198]","1","0","4","","","","","","","",""
"pit-trial","91","681633","0.0-2.0-17.2-0.2","battery-v0.2","","""event"",""trial"",""time""
""fullscreenenter"",""1"",""1319""
","
","
","""event"",""trial"",""time""
""fullscreenenter"",""1"",""1319""
","
","","","406.69999999552965","","","12","10976","5108","&#9789;","elianto","#f73b6a7A"," "," ","1","0","[1260.1000000014901]","1","0","4","","","","","","","",""
"pit-trial","92","684737","0.0-2.0-17.2-1.2","battery-v0.2","","""event"",""trial"",""time""
""fullscreenenter"",""1"",""1319""
","
","
","""event"",""trial"",""time""
""fullscreenenter"",""1"",""1319""
","
","","","247.29999999701977","","","12","10976","5108","&#9789;","elianto","#f73b6a7A"," "," ","1","0","[1100.2000000029802]","1","0","4","","","","","","","",""
"pit-trial","93","687950","0.0-2.0-17.2-2.2","battery-v0.2","","""event"",""trial"",""time""
""fullscreenenter"",""1"",""1319""
","
","
","""event"",""trial"",""time""
""fullscreenenter"",""1"",""1319""
","
","","","347.70000000298023","","","12","10976","5108","&#9789;","elianto","#f73b6a7A"," "," ","1","0","[1204.6999999955297]","1","0","4","","","","","","","",""
"pit-trial","94","691258","0.0-2.0-17.2-3.2","battery-v0.2","","""event"",""trial"",""time""
""fullscreenenter"",""1"",""1319""
","
","
","""event"",""trial"",""time""
""fullscreenenter"",""1"",""1319""
","
","","","447.20000000298023","","","12","10976","5108","&#9789;","elianto","#f73b6a7A"," "," ","1","-10","[1299.1000000014901]","1","0","4","","","","","","","",""
"pit-trial","95","694219","0.0-2.0-17.2-4.2","battery-v0.2","","""event"",""trial"",""time""
""fullscreenenter"",""1"",""1319""
","
","
","""event"",""trial"",""time""
""fullscreenenter"",""1"",""1319""
","
","","","97.10000000149012","","","12","10976","5108","&#9789;","elianto","#f73b6a7A"," "," ","1","0","[949.1999999955297]","1","0","4","","","","","","","",""
"pit-trial","96","697226","0.0-2.0-17.3-0.3","battery-v0.2","","""event"",""trial"",""time""
""fullscreenenter"",""1"",""1319""
","
","
","""event"",""trial"",""time""
""fullscreenenter"",""1"",""1319""
","
","","","149.79999999701977","","","12","10976","5108","&#9789;","elianto","#f73b6a7A"," "," ","1","0","[1003.2999999970198]","1","0","4","","","","","","","",""
"pit-trial","97","700394","0.0-2.0-17.3-1.3","battery-v0.2","","""event"",""trial"",""time""
""fullscreenenter"",""1"",""1319""
","
","
","""event"",""trial"",""time""
""fullscreenenter"",""1"",""1319""
","
","","","303.30000000447035","","","12","10976","5108","&#9789;","elianto","#f73b6a7A"," "," ","1","0","[1157.8999999985099]","1","0","4","","","","","","","",""
"pit-trial","98","705261","0.0-2.0-17.3-2.3","battery-v0.2","","""event"",""trial"",""time""
""fullscreenenter"",""1"",""1319""
","
","
","""event"",""trial"",""time""
""fullscreenenter"",""1"",""1319""
","
","","","-1","","","12","10976","5108","&#9789;","elianto","#f73b6a7A"," ","-1","0","-10","[2895]","1","0","4","","","","","","","",""
"pit-trial","99","708787","0.0-2.0-17.3-3.3","battery-v0.2","","""event"",""trial"",""time""
""fullscreenenter"",""1"",""1319""
","
","
","""event"",""trial"",""time""
""fullscreenenter"",""1"",""1319""
","
","","","666.3000000044703","","","12","10976","5108","&#9789;","elianto","#f73b6a7A"," "," ","1","-10","[1516.8000000044703]","1","0","4","","","","","","","",""
"pit-trial","100","712122","0.0-2.0-17.3-4.3","battery-v0.2","","""event"",""trial"",""time""
""fullscreenenter"",""1"",""1319""
","
","
","""event"",""trial"",""time""
""fullscreenenter"",""1"",""1319""
","
","","","480.8999999985099","","","12","10976","5108","&#9789;","elianto","#f73b6a7A"," "," ","1","0","[1331.2999999970198]","1","0","4","","","","","","","",""
"call-function","101","712123","0.0-2.0-18.0","battery-v0.2","","""event"",""trial"",""time""
""fullscreenenter"",""1"",""1319""
","
","
","""event"",""trial"",""time""
""fullscreenenter"",""1"",""1319""
","
","","","","","","","","","","","","","","","","","","","","","","","","","","",""
"pit-instructions","102","786830","0.0-2.0-19.0","battery-v0.2","","""event"",""trial"",""time""
""fullscreenenter"",""1"",""1319""
","
","
","""event"",""trial"",""time""
""fullscreenenter"",""1"",""1319""
","
","","[{""page_index"":0,""viewing_time"":7357.30000000447},{""page_index"":1,""viewing_time"":8546},{""page_index"":2,""viewing_time"":13239.69999999553},{""page_index"":3,""viewing_time"":8437.30000000447},{""page_index"":4,""viewing_time"":9531},{""page_index"":5,""viewing_time"":9094.59999999404},{""page_index"":6,""viewing_time"":8785.20000000298},{""page_index"":7,""viewing_time"":5973.10000000149},{""page_index"":8,""viewing_time"":3739.7999999970198}]","74704.30000000447","","","","","","","","","","","","","","","","","","","","","","","",""
"pit-comprehension","103","791155","0.0-2.0-20.0-0.0","battery-v0.2","","""event"",""trial"",""time""
""fullscreenenter"",""1"",""1319""
","
","
","""event"",""trial"",""time""
""fullscreenenter"",""1"",""1319""
","
","","","4321.79999999702","[""SPACE""]","0","12","10976","5108","","","","","","","","","","","","","","","","","","",""
"pit-instructions","104","793797","0.0-2.0-20.0-1.0","battery-v0.2","","""event"",""trial"",""time""
""fullscreenenter"",""1"",""1319""
","
","
","""event"",""trial"",""time""
""fullscreenenter"",""1"",""1319""
","
","","[{""page_index"":0,""viewing_time"":2587.89999999851}]","2588.0999999940395","","","","","","","","","","","","","","","","","","","","","","","",""
"pit-comprehension","105","797854","0.0-2.0-21.0-0.0","battery-v0.2","","""event"",""trial"",""time""
""fullscreenenter"",""1"",""1319""
","
","
","""event"",""trial"",""time""
""fullscreenenter"",""1"",""1319""
","
","","","4053.4000000059605","[""10""]","0","12","10976","5108","","","","","","","","","","","","","","","","","","",""
"pit-instructions","106","799402","0.0-2.0-21.0-1.0","battery-v0.2","","""event"",""trial"",""time""
""fullscreenenter"",""1"",""1319""
","
","
","""event"",""trial"",""time""
""fullscreenenter"",""1"",""1319""
","
","","[{""page_index"":0,""viewing_time"":1499.7999999970198}]","1500.1000000014901","","","","","","","","","","","","","","","","","","","","","","","",""
"pit-comprehension","107","806335","0.0-2.0-22.0-0.0","battery-v0.2","","""event"",""trial"",""time""
""fullscreenenter"",""1"",""1319""
","
","
","""event"",""trial"",""time""
""fullscreenenter"",""1"",""1319""
","
","","","6930.10000000149","[""0""]","0","12","10976","5108","","","","","","","","","","","","","","","","","","",""
"pit-instructions","108","808119","0.0-2.0-22.0-1.0","battery-v0.2","","""event"",""trial"",""time""
""fullscreenenter"",""1"",""1319""
","
","
","""event"",""trial"",""time""
""fullscreenenter"",""1"",""1319""
","
","","[{""page_index"":0,""viewing_time"":1736.3000000044703}]","1736.5","","","","","","","","","","","","","","","","","","","","","","","",""
"pit-comprehension","109","816619","0.0-2.0-23.0-0.0","battery-v0.2","","""event"",""trial"",""time""
""fullscreenenter"",""1"",""1319""
","
","
","""event"",""trial"",""time""
""fullscreenenter"",""1"",""1319""
","
","","","8497.10000000149","[""True""]","0","12","10976","5108","","","","","","","","","","","","","","","","","","",""
"pit-instructions","110","818287","0.0-2.0-23.0-1.0","battery-v0.2","","""event"",""trial"",""time""
""fullscreenenter"",""1"",""1319""
","
","
","""event"",""trial"",""time""
""fullscreenenter"",""1"",""1319""
","
","","[{""page_index"":0,""viewing_time"":1618.8000000044703}]","1618.9000000059605","","","","","","","","","","","","","","","","","","","","","","","",""
"pit-comprehension","111","825432","0.0-2.0-24.0-0.0","battery-v0.2","","""event"",""trial"",""time""
""fullscreenenter"",""1"",""1319""
","
","
","""event"",""trial"",""time""
""fullscreenenter"",""1"",""1319""
","
","","","7143","[""False""]","1","12","10976","5108","","","","","","","","","","","","","","","","","","",""
"pit-instructions","112","829615","0.0-2.0-24.0-1.0","battery-v0.2","","""event"",""trial"",""time""
""fullscreenenter"",""1"",""1319""
","
","
","""event"",""trial"",""time""
""fullscreenenter"",""1"",""1319""
","
","","[{""page_index"":0,""viewing_time"":4133.29999999702}]","4133.5","","","","","","","","","","","","","","","","","","","","","","","",""
"pit-instructions","113","830656","0.0-2.0-24.0-2.0-0.0","battery-v0.2","","""event"",""trial"",""time""
""fullscreenenter"",""1"",""1319""
","
","
","""event"",""trial"",""time""
""fullscreenenter"",""1"",""1319""
","
","","[{""page_index"":0,""viewing_time"":1039.2000000029802}]","1039.3000000044703","","","","","","","","","","","","","","","","","","","","","","","",""
"pit-comprehension","114","838139","0.0-2.0-24.1-0.1","battery-v0.2","","""event"",""trial"",""time""
""fullscreenenter"",""1"",""1319""
","
","
","""event"",""trial"",""time""
""fullscreenenter"",""1"",""1319""
","
","","","7480.5","[""True""]","0","12","10976","5108","","","","","","","","","","","","","","","","","","",""
"pit-instructions","115","839702","0.0-2.0-24.1-1.1","battery-v0.2","","""event"",""trial"",""time""
""fullscreenenter"",""1"",""1319""
","
","
","""event"",""trial"",""time""
""fullscreenenter"",""1"",""1319""
","
","","[{""page_index"":0,""viewing_time"":1513.3000000044703}]","1513.4000000059605","","","","","","","","","","","","","","","","","","","","","","","",""
"pit-comprehension","116","845739","0.0-2.0-25.0-0.0","battery-v0.2","","""event"",""trial"",""time""
""fullscreenenter"",""1"",""1319""
","
","
","""event"",""trial"",""time""
""fullscreenenter"",""1"",""1319""
","
","","","6034.29999999702","[""True""]","0","12","10976","5108","","","","","","","","","","","","","","","","","","",""
"pit-instructions","117","846941","0.0-2.0-25.0-1.0","battery-v0.2","","""event"",""trial"",""time""
""fullscreenenter"",""1"",""1319""
","
","
","""event"",""trial"",""time""
""fullscreenenter"",""1"",""1319""
","
","","[{""page_index"":0,""viewing_time"":1150.2999999970198}]","1150.5","","","","","","","","","","","","","","","","","","","","","","","",""
"pit-comprehension","118","851126","0.0-2.0-26.0-0.0","battery-v0.2","","""event"",""trial"",""time""
""fullscreenenter"",""1"",""1319""
","
","
","""event"",""trial"",""time""
""fullscreenenter"",""1"",""1319""
","
","","","4182.20000000298","[""False""]","0","12","10976","5108","","","","","","","","","","","","","","","","","","",""
"pit-instructions","119","852222","0.0-2.0-26.0-1.0","battery-v0.2","","""event"",""trial"",""time""
""fullscreenenter"",""1"",""1319""
","
","
","""event"",""trial"",""time""
""fullscreenenter"",""1"",""1319""
","
","","[{""page_index"":0,""viewing_time"":1044.8000000044703}]","1044.8999999985099","","","","","","","","","","","","","","","","","","","","","","","",""
"pit-instructions","120","873901","0.0-3.0","battery-v0.2","","""event"",""trial"",""time""
""fullscreenenter"",""1"",""1319""
","
","
","""event"",""trial"",""time""
""fullscreenenter"",""1"",""1319""
","
","","[{""page_index"":0,""viewing_time"":8313.30000000447},{""page_index"":1,""viewing_time"":5684.19999999553},{""page_index"":2,""viewing_time"":7679.80000000447}]","21677.40000000596","","","","","","","","","","","","","","","","","","","","","","","",""
"pit-trial","121","877402","0.0-4.0","battery-v0.2","","""event"",""trial"",""time""
""fullscreenenter"",""1"",""1319""
","
","
","""event"",""trial"",""time""
""fullscreenenter"",""1"",""1319""
","
","","","637.2999999970198","","","12","10976","5108","&#9752;","elianto","#f73b6a7A"," "," ","1","0","[1491]","1","1","","","10976","1","3","3","lose","go","0"
"pit-trial","122","880937","0.0-5.0","battery-v0.2","","""event"",""trial"",""time""
""fullscreenenter"",""1"",""1319""
","
","
","""event"",""trial"",""time""
""fullscreenenter"",""1"",""1319""
","
","","","673.5","","","12","10976","5108","&#9730;","elianto","#3366ff99"," "," ","1","0","[1525.2999999970198]","1","1","","","10976","2","1","1","win","go","1"
"pit-trial","123","884699","0.0-6.0","battery-v0.2","","""event"",""trial"",""time""
""fullscreenenter"",""1"",""1319""
","
","
","""event"",""trial"",""time""
""fullscreenenter"",""1"",""1319""
","
","","","895","","","12","10976","5108","&#9728;","elianto","#f73b6a7A","-1"," ","0","0","[1747.3000000044703]","1","1","","","10976","3","0","4","lose","no-go","1"
"pit-trial","124","888316","0.0-7.0","battery-v0.2","","""event"",""trial"",""time""
""fullscreenenter"",""1"",""1319""
","
","
","""event"",""trial"",""time""
""fullscreenenter"",""1"",""1319""
","
","","","752.8000000044703","","","12","10976","5108","&#9733;","elianto","#3366ff99","-1"," ","0","0","[1608.7000000029802]","1","1","","","10976","4","2","2","win","no-go","0"
"pit-trial","125","893186","0.0-8.0","battery-v0.2","","""event"",""trial"",""time""
""fullscreenenter"",""1"",""1319""
","
","
","""event"",""trial"",""time""
""fullscreenenter"",""1"",""1319""
","
","","","-1","","","12","10976","5108","&#9733;","elianto","#3366ff99","-1","-1","1","+10","[]","0","1","","","10976","5","2","2","win","no-go","0"
"pit-trial","126","897145","0.0-9.0","battery-v0.2","","""event"",""trial"",""time""
""fullscreenenter"",""1"",""1319""
","
","
","""event"",""trial"",""time""
""fullscreenenter"",""1"",""1319""
","
","","","1101.5","","","12","10976","5108","&#9752;","elianto","#f73b6a7A"," "," ","1","0","[1952.9000000059605]","1","1","","","10976","6","3","3","lose","go","0"
"pit-trial","127","902010","0.0-10.0","battery-v0.2","","""event"",""trial"",""time""
""fullscreenenter"",""1"",""1319""
","
","
","""event"",""trial"",""time""
""fullscreenenter"",""1"",""1319""
","
","","","-1","","","12","10976","5108","&#9730;","elianto","#3366ff99"," ","-1","0","0","[]","0","1","","","10976","7","1","1","win","go","0"
"pit-trial","128","906872","0.0-11.0","battery-v0.2","","""event"",""trial"",""time""
""fullscreenenter"",""1"",""1319""
","
","
","""event"",""trial"",""time""
""fullscreenenter"",""1"",""1319""
","
","","","-1","","","12","10976","5108","&#9728;","elianto","#f73b6a7A","-1","-1","1","-10","[]","0","1","","","10976","8","0","4","lose","no-go","1"
"pit-trial","129","910411","0.0-12.0","battery-v0.2","","""event"",""trial"",""time""
""fullscreenenter"",""1"",""1319""
","
","
","""event"",""trial"",""time""
""fullscreenenter"",""1"",""1319""
","
","","","676.8999999985099","","","12","10976","5108","&#9752;","elianto","#f73b6a7A"," "," ","1","0","[1530.0999999940395]","1","1","","","10976","9","3","3","lose","go","0"
"pit-trial","130","913952","0.0-13.0","battery-v0.2","","""event"",""trial"",""time""
""fullscreenenter"",""1"",""1319""
","
","
","""event"",""trial"",""time""
""fullscreenenter"",""1"",""1319""
","
","","","680.2000000029802","","","12","10976","5108","&#9733;","elianto","#3366ff99","-1"," ","0","0","[1535]","1","1","","","10976","10","2","2","win","no-go","0"
"pit-trial","131","917441","0.0-14.0","battery-v0.2","","""event"",""trial"",""time""
""fullscreenenter"",""1"",""1319""
","
","
","""event"",""trial"",""time""
""fullscreenenter"",""1"",""1319""
","
","","","626.2000000029802","","","12","10976","5108","&#9730;","elianto","#3366ff99"," "," ","1","+10","[1481.8999999985099]","1","1","","","10976","11","1","1","win","go","0"
"pit-trial","132","922306","0.0-15.0","battery-v0.2","","""event"",""trial"",""time""
""fullscreenenter"",""1"",""1319""
","
","
","""event"",""trial"",""time""
""fullscreenenter"",""1"",""1319""
","
","","","-1","","","12","10976","5108","&#9728;","elianto","#f73b6a7A","-1","-1","1","0","[]","0","1","","","10976","12","0","4","lose","no-go","0"
"pit-trial","133","926385","0.0-16.0","battery-v0.2","","""event"",""trial"",""time""
""fullscreenenter"",""1"",""1319""
","
","
","""event"",""trial"",""time""
""fullscreenenter"",""1"",""1319""
","
","","","1217.8000000044703","","","12","10976","5108","&#9730;","elianto","#3366ff99"," "," ","1","+10","[2071.7000000029802]","1","1","","","10976","13","1","1","win","go","0"
"pit-trial","134","931252","0.0-17.0","battery-v0.2","","""event"",""trial"",""time""
""fullscreenenter"",""1"",""1319""
","
","
","""event"",""trial"",""time""
""fullscreenenter"",""1"",""1319""
","
","","","-1","","","12","10976","5108","&#9728;","elianto","#f73b6a7A","-1","-1","1","0","[]","0","1","","","10976","14","0","4","lose","no-go","0"
"pit-trial","135","934972","0.0-18.0","battery-v0.2","","""event"",""trial"",""time""
""fullscreenenter"",""1"",""1319""
","
","
","""event"",""trial"",""time""
""fullscreenenter"",""1"",""1319""
","
","","","858.8999999985099","","","12","10976","5108","&#9752;","elianto","#f73b6a7A"," "," ","1","0","[1710.1000000014901]","1","1","","","10976","15","3","3","lose","go","0"
"pit-trial","136","939843","0.0-19.0","battery-v0.2","","""event"",""trial"",""time""
""fullscreenenter"",""1"",""1319""
","
","
","""event"",""trial"",""time""
""fullscreenenter"",""1"",""1319""
","
","","","-1","","","12","10976","5108","&#9733;","elianto","#3366ff99","-1","-1","1","0","[]","0","1","","","10976","16","2","2","win","no-go","1"
"pit-trial","137","944708","0.0-20.0","battery-v0.2","","""event"",""trial"",""time""
""fullscreenenter"",""1"",""1319""
","
","
","""event"",""trial"",""time""
""fullscreenenter"",""1"",""1319""
","
","","","-1","","","12","10976","5108","&#9733;","elianto","#3366ff99","-1","-1","1","+10","[]","0","1","","","10976","17","2","2","win","no-go","0"
"pit-trial","138","949573","0.0-21.0","battery-v0.2","","""event"",""trial"",""time""
""fullscreenenter"",""1"",""1319""
","
","
","""event"",""trial"",""time""
""fullscreenenter"",""1"",""1319""
","
","","","-1","","","12","10976","5108","&#9728;","elianto","#f73b6a7A","-1","-1","1","0","[]","0","1","","","10976","18","0","4","lose","no-go","0"
"pit-trial","139","953392","0.0-22.0","battery-v0.2","","""event"",""trial"",""time""
""fullscreenenter"",""1"",""1319""
","
","
","""event"",""trial"",""time""
""fullscreenenter"",""1"",""1319""
","
","","","963.1999999955297","","","12","10976","5108","&#9752;","elianto","#f73b6a7A"," "," ","1","0","[1817]","1","1","","","10976","19","3","3","lose","go","0"
"pit-trial","140","957376","0.0-23.0","battery-v0.2","","""event"",""trial"",""time""
""fullscreenenter"",""1"",""1319""
","
","
","""event"",""trial"",""time""
""fullscreenenter"",""1"",""1319""
","
","","","1125.3999999985099","","","12","10976","5108","&#9730;","elianto","#3366ff99"," "," ","1","0","[1979.6999999955297]","1","1","","","10976","20","1","1","win","go","1"
"pit-instructions","141","971447","0.0-24.0","battery-v0.2","","""event"",""trial"",""time""
""fullscreenenter"",""1"",""1319""
","
","
","""event"",""trial"",""time""
""fullscreenenter"",""1"",""1319""
","
","","[{""page_index"":0,""viewing_time"":6629.89999999851},{""page_index"":1,""viewing_time"":7439.79999999702}]","14070","","","","","","","","","","","","","","","","","","","","","","","",""
"pit-trial","142","975301","0.0-25.0","battery-v0.2","","""event"",""trial"",""time""
""fullscreenenter"",""1"",""1319""
","
","
","""event"",""trial"",""time""
""fullscreenenter"",""1"",""1319""
","
","","","989","","","12","10976","5108","n","elianto","#f73b6a7A","-1"," ","0","-10","[1845.1999999955297]","1","2","","","10976","21","0","4","lose","no-go","0"
"pit-trial","143","979249","0.0-26.0","battery-v0.2","","""event"",""trial"",""time""
""fullscreenenter"",""1"",""1319""
","
","
","""event"",""trial"",""time""
""fullscreenenter"",""1"",""1319""
","
","","","1088.3000000044703","","","12","10976","5108","b","elianto","#f73b6a7A"," "," ","1","0","[1940.7000000029802]","1","2","","","10976","22","3","3","lose","go","0"
"pit-trial","144","983202","0.0-27.0","battery-v0.2","","""event"",""trial"",""time""
""fullscreenenter"",""1"",""1319""
","
","
","""event"",""trial"",""time""
""fullscreenenter"",""1"",""1319""
","
","","","1087.5","","","12","10976","5108","t","elianto","#f73b6a7A","-1"," ","0","-10","[1942.3000000044703]","1","2","","","10976","23","2","4","lose","no-go","0"
"pit-trial","145","986980","0.0-28.0","battery-v0.2","","""event"",""trial"",""time""
""fullscreenenter"",""1"",""1319""
","
","
","""event"",""trial"",""time""
""fullscreenenter"",""1"",""1319""
","
","","","915","","","12","10976","5108","f","elianto","#3366ff99"," "," ","1","+10","[1768.2000000029802]","1","2","","","10976","24","1","1","win","go","0"
"pit-trial","146","991469","0.0-29.0","battery-v0.2","","""event"",""trial"",""time""
""fullscreenenter"",""1"",""1319""
","
","
","""event"",""trial"",""time""
""fullscreenenter"",""1"",""1319""
","
","","","1627.1999999955297","","","12","10976","5108","n","elianto","#f73b6a7A","-1"," ","0","-10","[2480.5]","1","2","","","10976","25","0","4","lose","no-go","0"
"pit-trial","147","996333","0.0-30.0","battery-v0.2","","""event"",""trial"",""time""
""fullscreenenter"",""1"",""1319""
","
","
","""event"",""trial"",""time""
""fullscreenenter"",""1"",""1319""
","
","","","-1","","","12","10976","5108","b","elianto","#f73b6a7A"," ","-1","0","-10","[]","0","2","","","10976","26","3","3","lose","go","0"
"pit-trial","148","1001205","0.0-31.0","battery-v0.2","","""event"",""trial"",""time""
""fullscreenenter"",""1"",""1319""
","
","
","""event"",""trial"",""time""
""fullscreenenter"",""1"",""1319""
","
","","","-1","","","12","10976","5108","t","elianto","#f73b6a7A","-1","-1","1","-10","[]","0","2","","","10976","27","2","4","lose","no-go","1"
"pit-trial","149","1006070","0.0-32.0","battery-v0.2","","""event"",""trial"",""time""
""fullscreenenter"",""1"",""1319""
","
","
","""event"",""trial"",""time""
""fullscreenenter"",""1"",""1319""
","
","","","-1","","","12","10976","5108","f","elianto","#3366ff99"," ","-1","0","0","[]","0","2","","","10976","28","1","1","win","go","0"
"pit-trial","150","1010331","0.0-33.0","battery-v0.2","","""event"",""trial"",""time""
""fullscreenenter"",""1"",""1319""
","
","
","""event"",""trial"",""time""
""fullscreenenter"",""1"",""1319""
","
","","","1399.6999999955297","","","12","10976","5108","n","elianto","#f73b6a7A","-1"," ","0","0","[2257.2999999970198]","1","2","","","10976","29","0","4","lose","no-go","1"
"pit-trial","151","1013970","0.0-34.0","battery-v0.2","","""event"",""trial"",""time""
""fullscreenenter"",""1"",""1319""
","
","
","""event"",""trial"",""time""
""fullscreenenter"",""1"",""1319""
","
","","","774.2999999970198","","","12","10976","5108","t","elianto","#f73b6a7A","-1"," ","0","-10","[1629.7999999970198]","1","2","","","10976","30","2","4","lose","no-go","0"
"pit-trial","152","1017550","0.0-35.0","battery-v0.2","","""event"",""trial"",""time""
""fullscreenenter"",""1"",""1319""
","
","
","""event"",""trial"",""time""
""fullscreenenter"",""1"",""1319""
","
","","","712.7000000029802","","","12","10976","5108","b","elianto","#f73b6a7A"," "," ","1","0","[1567.7000000029802]","1","2","","","10976","31","3","3","lose","go","0"
"pit-trial","153","1022423","0.0-36.0","battery-v0.2","","""event"",""trial"",""time""
""fullscreenenter"",""1"",""1319""
","
","
","""event"",""trial"",""time""
""fullscreenenter"",""1"",""1319""
","
","","","-1","","","12","10976","5108","f","elianto","#3366ff99"," ","-1","0","0","[]","0","2","","","10976","32","1","1","win","go","0"
"pit-trial","154","1026301","0.0-37.0","battery-v0.2","","""event"",""trial"",""time""
""fullscreenenter"",""1"",""1319""
","
","
","""event"",""trial"",""time""
""fullscreenenter"",""1"",""1319""
","
","","","1008.6000000014901","","","12","10976","5108","f","elianto","#3366ff99"," "," ","1","+10","[1867.6000000014901]","1","2","","","10976","33","1","1","win","go","0"
"pit-trial","155","1031165","0.0-38.0","battery-v0.2","","""event"",""trial"",""time""
""fullscreenenter"",""1"",""1319""
","
","
","""event"",""trial"",""time""
""fullscreenenter"",""1"",""1319""
","
","","","-1","","","12","10976","5108","t","elianto","#f73b6a7A","-1","-1","1","0","[]","0","2","","","10976","34","2","4","lose","no-go","0"
"pit-trial","156","1034891","0.0-39.0","battery-v0.2","","""event"",""trial"",""time""
""fullscreenenter"",""1"",""1319""
","
","
","""event"",""trial"",""time""
""fullscreenenter"",""1"",""1319""
","
","","","869","","","12","10976","5108","n","elianto","#f73b6a7A","-1"," ","0","0","[1720.1000000014901]","1","2","","","10976","35","0","4","lose","no-go","1"
"pit-trial","157","1038436","0.0-40.0","battery-v0.2","","""event"",""trial"",""time""
""fullscreenenter"",""1"",""1319""
","
","
","""event"",""trial"",""time""
""fullscreenenter"",""1"",""1319""
","
","","","684.6999999955297","","","12","10976","5108","b","elianto","#f73b6a7A"," "," ","1","0","[1538.8999999985099]","1","2","","","10976","36","3","3","lose","go","0"
"pit-trial","158","1043303","0.0-41.0","battery-v0.2","","""event"",""trial"",""time""
""fullscreenenter"",""1"",""1319""
","
","
","""event"",""trial"",""time""
""fullscreenenter"",""1"",""1319""
","
","","","-1","","","12","10976","5108","t","elianto","#f73b6a7A","-1","-1","1","-10","[]","0","2","","","10976","37","2","4","lose","no-go","1"
"pit-trial","159","1046851","0.0-42.0","battery-v0.2","","""event"",""trial"",""time""
""fullscreenenter"",""1"",""1319""
","
","
","""event"",""trial"",""time""
""fullscreenenter"",""1"",""1319""
","
","","","683.2000000029802","","","12","10976","5108","b","elianto","#f73b6a7A"," "," ","1","0","[1541.7000000029802]","1","2","","","10976","38","3","3","lose","go","0"
"pit-trial","160","1050461","0.0-43.0","battery-v0.2","","""event"",""trial"",""time""
""fullscreenenter"",""1"",""1319""
","
","
","""event"",""trial"",""time""
""fullscreenenter"",""1"",""1319""
","
","","","749.2000000029802","","","12","10976","5108","f","elianto","#3366ff99"," "," ","1","+10","[1605]","1","2","","","10976","39","1","1","win","go","0"
"pit-trial","161","1054990","0.0-44.0","battery-v0.2","","""event"",""trial"",""time""
""fullscreenenter"",""1"",""1319""
","
","
","""event"",""trial"",""time""
""fullscreenenter"",""1"",""1319""
","
","","","1665.7000000029802","","","12","10976","5108","n","elianto","#f73b6a7A","-1"," ","0","-10","[2518]","1","2","","","10976","40","0","4","lose","no-go","0"
"pit-trial","162","1059851","0.0-45.0","battery-v0.2","","""event"",""trial"",""time""
""fullscreenenter"",""1"",""1319""
","
","
","""event"",""trial"",""time""
""fullscreenenter"",""1"",""1319""
","
","","","-1","","","12","10976","5108","b","elianto","#f73b6a7A"," ","-1","0","0","[]","0","2","","","10976","41","3","3","lose","go","1"
"pit-trial","163","1064046","0.0-46.0","battery-v0.2","","""event"",""trial"",""time""
""fullscreenenter"",""1"",""1319""
","
","
","""event"",""trial"",""time""
""fullscreenenter"",""1"",""1319""
","
","","","1330.8999999985099","","","12","10976","5108","t","elianto","#f73b6a7A","-1"," ","0","-10","[2184.10000000149]","1","2","","","10976","42","2","4","lose","no-go","0"
"pit-trial","164","1068910","0.0-47.0","battery-v0.2","","""event"",""trial"",""time""
""fullscreenenter"",""1"",""1319""
","
","
","""event"",""trial"",""time""
""fullscreenenter"",""1"",""1319""
","
","","","-1","","","12","10976","5108","n","elianto","#f73b6a7A","-1","-1","1","0","[]","0","2","","","10976","43","0","4","lose","no-go","0"
"pit-trial","165","1072392","0.0-48.0","battery-v0.2","","""event"",""trial"",""time""
""fullscreenenter"",""1"",""1319""
","
","
","""event"",""trial"",""time""
""fullscreenenter"",""1"",""1319""
","
","","","620.3999999985099","","","12","10976","5108","f","elianto","#3366ff99"," "," ","1","+10","[1471.6000000014901]","1","2","","","10976","44","1","1","win","go","0"
"pit-trial","166","1077264","0.0-49.0","battery-v0.2","","""event"",""trial"",""time""
""fullscreenenter"",""1"",""1319""
","
","
","""event"",""trial"",""time""
""fullscreenenter"",""1"",""1319""
","
","","","-1","","","12","10976","5108","n","elianto","#f73b6a7A","-1","-1","1","0","[]","0","2","","","10976","45","0","4","lose","no-go","0"
"pit-trial","167","1082135","0.0-50.0","battery-v0.2","","""event"",""trial"",""time""
""fullscreenenter"",""1"",""1319""
","
","
","""event"",""trial"",""time""
""fullscreenenter"",""1"",""1319""
","
","","","-1","","","12","10976","5108","t","elianto","#f73b6a7A","-1","-1","1","0","[]","0","2","","","10976","46","2","4","lose","no-go","0"
"pit-trial","168","1086424","0.0-51.0","battery-v0.2","","""event"",""trial"",""time""
""fullscreenenter"",""1"",""1319""
","
","
","""event"",""trial"",""time""
""fullscreenenter"",""1"",""1319""
","
","","","1424.8999999985099","","","12","10976","5108","c","elianto","#3366ff99","-1"," ","0","0","[2277.39999999851]","1","2","","","10976","47","4","2","win","no-go","0"
"pit-trial","169","1091295","0.0-52.0","battery-v0.2","","""event"",""trial"",""time""
""fullscreenenter"",""1"",""1319""
","
","
","""event"",""trial"",""time""
""fullscreenenter"",""1"",""1319""
","
","","","-1","","","12","10976","5108","b","elianto","#f73b6a7A"," ","-1","0","-10","[]","0","2","","","10976","48","3","3","lose","go","0"
"pit-trial","170","1096157","0.0-53.0","battery-v0.2","","""event"",""trial"",""time""
""fullscreenenter"",""1"",""1319""
","
","
","""event"",""trial"",""time""
""fullscreenenter"",""1"",""1319""
","
","","","-1","","","12","10976","5108","n","elianto","#f73b6a7A","-1","-1","1","-10","[]","0","2","","","10976","49","0","4","lose","no-go","1"
"pit-trial","171","1100159","0.0-54.0","battery-v0.2","","""event"",""trial"",""time""
""fullscreenenter"",""1"",""1319""
","
","
","""event"",""trial"",""time""
""fullscreenenter"",""1"",""1319""
","
","","","1138.1999999955297","","","12","10976","5108","f","elianto","#3366ff99"," "," ","1","+10","[1991.5999999940395]","1","2","","","10976","50","1","1","win","go","0"
"pit-trial","172","1105024","0.0-55.0","battery-v0.2","","""event"",""trial"",""time""
""fullscreenenter"",""1"",""1319""
","
","
","""event"",""trial"",""time""
""fullscreenenter"",""1"",""1319""
","
","","","-1","","","12","10976","5108","b","elianto","#f73b6a7A"," ","-1","0","-10","[]","0","2","","","10976","51","3","3","lose","go","0"
"pit-trial","173","1109895","0.0-56.0","battery-v0.2","","""event"",""trial"",""time""
""fullscreenenter"",""1"",""1319""
","
","
","""event"",""trial"",""time""
""fullscreenenter"",""1"",""1319""
","
","","","-1","","","12","10976","5108","c","elianto","#3366ff99","-1","-1","1","+10","[]","0","2","","","10976","52","4","2","win","no-go","0"
"pit-trial","174","1113737","0.0-57.0","battery-v0.2","","""event"",""trial"",""time""
""fullscreenenter"",""1"",""1319""
","
","
","""event"",""trial"",""time""
""fullscreenenter"",""1"",""1319""
","
","","","981.1000000014901","","","12","10976","5108","f","elianto","#3366ff99"," "," ","1","0","[1833.1000000014901]","1","2","","","10976","53","1","1","win","go","1"
"pit-trial","175","1118608","0.0-58.0","battery-v0.2","","""event"",""trial"",""time""
""fullscreenenter"",""1"",""1319""
","
","
","""event"",""trial"",""time""
""fullscreenenter"",""1"",""1319""
","
","","","-1","","","12","10976","5108","t","elianto","#f73b6a7A","-1","-1","1","0","[]","0","2","","","10976","54","2","4","lose","no-go","0"
"pit-trial","176","1123472","0.0-59.0","battery-v0.2","","""event"",""trial"",""time""
""fullscreenenter"",""1"",""1319""
","
","
","""event"",""trial"",""time""
""fullscreenenter"",""1"",""1319""
","
","","","-1","","","12","10976","5108","n","elianto","#f73b6a7A","-1","-1","1","0","[]","0","2","","","10976","55","0","4","lose","no-go","0"
"pit-trial","177","1128333","0.0-60.0","battery-v0.2","","""event"",""trial"",""time""
""fullscreenenter"",""1"",""1319""
","
","
","""event"",""trial"",""time""
""fullscreenenter"",""1"",""1319""
","
","","","-1","","","12","10976","5108","c","elianto","#3366ff99","-1","-1","1","+10","[]","0","2","","","10976","56","4","2","win","no-go","0"
"pit-trial","178","1132694","0.0-61.0","battery-v0.2","","""event"",""trial"",""time""
""fullscreenenter"",""1"",""1319""
","
","
","""event"",""trial"",""time""
""fullscreenenter"",""1"",""1319""
","
","","","1496.9000000059605","","","12","10976","5108","f","elianto","#3366ff99"," "," ","1","+10","[2350.60000000149]","1","2","","","10976","57","1","1","win","go","0"
"pit-trial","179","1137562","0.0-62.0","battery-v0.2","","""event"",""trial"",""time""
""fullscreenenter"",""1"",""1319""
","
","
","""event"",""trial"",""time""
""fullscreenenter"",""1"",""1319""
","
","","","-1","","","12","10976","5108","c","elianto","#3366ff99","-1","-1","1","0","[]","0","2","","","10976","58","4","2","win","no-go","1"
"pit-trial","180","1142432","0.0-63.0","battery-v0.2","","""event"",""trial"",""time""
""fullscreenenter"",""1"",""1319""
","
","
","""event"",""trial"",""time""
""fullscreenenter"",""1"",""1319""
","
","","","-1","","","12","10976","5108","n","elianto","#f73b6a7A","-1","-1","1","-10","[]","0","2","","","10976","59","0","4","lose","no-go","1"
"pit-trial","181","1145938","0.0-64.0","battery-v0.2","","""event"",""trial"",""time""
""fullscreenenter"",""1"",""1319""
","
","
","""event"",""trial"",""time""
""fullscreenenter"",""1"",""1319""
","
","","","641","","","12","10976","5108","b","elianto","#f73b6a7A"," "," ","1","0","[1493]","1","2","","","10976","60","3","3","lose","go","0"
"pit-trial","182","1149590","0.0-65.0","battery-v0.2","","""event"",""trial"",""time""
""fullscreenenter"",""1"",""1319""
","
","
","""event"",""trial"",""time""
""fullscreenenter"",""1"",""1319""
","
","","","787.3000000044703","","","12","10976","5108","b","elianto","#f73b6a7A"," "," ","1","0","[1642.7999999970198]","1","2","","","10976","61","3","3","lose","go","0"
"pit-trial","183","1154455","0.0-66.0","battery-v0.2","","""event"",""trial"",""time""
""fullscreenenter"",""1"",""1319""
","
","
","""event"",""trial"",""time""
""fullscreenenter"",""1"",""1319""
","
","","","-1","","","12","10976","5108","t","elianto","#f73b6a7A","-1","-1","1","-10","[]","0","2","","","10976","62","2","4","lose","no-go","1"
"pit-trial","184","1159320","0.0-67.0","battery-v0.2","","""event"",""trial"",""time""
""fullscreenenter"",""1"",""1319""
","
","
","""event"",""trial"",""time""
""fullscreenenter"",""1"",""1319""
","
","","","-1","","","12","10976","5108","c","elianto","#3366ff99","-1","-1","1","0","[]","0","2","","","10976","63","4","2","win","no-go","1"
"pit-trial","185","1163023","0.0-68.0","battery-v0.2","","""event"",""trial"",""time""
""fullscreenenter"",""1"",""1319""
","
","
","""event"",""trial"",""time""
""fullscreenenter"",""1"",""1319""
","
","","","840.3999999985099","","","12","10976","5108","f","elianto","#3366ff99"," "," ","1","+10","[1695.1999999955297]","1","2","","","10976","64","1","1","win","go","0"
"pit-trial","186","1166990","0.0-69.0","battery-v0.2","","""event"",""trial"",""time""
""fullscreenenter"",""1"",""1319""
","
","
","""event"",""trial"",""time""
""fullscreenenter"",""1"",""1319""
","
","","","1108.4000000059605","","","12","10976","5108","f","elianto","#3366ff99"," "," ","1","+10","[1962.3000000044703]","1","2","","","10976","65","1","1","win","go","0"
"pit-trial","187","1171854","0.0-70.0","battery-v0.2","","""event"",""trial"",""time""
""fullscreenenter"",""1"",""1319""
","
","
","""event"",""trial"",""time""
""fullscreenenter"",""1"",""1319""
","
","","","-1","","","12","10976","5108","t","elianto","#f73b6a7A","-1","-1","1","-10","[]","0","2","","","10976","66","2","4","lose","no-go","1"
"pit-trial","188","1176718","0.0-71.0","battery-v0.2","","""event"",""trial"",""time""
""fullscreenenter"",""1"",""1319""
","
","
","""event"",""trial"",""time""
""fullscreenenter"",""1"",""1319""
","
","","","-1","","","12","10976","5108","b","elianto","#f73b6a7A"," ","-1","0","-10","[3020.2000000029802]","1","2","","","10976","67","3","3","lose","go","0"
"pit-trial","189","1181582","0.0-72.0","battery-v0.2","","""event"",""trial"",""time""
""fullscreenenter"",""1"",""1319""
","
","
","""event"",""trial"",""time""
""fullscreenenter"",""1"",""1319""
","
","","","-1","","","12","10976","5108","c","elianto","#3366ff99","-1","-1","1","+10","[]","0","2","","","10976","68","4","2","win","no-go","0"
"pit-trial","190","1185715","0.0-73.0","battery-v0.2","","""event"",""trial"",""time""
""fullscreenenter"",""1"",""1319""
","
","
","""event"",""trial"",""time""
""fullscreenenter"",""1"",""1319""
","
","","","1269.7999999970198","","","12","10976","5108","z","elianto","#3366ff99"," "," ","1","+10","[2123.89999999851]","1","2","","","10976","69","5","1","win","go","0"
"pit-trial","191","1190583","0.0-74.0","battery-v0.2","","""event"",""trial"",""time""
""fullscreenenter"",""1"",""1319""
","
","
","""event"",""trial"",""time""
""fullscreenenter"",""1"",""1319""
","
","","","-1","","","12","10976","5108","c","elianto","#3366ff99","-1","-1","1","+10","[]","0","2","","","10976","70","4","2","win","no-go","0"
"pit-trial","192","1194591","0.0-75.0","battery-v0.2","","""event"",""trial"",""time""
""fullscreenenter"",""1"",""1319""
","
","
","""event"",""trial"",""time""
""fullscreenenter"",""1"",""1319""
","
","","","1148.5","","","12","10976","5108","f","elianto","#3366ff99"," "," ","1","+10","[1999.9000000059605]","1","2","","","10976","71","1","1","win","go","0"
"pit-trial","193","1198191","0.0-76.0","battery-v0.2","","""event"",""trial"",""time""
""fullscreenenter"",""1"",""1319""
","
","
","""event"",""trial"",""time""
""fullscreenenter"",""1"",""1319""
","
","","","739.2999999970198","","","12","10976","5108","b","elianto","#f73b6a7A"," "," ","1","0","[1591]","1","2","","","10976","72","3","3","lose","go","0"
"pit-trial","194","1203056","0.0-77.0","battery-v0.2","","""event"",""trial"",""time""
""fullscreenenter"",""1"",""1319""
","
","
","""event"",""trial"",""time""
""fullscreenenter"",""1"",""1319""
","
","","","-1","","","12","10976","5108","c","elianto","#3366ff99","-1","-1","1","+10","[]","0","2","","","10976","73","4","2","win","no-go","0"
"pit-trial","195","1207119","0.0-78.0","battery-v0.2","","""event"",""trial"",""time""
""fullscreenenter"",""1"",""1319""
","
","
","""event"",""trial"",""time""
""fullscreenenter"",""1"",""1319""
","
","","","1205.6000000014901","","","12","10976","5108","f","elianto","#3366ff99"," "," ","1","+10","[2059.39999999851]","1","2","","","10976","74","1","1","win","go","0"
"pit-trial","196","1211363","0.0-79.0","battery-v0.2","","""event"",""trial"",""time""
""fullscreenenter"",""1"",""1319""
","
","
","""event"",""trial"",""time""
""fullscreenenter"",""1"",""1319""
","
","","","1382.3000000044703","","","12","10976","5108","z","elianto","#3366ff99"," "," ","1","+10","[2236.5]","1","2","","","10976","75","5","1","win","go","0"
"pit-trial","197","1214944","0.0-80.0","battery-v0.2","","""event"",""trial"",""time""
""fullscreenenter"",""1"",""1319""
","
","
","""event"",""trial"",""time""
""fullscreenenter"",""1"",""1319""
","
","","","717.8999999985099","","","12","10976","5108","b","elianto","#f73b6a7A"," "," ","1","0","[1571.2000000029802]","1","2","","","10976","76","3","3","lose","go","0"
"pit-trial","198","1218578","0.0-81.0","battery-v0.2","","""event"",""trial"",""time""
""fullscreenenter"",""1"",""1319""
","
","
","""event"",""trial"",""time""
""fullscreenenter"",""1"",""1319""
","
","","","769.7000000029802","","","12","10976","5108","b","elianto","#f73b6a7A"," "," ","1","0","[1622.7000000029802]","1","2","","","10976","77","3","3","lose","go","0"
"pit-trial","199","1223176","0.0-82.0","battery-v0.2","","""event"",""trial"",""time""
""fullscreenenter"",""1"",""1319""
","
","
","""event"",""trial"",""time""
""fullscreenenter"",""1"",""1319""
","
","","","1738.9000000059605","","","12","10976","5108","c","elianto","#3366ff99","-1"," ","0","0","[2590.8000000044703]","1","2","","","10976","78","4","2","win","no-go","0"
"pit-trial","200","1227076","0.0-83.0","battery-v0.2","","""event"",""trial"",""time""
""fullscreenenter"",""1"",""1319""
","
","
","""event"",""trial"",""time""
""fullscreenenter"",""1"",""1319""
","
","","","1034.3000000044703","","","12","10976","5108","z","elianto","#3366ff99"," "," ","1","+10","[1885.2000000029802]","1","2","","","10976","79","5","1","win","go","0"
"pit-trial","201","1231943","0.0-84.0","battery-v0.2","","""event"",""trial"",""time""
""fullscreenenter"",""1"",""1319""
","
","
","""event"",""trial"",""time""
""fullscreenenter"",""1"",""1319""
","
","","","-1","","","12","10976","5108","h","elianto","#f73b6a7A","-1","-1","1","0","[]","0","2","","","10976","80","6","4","lose","no-go","0"
"pit-trial","202","1236055","0.0-85.0","battery-v0.2","","""event"",""trial"",""time""
""fullscreenenter"",""1"",""1319""
","
","
","""event"",""trial"",""time""
""fullscreenenter"",""1"",""1319""
","
","","","1251.2000000029802","","","12","10976","5108","z","elianto","#3366ff99"," "," ","1","+10","[2107.5]","1","2","","","10976","81","5","1","win","go","0"
"pit-trial","203","1240922","0.0-86.0","battery-v0.2","","""event"",""trial"",""time""
""fullscreenenter"",""1"",""1319""
","
","
","""event"",""trial"",""time""
""fullscreenenter"",""1"",""1319""
","
","","","-1","","","12","10976","5108","h","elianto","#f73b6a7A","-1","-1","1","0","[]","0","2","","","10976","82","6","4","lose","no-go","0"
"pit-trial","204","1245271","0.0-87.0","battery-v0.2","","""event"",""trial"",""time""
""fullscreenenter"",""1"",""1319""
","
","
","""event"",""trial"",""time""
""fullscreenenter"",""1"",""1319""
","
","","","1490.1000000014901","","","12","10976","5108","y","elianto","#f73b6a7A"," "," ","1","0","[2342.2000000029802]","1","2","","","10976","83","7","3","lose","go","0"
"pit-trial","205","1250140","0.0-88.0","battery-v0.2","","""event"",""trial"",""time""
""fullscreenenter"",""1"",""1319""
","
","
","""event"",""trial"",""time""
""fullscreenenter"",""1"",""1319""
","
","","","-1","","","12","10976","5108","c","elianto","#3366ff99","-1","-1","1","+10","[]","0","2","","","10976","84","4","2","win","no-go","0"
"pit-trial","206","1254257","0.0-89.0","battery-v0.2","","""event"",""trial"",""time""
""fullscreenenter"",""1"",""1319""
","
","
","""event"",""trial"",""time""
""fullscreenenter"",""1"",""1319""
","
","","","1262.3000000044703","","","12","10976","5108","z","elianto","#3366ff99"," "," ","1","0","[2113.3000000044703]","1","2","","","10976","85","5","1","win","go","1"
"pit-trial","207","1259121","0.0-90.0","battery-v0.2","","""event"",""trial"",""time""
""fullscreenenter"",""1"",""1319""
","
","
","""event"",""trial"",""time""
""fullscreenenter"",""1"",""1319""
","
","","","-1","","","12","10976","5108","h","elianto","#f73b6a7A","-1","-1","1","-10","[]","0","2","","","10976","86","6","4","lose","no-go","1"
"pit-trial","208","1262668","0.0-91.0","battery-v0.2","","""event"",""trial"",""time""
""fullscreenenter"",""1"",""1319""
","
","
","""event"",""trial"",""time""
""fullscreenenter"",""1"",""1319""
","
","","","681.8000000044703","","","12","10976","5108","y","elianto","#f73b6a7A"," "," ","1","0","[1535.6000000014901]","1","2","","","10976","87","7","3","lose","go","0"
"pit-trial","209","1267539","0.0-92.0","battery-v0.2","","""event"",""trial"",""time""
""fullscreenenter"",""1"",""1319""
","
","
","""event"",""trial"",""time""
""fullscreenenter"",""1"",""1319""
","
","","","-1","","","12","10976","5108","c","elianto","#3366ff99","-1","-1","1","0","[]","0","2","","","10976","88","4","2","win","no-go","1"
"pit-trial","210","1272404","0.0-93.0","battery-v0.2","","""event"",""trial"",""time""
""fullscreenenter"",""1"",""1319""
","
","
","""event"",""trial"",""time""
""fullscreenenter"",""1"",""1319""
","
","","","-1","","","12","10976","5108","h","elianto","#f73b6a7A","-1","-1","1","0","[]","0","2","","","10976","89","6","4","lose","no-go","0"
"pit-trial","211","1276258","0.0-94.0","battery-v0.2","","""event"",""trial"",""time""
""fullscreenenter"",""1"",""1319""
","
","
","""event"",""trial"",""time""
""fullscreenenter"",""1"",""1319""
","
","","","992","","","12","10976","5108","z","elianto","#3366ff99"," "," ","1","+10","[1844.1999999955297]","1","2","","","10976","90","5","1","win","go","0"
"pit-trial","212","1281121","0.0-95.0","battery-v0.2","","""event"",""trial"",""time""
""fullscreenenter"",""1"",""1319""
","
","
","""event"",""trial"",""time""
""fullscreenenter"",""1"",""1319""
","
","","","-1","","","12","10976","5108","c","elianto","#3366ff99","-1","-1","1","+10","[]","0","2","","","10976","91","4","2","win","no-go","0"
"pit-trial","213","1284785","0.0-96.0","battery-v0.2","","""event"",""trial"",""time""
""fullscreenenter"",""1"",""1319""
","
","
","""event"",""trial"",""time""
""fullscreenenter"",""1"",""1319""
","
","","","798.9000000059605","","","12","10976","5108","y","elianto","#f73b6a7A"," "," ","1","0","[1654]","1","2","","","10976","92","7","3","lose","go","0"
"pit-trial","214","1289649","0.0-97.0","battery-v0.2","","""event"",""trial"",""time""
""fullscreenenter"",""1"",""1319""
","
","
","""event"",""trial"",""time""
""fullscreenenter"",""1"",""1319""
","
","","","-1","","","12","10976","5108","h","elianto","#f73b6a7A","-1","-1","1","-10","[]","0","2","","","10976","93","6","4","lose","no-go","1"
"pit-trial","215","1293828","0.0-98.0","battery-v0.2","","""event"",""trial"",""time""
""fullscreenenter"",""1"",""1319""
","
","
","""event"",""trial"",""time""
""fullscreenenter"",""1"",""1319""
","
","","","1315.5","","","12","10976","5108","z","elianto","#3366ff99"," "," ","1","+10","[2170.5999999940395]","1","2","","","10976","94","5","1","win","go","0"
"pit-trial","216","1297563","0.0-99.0","battery-v0.2","","""event"",""trial"",""time""
""fullscreenenter"",""1"",""1319""
","
","
","""event"",""trial"",""time""
""fullscreenenter"",""1"",""1319""
","
","","","873.7000000029802","","","12","10976","5108","y","elianto","#f73b6a7A"," "," ","1","-10","[1727.4000000059605]","1","2","","","10976","95","7","3","lose","go","1"
"pit-trial","217","1301603","0.0-100.0","battery-v0.2","","""event"",""trial"",""time""
""fullscreenenter"",""1"",""1319""
","
","
","""event"",""trial"",""time""
""fullscreenenter"",""1"",""1319""
","
","","","1178.6999999955297","","","12","10976","5108","r","elianto","#3366ff99","-1"," ","0","0","[2031.1000000014901]","1","2","","","10976","96","8","2","win","no-go","0"
"pit-trial","218","1305617","0.0-101.0","battery-v0.2","","""event"",""trial"",""time""
""fullscreenenter"",""1"",""1319""
","
","
","""event"",""trial"",""time""
""fullscreenenter"",""1"",""1319""
","
","","","1153.7000000029802","","","12","10976","5108","z","elianto","#3366ff99"," "," ","1","+10","[2006.8000000044703]","1","2","","","10976","97","5","1","win","go","0"
"pit-trial","219","1310484","0.0-102.0","battery-v0.2","","""event"",""trial"",""time""
""fullscreenenter"",""1"",""1319""
","
","
","""event"",""trial"",""time""
""fullscreenenter"",""1"",""1319""
","
","","","-1","","","12","10976","5108","r","elianto","#3366ff99","-1","-1","1","+10","[]","0","2","","","10976","98","8","2","win","no-go","0"
"pit-trial","220","1314514","0.0-103.0","battery-v0.2","","""event"",""trial"",""time""
""fullscreenenter"",""1"",""1319""
","
","
","""event"",""trial"",""time""
""fullscreenenter"",""1"",""1319""
","
","","","1172.3000000044703","","","12","10976","5108","y","elianto","#f73b6a7A"," "," ","1","0","[2025]","1","2","","","10976","99","7","3","lose","go","0"
"pit-trial","221","1319379","0.0-104.0","battery-v0.2","","""event"",""trial"",""time""
""fullscreenenter"",""1"",""1319""
","
","
","""event"",""trial"",""time""
""fullscreenenter"",""1"",""1319""
","
","","","-1","","","12","10976","5108","h","elianto","#f73b6a7A","-1","-1","1","0","[]","0","2","","","10976","100","6","4","lose","no-go","0"
"pit-trial","222","1322908","0.0-105.0","battery-v0.2","","""event"",""trial"",""time""
""fullscreenenter"",""1"",""1319""
","
","
","""event"",""trial"",""time""
""fullscreenenter"",""1"",""1319""
","
","","","669.5","","","12","10976","5108","z","elianto","#3366ff99"," "," ","1","+10","[1523.0999999940395]","1","2","","","10976","101","5","1","win","go","0"
"pit-trial","223","1326862","0.0-106.0","battery-v0.2","","""event"",""trial"",""time""
""fullscreenenter"",""1"",""1319""
","
","
","""event"",""trial"",""time""
""fullscreenenter"",""1"",""1319""
","
","","","1090","","","12","10976","5108","m","elianto","#3366ff99","-1"," ","0","+10","[1942.5]","1","2","","","10976","102","9","2","win","no-go","1"
"pit-trial","224","1331726","0.0-107.0","battery-v0.2","","""event"",""trial"",""time""
""fullscreenenter"",""1"",""1319""
","
","
","""event"",""trial"",""time""
""fullscreenenter"",""1"",""1319""
","
","","","-1","","","12","10976","5108","h","elianto","#f73b6a7A","-1","-1","1","0","[]","0","2","","","10976","103","6","4","lose","no-go","0"
"pit-trial","225","1335426","0.0-108.0","battery-v0.2","","""event"",""trial"",""time""
""fullscreenenter"",""1"",""1319""
","
","
","""event"",""trial"",""time""
""fullscreenenter"",""1"",""1319""
","
","","","838","","","12","10976","5108","r","elianto","#3366ff99","-1"," ","0","0","[1696.8999999985099]","1","2","","","10976","104","8","2","win","no-go","0"
"pit-trial","226","1340290","0.0-109.0","battery-v0.2","","""event"",""trial"",""time""
""fullscreenenter"",""1"",""1319""
","
","
","""event"",""trial"",""time""
""fullscreenenter"",""1"",""1319""
","
","","","-1","","","12","10976","5108","r","elianto","#3366ff99","-1","-1","1","0","[]","0","2","","","10976","105","8","2","win","no-go","1"
"pit-trial","227","1344114","0.0-110.0","battery-v0.2","","""event"",""trial"",""time""
""fullscreenenter"",""1"",""1319""
","
","
","""event"",""trial"",""time""
""fullscreenenter"",""1"",""1319""
","
","","","967.8999999985099","","","12","10976","5108","z","elianto","#3366ff99"," "," ","1","+10","[1817.9000000059605]","1","2","","","10976","106","5","1","win","go","0"
"pit-trial","228","1348979","0.0-111.0","battery-v0.2","","""event"",""trial"",""time""
""fullscreenenter"",""1"",""1319""
","
","
","""event"",""trial"",""time""
""fullscreenenter"",""1"",""1319""
","
","","","-1","","","12","10976","5108","h","elianto","#f73b6a7A","-1","-1","1","0","[]","0","2","","","10976","107","6","4","lose","no-go","0"
"pit-trial","229","1353843","0.0-112.0","battery-v0.2","","""event"",""trial"",""time""
""fullscreenenter"",""1"",""1319""
","
","
","""event"",""trial"",""time""
""fullscreenenter"",""1"",""1319""
","
","","","-1","","","12","10976","5108","m","elianto","#3366ff99","-1","-1","1","0","[4414.29999999702]","1","2","","","10976","108","9","2","win","no-go","1"
"pit-trial","230","1358709","0.0-113.0","battery-v0.2","","""event"",""trial"",""time""
""fullscreenenter"",""1"",""1319""
","
","
","""event"",""trial"",""time""
""fullscreenenter"",""1"",""1319""
","
","","","-1","","","12","10976","5108","r","elianto","#3366ff99","-1","-1","1","+10","[]","0","2","","","10976","109","8","2","win","no-go","0"
"pit-trial","231","1362611","0.0-114.0","battery-v0.2","","""event"",""trial"",""time""
""fullscreenenter"",""1"",""1319""
","
","
","""event"",""trial"",""time""
""fullscreenenter"",""1"",""1319""
","
","","","1042.3000000044703","","","12","10976","5108","m","elianto","#3366ff99","-1"," ","0","0","[1895.1000000014901]","1","2","","","10976","110","9","2","win","no-go","0"
"pit-trial","232","1366511","0.0-115.0","battery-v0.2","","""event"",""trial"",""time""
""fullscreenenter"",""1"",""1319""
","
","
","""event"",""trial"",""time""
""fullscreenenter"",""1"",""1319""
","
","","","1035.3000000044703","","","12","10976","5108","z","elianto","#3366ff99"," "," ","1","0","[1885.9000000059605]","1","2","","","10976","111","5","1","win","go","1"
"pit-trial","233","1371375","0.0-116.0","battery-v0.2","","""event"",""trial"",""time""
""fullscreenenter"",""1"",""1319""
","
","
","""event"",""trial"",""time""
""fullscreenenter"",""1"",""1319""
","
","","","-1","","","12","10976","5108","h","elianto","#f73b6a7A","-1","-1","1","-10","[]","0","2","","","10976","112","6","4","lose","no-go","1"
"pit-trial","234","1375155","0.0-117.0","battery-v0.2","","""event"",""trial"",""time""
""fullscreenenter"",""1"",""1319""
","
","
","""event"",""trial"",""time""
""fullscreenenter"",""1"",""1319""
","
","","","916.8000000044703","","","12","10976","5108","z","elianto","#3366ff99"," "," ","1","+10","[1772.8000000044703]","1","2","","","10976","113","5","1","win","go","0"
"pit-trial","235","1379555","0.0-118.0","battery-v0.2","","""event"",""trial"",""time""
""fullscreenenter"",""1"",""1319""
","
","
","""event"",""trial"",""time""
""fullscreenenter"",""1"",""1319""
","
","","","1539.5","","","12","10976","5108","y","elianto","#f73b6a7A"," "," ","1","0","[2391.10000000149]","1","2","","","10976","114","7","3","lose","go","0"
"pit-trial","236","1383496","0.0-119.0","battery-v0.2","","""event"",""trial"",""time""
""fullscreenenter"",""1"",""1319""
","
","
","""event"",""trial"",""time""
""fullscreenenter"",""1"",""1319""
","
","","","1072.7999999970198","","","12","10976","5108","m","elianto","#3366ff99","-1"," ","0","0","[1929.2000000029802]","1","2","","","10976","115","9","2","win","no-go","0"
"pit-trial","237","1388365","0.0-120.0","battery-v0.2","","""event"",""trial"",""time""
""fullscreenenter"",""1"",""1319""
","
","
","""event"",""trial"",""time""
""fullscreenenter"",""1"",""1319""
","
","","","-1","","","12","10976","5108","r","elianto","#3366ff99","-1","-1","1","+10","[]","0","2","","","10976","116","8","2","win","no-go","0"
"pit-trial","238","1393231","0.0-121.0","battery-v0.2","","""event"",""trial"",""time""
""fullscreenenter"",""1"",""1319""
","
","
","""event"",""trial"",""time""
""fullscreenenter"",""1"",""1319""
","
","","","-1","","","12","10976","5108","h","elianto","#f73b6a7A","-1","-1","1","0","[]","0","2","","","10976","117","6","4","lose","no-go","0"
"pit-trial","239","1398093","0.0-122.0","battery-v0.2","","""event"",""trial"",""time""
""fullscreenenter"",""1"",""1319""
","
","
","""event"",""trial"",""time""
""fullscreenenter"",""1"",""1319""
","
","","","-1","","","12","10976","5108","r","elianto","#3366ff99","-1","-1","1","0","[]","0","2","","","10976","118","8","2","win","no-go","1"
"pit-trial","240","1402572","0.0-123.0","battery-v0.2","","""event"",""trial"",""time""
""fullscreenenter"",""1"",""1319""
","
","
","""event"",""trial"",""time""
""fullscreenenter"",""1"",""1319""
","
","","","1620.2000000029802","","","12","10976","5108","z","elianto","#3366ff99"," "," ","1","+10","[2472.2999999970198]","1","2","","","10976","119","5","1","win","go","0"
"pit-trial","241","1407437","0.0-124.0","battery-v0.2","","""event"",""trial"",""time""
""fullscreenenter"",""1"",""1319""
","
","
","""event"",""trial"",""time""
""fullscreenenter"",""1"",""1319""
","
","","","-1","","","12","10976","5108","m","elianto","#3366ff99","-1","-1","1","0","[]","0","2","","","10976","120","9","2","win","no-go","1"
"pit-trial","242","1412302","0.0-125.0","battery-v0.2","","""event"",""trial"",""time""
""fullscreenenter"",""1"",""1319""
","
","
","""event"",""trial"",""time""
""fullscreenenter"",""1"",""1319""
","
","","","-1","","","12","10976","5108","m","elianto","#3366ff99","-1","-1","1","+10","[]","0","2","","","10976","121","9","2","win","no-go","0"
"pit-trial","243","1417166","0.0-126.0","battery-v0.2","","""event"",""trial"",""time""
""fullscreenenter"",""1"",""1319""
","
","
","""event"",""trial"",""time""
""fullscreenenter"",""1"",""1319""
","
","","","-1","","","12","10976","5108","r","elianto","#3366ff99","-1","-1","1","+10","[]","0","2","","","10976","122","8","2","win","no-go","0"
"pit-trial","244","1420996","0.0-127.0","battery-v0.2","","""event"",""trial"",""time""
""fullscreenenter"",""1"",""1319""
","
","
","""event"",""trial"",""time""
""fullscreenenter"",""1"",""1319""
","
","","","972.7000000029802","","","12","10976","5108","y","elianto","#f73b6a7A"," "," ","1","-10","[1826.3000000044703]","1","2","","","10976","123","7","3","lose","go","1"
"pit-trial","245","1424765","0.0-128.0","battery-v0.2","","""event"",""trial"",""time""
""fullscreenenter"",""1"",""1319""
","
","
","""event"",""trial"",""time""
""fullscreenenter"",""1"",""1319""
","
","","","911.8000000044703","","","12","10976","5108","z","elianto","#3366ff99"," "," ","1","+10","[1765.5]","1","2","","","10976","124","5","1","win","go","0"
"pit-trial","246","1429631","0.0-129.0","battery-v0.2","","""event"",""trial"",""time""
""fullscreenenter"",""1"",""1319""
","
","
","""event"",""trial"",""time""
""fullscreenenter"",""1"",""1319""
","
","","","-1","","","12","10976","5108","m","elianto","#3366ff99","-1","-1","1","0","[3733.10000000149]","1","2","","","10976","125","9","2","win","no-go","1"
"pit-trial","247","1434496","0.0-130.0","battery-v0.2","","""event"",""trial"",""time""
""fullscreenenter"",""1"",""1319""
","
","
","""event"",""trial"",""time""
""fullscreenenter"",""1"",""1319""
","
","","","-1","","","12","10976","5108","h","elianto","#f73b6a7A","-1","-1","1","-10","[]","0","2","","","10976","126","6","4","lose","no-go","1"
"pit-trial","248","1439358","0.0-131.0","battery-v0.2","","""event"",""trial"",""time""
""fullscreenenter"",""1"",""1319""
","
","
","""event"",""trial"",""time""
""fullscreenenter"",""1"",""1319""
","
","","","-1","","","12","10976","5108","r","elianto","#3366ff99","-1","-1","1","+10","[]","0","2","","","10976","127","8","2","win","no-go","0"
"pit-trial","249","1442958","0.0-132.0","battery-v0.2","","""event"",""trial"",""time""
""fullscreenenter"",""1"",""1319""
","
","
","""event"",""trial"",""time""
""fullscreenenter"",""1"",""1319""
","
","","","741.6999999955297","","","12","10976","5108","y","elianto","#f73b6a7A"," "," ","1","0","[1595.1999999955297]","1","2","","","10976","128","7","3","lose","go","0"
"pit-trial","250","1447820","0.0-133.0","battery-v0.2","","""event"",""trial"",""time""
""fullscreenenter"",""1"",""1319""
","
","
","""event"",""trial"",""time""
""fullscreenenter"",""1"",""1319""
","
","","","-1","","","12","10976","5108","r","elianto","#3366ff99","-1","-1","1","+10","[]","0","2","","","10976","129","8","2","win","no-go","0"
"pit-trial","251","1451614","0.0-134.0","battery-v0.2","","""event"",""trial"",""time""
""fullscreenenter"",""1"",""1319""
","
","
","""event"",""trial"",""time""
""fullscreenenter"",""1"",""1319""
","
","","","928.7999999970198","","","12","10976","5108","y","elianto","#f73b6a7A"," "," ","1","0","[1783.9000000059605]","1","2","","","10976","130","7","3","lose","go","0"
"pit-trial","252","1456480","0.0-135.0","battery-v0.2","","""event"",""trial"",""time""
""fullscreenenter"",""1"",""1319""
","
","
","""event"",""trial"",""time""
""fullscreenenter"",""1"",""1319""
","
","","","-1","","","12","10976","5108","h","elianto","#f73b6a7A","-1","-1","1","0","[]","0","2","","","10976","131","6","4","lose","no-go","0"
"pit-trial","253","1460089","0.0-136.0","battery-v0.2","","""event"",""trial"",""time""
""fullscreenenter"",""1"",""1319""
","
","
","""event"",""trial"",""time""
""fullscreenenter"",""1"",""1319""
","
","","","742.7000000029802","","","12","10976","5108","m","elianto","#3366ff99","-1"," ","0","0","[1595.3999999985099]","1","2","","","10976","132","9","2","win","no-go","0"
"pit-trial","254","1464960","0.0-137.0","battery-v0.2","","""event"",""trial"",""time""
""fullscreenenter"",""1"",""1319""
","
","
","""event"",""trial"",""time""
""fullscreenenter"",""1"",""1319""
","
","","","-1","","","12","10976","5108","r","elianto","#3366ff99","-1","-1","1","+10","[]","0","2","","","10976","133","8","2","win","no-go","0"
"pit-trial","255","1469822","0.0-138.0","battery-v0.2","","""event"",""trial"",""time""
""fullscreenenter"",""1"",""1319""
","
","
","""event"",""trial"",""time""
""fullscreenenter"",""1"",""1319""
","
","","","-1","","","12","10976","5108","h","elianto","#f73b6a7A","-1","-1","1","0","[]","0","2","","","10976","134","6","4","lose","no-go","0"
"pit-trial","256","1473720","0.0-139.0","battery-v0.2","","""event"",""trial"",""time""
""fullscreenenter"",""1"",""1319""
","
","
","""event"",""trial"",""time""
""fullscreenenter"",""1"",""1319""
","
","","","1033.5999999940395","","","12","10976","5108","y","elianto","#f73b6a7A"," "," ","1","0","[1889]","1","2","","","10976","135","7","3","lose","go","0"
"pit-trial","257","1477487","0.0-140.0","battery-v0.2","","""event"",""trial"",""time""
""fullscreenenter"",""1"",""1319""
","
","
","""event"",""trial"",""time""
""fullscreenenter"",""1"",""1319""
","
","","","907","","","12","10976","5108","m","elianto","#3366ff99","-1"," ","0","0","[1759.6000000014901]","1","2","","","10976","136","9","2","win","no-go","0"
"pit-trial","258","1482352","0.0-141.0","battery-v0.2","","""event"",""trial"",""time""
""fullscreenenter"",""1"",""1319""
","
","
","""event"",""trial"",""time""
""fullscreenenter"",""1"",""1319""
","
","","","-1","","","12","10976","5108","r","elianto","#3366ff99","-1","-1","1","+10","[]","0","2","","","10976","137","8","2","win","no-go","0"
"pit-trial","259","1487217","0.0-142.0","battery-v0.2","","""event"",""trial"",""time""
""fullscreenenter"",""1"",""1319""
","
","
","""event"",""trial"",""time""
""fullscreenenter"",""1"",""1319""
","
","","","-1","","","12","10976","5108","h","elianto","#f73b6a7A","-1","-1","1","0","[]","0","2","","","10976","138","6","4","lose","no-go","0"
"pit-trial","260","1492082","0.0-143.0","battery-v0.2","","""event"",""trial"",""time""
""fullscreenenter"",""1"",""1319""
","
","
","""event"",""trial"",""time""
""fullscreenenter"",""1"",""1319""
","
","","","-1","","","12","10976","5108","y","elianto","#f73b6a7A"," ","-1","0","0","[]","0","2","","","10976","139","7","3","lose","go","1"
"pit-trial","261","1496945","0.0-144.0","battery-v0.2","","""event"",""trial"",""time""
""fullscreenenter"",""1"",""1319""
","
","
","""event"",""trial"",""time""
""fullscreenenter"",""1"",""1319""
","
","","","-1","","","12","10976","5108","m","elianto","#3366ff99","-1","-1","1","+10","[]","0","2","","","10976","140","9","2","win","no-go","0"
"pit-instructions","262","1520448","0.0-145.0","battery-v0.2","","""event"",""trial"",""time""
""fullscreenenter"",""1"",""1319""
","
","
","""event"",""trial"",""time""
""fullscreenenter"",""1"",""1319""
","
","","[{""page_index"":0,""viewing_time"":15400.29999999702},{""page_index"":1,""viewing_time"":8100.39999999851}]","23500.79999999702","","","","","","","","","","","","","","","","","","","","","","","",""
"pit-trial","263","1524650","0.0-146.0","battery-v0.2","","""event"",""trial"",""time""
""fullscreenenter"",""1"",""1319""
","
","
","""event"",""trial"",""time""
""fullscreenenter"",""1"",""1319""
","
","","","1337.9000000059605","","","12","10976","5108","j","elianto","#f73b6a7A"," "," ","1","0","[2190.2000000029802]","1","3","","","10976","141","0","3","lose","go","0"
"pit-trial","264","1528336","0.0-147.0","battery-v0.2","","""event"",""trial"",""time""
""fullscreenenter"",""1"",""1319""
","
","
","""event"",""trial"",""time""
""fullscreenenter"",""1"",""1319""
","
","","","828.3999999985099","","","12","10976","5108","w","elianto","#f73b6a7A","-1"," ","0","-10","[1679.7000000029802]","1","3","","","10976","142","3","4","lose","no-go","0"
"pit-trial","265","1532432","0.0-148.0","battery-v0.2","","""event"",""trial"",""time""
""fullscreenenter"",""1"",""1319""
","
","
","""event"",""trial"",""time""
""fullscreenenter"",""1"",""1319""
","
","","","1236.3000000044703","","","12","10976","5108","e","elianto","#f73b6a7A"," "," ","1","0","[2088.39999999851]","1","3","","","10976","143","2","3","lose","go","0"
"pit-trial","266","1536272","0.0-149.0","battery-v0.2","","""event"",""trial"",""time""
""fullscreenenter"",""1"",""1319""
","
","
","""event"",""trial"",""time""
""fullscreenenter"",""1"",""1319""
","
","","","978.2000000029802","","","12","10976","5108","d","elianto","#3366ff99","-1"," ","0","0","[1829.3999999985099]","1","3","","","10976","144","1","2","win","no-go","0"
"pit-trial","267","1541138","0.0-150.0","battery-v0.2","","""event"",""trial"",""time""
""fullscreenenter"",""1"",""1319""
","
","
","""event"",""trial"",""time""
""fullscreenenter"",""1"",""1319""
","
