"trial_type","trial_index","time_elapsed","internal_node_id","task_version","subject_id","interactions","blur_events","focus_events","fullscreenenter_events","fullscreenexit_events","success","view_history","rt","responses","num_errors","age","subject","participantId","rune","rune_set","hex","correct","choice","accuracy","outcome","keys","total_keys","block","practice","value","sub","trial","stimulus","robot","valence","action","sham"
"pavlovia","0","10","0.0-0.0","battery-v0.2","","""event"",""trial"",""time""
""fullscreenenter"",""1"",""4233""
","
","
","""event"",""trial"",""time""
""fullscreenenter"",""1"",""4233""
","
","","","","","","","","","","","","","","","","","","","","","","","","","","",""
"fullscreen","1","5225","0.0-1.0","battery-v0.2","","""event"",""trial"",""time""
""fullscreenenter"",""1"",""4233""
""blur"",""2"",""13269""
""focus"",""2"",""20253""
","""event"",""trial"",""time""
""blur"",""2"",""13269""
","""event"",""trial"",""time""
""focus"",""2"",""20253""
","""event"",""trial"",""time""
""fullscreenenter"",""1"",""4233""
","
","true","","","","","","","","","","","","","","","","","","","","","","","","","",""
"pit-instructions","2","20410","0.0-2.0-0.0","battery-v0.2","","""event"",""trial"",""time""
""fullscreenenter"",""1"",""4233""
""blur"",""2"",""13269""
""focus"",""2"",""20253""
""blur"",""3"",""27364""
""focus"",""3"",""48580""
","""event"",""trial"",""time""
""blur"",""2"",""13269""
""blur"",""3"",""27364""
","""event"",""trial"",""time""
""focus"",""2"",""20253""
""focus"",""3"",""48580""
","""event"",""trial"",""time""
""fullscreenenter"",""1"",""4233""
","
","","[{""page_index"":0,""viewing_time"":15182.5}]","15182.700000017881","","","","","","","","","","","","","","","","","","","","","","","",""
"pit-comprehension","3","48779","0.0-2.0-1.0-0.0","battery-v0.2","","""event"",""trial"",""time""
""fullscreenenter"",""1"",""4233""
""blur"",""2"",""13269""
""focus"",""2"",""20253""
""blur"",""3"",""27364""
""focus"",""3"",""48580""
","""event"",""trial"",""time""
""blur"",""2"",""13269""
""blur"",""3"",""27364""
","""event"",""trial"",""time""
""focus"",""2"",""20253""
""focus"",""3"",""48580""
","""event"",""trial"",""time""
""fullscreenenter"",""1"",""4233""
","
","","","28365.59999999404","[""shark""]","0","10","5780","22","","","","","","","","","","","","","","","","","","",""
"pit-instructions","4","50642","0.0-2.0-1.0-1.0","battery-v0.2","","""event"",""trial"",""time""
""fullscreenenter"",""1"",""4233""
""blur"",""2"",""13269""
""focus"",""2"",""20253""
""blur"",""3"",""27364""
""focus"",""3"",""48580""
","""event"",""trial"",""time""
""blur"",""2"",""13269""
""blur"",""3"",""27364""
","""event"",""trial"",""time""
""focus"",""2"",""20253""
""focus"",""3"",""48580""
","""event"",""trial"",""time""
""fullscreenenter"",""1"",""4233""
","
","","[{""page_index"":0,""viewing_time"":1853.5999999940395}]","1853.9000000059605","","","","","","","","","","","","","","","","","","","","","","","",""
"pit-comprehension","5","57955","0.0-2.0-2.0-0.0","battery-v0.2","","""event"",""trial"",""time""
""fullscreenenter"",""1"",""4233""
""blur"",""2"",""13269""
""focus"",""2"",""20253""
""blur"",""3"",""27364""
""focus"",""3"",""48580""
","""event"",""trial"",""time""
""blur"",""2"",""13269""
""blur"",""3"",""27364""
","""event"",""trial"",""time""
""focus"",""2"",""20253""
""focus"",""3"",""48580""
","""event"",""trial"",""time""
""fullscreenenter"",""1"",""4233""
","
","","","7310.199999988079","[""tiger""]","0","10","5780","22","","","","","","","","","","","","","","","","","","",""
"pit-instructions","6","60003","0.0-2.0-2.0-1.0","battery-v0.2","","""event"",""trial"",""time""
""fullscreenenter"",""1"",""4233""
""blur"",""2"",""13269""
""focus"",""2"",""20253""
""blur"",""3"",""27364""
""focus"",""3"",""48580""
","""event"",""trial"",""time""
""blur"",""2"",""13269""
""blur"",""3"",""27364""
","""event"",""trial"",""time""
""focus"",""2"",""20253""
""focus"",""3"",""48580""
","""event"",""trial"",""time""
""fullscreenenter"",""1"",""4233""
","
","","[{""page_index"":0,""viewing_time"":2042.5}]","2042.800000011921","","","","","","","","","","","","","","","","","","","","","","","",""
"pit-instructions","7","176274","0.0-2.0-3.0","battery-v0.2","","""event"",""trial"",""time""
""fullscreenenter"",""1"",""4233""
""blur"",""2"",""13269""
""focus"",""2"",""20253""
""blur"",""3"",""27364""
""focus"",""3"",""48580""
","""event"",""trial"",""time""
""blur"",""2"",""13269""
""blur"",""3"",""27364""
","""event"",""trial"",""time""
""focus"",""2"",""20253""
""focus"",""3"",""48580""
","""event"",""trial"",""time""
""fullscreenenter"",""1"",""4233""
","
","","[{""page_index"":0,""viewing_time"":11078},{""page_index"":1,""viewing_time"":7664.300000011921},{""page_index"":2,""viewing_time"":8143.899999976158},{""page_index"":3,""viewing_time"":10048.200000017881},{""page_index"":4,""viewing_time"":8896},{""page_index"":5,""viewing_time"":6728.299999982119},{""page_index"":6,""viewing_time"":9575.300000011921},{""page_index"":7,""viewing_time"":8472.59999999404},{""page_index"":8,""viewing_time"":6463.5999999940395},{""page_index"":9,""viewing_time"":10727.700000017881},{""page_index"":10,""viewing_time"":7520.0999999940395},{""page_index"":11,""viewing_time"":7744.300000011921},{""page_index"":12,""viewing_time"":7488},{""page_index"":13,""viewing_time"":5727.699999988079}]","116278.30000001192","","","","","","","","","","","","","","","","","","","","","","","",""
"pit-trial","8","179622","0.0-2.0-4.0-0.0","battery-v0.2","","""event"",""trial"",""time""
""fullscreenenter"",""1"",""4233""
""blur"",""2"",""13269""
""focus"",""2"",""20253""
""blur"",""3"",""27364""
""focus"",""3"",""48580""
","""event"",""trial"",""time""
""blur"",""2"",""13269""
""blur"",""3"",""27364""
","""event"",""trial"",""time""
""focus"",""2"",""20253""
""focus"",""3"",""48580""
","""event"",""trial"",""time""
""fullscreenenter"",""1"",""4233""
","
","","","481.59999999403954","","","10","5780","22","&#9784;","elianto","#FFFFF080"," "," ","1","&#10004","[1335.2000000178814]","1","0","0","","","","","","","",""
"pit-trial","9","182993","0.0-2.0-4.1-0.1","battery-v0.2","","""event"",""trial"",""time""
""fullscreenenter"",""1"",""4233""
""blur"",""2"",""13269""
""focus"",""2"",""20253""
""blur"",""3"",""27364""
""focus"",""3"",""48580""
","""event"",""trial"",""time""
""blur"",""2"",""13269""
""blur"",""3"",""27364""
","""event"",""trial"",""time""
""focus"",""2"",""20253""
""focus"",""3"",""48580""
","""event"",""trial"",""time""
""fullscreenenter"",""1"",""4233""
","
","","","503.80000001192093","","","10","5780","22","&#9784;","elianto","#FFFFF080"," "," ","1","&#10004","[1354.0999999940395]","1","0","0","","","","","","","",""
"pit-trial","10","186422","0.0-2.0-4.2-0.2","battery-v0.2","","""event"",""trial"",""time""
""fullscreenenter"",""1"",""4233""
""blur"",""2"",""13269""
""focus"",""2"",""20253""
""blur"",""3"",""27364""
""focus"",""3"",""48580""
","""event"",""trial"",""time""
""blur"",""2"",""13269""
""blur"",""3"",""27364""
","""event"",""trial"",""time""
""focus"",""2"",""20253""
""focus"",""3"",""48580""
","""event"",""trial"",""time""
""fullscreenenter"",""1"",""4233""
","
","","","551.7000000178814","","","10","5780","22","&#9784;","elianto","#FFFFF080"," "," ","1","&#10004","[1407]","1","0","0","","","","","","","",""
"pit-trial","11","189826","0.0-2.0-4.3-0.3","battery-v0.2","","""event"",""trial"",""time""
""fullscreenenter"",""1"",""4233""
""blur"",""2"",""13269""
""focus"",""2"",""20253""
""blur"",""3"",""27364""
""focus"",""3"",""48580""
","""event"",""trial"",""time""
""blur"",""2"",""13269""
""blur"",""3"",""27364""
","""event"",""trial"",""time""
""focus"",""2"",""20253""
""focus"",""3"",""48580""
","""event"",""trial"",""time""
""fullscreenenter"",""1"",""4233""
","
","","","535.0999999940395","","","10","5780","22","&#9784;","elianto","#FFFFF080"," "," ","1","&#10004","[1386]","1","0","0","","","","","","","",""
"pit-trial","12","193222","0.0-2.0-4.4-0.4","battery-v0.2","","""event"",""trial"",""time""
""fullscreenenter"",""1"",""4233""
""blur"",""2"",""13269""
""focus"",""2"",""20253""
""blur"",""3"",""27364""
""focus"",""3"",""48580""
","""event"",""trial"",""time""
""blur"",""2"",""13269""
""blur"",""3"",""27364""
","""event"",""trial"",""time""
""focus"",""2"",""20253""
""focus"",""3"",""48580""
","""event"",""trial"",""time""
""fullscreenenter"",""1"",""4233""
","
","","","529.4000000059605","","","10","5780","22","&#9784;","elianto","#FFFFF080"," "," ","1","&#10004","[1383.9000000059605]","1","0","0","","","","","","","",""
"pit-instructions","13","220378","0.0-2.0-5.0","battery-v0.2","","""event"",""trial"",""time""
""fullscreenenter"",""1"",""4233""
""blur"",""2"",""13269""
""focus"",""2"",""20253""
""blur"",""3"",""27364""
""focus"",""3"",""48580""
","""event"",""trial"",""time""
""blur"",""2"",""13269""
""blur"",""3"",""27364""
","""event"",""trial"",""time""
""focus"",""2"",""20253""
""focus"",""3"",""48580""
","""event"",""trial"",""time""
""fullscreenenter"",""1"",""4233""
","
","","[{""page_index"":0,""viewing_time"":7945.9000000059605},{""page_index"":1,""viewing_time"":7911.899999976158},{""page_index"":2,""viewing_time"":6271.700000017881},{""page_index"":3,""viewing_time"":5024}]","27153.79999998212","","","","","","","","","","","","","","","","","","","","","","","",""
"pit-trial","14","225252","0.0-2.0-6.0-0.0","battery-v0.2","","""event"",""trial"",""time""
""fullscreenenter"",""1"",""4233""
""blur"",""2"",""13269""
""focus"",""2"",""20253""
""blur"",""3"",""27364""
""focus"",""3"",""48580""
","""event"",""trial"",""time""
""blur"",""2"",""13269""
""blur"",""3"",""27364""
","""event"",""trial"",""time""
""focus"",""2"",""20253""
""focus"",""3"",""48580""
","""event"",""trial"",""time""
""fullscreenenter"",""1"",""4233""
","
","","","-1","","","10","5780","22","&#9854;","elianto","#FFFFF080","-1","-1","1","&#10004","[]","0","0","1","","","","","","","",""
"pit-trial","15","230133","0.0-2.0-6.1-0.1","battery-v0.2","","""event"",""trial"",""time""
""fullscreenenter"",""1"",""4233""
""blur"",""2"",""13269""
""focus"",""2"",""20253""
""blur"",""3"",""27364""
""focus"",""3"",""48580""
","""event"",""trial"",""time""
""blur"",""2"",""13269""
""blur"",""3"",""27364""
","""event"",""trial"",""time""
""focus"",""2"",""20253""
""focus"",""3"",""48580""
","""event"",""trial"",""time""
""fullscreenenter"",""1"",""4233""
","
","","","-1","","","10","5780","22","&#9854;","elianto","#FFFFF080","-1","-1","1","&#10004","[]","0","0","1","","","","","","","",""
"pit-trial","16","235012","0.0-2.0-6.2-0.2","battery-v0.2","","""event"",""trial"",""time""
""fullscreenenter"",""1"",""4233""
""blur"",""2"",""13269""
""focus"",""2"",""20253""
""blur"",""3"",""27364""
""focus"",""3"",""48580""
","""event"",""trial"",""time""
""blur"",""2"",""13269""
""blur"",""3"",""27364""
","""event"",""trial"",""time""
""focus"",""2"",""20253""
""focus"",""3"",""48580""
","""event"",""trial"",""time""
""fullscreenenter"",""1"",""4233""
","
","","","-1","","","10","5780","22","&#9854;","elianto","#FFFFF080","-1","-1","1","&#10004","[]","0","0","1","","","","","","","",""
"pit-trial","17","239886","0.0-2.0-6.3-0.3","battery-v0.2","","""event"",""trial"",""time""
""fullscreenenter"",""1"",""4233""
""blur"",""2"",""13269""
""focus"",""2"",""20253""
""blur"",""3"",""27364""
""focus"",""3"",""48580""
","""event"",""trial"",""time""
""blur"",""2"",""13269""
""blur"",""3"",""27364""
","""event"",""trial"",""time""
""focus"",""2"",""20253""
""focus"",""3"",""48580""
","""event"",""trial"",""time""
""fullscreenenter"",""1"",""4233""
","
","","","-1","","","10","5780","22","&#9854;","elianto","#FFFFF080","-1","-1","1","&#10004","[]","0","0","1","","","","","","","",""
"pit-trial","18","244756","0.0-2.0-6.4-0.4","battery-v0.2","","""event"",""trial"",""time""
""fullscreenenter"",""1"",""4233""
""blur"",""2"",""13269""
""focus"",""2"",""20253""
""blur"",""3"",""27364""
""focus"",""3"",""48580""
","""event"",""trial"",""time""
""blur"",""2"",""13269""
""blur"",""3"",""27364""
","""event"",""trial"",""time""
""focus"",""2"",""20253""
""focus"",""3"",""48580""
","""event"",""trial"",""time""
""fullscreenenter"",""1"",""4233""
","
","","","-1","","","10","5780","22","&#9854;","elianto","#FFFFF080","-1","-1","1","&#10004","[]","0","0","1","","","","","","","",""
"pit-instructions","19","376882","0.0-2.0-7.0","battery-v0.2","","""event"",""trial"",""time""
""fullscreenenter"",""1"",""4233""
""blur"",""2"",""13269""
""focus"",""2"",""20253""
""blur"",""3"",""27364""
""focus"",""3"",""48580""
","""event"",""trial"",""time""
""blur"",""2"",""13269""
""blur"",""3"",""27364""
","""event"",""trial"",""time""
""focus"",""2"",""20253""
""focus"",""3"",""48580""
","""event"",""trial"",""time""
""fullscreenenter"",""1"",""4233""
","
","","[{""page_index"":0,""viewing_time"":9227.90000000596},{""page_index"":1,""viewing_time"":9311.90000000596},{""page_index"":2,""viewing_time"":7832.199999988079},{""page_index"":3,""viewing_time"":7367.800000011921},{""page_index"":4,""viewing_time"":5335.9000000059605},{""page_index"":5,""viewing_time"":6344.4000000059605},{""page_index"":6,""viewing_time"":4751.799999982119},{""page_index"":7,""viewing_time"":7888},{""page_index"":8,""viewing_time"":6656.300000011921},{""page_index"":9,""viewing_time"":6439.799999982119},{""page_index"":10,""viewing_time"":7487.800000011921},{""page_index"":11,""viewing_time"":5391.9000000059605},{""page_index"":12,""viewing_time"":7424.299999982119},{""page_index"":13,""viewing_time"":8248.100000023842},{""page_index"":14,""viewing_time"":9464},{""page_index"":15,""viewing_time"":7975.699999988079},{""page_index"":16,""viewing_time"":6600.199999988079},{""page_index"":17,""viewing_time"":8375.700000017881}]","132124.10000002384","","","","","","","","","","","","","","","","","","","","","","","",""
"pit-trial","20","380141","0.0-2.0-8.0-0.0","battery-v0.2","","""event"",""trial"",""time""
""fullscreenenter"",""1"",""4233""
""blur"",""2"",""13269""
""focus"",""2"",""20253""
""blur"",""3"",""27364""
""focus"",""3"",""48580""
","""event"",""trial"",""time""
""blur"",""2"",""13269""
""blur"",""3"",""27364""
","""event"",""trial"",""time""
""focus"",""2"",""20253""
""focus"",""3"",""48580""
","""event"",""trial"",""time""
""fullscreenenter"",""1"",""4233""
","
","","","392.09999999403954","","","10","5780","22","&#9776;","elianto","#3366ff99"," "," ","1","+10","[1246.7999999821186]","1","0","1","","","","","","","",""
"pit-trial","21","383451","0.0-2.0-8.0-1.0","battery-v0.2","","""event"",""trial"",""time""
""fullscreenenter"",""1"",""4233""
""blur"",""2"",""13269""
""focus"",""2"",""20253""
""blur"",""3"",""27364""
""focus"",""3"",""48580""
","""event"",""trial"",""time""
""blur"",""2"",""13269""
""blur"",""3"",""27364""
","""event"",""trial"",""time""
""focus"",""2"",""20253""
""focus"",""3"",""48580""
","""event"",""trial"",""time""
""fullscreenenter"",""1"",""4233""
","
","","","448.19999998807907","","","10","5780","22","&#9776;","elianto","#3366ff99"," "," ","1","+10","[1300.2999999821186]","1","0","1","","","","","","","",""
"pit-trial","22","386581","0.0-2.0-8.0-2.0","battery-v0.2","","""event"",""trial"",""time""
""fullscreenenter"",""1"",""4233""
""blur"",""2"",""13269""
""focus"",""2"",""20253""
""blur"",""3"",""27364""
""focus"",""3"",""48580""
","""event"",""trial"",""time""
""blur"",""2"",""13269""
""blur"",""3"",""27364""
","""event"",""trial"",""time""
""focus"",""2"",""20253""
""focus"",""3"",""48580""
","""event"",""trial"",""time""
""fullscreenenter"",""1"",""4233""
","
","","","264.7999999821186","","","10","5780","22","&#9776;","elianto","#3366ff99"," "," ","1","+10","[1118.5]","1","0","1","","","","","","","",""
"pit-trial","23","389781","0.0-2.0-8.0-3.0","battery-v0.2","","""event"",""trial"",""time""
""fullscreenenter"",""1"",""4233""
""blur"",""2"",""13269""
""focus"",""2"",""20253""
""blur"",""3"",""27364""
""focus"",""3"",""48580""
","""event"",""trial"",""time""
""blur"",""2"",""13269""
""blur"",""3"",""27364""
","""event"",""trial"",""time""
""focus"",""2"",""20253""
""focus"",""3"",""48580""
","""event"",""trial"",""time""
""fullscreenenter"",""1"",""4233""
","
","","","336.19999998807907","","","10","5780","22","&#9776;","elianto","#3366ff99"," "," ","1","0","[1188.3999999761581]","1","0","1","","","","","","","",""
"pit-trial","24","393110","0.0-2.0-8.0-4.0","battery-v0.2","","""event"",""trial"",""time""
""fullscreenenter"",""1"",""4233""
""blur"",""2"",""13269""
""focus"",""2"",""20253""
""blur"",""3"",""27364""
""focus"",""3"",""48580""
","""event"",""trial"",""time""
""blur"",""2"",""13269""
""blur"",""3"",""27364""
","""event"",""trial"",""time""
""focus"",""2"",""20253""
""focus"",""3"",""48580""
","""event"",""trial"",""time""
""fullscreenenter"",""1"",""4233""
","
","","","455.59999999403954","","","10","5780","22","&#9776;","elianto","#3366ff99"," "," ","1","+10","[1308.4000000059605]","1","0","1","","","","","","","",""
"pit-trial","25","396406","0.0-2.0-8.1-0.1","battery-v0.2","","""event"",""trial"",""time""
""fullscreenenter"",""1"",""4233""
""blur"",""2"",""13269""
""focus"",""2"",""20253""
""blur"",""3"",""27364""
""focus"",""3"",""48580""
","""event"",""trial"",""time""
""blur"",""2"",""13269""
""blur"",""3"",""27364""
","""event"",""trial"",""time""
""focus"",""2"",""20253""
""focus"",""3"",""48580""
","""event"",""trial"",""time""
""fullscreenenter"",""1"",""4233""
","
","","","431.59999999403954","","","10","5780","22","&#9776;","elianto","#3366ff99"," "," ","1","+10","[1282.5]","1","0","1","","","","","","","",""
"pit-trial","26","399730","0.0-2.0-8.1-1.1","battery-v0.2","","""event"",""trial"",""time""
""fullscreenenter"",""1"",""4233""
""blur"",""2"",""13269""
""focus"",""2"",""20253""
""blur"",""3"",""27364""
""focus"",""3"",""48580""
","""event"",""trial"",""time""
""blur"",""2"",""13269""
""blur"",""3"",""27364""
","""event"",""trial"",""time""
""focus"",""2"",""20253""
""focus"",""3"",""48580""
","""event"",""trial"",""time""
""fullscreenenter"",""1"",""4233""
","
","","","463.5","","","10","5780","22","&#9776;","elianto","#3366ff99"," "," ","1","+10","[1314.9000000059605]","1","0","1","","","","","","","",""
"pit-trial","27","403329","0.0-2.0-8.1-2.1","battery-v0.2","","""event"",""trial"",""time""
""fullscreenenter"",""1"",""4233""
""blur"",""2"",""13269""
""focus"",""2"",""20253""
""blur"",""3"",""27364""
""focus"",""3"",""48580""
","""event"",""trial"",""time""
""blur"",""2"",""13269""
""blur"",""3"",""27364""
","""event"",""trial"",""time""
""focus"",""2"",""20253""
""focus"",""3"",""48580""
","""event"",""trial"",""time""
""fullscreenenter"",""1"",""4233""
","
","","","733.2999999821186","","","10","5780","22","&#9776;","elianto","#3366ff99"," "," ","1","+10","[1583.699999988079]","1","0","1","","","","","","","",""
"pit-trial","28","406626","0.0-2.0-8.1-3.1","battery-v0.2","","""event"",""trial"",""time""
""fullscreenenter"",""1"",""4233""
""blur"",""2"",""13269""
""focus"",""2"",""20253""
""blur"",""3"",""27364""
""focus"",""3"",""48580""
","""event"",""trial"",""time""
""blur"",""2"",""13269""
""blur"",""3"",""27364""
","""event"",""trial"",""time""
""focus"",""2"",""20253""
""focus"",""3"",""48580""
","""event"",""trial"",""time""
""fullscreenenter"",""1"",""4233""
","
","","","436.60000002384186","","","10","5780","22","&#9776;","elianto","#3366ff99"," "," ","1","0","[1287.7999999821186]","1","0","1","","","","","","","",""
"pit-trial","29","409834","0.0-2.0-8.1-4.1","battery-v0.2","","""event"",""trial"",""time""
""fullscreenenter"",""1"",""4233""
""blur"",""2"",""13269""
""focus"",""2"",""20253""
""blur"",""3"",""27364""
""focus"",""3"",""48580""
","""event"",""trial"",""time""
""blur"",""2"",""13269""
""blur"",""3"",""27364""
","""event"",""trial"",""time""
""focus"",""2"",""20253""
""focus"",""3"",""48580""
","""event"",""trial"",""time""
""fullscreenenter"",""1"",""4233""
","
","","","344.2999999821186","","","10","5780","22","&#9776;","elianto","#3366ff99"," "," ","1","+10","[1199.0999999940395]","1","0","1","","","","","","","",""
"pit-trial","30","413314","0.0-2.0-8.2-0.2","battery-v0.2","","""event"",""trial"",""time""
""fullscreenenter"",""1"",""4233""
""blur"",""2"",""13269""
""focus"",""2"",""20253""
""blur"",""3"",""27364""
""focus"",""3"",""48580""
","""event"",""trial"",""time""
""blur"",""2"",""13269""
""blur"",""3"",""27364""
","""event"",""trial"",""time""
""focus"",""2"",""20253""
""focus"",""3"",""48580""
","""event"",""trial"",""time""
""fullscreenenter"",""1"",""4233""
","
","","","620.5","","","10","5780","22","&#9776;","elianto","#3366ff99"," "," ","1","+10","[1470.6000000238419]","1","0","1","","","","","","","",""
"pit-trial","31","416434","0.0-2.0-8.2-1.2","battery-v0.2","","""event"",""trial"",""time""
""fullscreenenter"",""1"",""4233""
""blur"",""2"",""13269""
""focus"",""2"",""20253""
""blur"",""3"",""27364""
""focus"",""3"",""48580""
","""event"",""trial"",""time""
""blur"",""2"",""13269""
""blur"",""3"",""27364""
","""event"",""trial"",""time""
""focus"",""2"",""20253""
""focus"",""3"",""48580""
","""event"",""trial"",""time""
""fullscreenenter"",""1"",""4233""
","
","","","257.2999999821186","","","10","5780","22","&#9776;","elianto","#3366ff99"," "," ","1","+10","[1111]","1","0","1","","","","","","","",""
"pit-trial","32","419490","0.0-2.0-8.2-2.2","battery-v0.2","","""event"",""trial"",""time""
""fullscreenenter"",""1"",""4233""
""blur"",""2"",""13269""
""focus"",""2"",""20253""
""blur"",""3"",""27364""
""focus"",""3"",""48580""
","""event"",""trial"",""time""
""blur"",""2"",""13269""
""blur"",""3"",""27364""
","""event"",""trial"",""time""
""focus"",""2"",""20253""
""focus"",""3"",""48580""
","""event"",""trial"",""time""
""fullscreenenter"",""1"",""4233""
","
","","","195.80000001192093","","","10","5780","22","&#9776;","elianto","#3366ff99"," "," ","1","+10","[1047.300000011921]","1","0","1","","","","","","","",""
"pit-trial","33","422946","0.0-2.0-8.2-3.2","battery-v0.2","","""event"",""trial"",""time""
""fullscreenenter"",""1"",""4233""
""blur"",""2"",""13269""
""focus"",""2"",""20253""
""blur"",""3"",""27364""
""focus"",""3"",""48580""
","""event"",""trial"",""time""
""blur"",""2"",""13269""
""blur"",""3"",""27364""
","""event"",""trial"",""time""
""focus"",""2"",""20253""
""focus"",""3"",""48580""
","""event"",""trial"",""time""
""fullscreenenter"",""1"",""4233""
","
","","","592.4000000059605","","","10","5780","22","&#9776;","elianto","#3366ff99"," "," ","1","0","[1447.5999999940395]","1","0","1","","","","","","","",""
"pit-trial","34","426051","0.0-2.0-8.2-4.2","battery-v0.2","","""event"",""trial"",""time""
""fullscreenenter"",""1"",""4233""
""blur"",""2"",""13269""
""focus"",""2"",""20253""
""blur"",""3"",""27364""
""focus"",""3"",""48580""
","""event"",""trial"",""time""
""blur"",""2"",""13269""
""blur"",""3"",""27364""
","""event"",""trial"",""time""
""focus"",""2"",""20253""
""focus"",""3"",""48580""
","""event"",""trial"",""time""
""fullscreenenter"",""1"",""4233""
","
","","","241","","","10","5780","22","&#9776;","elianto","#3366ff99"," "," ","1","+10","[1094.699999988079]","1","0","1","","","","","","","",""
"call-function","35","426052","0.0-2.0-9.0","battery-v0.2","","""event"",""trial"",""time""
""fullscreenenter"",""1"",""4233""
""blur"",""2"",""13269""
""focus"",""2"",""20253""
""blur"",""3"",""27364""
""focus"",""3"",""48580""
","""event"",""trial"",""time""
""blur"",""2"",""13269""
""blur"",""3"",""27364""
","""event"",""trial"",""time""
""focus"",""2"",""20253""
""focus"",""3"",""48580""
","""event"",""trial"",""time""
""fullscreenenter"",""1"",""4233""
","
","","","","","","","","","","","","","","","","","","","","","","","","","","",""
"pit-instructions","36","476746","0.0-2.0-10.0","battery-v0.2","","""event"",""trial"",""time""
""fullscreenenter"",""1"",""4233""
""blur"",""2"",""13269""
""focus"",""2"",""20253""
""blur"",""3"",""27364""
""focus"",""3"",""48580""
","""event"",""trial"",""time""
""blur"",""2"",""13269""
""blur"",""3"",""27364""
","""event"",""trial"",""time""
""focus"",""2"",""20253""
""focus"",""3"",""48580""
","""event"",""trial"",""time""
""fullscreenenter"",""1"",""4233""
","
","","[{""page_index"":0,""viewing_time"":6701.4000000059605},{""page_index"":1,""viewing_time"":8424.299999982119},{""page_index"":2,""viewing_time"":16776.20000001788},{""page_index"":3,""viewing_time"":11103.799999982119},{""page_index"":4,""viewing_time"":7688.0999999940395}]","50694.19999998808","","","","","","","","","","","","","","","","","","","","","","","",""
"pit-trial","37","479869","0.0-2.0-11.0-0.0","battery-v0.2","","""event"",""trial"",""time""
""fullscreenenter"",""1"",""4233""
""blur"",""2"",""13269""
""focus"",""2"",""20253""
""blur"",""3"",""27364""
""focus"",""3"",""48580""
","""event"",""trial"",""time""
""blur"",""2"",""13269""
""blur"",""3"",""27364""
","""event"",""trial"",""time""
""focus"",""2"",""20253""
""focus"",""3"",""48580""
","""event"",""trial"",""time""
""fullscreenenter"",""1"",""4233""
","
","","","240.2000000178814","","","10","5780","22","&#9761;","elianto","#3366ff99","-1"," ","0","0","[1094.4000000059605]","1","0","2","","","","","","","",""
"pit-trial","38","484749","0.0-2.0-11.0-1.0","battery-v0.2","","""event"",""trial"",""time""
""fullscreenenter"",""1"",""4233""
""blur"",""2"",""13269""
""focus"",""2"",""20253""
""blur"",""3"",""27364""
""focus"",""3"",""48580""
","""event"",""trial"",""time""
""blur"",""2"",""13269""
""blur"",""3"",""27364""
","""event"",""trial"",""time""
""focus"",""2"",""20253""
""focus"",""3"",""48580""
","""event"",""trial"",""time""
""fullscreenenter"",""1"",""4233""
","
","","","-1","","","10","5780","22","&#9761;","elianto","#3366ff99","-1","-1","1","+10","[]","0","0","2","","","","","","","",""
"pit-trial","39","489638","0.0-2.0-11.0-2.0","battery-v0.2","","""event"",""trial"",""time""
""fullscreenenter"",""1"",""4233""
""blur"",""2"",""13269""
""focus"",""2"",""20253""
""blur"",""3"",""27364""
""focus"",""3"",""48580""
","""event"",""trial"",""time""
""blur"",""2"",""13269""
""blur"",""3"",""27364""
","""event"",""trial"",""time""
""focus"",""2"",""20253""
""focus"",""3"",""48580""
","""event"",""trial"",""time""
""fullscreenenter"",""1"",""4233""
","
","","","-1","","","10","5780","22","&#9761;","elianto","#3366ff99","-1","-1","1","+10","[]","0","0","2","","","","","","","",""
"pit-trial","40","494519","0.0-2.0-11.0-3.0","battery-v0.2","","""event"",""trial"",""time""
""fullscreenenter"",""1"",""4233""
""blur"",""2"",""13269""
""focus"",""2"",""20253""
""blur"",""3"",""27364""
""focus"",""3"",""48580""
","""event"",""trial"",""time""
""blur"",""2"",""13269""
""blur"",""3"",""27364""
","""event"",""trial"",""time""
""focus"",""2"",""20253""
""focus"",""3"",""48580""
","""event"",""trial"",""time""
""fullscreenenter"",""1"",""4233""
","
","","","-1","","","10","5780","22","&#9761;","elianto","#3366ff99","-1","-1","1","0","[]","0","0","2","","","","","","","",""
"pit-trial","41","499401","0.0-2.0-11.0-4.0","battery-v0.2","","""event"",""trial"",""time""
""fullscreenenter"",""1"",""4233""
""blur"",""2"",""13269""
""focus"",""2"",""20253""
""blur"",""3"",""27364""
""focus"",""3"",""48580""
","""event"",""trial"",""time""
""blur"",""2"",""13269""
""blur"",""3"",""27364""
","""event"",""trial"",""time""
""focus"",""2"",""20253""
""focus"",""3"",""48580""
","""event"",""trial"",""time""
""fullscreenenter"",""1"",""4233""
","
","","","-1","","","10","5780","22","&#9761;","elianto","#3366ff99","-1","-1","1","+10","[]","0","0","2","","","","","","","",""
"pit-trial","42","504274","0.0-2.0-11.1-0.1","battery-v0.2","","""event"",""trial"",""time""
""fullscreenenter"",""1"",""4233""
""blur"",""2"",""13269""
""focus"",""2"",""20253""
""blur"",""3"",""27364""
""focus"",""3"",""48580""
","""event"",""trial"",""time""
""blur"",""2"",""13269""
""blur"",""3"",""27364""
","""event"",""trial"",""time""
""focus"",""2"",""20253""
""focus"",""3"",""48580""
","""event"",""trial"",""time""
""fullscreenenter"",""1"",""4233""
","
","","","-1","","","10","5780","22","&#9761;","elianto","#3366ff99","-1","-1","1","+10","[]","0","0","2","","","","","","","",""
"pit-trial","43","509137","0.0-2.0-11.1-1.1","battery-v0.2","","""event"",""trial"",""time""
""fullscreenenter"",""1"",""4233""
""blur"",""2"",""13269""
""focus"",""2"",""20253""
""blur"",""3"",""27364""
""focus"",""3"",""48580""
","""event"",""trial"",""time""
""blur"",""2"",""13269""
""blur"",""3"",""27364""
","""event"",""trial"",""time""
""focus"",""2"",""20253""
""focus"",""3"",""48580""
","""event"",""trial"",""time""
""fullscreenenter"",""1"",""4233""
","
","","","-1","","","10","5780","22","&#9761;","elianto","#3366ff99","-1","-1","1","+10","[]","0","0","2","","","","","","","",""
"pit-trial","44","514001","0.0-2.0-11.1-2.1","battery-v0.2","","""event"",""trial"",""time""
""fullscreenenter"",""1"",""4233""
""blur"",""2"",""13269""
""focus"",""2"",""20253""
""blur"",""3"",""27364""
""focus"",""3"",""48580""
","""event"",""trial"",""time""
""blur"",""2"",""13269""
""blur"",""3"",""27364""
","""event"",""trial"",""time""
""focus"",""2"",""20253""
""focus"",""3"",""48580""
","""event"",""trial"",""time""
""fullscreenenter"",""1"",""4233""
","
","","","-1","","","10","5780","22","&#9761;","elianto","#3366ff99","-1","-1","1","+10","[]","0","0","2","","","","","","","",""
"pit-trial","45","518866","0.0-2.0-11.1-3.1","battery-v0.2","","""event"",""trial"",""time""
""fullscreenenter"",""1"",""4233""
""blur"",""2"",""13269""
""focus"",""2"",""20253""
""blur"",""3"",""27364""
""focus"",""3"",""48580""
","""event"",""trial"",""time""
""blur"",""2"",""13269""
""blur"",""3"",""27364""
","""event"",""trial"",""time""
""focus"",""2"",""20253""
""focus"",""3"",""48580""
","""event"",""trial"",""time""
""fullscreenenter"",""1"",""4233""
","
","","","-1","","","10","5780","22","&#9761;","elianto","#3366ff99","-1","-1","1","0","[]","0","0","2","","","","","","","",""
"pit-trial","46","523729","0.0-2.0-11.1-4.1","battery-v0.2","","""event"",""trial"",""time""
""fullscreenenter"",""1"",""4233""
""blur"",""2"",""13269""
""focus"",""2"",""20253""
""blur"",""3"",""27364""
""focus"",""3"",""48580""
","""event"",""trial"",""time""
""blur"",""2"",""13269""
""blur"",""3"",""27364""
","""event"",""trial"",""time""
""focus"",""2"",""20253""
""focus"",""3"",""48580""
","""event"",""trial"",""time""
""fullscreenenter"",""1"",""4233""
","
","","","-1","","","10","5780","22","&#9761;","elianto","#3366ff99","-1","-1","1","+10","[]","0","0","2","","","","","","","",""
"pit-trial","47","528594","0.0-2.0-11.2-0.2","battery-v0.2","","""event"",""trial"",""time""
""fullscreenenter"",""1"",""4233""
""blur"",""2"",""13269""
""focus"",""2"",""20253""
""blur"",""3"",""27364""
""focus"",""3"",""48580""
","""event"",""trial"",""time""
""blur"",""2"",""13269""
""blur"",""3"",""27364""
","""event"",""trial"",""time""
""focus"",""2"",""20253""
""focus"",""3"",""48580""
","""event"",""trial"",""time""
""fullscreenenter"",""1"",""4233""
","
","","","-1","","","10","5780","22","&#9761;","elianto","#3366ff99","-1","-1","1","+10","[]","0","0","2","","","","","","","",""
"pit-trial","48","533458","0.0-2.0-11.2-1.2","battery-v0.2","","""event"",""trial"",""time""
""fullscreenenter"",""1"",""4233""
""blur"",""2"",""13269""
""focus"",""2"",""20253""
""blur"",""3"",""27364""
""focus"",""3"",""48580""
","""event"",""trial"",""time""
""blur"",""2"",""13269""
""blur"",""3"",""27364""
","""event"",""trial"",""time""
""focus"",""2"",""20253""
""focus"",""3"",""48580""
","""event"",""trial"",""time""
""fullscreenenter"",""1"",""4233""
","
","","","-1","","","10","5780","22","&#9761;","elianto","#3366ff99","-1","-1","1","+10","[]","0","0","2","","","","","","","",""
"pit-trial","49","538322","0.0-2.0-11.2-2.2","battery-v0.2","","""event"",""trial"",""time""
""fullscreenenter"",""1"",""4233""
""blur"",""2"",""13269""
""focus"",""2"",""20253""
""blur"",""3"",""27364""
""focus"",""3"",""48580""
","""event"",""trial"",""time""
""blur"",""2"",""13269""
""blur"",""3"",""27364""
","""event"",""trial"",""time""
""focus"",""2"",""20253""
""focus"",""3"",""48580""
","""event"",""trial"",""time""
""fullscreenenter"",""1"",""4233""
","
","","","-1","","","10","5780","22","&#9761;","elianto","#3366ff99","-1","-1","1","+10","[]","0","0","2","","","","","","","",""
"pit-trial","50","543185","0.0-2.0-11.2-3.2","battery-v0.2","","""event"",""trial"",""time""
""fullscreenenter"",""1"",""4233""
""blur"",""2"",""13269""
""focus"",""2"",""20253""
""blur"",""3"",""27364""
""focus"",""3"",""48580""
","""event"",""trial"",""time""
""blur"",""2"",""13269""
""blur"",""3"",""27364""
","""event"",""trial"",""time""
""focus"",""2"",""20253""
""focus"",""3"",""48580""
","""event"",""trial"",""time""
""fullscreenenter"",""1"",""4233""
","
","","","-1","","","10","5780","22","&#9761;","elianto","#3366ff99","-1","-1","1","0","[]","0","0","2","","","","","","","",""
"pit-trial","51","548049","0.0-2.0-11.2-4.2","battery-v0.2","","""event"",""trial"",""time""
""fullscreenenter"",""1"",""4233""
""blur"",""2"",""13269""
""focus"",""2"",""20253""
""blur"",""3"",""27364""
""focus"",""3"",""48580""
","""event"",""trial"",""time""
""blur"",""2"",""13269""
""blur"",""3"",""27364""
","""event"",""trial"",""time""
""focus"",""2"",""20253""
""focus"",""3"",""48580""
","""event"",""trial"",""time""
""fullscreenenter"",""1"",""4233""
","
","","","-1","","","10","5780","22","&#9761;","elianto","#3366ff99","-1","-1","1","+10","[]","0","0","2","","","","","","","",""
"pit-trial","52","552915","0.0-2.0-11.3-0.3","battery-v0.2","","""event"",""trial"",""time""
""fullscreenenter"",""1"",""4233""
""blur"",""2"",""13269""
""focus"",""2"",""20253""
""blur"",""3"",""27364""
""focus"",""3"",""48580""
","""event"",""trial"",""time""
""blur"",""2"",""13269""
""blur"",""3"",""27364""
","""event"",""trial"",""time""
""focus"",""2"",""20253""
""focus"",""3"",""48580""
","""event"",""trial"",""time""
""fullscreenenter"",""1"",""4233""
","
","","","-1","","","10","5780","22","&#9761;","elianto","#3366ff99","-1","-1","1","+10","[]","0","0","2","","","","","","","",""
"pit-trial","53","557779","0.0-2.0-11.3-1.3","battery-v0.2","","""event"",""trial"",""time""
""fullscreenenter"",""1"",""4233""
""blur"",""2"",""13269""
""focus"",""2"",""20253""
""blur"",""3"",""27364""
""focus"",""3"",""48580""
","""event"",""trial"",""time""
""blur"",""2"",""13269""
""blur"",""3"",""27364""
","""event"",""trial"",""time""
""focus"",""2"",""20253""
""focus"",""3"",""48580""
","""event"",""trial"",""time""
""fullscreenenter"",""1"",""4233""
","
","","","-1","","","10","5780","22","&#9761;","elianto","#3366ff99","-1","-1","1","+10","[]","0","0","2","","","","","","","",""
"pit-trial","54","562642","0.0-2.0-11.3-2.3","battery-v0.2","","""event"",""trial"",""time""
""fullscreenenter"",""1"",""4233""
""blur"",""2"",""13269""
""focus"",""2"",""20253""
""blur"",""3"",""27364""
""focus"",""3"",""48580""
","""event"",""trial"",""time""
""blur"",""2"",""13269""
""blur"",""3"",""27364""
","""event"",""trial"",""time""
""focus"",""2"",""20253""
""focus"",""3"",""48580""
","""event"",""trial"",""time""
""fullscreenenter"",""1"",""4233""
","
","","","-1","","","10","5780","22","&#9761;","elianto","#3366ff99","-1","-1","1","+10","[]","0","0","2","","","","","","","",""
"pit-trial","55","567506","0.0-2.0-11.3-3.3","battery-v0.2","","""event"",""trial"",""time""
""fullscreenenter"",""1"",""4233""
""blur"",""2"",""13269""
""focus"",""2"",""20253""
""blur"",""3"",""27364""
""focus"",""3"",""48580""
","""event"",""trial"",""time""
""blur"",""2"",""13269""
""blur"",""3"",""27364""
","""event"",""trial"",""time""
""focus"",""2"",""20253""
""focus"",""3"",""48580""
","""event"",""trial"",""time""
""fullscreenenter"",""1"",""4233""
","
","","","-1","","","10","5780","22","&#9761;","elianto","#3366ff99","-1","-1","1","0","[]","0","0","2","","","","","","","",""
"pit-trial","56","572371","0.0-2.0-11.3-4.3","battery-v0.2","","""event"",""trial"",""time""
""fullscreenenter"",""1"",""4233""
""blur"",""2"",""13269""
""focus"",""2"",""20253""
""blur"",""3"",""27364""
""focus"",""3"",""48580""
","""event"",""trial"",""time""
""blur"",""2"",""13269""
""blur"",""3"",""27364""
","""event"",""trial"",""time""
""focus"",""2"",""20253""
""focus"",""3"",""48580""
","""event"",""trial"",""time""
""fullscreenenter"",""1"",""4233""
","
","","","-1","","","10","5780","22","&#9761;","elianto","#3366ff99","-1","-1","1","+10","[]","0","0","2","","","","","","","",""
"call-function","57","572372","0.0-2.0-12.0","battery-v0.2","","""event"",""trial"",""time""
""fullscreenenter"",""1"",""4233""
""blur"",""2"",""13269""
""focus"",""2"",""20253""
""blur"",""3"",""27364""
""focus"",""3"",""48580""
""blur"",""58"",""584180""
""focus"",""58"",""595196""
","""event"",""trial"",""time""
""blur"",""2"",""13269""
""blur"",""3"",""27364""
""blur"",""58"",""584180""
","""event"",""trial"",""time""
""focus"",""2"",""20253""
""focus"",""3"",""48580""
""focus"",""58"",""595196""
","""event"",""trial"",""time""
""fullscreenenter"",""1"",""4233""
","
","","","","","","","","","","","","","","","","","","","","","","","","","","",""
"pit-instructions","58","616107","0.0-2.0-13.0","battery-v0.2","","""event"",""trial"",""time""
""fullscreenenter"",""1"",""4233""
""blur"",""2"",""13269""
""focus"",""2"",""20253""
""blur"",""3"",""27364""
""focus"",""3"",""48580""
""blur"",""58"",""584180""
""focus"",""58"",""595196""
","""event"",""trial"",""time""
""blur"",""2"",""13269""
""blur"",""3"",""27364""
""blur"",""58"",""584180""
","""event"",""trial"",""time""
""focus"",""2"",""20253""
""focus"",""3"",""48580""
""focus"",""58"",""595196""
","""event"",""trial"",""time""
""fullscreenenter"",""1"",""4233""
","
","","[{""page_index"":0,""viewing_time"":6629.199999988079},{""page_index"":1,""viewing_time"":16360.199999988079},{""page_index"":2,""viewing_time"":6103.4000000059605},{""page_index"":3,""viewing_time"":10552.300000011921},{""page_index"":4,""viewing_time"":4088.2999999821186}]","43733.59999999404","","","","","","","","","","","","","","","","","","","","","","","",""
"pit-trial","59","619715","0.0-2.0-14.0-0.0","battery-v0.2","","""event"",""trial"",""time""
""fullscreenenter"",""1"",""4233""
""blur"",""2"",""13269""
""focus"",""2"",""20253""
""blur"",""3"",""27364""
""focus"",""3"",""48580""
""blur"",""58"",""584180""
""focus"",""58"",""595196""
","""event"",""trial"",""time""
""blur"",""2"",""13269""
""blur"",""3"",""27364""
""blur"",""58"",""584180""
","""event"",""trial"",""time""
""focus"",""2"",""20253""
""focus"",""3"",""48580""
""focus"",""58"",""595196""
","""event"",""trial"",""time""
""fullscreenenter"",""1"",""4233""
","
","","","727.9000000059605","","","10","5780","22","&#9826;","elianto","#f73b6a7A","-1"," ","0","-10","[1582.5]","1","0","3","","","","","","","",""
"pit-trial","60","624595","0.0-2.0-14.0-1.0","battery-v0.2","","""event"",""trial"",""time""
""fullscreenenter"",""1"",""4233""
""blur"",""2"",""13269""
""focus"",""2"",""20253""
""blur"",""3"",""27364""
""focus"",""3"",""48580""
""blur"",""58"",""584180""
""focus"",""58"",""595196""
","""event"",""trial"",""time""
""blur"",""2"",""13269""
""blur"",""3"",""27364""
""blur"",""58"",""584180""
","""event"",""trial"",""time""
""focus"",""2"",""20253""
""focus"",""3"",""48580""
""focus"",""58"",""595196""
","""event"",""trial"",""time""
""fullscreenenter"",""1"",""4233""
","
","","","-1","","","10","5780","22","&#9826;","elianto","#f73b6a7A","-1","-1","1","0","[]","0","0","3","","","","","","","",""
"pit-trial","61","629475","0.0-2.0-14.0-2.0","battery-v0.2","","""event"",""trial"",""time""
""fullscreenenter"",""1"",""4233""
""blur"",""2"",""13269""
""focus"",""2"",""20253""
""blur"",""3"",""27364""
""focus"",""3"",""48580""
""blur"",""58"",""584180""
""focus"",""58"",""595196""
","""event"",""trial"",""time""
""blur"",""2"",""13269""
""blur"",""3"",""27364""
""blur"",""58"",""584180""
","""event"",""trial"",""time""
""focus"",""2"",""20253""
""focus"",""3"",""48580""
""focus"",""58"",""595196""
","""event"",""trial"",""time""
""fullscreenenter"",""1"",""4233""
","
","","","-1","","","10","5780","22","&#9826;","elianto","#f73b6a7A","-1","-1","1","0","[]","0","0","3","","","","","","","",""
"pit-trial","62","634355","0.0-2.0-14.0-3.0","battery-v0.2","","""event"",""trial"",""time""
""fullscreenenter"",""1"",""4233""
""blur"",""2"",""13269""
""focus"",""2"",""20253""
""blur"",""3"",""27364""
""focus"",""3"",""48580""
""blur"",""58"",""584180""
""focus"",""58"",""595196""
","""event"",""trial"",""time""
""blur"",""2"",""13269""
""blur"",""3"",""27364""
""blur"",""58"",""584180""
","""event"",""trial"",""time""
""focus"",""2"",""20253""
""focus"",""3"",""48580""
""focus"",""58"",""595196""
","""event"",""trial"",""time""
""fullscreenenter"",""1"",""4233""
","
","","","-1","","","10","5780","22","&#9826;","elianto","#f73b6a7A","-1","-1","1","-10","[]","0","0","3","","","","","","","",""
"pit-trial","63","639227","0.0-2.0-14.0-4.0","battery-v0.2","","""event"",""trial"",""time""
""fullscreenenter"",""1"",""4233""
""blur"",""2"",""13269""
""focus"",""2"",""20253""
""blur"",""3"",""27364""
""focus"",""3"",""48580""
""blur"",""58"",""584180""
""focus"",""58"",""595196""
","""event"",""trial"",""time""
""blur"",""2"",""13269""
""blur"",""3"",""27364""
""blur"",""58"",""584180""
","""event"",""trial"",""time""
""focus"",""2"",""20253""
""focus"",""3"",""48580""
""focus"",""58"",""595196""
","""event"",""trial"",""time""
""fullscreenenter"",""1"",""4233""
","
","","","-1","","","10","5780","22","&#9826;","elianto","#f73b6a7A","-1","-1","1","0","[]","0","0","3","","","","","","","",""
"pit-trial","64","644110","0.0-2.0-14.1-0.1","battery-v0.2","","""event"",""trial"",""time""
""fullscreenenter"",""1"",""4233""
""blur"",""2"",""13269""
""focus"",""2"",""20253""
""blur"",""3"",""27364""
""focus"",""3"",""48580""
""blur"",""58"",""584180""
""focus"",""58"",""595196""
","""event"",""trial"",""time""
""blur"",""2"",""13269""
""blur"",""3"",""27364""
""blur"",""58"",""584180""
","""event"",""trial"",""time""
""focus"",""2"",""20253""
""focus"",""3"",""48580""
""focus"",""58"",""595196""
","""event"",""trial"",""time""
""fullscreenenter"",""1"",""4233""
","
","","","-1","","","10","5780","22","&#9826;","elianto","#f73b6a7A","-1","-1","1","0","[]","0","0","3","","","","","","","",""
"pit-trial","65","648986","0.0-2.0-14.1-1.1","battery-v0.2","","""event"",""trial"",""time""
""fullscreenenter"",""1"",""4233""
""blur"",""2"",""13269""
""focus"",""2"",""20253""
""blur"",""3"",""27364""
""focus"",""3"",""48580""
""blur"",""58"",""584180""
""focus"",""58"",""595196""
","""event"",""trial"",""time""
""blur"",""2"",""13269""
""blur"",""3"",""27364""
""blur"",""58"",""584180""
","""event"",""trial"",""time""
""focus"",""2"",""20253""
""focus"",""3"",""48580""
""focus"",""58"",""595196""
","""event"",""trial"",""time""
""fullscreenenter"",""1"",""4233""
","
","","","-1","","","10","5780","22","&#9826;","elianto","#f73b6a7A","-1","-1","1","0","[]","0","0","3","","","","","","","",""
"pit-trial","66","653850","0.0-2.0-14.1-2.1","battery-v0.2","","""event"",""trial"",""time""
""fullscreenenter"",""1"",""4233""
""blur"",""2"",""13269""
""focus"",""2"",""20253""
""blur"",""3"",""27364""
""focus"",""3"",""48580""
""blur"",""58"",""584180""
""focus"",""58"",""595196""
","""event"",""trial"",""time""
""blur"",""2"",""13269""
""blur"",""3"",""27364""
""blur"",""58"",""584180""
","""event"",""trial"",""time""
""focus"",""2"",""20253""
""focus"",""3"",""48580""
""focus"",""58"",""595196""
","""event"",""trial"",""time""
""fullscreenenter"",""1"",""4233""
","
","","","-1","","","10","5780","22","&#9826;","elianto","#f73b6a7A","-1","-1","1","0","[]","0","0","3","","","","","","","",""
"pit-trial","67","658714","0.0-2.0-14.1-3.1","battery-v0.2","","""event"",""trial"",""time""
""fullscreenenter"",""1"",""4233""
""blur"",""2"",""13269""
""focus"",""2"",""20253""
""blur"",""3"",""27364""
""focus"",""3"",""48580""
""blur"",""58"",""584180""
""focus"",""58"",""595196""
","""event"",""trial"",""time""
""blur"",""2"",""13269""
""blur"",""3"",""27364""
""blur"",""58"",""584180""
","""event"",""trial"",""time""
""focus"",""2"",""20253""
""focus"",""3"",""48580""
""focus"",""58"",""595196""
","""event"",""trial"",""time""
""fullscreenenter"",""1"",""4233""
","
","","","-1","","","10","5780","22","&#9826;","elianto","#f73b6a7A","-1","-1","1","-10","[]","0","0","3","","","","","","","",""
"pit-trial","68","663578","0.0-2.0-14.1-4.1","battery-v0.2","","""event"",""trial"",""time""
""fullscreenenter"",""1"",""4233""
""blur"",""2"",""13269""
""focus"",""2"",""20253""
""blur"",""3"",""27364""
""focus"",""3"",""48580""
""blur"",""58"",""584180""
""focus"",""58"",""595196""
","""event"",""trial"",""time""
""blur"",""2"",""13269""
""blur"",""3"",""27364""
""blur"",""58"",""584180""
","""event"",""trial"",""time""
""focus"",""2"",""20253""
""focus"",""3"",""48580""
""focus"",""58"",""595196""
","""event"",""trial"",""time""
""fullscreenenter"",""1"",""4233""
","
","","","-1","","","10","5780","22","&#9826;","elianto","#f73b6a7A","-1","-1","1","0","[]","0","0","3","","","","","","","",""
"pit-trial","69","668442","0.0-2.0-14.2-0.2","battery-v0.2","","""event"",""trial"",""time""
""fullscreenenter"",""1"",""4233""
""blur"",""2"",""13269""
""focus"",""2"",""20253""
""blur"",""3"",""27364""
""focus"",""3"",""48580""
""blur"",""58"",""584180""
""focus"",""58"",""595196""
","""event"",""trial"",""time""
""blur"",""2"",""13269""
""blur"",""3"",""27364""
""blur"",""58"",""584180""
","""event"",""trial"",""time""
""focus"",""2"",""20253""
""focus"",""3"",""48580""
""focus"",""58"",""595196""
","""event"",""trial"",""time""
""fullscreenenter"",""1"",""4233""
","
","","","-1","","","10","5780","22","&#9826;","elianto","#f73b6a7A","-1","-1","1","0","[]","0","0","3","","","","","","","",""
"pit-trial","70","673305","0.0-2.0-14.2-1.2","battery-v0.2","","""event"",""trial"",""time""
""fullscreenenter"",""1"",""4233""
""blur"",""2"",""13269""
""focus"",""2"",""20253""
""blur"",""3"",""27364""
""focus"",""3"",""48580""
""blur"",""58"",""584180""
""focus"",""58"",""595196""
","""event"",""trial"",""time""
""blur"",""2"",""13269""
""blur"",""3"",""27364""
""blur"",""58"",""584180""
","""event"",""trial"",""time""
""focus"",""2"",""20253""
""focus"",""3"",""48580""
""focus"",""58"",""595196""
","""event"",""trial"",""time""
""fullscreenenter"",""1"",""4233""
","
","","","-1","","","10","5780","22","&#9826;","elianto","#f73b6a7A","-1","-1","1","0","[]","0","0","3","","","","","","","",""
"pit-trial","71","678170","0.0-2.0-14.2-2.2","battery-v0.2","","""event"",""trial"",""time""
""fullscreenenter"",""1"",""4233""
""blur"",""2"",""13269""
""focus"",""2"",""20253""
""blur"",""3"",""27364""
""focus"",""3"",""48580""
""blur"",""58"",""584180""
""focus"",""58"",""595196""
","""event"",""trial"",""time""
""blur"",""2"",""13269""
""blur"",""3"",""27364""
""blur"",""58"",""584180""
","""event"",""trial"",""time""
""focus"",""2"",""20253""
""focus"",""3"",""48580""
""focus"",""58"",""595196""
","""event"",""trial"",""time""
""fullscreenenter"",""1"",""4233""
","
","","","-1","","","10","5780","22","&#9826;","elianto","#f73b6a7A","-1","-1","1","0","[]","0","0","3","","","","","","","",""
"pit-trial","72","683046","0.0-2.0-14.2-3.2","battery-v0.2","","""event"",""trial"",""time""
""fullscreenenter"",""1"",""4233""
""blur"",""2"",""13269""
""focus"",""2"",""20253""
""blur"",""3"",""27364""
""focus"",""3"",""48580""
""blur"",""58"",""584180""
""focus"",""58"",""595196""
","""event"",""trial"",""time""
""blur"",""2"",""13269""
""blur"",""3"",""27364""
""blur"",""58"",""584180""
","""event"",""trial"",""time""
""focus"",""2"",""20253""
""focus"",""3"",""48580""
""focus"",""58"",""595196""
","""event"",""trial"",""time""
""fullscreenenter"",""1"",""4233""
","
","","","-1","","","10","5780","22","&#9826;","elianto","#f73b6a7A","-1","-1","1","-10","[]","0","0","3","","","","","","","",""
"pit-trial","73","687914","0.0-2.0-14.2-4.2","battery-v0.2","","""event"",""trial"",""time""
""fullscreenenter"",""1"",""4233""
""blur"",""2"",""13269""
""focus"",""2"",""20253""
""blur"",""3"",""27364""
""focus"",""3"",""48580""
""blur"",""58"",""584180""
""focus"",""58"",""595196""
","""event"",""trial"",""time""
""blur"",""2"",""13269""
""blur"",""3"",""27364""
""blur"",""58"",""584180""
","""event"",""trial"",""time""
""focus"",""2"",""20253""
""focus"",""3"",""48580""
""focus"",""58"",""595196""
","""event"",""trial"",""time""
""fullscreenenter"",""1"",""4233""
","
","","","-1","","","10","5780","22","&#9826;","elianto","#f73b6a7A","-1","-1","1","0","[]","0","0","3","","","","","","","",""
"pit-trial","74","692778","0.0-2.0-14.3-0.3","battery-v0.2","","""event"",""trial"",""time""
""fullscreenenter"",""1"",""4233""
""blur"",""2"",""13269""
""focus"",""2"",""20253""
""blur"",""3"",""27364""
""focus"",""3"",""48580""
""blur"",""58"",""584180""
""focus"",""58"",""595196""
","""event"",""trial"",""time""
""blur"",""2"",""13269""
""blur"",""3"",""27364""
""blur"",""58"",""584180""
","""event"",""trial"",""time""
""focus"",""2"",""20253""
""focus"",""3"",""48580""
""focus"",""58"",""595196""
","""event"",""trial"",""time""
""fullscreenenter"",""1"",""4233""
","
","","","-1","","","10","5780","22","&#9826;","elianto","#f73b6a7A","-1","-1","1","0","[]","0","0","3","","","","","","","",""
"pit-trial","75","697641","0.0-2.0-14.3-1.3","battery-v0.2","","""event"",""trial"",""time""
""fullscreenenter"",""1"",""4233""
""blur"",""2"",""13269""
""focus"",""2"",""20253""
""blur"",""3"",""27364""
""focus"",""3"",""48580""
""blur"",""58"",""584180""
""focus"",""58"",""595196""
","""event"",""trial"",""time""
""blur"",""2"",""13269""
""blur"",""3"",""27364""
""blur"",""58"",""584180""
","""event"",""trial"",""time""
""focus"",""2"",""20253""
""focus"",""3"",""48580""
""focus"",""58"",""595196""
","""event"",""trial"",""time""
""fullscreenenter"",""1"",""4233""
","
","","","-1","","","10","5780","22","&#9826;","elianto","#f73b6a7A","-1","-1","1","0","[]","0","0","3","","","","","","","",""
"pit-trial","76","702514","0.0-2.0-14.3-2.3","battery-v0.2","","""event"",""trial"",""time""
""fullscreenenter"",""1"",""4233""
""blur"",""2"",""13269""
""focus"",""2"",""20253""
""blur"",""3"",""27364""
""focus"",""3"",""48580""
""blur"",""58"",""584180""
""focus"",""58"",""595196""
","""event"",""trial"",""time""
""blur"",""2"",""13269""
""blur"",""3"",""27364""
""blur"",""58"",""584180""
","""event"",""trial"",""time""
""focus"",""2"",""20253""
""focus"",""3"",""48580""
""focus"",""58"",""595196""
","""event"",""trial"",""time""
""fullscreenenter"",""1"",""4233""
","
","","","-1","","","10","5780","22","&#9826;","elianto","#f73b6a7A","-1","-1","1","0","[]","0","0","3","","","","","","","",""
"pit-trial","77","707378","0.0-2.0-14.3-3.3","battery-v0.2","","""event"",""trial"",""time""
""fullscreenenter"",""1"",""4233""
""blur"",""2"",""13269""
""focus"",""2"",""20253""
""blur"",""3"",""27364""
""focus"",""3"",""48580""
""blur"",""58"",""584180""
""focus"",""58"",""595196""
","""event"",""trial"",""time""
""blur"",""2"",""13269""
""blur"",""3"",""27364""
""blur"",""58"",""584180""
","""event"",""trial"",""time""
""focus"",""2"",""20253""
""focus"",""3"",""48580""
""focus"",""58"",""595196""
","""event"",""trial"",""time""
""fullscreenenter"",""1"",""4233""
","
","","","-1","","","10","5780","22","&#9826;","elianto","#f73b6a7A","-1","-1","1","-10","[]","0","0","3","","","","","","","",""
"pit-trial","78","712241","0.0-2.0-14.3-4.3","battery-v0.2","","""event"",""trial"",""time""
""fullscreenenter"",""1"",""4233""
""blur"",""2"",""13269""
""focus"",""2"",""20253""
""blur"",""3"",""27364""
""focus"",""3"",""48580""
""blur"",""58"",""584180""
""focus"",""58"",""595196""
","""event"",""trial"",""time""
""blur"",""2"",""13269""
""blur"",""3"",""27364""
""blur"",""58"",""584180""
","""event"",""trial"",""time""
""focus"",""2"",""20253""
""focus"",""3"",""48580""
""focus"",""58"",""595196""
","""event"",""trial"",""time""
""fullscreenenter"",""1"",""4233""
","
","","","-1","","","10","5780","22","&#9826;","elianto","#f73b6a7A","-1","-1","1","0","[]","0","0","3","","","","","","","",""
"call-function","79","712242","0.0-2.0-15.0","battery-v0.2","","""event"",""trial"",""time""
""fullscreenenter"",""1"",""4233""
""blur"",""2"",""13269""
""focus"",""2"",""20253""
""blur"",""3"",""27364""
""focus"",""3"",""48580""
""blur"",""58"",""584180""
""focus"",""58"",""595196""
","""event"",""trial"",""time""
""blur"",""2"",""13269""
""blur"",""3"",""27364""
""blur"",""58"",""584180""
","""event"",""trial"",""time""
""focus"",""2"",""20253""
""focus"",""3"",""48580""
""focus"",""58"",""595196""
","""event"",""trial"",""time""
""fullscreenenter"",""1"",""4233""
","
","","","","","","","","","","","","","","","","","","","","","","","","","","",""
"pit-instructions","80","743122","0.0-2.0-16.0","battery-v0.2","","""event"",""trial"",""time""
""fullscreenenter"",""1"",""4233""
""blur"",""2"",""13269""
""focus"",""2"",""20253""
""blur"",""3"",""27364""
""focus"",""3"",""48580""
""blur"",""58"",""584180""
""focus"",""58"",""595196""
","""event"",""trial"",""time""
""blur"",""2"",""13269""
""blur"",""3"",""27364""
""blur"",""58"",""584180""
","""event"",""trial"",""time""
""focus"",""2"",""20253""
""focus"",""3"",""48580""
""focus"",""58"",""595196""
","""event"",""trial"",""time""
""fullscreenenter"",""1"",""4233""
","
","","[{""page_index"":0,""viewing_time"":8599},{""page_index"":1,""viewing_time"":11783.899999976158},{""page_index"":2,""viewing_time"":5112},{""page_index"":3,""viewing_time"":5384.200000017881}]","30879.5","","","","","","","","","","","","","","","","","","","","","","","",""
"pit-trial","81","746594","0.0-2.0-17.0-0.0","battery-v0.2","","""event"",""trial"",""time""
""fullscreenenter"",""1"",""4233""
""blur"",""2"",""13269""
""focus"",""2"",""20253""
""blur"",""3"",""27364""
""focus"",""3"",""48580""
""blur"",""58"",""584180""
""focus"",""58"",""595196""
","""event"",""trial"",""time""
""blur"",""2"",""13269""
""blur"",""3"",""27364""
""blur"",""58"",""584180""
","""event"",""trial"",""time""
""focus"",""2"",""20253""
""focus"",""3"",""48580""
""focus"",""58"",""595196""
","""event"",""trial"",""time""
""fullscreenenter"",""1"",""4233""
","
","","","607.7999999821186","","","10","5780","22","&#9789;","elianto","#f73b6a7A"," "," ","1","0","[1462.3999999761581]","1","0","4","","","","","","","",""
"pit-trial","82","749815","0.0-2.0-17.0-1.0","battery-v0.2","","""event"",""trial"",""time""
""fullscreenenter"",""1"",""4233""
""blur"",""2"",""13269""
""focus"",""2"",""20253""
""blur"",""3"",""27364""
""focus"",""3"",""48580""
""blur"",""58"",""584180""
""focus"",""58"",""595196""
","""event"",""trial"",""time""
""blur"",""2"",""13269""
""blur"",""3"",""27364""
""blur"",""58"",""584180""
","""event"",""trial"",""time""
""focus"",""2"",""20253""
""focus"",""3"",""48580""
""focus"",""58"",""595196""
","""event"",""trial"",""time""
""fullscreenenter"",""1"",""4233""
","
","","","347.90000000596046","","","10","5780","22","&#9789;","elianto","#f73b6a7A"," "," ","1","0","[1199.199999988079]","1","0","4","","","","","","","",""
"pit-trial","83","752965","0.0-2.0-17.0-2.0","battery-v0.2","","""event"",""trial"",""time""
""fullscreenenter"",""1"",""4233""
""blur"",""2"",""13269""
""focus"",""2"",""20253""
""blur"",""3"",""27364""
""focus"",""3"",""48580""
""blur"",""58"",""584180""
""focus"",""58"",""595196""
","""event"",""trial"",""time""
""blur"",""2"",""13269""
""blur"",""3"",""27364""
""blur"",""58"",""584180""
","""event"",""trial"",""time""
""focus"",""2"",""20253""
""focus"",""3"",""48580""
""focus"",""58"",""595196""
","""event"",""trial"",""time""
""fullscreenenter"",""1"",""4233""
","
","","","288.10000002384186","","","10","5780","22","&#9789;","elianto","#f73b6a7A"," "," ","1","0","[1138.300000011921]","1","0","4","","","","","","","",""
"pit-trial","84","757844","0.0-2.0-17.0-3.0","battery-v0.2","","""event"",""trial"",""time""
""fullscreenenter"",""1"",""4233""
""blur"",""2"",""13269""
""focus"",""2"",""20253""
""blur"",""3"",""27364""
""focus"",""3"",""48580""
""blur"",""58"",""584180""
""focus"",""58"",""595196""
","""event"",""trial"",""time""
""blur"",""2"",""13269""
""blur"",""3"",""27364""
""blur"",""58"",""584180""
","""event"",""trial"",""time""
""focus"",""2"",""20253""
""focus"",""3"",""48580""
""focus"",""58"",""595196""
","""event"",""trial"",""time""
""fullscreenenter"",""1"",""4233""
","
","","","-1","","","10","5780","22","&#9789;","elianto","#f73b6a7A"," ","-1","0","0","[812]","1","0","4","","","","","","","",""
"pit-trial","85","762724","0.0-2.0-17.0-4.0","battery-v0.2","","""event"",""trial"",""time""
""fullscreenenter"",""1"",""4233""
""blur"",""2"",""13269""
""focus"",""2"",""20253""
""blur"",""3"",""27364""
""focus"",""3"",""48580""
""blur"",""58"",""584180""
""focus"",""58"",""595196""
","""event"",""trial"",""time""
""blur"",""2"",""13269""
""blur"",""3"",""27364""
""blur"",""58"",""584180""
","""event"",""trial"",""time""
""focus"",""2"",""20253""
""focus"",""3"",""48580""
""focus"",""58"",""595196""
","""event"",""trial"",""time""
""fullscreenenter"",""1"",""4233""
","
","","","-1","","","10","5780","22","&#9789;","elianto","#f73b6a7A"," ","-1","0","-10","[765]","1","0","4","","","","","","","",""
"pit-trial","86","767614","0.0-2.0-17.1-0.1","battery-v0.2","","""event"",""trial"",""time""
""fullscreenenter"",""1"",""4233""
""blur"",""2"",""13269""
""focus"",""2"",""20253""
""blur"",""3"",""27364""
""focus"",""3"",""48580""
""blur"",""58"",""584180""
""focus"",""58"",""595196""
","""event"",""trial"",""time""
""blur"",""2"",""13269""
""blur"",""3"",""27364""
""blur"",""58"",""584180""
","""event"",""trial"",""time""
""focus"",""2"",""20253""
""focus"",""3"",""48580""
""focus"",""58"",""595196""
","""event"",""trial"",""time""
""fullscreenenter"",""1"",""4233""
","
","","","-1","","","10","5780","22","&#9789;","elianto","#f73b6a7A"," ","-1","0","-10","[796.0999999940395]","1","0","4","","","","","","","",""
"pit-trial","87","770714","0.0-2.0-17.1-1.1","battery-v0.2","","""event"",""trial"",""time""
""fullscreenenter"",""1"",""4233""
""blur"",""2"",""13269""
""focus"",""2"",""20253""
""blur"",""3"",""27364""
""focus"",""3"",""48580""
""blur"",""58"",""584180""
""focus"",""58"",""595196""
","""event"",""trial"",""time""
""blur"",""2"",""13269""
""blur"",""3"",""27364""
""blur"",""58"",""584180""
","""event"",""trial"",""time""
""focus"",""2"",""20253""
""focus"",""3"",""48580""
""focus"",""58"",""595196""
","""event"",""trial"",""time""
""fullscreenenter"",""1"",""4233""
","
","","","235.30000001192093","","","10","5780","22","&#9789;","elianto","#f73b6a7A"," "," ","1","0","[1090.5999999940395]","1","0","4","","","","","","","",""
"pit-trial","88","773842","0.0-2.0-17.1-2.1","battery-v0.2","","""event"",""trial"",""time""
""fullscreenenter"",""1"",""4233""
""blur"",""2"",""13269""
""focus"",""2"",""20253""
""blur"",""3"",""27364""
""focus"",""3"",""48580""
""blur"",""58"",""584180""
""focus"",""58"",""595196""
","""event"",""trial"",""time""
""blur"",""2"",""13269""
""blur"",""3"",""27364""
""blur"",""58"",""584180""
","""event"",""trial"",""time""
""focus"",""2"",""20253""
""focus"",""3"",""48580""
""focus"",""58"",""595196""
","""event"",""trial"",""time""
""fullscreenenter"",""1"",""4233""
","
","","","264.39999997615814","","","10","5780","22","&#9789;","elianto","#f73b6a7A"," "," ","1","0","[1119]","1","0","4","","","","","","","",""
"pit-trial","89","778706","0.0-2.0-17.1-3.1","battery-v0.2","","""event"",""trial"",""time""
""fullscreenenter"",""1"",""4233""
""blur"",""2"",""13269""
""focus"",""2"",""20253""
""blur"",""3"",""27364""
""focus"",""3"",""48580""
""blur"",""58"",""584180""
""focus"",""58"",""595196""
","""event"",""trial"",""time""
""blur"",""2"",""13269""
""blur"",""3"",""27364""
""blur"",""58"",""584180""
","""event"",""trial"",""time""
""focus"",""2"",""20253""
""focus"",""3"",""48580""
""focus"",""58"",""595196""
","""event"",""trial"",""time""
""fullscreenenter"",""1"",""4233""
","
","","","-1","","","10","5780","22","&#9789;","elianto","#f73b6a7A"," ","-1","0","0","[632.5]","1","0","4","","","","","","","",""
"pit-trial","90","781794","0.0-2.0-17.1-4.1","battery-v0.2","","""event"",""trial"",""time""
""fullscreenenter"",""1"",""4233""
""blur"",""2"",""13269""
""focus"",""2"",""20253""
""blur"",""3"",""27364""
""focus"",""3"",""48580""
""blur"",""58"",""584180""
""focus"",""58"",""595196""
","""event"",""trial"",""time""
""blur"",""2"",""13269""
""blur"",""3"",""27364""
""blur"",""58"",""584180""
","""event"",""trial"",""time""
""focus"",""2"",""20253""
""focus"",""3"",""48580""
""focus"",""58"",""595196""
","""event"",""trial"",""time""
""fullscreenenter"",""1"",""4233""
","
","","","227.80000001192093","","","10","5780","22","&#9789;","elianto","#f73b6a7A"," "," ","1","0","[1079.5]","1","0","4","","","","","","","",""
"pit-trial","91","784842","0.0-2.0-17.2-0.2","battery-v0.2","","""event"",""trial"",""time""
""fullscreenenter"",""1"",""4233""
""blur"",""2"",""13269""
""focus"",""2"",""20253""
""blur"",""3"",""27364""
""focus"",""3"",""48580""
""blur"",""58"",""584180""
""focus"",""58"",""595196""
","""event"",""trial"",""time""
""blur"",""2"",""13269""
""blur"",""3"",""27364""
""blur"",""58"",""584180""
","""event"",""trial"",""time""
""focus"",""2"",""20253""
""focus"",""3"",""48580""
""focus"",""58"",""595196""
","""event"",""trial"",""time""
""fullscreenenter"",""1"",""4233""
","
","","","184","","","10","5780","22","&#9789;","elianto","#f73b6a7A"," "," ","1","0","[1038.699999988079]","1","0","4","","","","","","","",""
"pit-trial","92","787930","0.0-2.0-17.2-1.2","battery-v0.2","","""event"",""trial"",""time""
""fullscreenenter"",""1"",""4233""
""blur"",""2"",""13269""
""focus"",""2"",""20253""
""blur"",""3"",""27364""
""focus"",""3"",""48580""
""blur"",""58"",""584180""
""focus"",""58"",""595196""
","""event"",""trial"",""time""
""blur"",""2"",""13269""
""blur"",""3"",""27364""
""blur"",""58"",""584180""
","""event"",""trial"",""time""
""focus"",""2"",""20253""
""focus"",""3"",""48580""
""focus"",""58"",""595196""
","""event"",""trial"",""time""
""fullscreenenter"",""1"",""4233""
","
","","","228.7000000178814","","","10","5780","22","&#9789;","elianto","#f73b6a7A"," "," ","1","0","[1079.800000011921]","1","0","4","","","","","","","",""
"pit-trial","93","792794","0.0-2.0-17.2-2.2","battery-v0.2","","""event"",""trial"",""time""
""fullscreenenter"",""1"",""4233""
""blur"",""2"",""13269""
""focus"",""2"",""20253""
""blur"",""3"",""27364""
""focus"",""3"",""48580""
""blur"",""58"",""584180""
""focus"",""58"",""595196""
","""event"",""trial"",""time""
""blur"",""2"",""13269""
""blur"",""3"",""27364""
""blur"",""58"",""584180""
","""event"",""trial"",""time""
""focus"",""2"",""20253""
""focus"",""3"",""48580""
""focus"",""58"",""595196""
","""event"",""trial"",""time""
""fullscreenenter"",""1"",""4233""
","
","","","-1","","","10","5780","22","&#9789;","elianto","#f73b6a7A"," ","-1","0","-10","[782.3000000119209,4758.800000011921]","2","0","4","","","","","","","",""
"pit-trial","94","795954","0.0-2.0-17.2-3.2","battery-v0.2","","""event"",""trial"",""time""
""fullscreenenter"",""1"",""4233""
""blur"",""2"",""13269""
""focus"",""2"",""20253""
""blur"",""3"",""27364""
""focus"",""3"",""48580""
""blur"",""58"",""584180""
""focus"",""58"",""595196""
","""event"",""trial"",""time""
""blur"",""2"",""13269""
""blur"",""3"",""27364""
""blur"",""58"",""584180""
","""event"",""trial"",""time""
""focus"",""2"",""20253""
""focus"",""3"",""48580""
""focus"",""58"",""595196""
","""event"",""trial"",""time""
""fullscreenenter"",""1"",""4233""
","
","","","298.69999998807907","","","10","5780","22","&#9789;","elianto","#f73b6a7A"," "," ","1","-10","[1150.5]","1","0","4","","","","","","","",""
"pit-trial","95","798818","0.0-2.0-17.2-4.2","battery-v0.2","","""event"",""trial"",""time""
""fullscreenenter"",""1"",""4233""
""blur"",""2"",""13269""
""focus"",""2"",""20253""
""blur"",""3"",""27364""
""focus"",""3"",""48580""
""blur"",""58"",""584180""
""focus"",""58"",""595196""
","""event"",""trial"",""time""
""blur"",""2"",""13269""
""blur"",""3"",""27364""
""blur"",""58"",""584180""
","""event"",""trial"",""time""
""focus"",""2"",""20253""
""focus"",""3"",""48580""
""focus"",""58"",""595196""
","""event"",""trial"",""time""
""fullscreenenter"",""1"",""4233""
","
","","","0.9000000059604645","","","10","5780","22","&#9789;","elianto","#f73b6a7A"," "," ","1","0","[855]","1","0","4","","","","","","","",""
"pit-trial","96","803681","0.0-2.0-17.3-0.3","battery-v0.2","","""event"",""trial"",""time""
""fullscreenenter"",""1"",""4233""
""blur"",""2"",""13269""
""focus"",""2"",""20253""
""blur"",""3"",""27364""
""focus"",""3"",""48580""
""blur"",""58"",""584180""
""focus"",""58"",""595196""
","""event"",""trial"",""time""
""blur"",""2"",""13269""
""blur"",""3"",""27364""
""blur"",""58"",""584180""
","""event"",""trial"",""time""
""focus"",""2"",""20253""
""focus"",""3"",""48580""
""focus"",""58"",""595196""
","""event"",""trial"",""time""
""fullscreenenter"",""1"",""4233""
","
","","","-1","","","10","5780","22","&#9789;","elianto","#f73b6a7A"," ","-1","0","-10","[806.5999999940395]","1","0","4","","","","","","","",""
"pit-trial","97","806914","0.0-2.0-17.3-1.3","battery-v0.2","","""event"",""trial"",""time""
""fullscreenenter"",""1"",""4233""
""blur"",""2"",""13269""
""focus"",""2"",""20253""
""blur"",""3"",""27364""
""focus"",""3"",""48580""
""blur"",""58"",""584180""
""focus"",""58"",""595196""
","""event"",""trial"",""time""
""blur"",""2"",""13269""
""blur"",""3"",""27364""
""blur"",""58"",""584180""
","""event"",""trial"",""time""
""focus"",""2"",""20253""
""focus"",""3"",""48580""
""focus"",""58"",""595196""
","""event"",""trial"",""time""
""fullscreenenter"",""1"",""4233""
","
","","","371.40000000596046","","","10","5780","22","&#9789;","elianto","#f73b6a7A"," "," ","1","0","[1223.5]","1","0","4","","","","","","","",""
"pit-trial","98","810154","0.0-2.0-17.3-2.3","battery-v0.2","","""event"",""trial"",""time""
""fullscreenenter"",""1"",""4233""
""blur"",""2"",""13269""
""focus"",""2"",""20253""
""blur"",""3"",""27364""
""focus"",""3"",""48580""
""blur"",""58"",""584180""
""focus"",""58"",""595196""
","""event"",""trial"",""time""
""blur"",""2"",""13269""
""blur"",""3"",""27364""
""blur"",""58"",""584180""
","""event"",""trial"",""time""
""focus"",""2"",""20253""
""focus"",""3"",""48580""
""focus"",""58"",""595196""
","""event"",""trial"",""time""
""fullscreenenter"",""1"",""4233""
","
","","","376.90000000596046","","","10","5780","22","&#9789;","elianto","#f73b6a7A"," "," ","1","0","[1230.800000011921]","1","0","4","","","","","","","",""
"pit-trial","99","813265","0.0-2.0-17.3-3.3","battery-v0.2","","""event"",""trial"",""time""
""fullscreenenter"",""1"",""4233""
""blur"",""2"",""13269""
""focus"",""2"",""20253""
""blur"",""3"",""27364""
""focus"",""3"",""48580""
""blur"",""58"",""584180""
""focus"",""58"",""595196""
","""event"",""trial"",""time""
""blur"",""2"",""13269""
""blur"",""3"",""27364""
""blur"",""58"",""584180""
","""event"",""trial"",""time""
""focus"",""2"",""20253""
""focus"",""3"",""48580""
""focus"",""58"",""595196""
","""event"",""trial"",""time""
""fullscreenenter"",""1"",""4233""
","
","","","252.89999997615814","","","10","5780","22","&#9789;","elianto","#f73b6a7A"," "," ","1","-10","[1103.3999999761581]","1","0","4","","","","","","","",""
"pit-trial","100","816394","0.0-2.0-17.3-4.3","battery-v0.2","","""event"",""trial"",""time""
""fullscreenenter"",""1"",""4233""
""blur"",""2"",""13269""
""focus"",""2"",""20253""
""blur"",""3"",""27364""
""focus"",""3"",""48580""
""blur"",""58"",""584180""
""focus"",""58"",""595196""
","""event"",""trial"",""time""
""blur"",""2"",""13269""
""blur"",""3"",""27364""
""blur"",""58"",""584180""
","""event"",""trial"",""time""
""focus"",""2"",""20253""
""focus"",""3"",""48580""
""focus"",""58"",""595196""
","""event"",""trial"",""time""
""fullscreenenter"",""1"",""4233""
","
","","","264.80000001192093","","","10","5780","22","&#9789;","elianto","#f73b6a7A"," "," ","1","0","[1120.2000000178814]","1","0","4","","","","","","","",""
"call-function","101","816395","0.0-2.0-18.0","battery-v0.2","","""event"",""trial"",""time""
""fullscreenenter"",""1"",""4233""
""blur"",""2"",""13269""
""focus"",""2"",""20253""
""blur"",""3"",""27364""
""focus"",""3"",""48580""
""blur"",""58"",""584180""
""focus"",""58"",""595196""
","""event"",""trial"",""time""
""blur"",""2"",""13269""
""blur"",""3"",""27364""
""blur"",""58"",""584180""
","""event"",""trial"",""time""
""focus"",""2"",""20253""
""focus"",""3"",""48580""
""focus"",""58"",""595196""
","""event"",""trial"",""time""
""fullscreenenter"",""1"",""4233""
","
","","","","","","","","","","","","","","","","","","","","","","","","","","",""
"pit-instructions","102","908843","0.0-2.0-19.0","battery-v0.2","","""event"",""trial"",""time""
""fullscreenenter"",""1"",""4233""
""blur"",""2"",""13269""
""focus"",""2"",""20253""
""blur"",""3"",""27364""
""focus"",""3"",""48580""
""blur"",""58"",""584180""
""focus"",""58"",""595196""
","""event"",""trial"",""time""
""blur"",""2"",""13269""
""blur"",""3"",""27364""
""blur"",""58"",""584180""
","""event"",""trial"",""time""
""focus"",""2"",""20253""
""focus"",""3"",""48580""
""focus"",""58"",""595196""
","""event"",""trial"",""time""
""fullscreenenter"",""1"",""4233""
","
","","[{""page_index"":0,""viewing_time"":7158.4000000059605},{""page_index"":1,""viewing_time"":13327.699999988079},{""page_index"":2,""viewing_time"":14736.5},{""page_index"":3,""viewing_time"":9719.800000011921},{""page_index"":4,""viewing_time"":14128.09999999404},{""page_index"":5,""viewing_time"":8744.40000000596},{""page_index"":6,""viewing_time"":11831.699999988079},{""page_index"":7,""viewing_time"":8232.800000011921},{""page_index"":8,""viewing_time"":4567.799999982119}]","92447.5","","","","","","","","","","","","","","","","","","","","","","","",""
"pit-comprehension","103","917147","0.0-2.0-20.0-0.0","battery-v0.2","","""event"",""trial"",""time""
""fullscreenenter"",""1"",""4233""
""blur"",""2"",""13269""
""focus"",""2"",""20253""
""blur"",""3"",""27364""
""focus"",""3"",""48580""
""blur"",""58"",""584180""
""focus"",""58"",""595196""
","""event"",""trial"",""time""
""blur"",""2"",""13269""
""blur"",""3"",""27364""
""blur"",""58"",""584180""
","""event"",""trial"",""time""
""focus"",""2"",""20253""
""focus"",""3"",""48580""
""focus"",""58"",""595196""
","""event"",""trial"",""time""
""fullscreenenter"",""1"",""4233""
","
","","","8298.699999988079","[""SPACE""]","0","10","5780","22","","","","","","","","","","","","","","","","","","",""
"pit-instructions","104","919826","0.0-2.0-20.0-1.0","battery-v0.2","","""event"",""trial"",""time""
""fullscreenenter"",""1"",""4233""
""blur"",""2"",""13269""
""focus"",""2"",""20253""
""blur"",""3"",""27364""
""focus"",""3"",""48580""
""blur"",""58"",""584180""
""focus"",""58"",""595196""
","""event"",""trial"",""time""
""blur"",""2"",""13269""
""blur"",""3"",""27364""
""blur"",""58"",""584180""
","""event"",""trial"",""time""
""focus"",""2"",""20253""
""focus"",""3"",""48580""
""focus"",""58"",""595196""
","""event"",""trial"",""time""
""fullscreenenter"",""1"",""4233""
","
","","[{""page_index"":0,""viewing_time"":2632.899999976158}]","2633.2999999821186","","","","","","","","","","","","","","","","","","","","","","","",""
"pit-comprehension","105","927075","0.0-2.0-21.0-0.0","battery-v0.2","","""event"",""trial"",""time""
""fullscreenenter"",""1"",""4233""
""blur"",""2"",""13269""
""focus"",""2"",""20253""
""blur"",""3"",""27364""
""focus"",""3"",""48580""
""blur"",""58"",""584180""
""focus"",""58"",""595196""
","""event"",""trial"",""time""
""blur"",""2"",""13269""
""blur"",""3"",""27364""
""blur"",""58"",""584180""
","""event"",""trial"",""time""
""focus"",""2"",""20253""
""focus"",""3"",""48580""
""focus"",""58"",""595196""
","""event"",""trial"",""time""
""fullscreenenter"",""1"",""4233""
","
","","","7246.200000017881","[""10""]","0","10","5780","22","","","","","","","","","","","","","","","","","","",""
"pit-instructions","106","928698","0.0-2.0-21.0-1.0","battery-v0.2","","""event"",""trial"",""time""
""fullscreenenter"",""1"",""4233""
""blur"",""2"",""13269""
""focus"",""2"",""20253""
""blur"",""3"",""27364""
""focus"",""3"",""48580""
""blur"",""58"",""584180""
""focus"",""58"",""595196""
","""event"",""trial"",""time""
""blur"",""2"",""13269""
""blur"",""3"",""27364""
""blur"",""58"",""584180""
","""event"",""trial"",""time""
""focus"",""2"",""20253""
""focus"",""3"",""48580""
""focus"",""58"",""595196""
","""event"",""trial"",""time""
""fullscreenenter"",""1"",""4233""
","
","","[{""page_index"":0,""viewing_time"":1576}]","1576.3999999761581","","","","","","","","","","","","","","","","","","","","","","","",""
"pit-comprehension","107","935371","0.0-2.0-22.0-0.0","battery-v0.2","","""event"",""trial"",""time""
""fullscreenenter"",""1"",""4233""
""blur"",""2"",""13269""
""focus"",""2"",""20253""
""blur"",""3"",""27364""
""focus"",""3"",""48580""
""blur"",""58"",""584180""
""focus"",""58"",""595196""
","""event"",""trial"",""time""
""blur"",""2"",""13269""
""blur"",""3"",""27364""
""blur"",""58"",""584180""
","""event"",""trial"",""time""
""focus"",""2"",""20253""
""focus"",""3"",""48580""
""focus"",""58"",""595196""
","""event"",""trial"",""time""
""fullscreenenter"",""1"",""4233""
","
","","","6669.800000011921","[""0""]","0","10","5780","22","","","","","","","","","","","","","","","","","","",""
"pit-instructions","108","937074","0.0-2.0-22.0-1.0","battery-v0.2","","""event"",""trial"",""time""
""fullscreenenter"",""1"",""4233""
""blur"",""2"",""13269""
""focus"",""2"",""20253""
""blur"",""3"",""27364""
""focus"",""3"",""48580""
""blur"",""58"",""584180""
""focus"",""58"",""595196""
","""event"",""trial"",""time""
""blur"",""2"",""13269""
""blur"",""3"",""27364""
""blur"",""58"",""584180""
","""event"",""trial"",""time""
""focus"",""2"",""20253""
""focus"",""3"",""48580""
""focus"",""58"",""595196""
","""event"",""trial"",""time""
""fullscreenenter"",""1"",""4233""
","
","","[{""page_index"":0,""viewing_time"":1655.800000011921}]","1656","","","","","","","","","","","","","","","","","","","","","","","",""
"pit-comprehension","109","953162","0.0-2.0-23.0-0.0","battery-v0.2","","""event"",""trial"",""time""
""fullscreenenter"",""1"",""4233""
""blur"",""2"",""13269""
""focus"",""2"",""20253""
""blur"",""3"",""27364""
""focus"",""3"",""48580""
""blur"",""58"",""584180""
""focus"",""58"",""595196""
","""event"",""trial"",""time""
""blur"",""2"",""13269""
""blur"",""3"",""27364""
""blur"",""58"",""584180""
","""event"",""trial"",""time""
""focus"",""2"",""20253""
""focus"",""3"",""48580""
""focus"",""58"",""595196""
","""event"",""trial"",""time""
""fullscreenenter"",""1"",""4233""
","
","","","16086.199999988079","[""False""]","1","10","5780","22","","","","","","","","","","","","","","","","","","",""
"pit-instructions","110","956090","0.0-2.0-23.0-1.0","battery-v0.2","","""event"",""trial"",""time""
""fullscreenenter"",""1"",""4233""
""blur"",""2"",""13269""
""focus"",""2"",""20253""
""blur"",""3"",""27364""
""focus"",""3"",""48580""
""blur"",""58"",""584180""
""focus"",""58"",""595196""
","""event"",""trial"",""time""
""blur"",""2"",""13269""
""blur"",""3"",""27364""
""blur"",""58"",""584180""
","""event"",""trial"",""time""
""focus"",""2"",""20253""
""focus"",""3"",""48580""
""focus"",""58"",""595196""
","""event"",""trial"",""time""
""fullscreenenter"",""1"",""4233""
","
","","[{""page_index"":0,""viewing_time"":2878.699999988079}]","2879.0999999940395","","","","","","","","","","","","","","","","","","","","","","","",""
"pit-instructions","111","957922","0.0-2.0-23.0-2.0-0.0","battery-v0.2","","""event"",""trial"",""time""
""fullscreenenter"",""1"",""4233""
""blur"",""2"",""13269""
""focus"",""2"",""20253""
""blur"",""3"",""27364""
""focus"",""3"",""48580""
""blur"",""58"",""584180""
""focus"",""58"",""595196""
","""event"",""trial"",""time""
""blur"",""2"",""13269""
""blur"",""3"",""27364""
""blur"",""58"",""584180""
","""event"",""trial"",""time""
""focus"",""2"",""20253""
""focus"",""3"",""48580""
""focus"",""58"",""595196""
","""event"",""trial"",""time""
""fullscreenenter"",""1"",""4233""
","
","","[{""page_index"":0,""viewing_time"":1830.300000011921}]","1830.4000000059605","","","","","","","","","","","","","","","","","","","","","","","",""
"pit-comprehension","112","966555","0.0-2.0-23.1-0.1","battery-v0.2","","""event"",""trial"",""time""
""fullscreenenter"",""1"",""4233""
""blur"",""2"",""13269""
""focus"",""2"",""20253""
""blur"",""3"",""27364""
""focus"",""3"",""48580""
""blur"",""58"",""584180""
""focus"",""58"",""595196""
","""event"",""trial"",""time""
""blur"",""2"",""13269""
""blur"",""3"",""27364""
""blur"",""58"",""584180""
","""event"",""trial"",""time""
""focus"",""2"",""20253""
""focus"",""3"",""48580""
""focus"",""58"",""595196""
","""event"",""trial"",""time""
""fullscreenenter"",""1"",""4233""
","
","","","8631","[""True""]","0","10","5780","22","","","","","","","","","","","","","","","","","","",""
"pit-instructions","113","968890","0.0-2.0-23.1-1.1","battery-v0.2","","""event"",""trial"",""time""
""fullscreenenter"",""1"",""4233""
""blur"",""2"",""13269""
""focus"",""2"",""20253""
""blur"",""3"",""27364""
""focus"",""3"",""48580""
""blur"",""58"",""584180""
""focus"",""58"",""595196""
","""event"",""trial"",""time""
""blur"",""2"",""13269""
""blur"",""3"",""27364""
""blur"",""58"",""584180""
","""event"",""trial"",""time""
""focus"",""2"",""20253""
""focus"",""3"",""48580""
""focus"",""58"",""595196""
","""event"",""trial"",""time""
""fullscreenenter"",""1"",""4233""
","
","","[{""page_index"":0,""viewing_time"":2288.300000011921}]","2288.5","","","","","","","","","","","","","","","","","","","","","","","",""
"pit-comprehension","114","976467","0.0-2.0-24.0-0.0","battery-v0.2","","""event"",""trial"",""time""
""fullscreenenter"",""1"",""4233""
""blur"",""2"",""13269""
""focus"",""2"",""20253""
""blur"",""3"",""27364""
""focus"",""3"",""48580""
""blur"",""58"",""584180""
""focus"",""58"",""595196""
","""event"",""trial"",""time""
""blur"",""2"",""13269""
""blur"",""3"",""27364""
""blur"",""58"",""584180""
","""event"",""trial"",""time""
""focus"",""2"",""20253""
""focus"",""3"",""48580""
""focus"",""58"",""595196""
","""event"",""trial"",""time""
""fullscreenenter"",""1"",""4233""
","
","","","7574.4000000059605","[""True""]","0","10","5780","22","","","","","","","","","","","","","","","","","","",""
"pit-instructions","115","978042","0.0-2.0-24.0-1.0","battery-v0.2","","""event"",""trial"",""time""
""fullscreenenter"",""1"",""4233""
""blur"",""2"",""13269""
""focus"",""2"",""20253""
""blur"",""3"",""27364""
""focus"",""3"",""48580""
""blur"",""58"",""584180""
""focus"",""58"",""595196""
","""event"",""trial"",""time""
""blur"",""2"",""13269""
""blur"",""3"",""27364""
""blur"",""58"",""584180""
","""event"",""trial"",""time""
""focus"",""2"",""20253""
""focus"",""3"",""48580""
""focus"",""58"",""595196""
","""event"",""trial"",""time""
""fullscreenenter"",""1"",""4233""
","
","","[{""page_index"":0,""viewing_time"":1524.800000011921}]","1525.0999999940395","","","","","","","","","","","","","","","","","","","","","","","",""
"pit-comprehension","116","986642","0.0-2.0-25.0-0.0","battery-v0.2","","""event"",""trial"",""time""
""fullscreenenter"",""1"",""4233""
""blur"",""2"",""13269""
""focus"",""2"",""20253""
""blur"",""3"",""27364""
""focus"",""3"",""48580""
""blur"",""58"",""584180""
""focus"",""58"",""595196""
","""event"",""trial"",""time""
""blur"",""2"",""13269""
""blur"",""3"",""27364""
""blur"",""58"",""584180""
","""event"",""trial"",""time""
""focus"",""2"",""20253""
""focus"",""3"",""48580""
""focus"",""58"",""595196""
","""event"",""trial"",""time""
""fullscreenenter"",""1"",""4233""
","
","","","8598.199999988079","[""True""]","0","10","5780","22","","","","","","","","","","","","","","","","","","",""
"pit-instructions","117","989018","0.0-2.0-25.0-1.0","battery-v0.2","","""event"",""trial"",""time""
""fullscreenenter"",""1"",""4233""
""blur"",""2"",""13269""
""focus"",""2"",""20253""
""blur"",""3"",""27364""
""focus"",""3"",""48580""
""blur"",""58"",""584180""
""focus"",""58"",""595196""
","""event"",""trial"",""time""
""blur"",""2"",""13269""
""blur"",""3"",""27364""
""blur"",""58"",""584180""
","""event"",""trial"",""time""
""focus"",""2"",""20253""
""focus"",""3"",""48580""
""focus"",""58"",""595196""
","""event"",""trial"",""time""
""fullscreenenter"",""1"",""4233""
","
","","[{""page_index"":0,""viewing_time"":2326.899999976158}]","2327.2999999821186","","","","","","","","","","","","","","","","","","","","","","","",""
"pit-comprehension","118","997467","0.0-2.0-26.0-0.0","battery-v0.2","","""event"",""trial"",""time""
""fullscreenenter"",""1"",""4233""
""blur"",""2"",""13269""
""focus"",""2"",""20253""
""blur"",""3"",""27364""
""focus"",""3"",""48580""
""blur"",""58"",""584180""
""focus"",""58"",""595196""
","""event"",""trial"",""time""
""blur"",""2"",""13269""
""blur"",""3"",""27364""
""blur"",""58"",""584180""
","""event"",""trial"",""time""
""focus"",""2"",""20253""
""focus"",""3"",""48580""
""focus"",""58"",""595196""
","""event"",""trial"",""time""
""fullscreenenter"",""1"",""4233""
","
","","","8446.800000011921","[""False""]","0","10","5780","22","","","","","","","","","","","","","","","","","","",""
"pit-instructions","119","999626","0.0-2.0-26.0-1.0","battery-v0.2","","""event"",""trial"",""time""
""fullscreenenter"",""1"",""4233""
""blur"",""2"",""13269""
""focus"",""2"",""20253""
""blur"",""3"",""27364""
""focus"",""3"",""48580""
""blur"",""58"",""584180""
""focus"",""58"",""595196""
","""event"",""trial"",""time""
""blur"",""2"",""13269""
""blur"",""3"",""27364""
""blur"",""58"",""584180""
","""event"",""trial"",""time""
""focus"",""2"",""20253""
""focus"",""3"",""48580""
""focus"",""58"",""595196""
","""event"",""trial"",""time""
""fullscreenenter"",""1"",""4233""
","
","","[{""page_index"":0,""viewing_time"":2106.800000011921}]","2107.100000023842","","","","","","","","","","","","","","","","","","","","","","","",""
"pit-instructions","120","1021266","0.0-3.0","battery-v0.2","","""event"",""trial"",""time""
""fullscreenenter"",""1"",""4233""
""blur"",""2"",""13269""
""focus"",""2"",""20253""
""blur"",""3"",""27364""
""focus"",""3"",""48580""
""blur"",""58"",""584180""
""focus"",""58"",""595196""
","""event"",""trial"",""time""
""blur"",""2"",""13269""
""blur"",""3"",""27364""
""blur"",""58"",""584180""
","""event"",""trial"",""time""
""focus"",""2"",""20253""
""focus"",""3"",""48580""
""focus"",""58"",""595196""
","""event"",""trial"",""time""
""fullscreenenter"",""1"",""4233""
","
","","[{""page_index"":0,""viewing_time"":5862.5},{""page_index"":1,""viewing_time"":7648.300000011921},{""page_index"":2,""viewing_time"":8127.5}]","21638.5","","","","","","","","","","","","","","","","","","","","","","","",""
"pit-trial","121","1024463","0.0-4.0","battery-v0.2","","""event"",""trial"",""time""
""fullscreenenter"",""1"",""4233""
""blur"",""2"",""13269""
""focus"",""2"",""20253""
""blur"",""3"",""27364""
""focus"",""3"",""48580""
""blur"",""58"",""584180""
""focus"",""58"",""595196""
","""event"",""trial"",""time""
""blur"",""2"",""13269""
""blur"",""3"",""27364""
""blur"",""58"",""584180""
","""event"",""trial"",""time""
""focus"",""2"",""20253""
""focus"",""3"",""48580""
""focus"",""58"",""595196""
","""event"",""trial"",""time""
""fullscreenenter"",""1"",""4233""
","
","","","330.90000000596046","","","10","5780","22","&#9752;","elianto","#f73b6a7A"," "," ","1","0","[1181.5999999940395]","1","1","","","5780","1","3","3","lose","go","0"
"pit-trial","122","1027709","0.0-5.0","battery-v0.2","","""event"",""trial"",""time""
""fullscreenenter"",""1"",""4233""
""blur"",""2"",""13269""
""focus"",""2"",""20253""
""blur"",""3"",""27364""
""focus"",""3"",""48580""
""blur"",""58"",""584180""
""focus"",""58"",""595196""
","""event"",""trial"",""time""
""blur"",""2"",""13269""
""blur"",""3"",""27364""
""blur"",""58"",""584180""
","""event"",""trial"",""time""
""focus"",""2"",""20253""
""focus"",""3"",""48580""
""focus"",""58"",""595196""
","""event"",""trial"",""time""
""fullscreenenter"",""1"",""4233""
","
","","","378.69999998807907","","","10","5780","22","&#9728;","elianto","#f73b6a7A","-1"," ","0","-10","[1234.199999988079]","1","1","","","5780","2","0","4","lose","no-go","0"
"pit-trial","123","1031633","0.0-6.0","battery-v0.2","","""event"",""trial"",""time""
""fullscreenenter"",""1"",""4233""
""blur"",""2"",""13269""
""focus"",""2"",""20253""
""blur"",""3"",""27364""
""focus"",""3"",""48580""
""blur"",""58"",""584180""
""focus"",""58"",""595196""
","""event"",""trial"",""time""
""blur"",""2"",""13269""
""blur"",""3"",""27364""
""blur"",""58"",""584180""
","""event"",""trial"",""time""
""focus"",""2"",""20253""
""focus"",""3"",""48580""
""focus"",""58"",""595196""
","""event"",""trial"",""time""
""fullscreenenter"",""1"",""4233""
","
","","","1055.6000000238419","","","10","5780","22","&#9733;","elianto","#3366ff99","-1"," ","0","+10","[1907.800000011921]","1","1","","","5780","3","2","2","win","no-go","1"
"pit-trial","124","1035193","0.0-7.0","battery-v0.2","","""event"",""trial"",""time""
""fullscreenenter"",""1"",""4233""
""blur"",""2"",""13269""
""focus"",""2"",""20253""
""blur"",""3"",""27364""
""focus"",""3"",""48580""
""blur"",""58"",""584180""
""focus"",""58"",""595196""
","""event"",""trial"",""time""
""blur"",""2"",""13269""
""blur"",""3"",""27364""
""blur"",""58"",""584180""
","""event"",""trial"",""time""
""focus"",""2"",""20253""
""focus"",""3"",""48580""
""focus"",""58"",""595196""
","""event"",""trial"",""time""
""fullscreenenter"",""1"",""4233""
","
","","","681.5999999940395","","","10","5780","22","&#9730;","elianto","#3366ff99"," "," ","1","+10","[1535.9000000059605]","1","1","","","5780","4","1","1","win","go","0"
"pit-trial","125","1040073","0.0-8.0","battery-v0.2","","""event"",""trial"",""time""
""fullscreenenter"",""1"",""4233""
""blur"",""2"",""13269""
""focus"",""2"",""20253""
""blur"",""3"",""27364""
""focus"",""3"",""48580""
""blur"",""58"",""584180""
""focus"",""58"",""595196""
","""event"",""trial"",""time""
""blur"",""2"",""13269""
""blur"",""3"",""27364""
""blur"",""58"",""584180""
","""event"",""trial"",""time""
""focus"",""2"",""20253""
""focus"",""3"",""48580""
""focus"",""58"",""595196""
","""event"",""trial"",""time""
""fullscreenenter"",""1"",""4233""
","
","","","-1","","","10","5780","22","&#9752;","elianto","#f73b6a7A"," ","-1","0","-10","[]","0","1","","","5780","5","3","3","lose","go","0"
"pit-trial","126","1043903","0.0-9.0","battery-v0.2","","""event"",""trial"",""time""
""fullscreenenter"",""1"",""4233""
""blur"",""2"",""13269""
""focus"",""2"",""20253""
""blur"",""3"",""27364""
""focus"",""3"",""48580""
""blur"",""58"",""584180""
""focus"",""58"",""595196""
","""event"",""trial"",""time""
""blur"",""2"",""13269""
""blur"",""3"",""27364""
""blur"",""58"",""584180""
","""event"",""trial"",""time""
""focus"",""2"",""20253""
""focus"",""3"",""48580""
""focus"",""58"",""595196""
","""event"",""trial"",""time""
""fullscreenenter"",""1"",""4233""
","
","","","964.8000000119209","","","10","5780","22","&#9730;","elianto","#3366ff99"," "," ","1","+10","[1816.300000011921]","1","1","","","5780","6","1","1","win","go","0"
"pit-trial","127","1047573","0.0-10.0","battery-v0.2","","""event"",""trial"",""time""
""fullscreenenter"",""1"",""4233""
""blur"",""2"",""13269""
""focus"",""2"",""20253""
""blur"",""3"",""27364""
""focus"",""3"",""48580""
""blur"",""58"",""584180""
""focus"",""58"",""595196""
","""event"",""trial"",""time""
""blur"",""2"",""13269""
""blur"",""3"",""27364""
""blur"",""58"",""584180""
","""event"",""trial"",""time""
""focus"",""2"",""20253""
""focus"",""3"",""48580""
""focus"",""58"",""595196""
","""event"",""trial"",""time""
""fullscreenenter"",""1"",""4233""
","
","","","786.5","","","10","5780","22","&#9733;","elianto","#3366ff99","-1"," ","0","0","[1642.0999999940395]","1","1","","","5780","7","2","2","win","no-go","0"
"pit-trial","128","1051266","0.0-11.0","battery-v0.2","","""event"",""trial"",""time""
""fullscreenenter"",""1"",""4233""
""blur"",""2"",""13269""
""focus"",""2"",""20253""
""blur"",""3"",""27364""
""focus"",""3"",""48580""
""blur"",""58"",""584180""
""focus"",""58"",""595196""
","""event"",""trial"",""time""
""blur"",""2"",""13269""
""blur"",""3"",""27364""
""blur"",""58"",""584180""
","""event"",""trial"",""time""
""focus"",""2"",""20253""
""focus"",""3"",""48580""
""focus"",""58"",""595196""
","""event"",""trial"",""time""
""fullscreenenter"",""1"",""4233""
","
","","","830.9000000059605","","","10","5780","22","&#9728;","elianto","#f73b6a7A","-1"," ","0","-10","[1683.6000000238419]","1","1","","","5780","8","0","4","lose","no-go","0"
"pit-trial","129","1055594","0.0-12.0","battery-v0.2","","""event"",""trial"",""time""
""fullscreenenter"",""1"",""4233""
""blur"",""2"",""13269""
""focus"",""2"",""20253""
""blur"",""3"",""27364""
""focus"",""3"",""48580""
""blur"",""58"",""584180""
""focus"",""58"",""595196""
","""event"",""trial"",""time""
""blur"",""2"",""13269""
""blur"",""3"",""27364""
""blur"",""58"",""584180""
","""event"",""trial"",""time""
""focus"",""2"",""20253""
""focus"",""3"",""48580""
""focus"",""58"",""595196""
","""event"",""trial"",""time""
""fullscreenenter"",""1"",""4233""
","
","","","1463.800000011921","","","10","5780","22","&#9752;","elianto","#f73b6a7A"," "," ","1","0","[2318.600000023842]","1","1","","","5780","9","3","3","lose","go","0"
"pit-trial","130","1060457","0.0-13.0","battery-v0.2","","""event"",""trial"",""time""
""fullscreenenter"",""1"",""4233""
""blur"",""2"",""13269""
""focus"",""2"",""20253""
""blur"",""3"",""27364""
""focus"",""3"",""48580""
""blur"",""58"",""584180""
""focus"",""58"",""595196""
","""event"",""trial"",""time""
""blur"",""2"",""13269""
""blur"",""3"",""27364""
""blur"",""58"",""584180""
","""event"",""trial"",""time""
""focus"",""2"",""20253""
""focus"",""3"",""48580""
""focus"",""58"",""595196""
","""event"",""trial"",""time""
""fullscreenenter"",""1"",""4233""
","
","","","-1","","","10","5780","22","&#9728;","elianto","#f73b6a7A","-1","-1","1","0","[]","0","1","","","5780","10","0","4","lose","no-go","0"
"pit-trial","131","1064018","0.0-14.0","battery-v0.2","","""event"",""trial"",""time""
""fullscreenenter"",""1"",""4233""
""blur"",""2"",""13269""
""focus"",""2"",""20253""
""blur"",""3"",""27364""
""focus"",""3"",""48580""
""blur"",""58"",""584180""
""focus"",""58"",""595196""
","""event"",""trial"",""time""
""blur"",""2"",""13269""
""blur"",""3"",""27364""
""blur"",""58"",""584180""
","""event"",""trial"",""time""
""focus"",""2"",""20253""
""focus"",""3"",""48580""
""focus"",""58"",""595196""
","""event"",""trial"",""time""
""fullscreenenter"",""1"",""4233""
","
","","","696.0999999940395","","","10","5780","22","&#9733;","elianto","#3366ff99","-1"," ","0","0","[1551.5]","1","1","","","5780","11","2","2","win","no-go","0"
"pit-trial","132","1067857","0.0-15.0","battery-v0.2","","""event"",""trial"",""time""
""fullscreenenter"",""1"",""4233""
""blur"",""2"",""13269""
""focus"",""2"",""20253""
""blur"",""3"",""27364""
""focus"",""3"",""48580""
""blur"",""58"",""584180""
""focus"",""58"",""595196""
","""event"",""trial"",""time""
""blur"",""2"",""13269""
""blur"",""3"",""27364""
""blur"",""58"",""584180""
","""event"",""trial"",""time""
""focus"",""2"",""20253""
""focus"",""3"",""48580""
""focus"",""58"",""595196""
","""event"",""trial"",""time""
""fullscreenenter"",""1"",""4233""
","
","","","976","","","10","5780","22","&#9730;","elianto","#3366ff99"," "," ","1","+10","[1830.699999988079]","1","1","","","5780","12","1","1","win","go","0"
"pit-trial","133","1072721","0.0-16.0","battery-v0.2","","""event"",""trial"",""time""
""fullscreenenter"",""1"",""4233""
""blur"",""2"",""13269""
""focus"",""2"",""20253""
""blur"",""3"",""27364""
""focus"",""3"",""48580""
""blur"",""58"",""584180""
""focus"",""58"",""595196""
","""event"",""trial"",""time""
""blur"",""2"",""13269""
""blur"",""3"",""27364""
""blur"",""58"",""584180""
","""event"",""trial"",""time""
""focus"",""2"",""20253""
""focus"",""3"",""48580""
""focus"",""58"",""595196""
","""event"",""trial"",""time""
""fullscreenenter"",""1"",""4233""
","
","","","-1","","","10","5780","22","&#9728;","elianto","#f73b6a7A","-1","-1","1","0","[]","0","1","","","5780","13","0","4","lose","no-go","0"
"pit-trial","134","1076554","0.0-17.0","battery-v0.2","","""event"",""trial"",""time""
""fullscreenenter"",""1"",""4233""
""blur"",""2"",""13269""
""focus"",""2"",""20253""
""blur"",""3"",""27364""
""focus"",""3"",""48580""
""blur"",""58"",""584180""
""focus"",""58"",""595196""
","""event"",""trial"",""time""
""blur"",""2"",""13269""
""blur"",""3"",""27364""
""blur"",""58"",""584180""
","""event"",""trial"",""time""
""focus"",""2"",""20253""
""focus"",""3"",""48580""
""focus"",""58"",""595196""
","""event"",""trial"",""time""
""fullscreenenter"",""1"",""4233""
","
","","","973","","","10","5780","22","&#9752;","elianto","#f73b6a7A"," "," ","1","0","[1823.2000000178814]","1","1","","","5780","14","3","3","lose","go","0"
"pit-trial","135","1079849","0.0-18.0","battery-v0.2","","""event"",""trial"",""time""
""fullscreenenter"",""1"",""4233""
""blur"",""2"",""13269""
""focus"",""2"",""20253""
""blur"",""3"",""27364""
""focus"",""3"",""48580""
""blur"",""58"",""584180""
""focus"",""58"",""595196""
","""event"",""trial"",""time""
""blur"",""2"",""13269""
""blur"",""3"",""27364""
""blur"",""58"",""584180""
","""event"",""trial"",""time""
""focus"",""2"",""20253""
""focus"",""3"",""48580""
""focus"",""58"",""595196""
","""event"",""trial"",""time""
""fullscreenenter"",""1"",""4233""
","
","","","436","","","10","5780","22","&#9730;","elianto","#3366ff99"," "," ","1","+10","[1286.4000000059605]","1","1","","","5780","15","1","1","win","go","0"
"pit-trial","136","1083490","0.0-19.0","battery-v0.2","","""event"",""trial"",""time""
""fullscreenenter"",""1"",""4233""
""blur"",""2"",""13269""
""focus"",""2"",""20253""
""blur"",""3"",""27364""
""focus"",""3"",""48580""
""blur"",""58"",""584180""
""focus"",""58"",""595196""
","""event"",""trial"",""time""
""blur"",""2"",""13269""
""blur"",""3"",""27364""
""blur"",""58"",""584180""
","""event"",""trial"",""time""
""focus"",""2"",""20253""
""focus"",""3"",""48580""
""focus"",""58"",""595196""
","""event"",""trial"",""time""
""fullscreenenter"",""1"",""4233""
","
","","","776.2000000178814","","","10","5780","22","&#9733;","elianto","#3366ff99","-1"," ","0","0","[1631.5]","1","1","","","5780","16","2","2","win","no-go","0"
"pit-trial","137","1087778","0.0-20.0","battery-v0.2","","""event"",""trial"",""time""
""fullscreenenter"",""1"",""4233""
""blur"",""2"",""13269""
""focus"",""2"",""20253""
""blur"",""3"",""27364""
""focus"",""3"",""48580""
""blur"",""58"",""584180""
""focus"",""58"",""595196""
","""event"",""trial"",""time""
""blur"",""2"",""13269""
""blur"",""3"",""27364""
""blur"",""58"",""584180""
","""event"",""trial"",""time""
""focus"",""2"",""20253""
""focus"",""3"",""48580""
""focus"",""58"",""595196""
","""event"",""trial"",""time""
""fullscreenenter"",""1"",""4233""
","
","","","1428.5","","","10","5780","22","&#9728;","elianto","#f73b6a7A","-1"," ","0","-10","[2278.7000000178814]","1","1","","","5780","17","0","4","lose","no-go","0"
"pit-trial","138","1091626","0.0-21.0","battery-v0.2","","""event"",""trial"",""time""
""fullscreenenter"",""1"",""4233""
""blur"",""2"",""13269""
""focus"",""2"",""20253""
""blur"",""3"",""27364""
""focus"",""3"",""48580""
""blur"",""58"",""584180""
""focus"",""58"",""595196""
","""event"",""trial"",""time""
""blur"",""2"",""13269""
""blur"",""3"",""27364""
""blur"",""58"",""584180""
","""event"",""trial"",""time""
""focus"",""2"",""20253""
""focus"",""3"",""48580""
""focus"",""58"",""595196""
","""event"",""trial"",""time""
""fullscreenenter"",""1"",""4233""
","
","","","984.7000000178814","","","10","5780","22","&#9733;","elianto","#3366ff99","-1"," ","0","0","[1838.5]","1","1","","","5780","18","2","2","win","no-go","0"
"pit-trial","139","1095234","0.0-22.0","battery-v0.2","","""event"",""trial"",""time""
""fullscreenenter"",""1"",""4233""
""blur"",""2"",""13269""
""focus"",""2"",""20253""
""blur"",""3"",""27364""
""focus"",""3"",""48580""
""blur"",""58"",""584180""
""focus"",""58"",""595196""
","""event"",""trial"",""time""
""blur"",""2"",""13269""
""blur"",""3"",""27364""
""blur"",""58"",""584180""
","""event"",""trial"",""time""
""focus"",""2"",""20253""
""focus"",""3"",""48580""
""focus"",""58"",""595196""
","""event"",""trial"",""time""
""fullscreenenter"",""1"",""4233""
","
","","","747.5999999940395","","","10","5780","22","&#9752;","elianto","#f73b6a7A"," "," ","1","0","[1598.5]","1","1","","","5780","19","3","3","lose","go","0"
"pit-trial","140","1098777","0.0-23.0","battery-v0.2","","""event"",""trial"",""time""
""fullscreenenter"",""1"",""4233""
""blur"",""2"",""13269""
""focus"",""2"",""20253""
""blur"",""3"",""27364""
""focus"",""3"",""48580""
""blur"",""58"",""584180""
""focus"",""58"",""595196""
