"trial_type","trial_index","time_elapsed","internal_node_id","task_version","subject_id","interactions","blur_events","focus_events","fullscreenenter_events","fullscreenexit_events","success","view_history","rt","responses","num_errors","age","subject","participantId","rune","rune_set","hex","correct","choice","accuracy","outcome","keys","total_keys","block","practice","value","sub","trial","stimulus","robot","valence","action","sham"
"pavlovia","0","14","0.0-0.0","battery-v0.2","","""event"",""trial"",""time""
""fullscreenenter"",""1"",""2681""
","
","
","""event"",""trial"",""time""
""fullscreenenter"",""1"",""2681""
","
","","","","","","","","","","","","","","","","","","","","","","","","","","",""
"fullscreen","1","3670","0.0-1.0","battery-v0.2","","""event"",""trial"",""time""
""fullscreenenter"",""1"",""2681""
","
","
","""event"",""trial"",""time""
""fullscreenenter"",""1"",""2681""
","
","true","","","","","","","","","","","","","","","","","","","","","","","","","",""
"pit-instructions","2","8812","0.0-2.0-0.0","battery-v0.2","","""event"",""trial"",""time""
""fullscreenenter"",""1"",""2681""
","
","
","""event"",""trial"",""time""
""fullscreenenter"",""1"",""2681""
","
","","[{""page_index"":0,""viewing_time"":5138.399999976158}]","5138.799999952316","","","","","","","","","","","","","","","","","","","","","","","",""
"pit-comprehension","3","11391","0.0-2.0-1.0-0.0","battery-v0.2","","""event"",""trial"",""time""
""fullscreenenter"",""1"",""2681""
","
","
","""event"",""trial"",""time""
""fullscreenenter"",""1"",""2681""
","
","","","2573.199999988079","[""shark""]","0","23","7844","459","","","","","","","","","","","","","","","","","","",""
"pit-instructions","4","15386","0.0-2.0-1.0-1.0","battery-v0.2","","""event"",""trial"",""time""
""fullscreenenter"",""1"",""2681""
","
","
","""event"",""trial"",""time""
""fullscreenenter"",""1"",""2681""
","
","","[{""page_index"":0,""viewing_time"":3986.5}]","3986.7000000476837","","","","","","","","","","","","","","","","","","","","","","","",""
"pit-comprehension","5","17962","0.0-2.0-2.0-0.0","battery-v0.2","","""event"",""trial"",""time""
""fullscreenenter"",""1"",""2681""
","
","
","""event"",""trial"",""time""
""fullscreenenter"",""1"",""2681""
","
","","","2570.5","[""tiger""]","0","23","7844","459","","","","","","","","","","","","","","","","","","",""
"pit-instructions","6","19084","0.0-2.0-2.0-1.0","battery-v0.2","","""event"",""trial"",""time""
""fullscreenenter"",""1"",""2681""
","
","
","""event"",""trial"",""time""
""fullscreenenter"",""1"",""2681""
","
","","[{""page_index"":0,""viewing_time"":1116.3999999761581}]","1116.5999999642372","","","","","","","","","","","","","","","","","","","","","","","",""
"pit-instructions","7","128799","0.0-2.0-3.0","battery-v0.2","","""event"",""trial"",""time""
""fullscreenenter"",""1"",""2681""
","
","
","""event"",""trial"",""time""
""fullscreenenter"",""1"",""2681""
","
","","[{""page_index"":0,""viewing_time"":8649.100000023842},{""page_index"":1,""viewing_time"":6185.199999988079},{""page_index"":2,""viewing_time"":6721.699999988079},{""page_index"":3,""viewing_time"":5990.899999976158},{""page_index"":4,""viewing_time"":20486.200000047684},{""page_index"":5,""viewing_time"":5162.199999988079},{""page_index"":6,""viewing_time"":6731.399999976158},{""page_index"":7,""viewing_time"":8142.699999988079},{""page_index"":8,""viewing_time"":6381.700000047684},{""page_index"":9,""viewing_time"":7790.699999988079},{""page_index"":10,""viewing_time"":7528.300000011921},{""page_index"":11,""viewing_time"":8117.299999952316},{""page_index"":12,""viewing_time"":6782.800000011921},{""page_index"":13,""viewing_time"":5039.400000035763}]","109709.89999997616","","","","","","","","","","","","","","","","","","","","","","","",""
"pit-trial","8","132327","0.0-2.0-4.0-0.0","battery-v0.2","","""event"",""trial"",""time""
""fullscreenenter"",""1"",""2681""
","
","
","""event"",""trial"",""time""
""fullscreenenter"",""1"",""2681""
","
","","","662.1999999880791","","","23","7844","459","&#9784;","elianto","#FFFFF080"," "," ","1","&#10004","[1519.5]","1","0","0","","","","","","","",""
"pit-trial","9","135785","0.0-2.0-4.1-0.1","battery-v0.2","","""event"",""trial"",""time""
""fullscreenenter"",""1"",""2681""
","
","
","""event"",""trial"",""time""
""fullscreenenter"",""1"",""2681""
","
","","","583.3999999761581","","","23","7844","459","&#9784;","elianto","#FFFFF080"," "," ","1","&#10004","[1441.4000000357628]","1","0","0","","","","","","","",""
"pit-trial","10","139250","0.0-2.0-4.2-0.2","battery-v0.2","","""event"",""trial"",""time""
""fullscreenenter"",""1"",""2681""
","
","
","""event"",""trial"",""time""
""fullscreenenter"",""1"",""2681""
","
","","","598.6999999880791","","","23","7844","459","&#9784;","elianto","#FFFFF080"," "," ","1","&#10004","[1452.5]","1","0","0","","","","","","","",""
"pit-trial","11","142566","0.0-2.0-4.3-0.3","battery-v0.2","","""event"",""trial"",""time""
""fullscreenenter"",""1"",""2681""
","
","
","""event"",""trial"",""time""
""fullscreenenter"",""1"",""2681""
","
","","","452.69999998807907","","","23","7844","459","&#9784;","elianto","#FFFFF080"," "," ","1","&#10004","[1308.300000011921]","1","0","0","","","","","","","",""
"pit-trial","12","145970","0.0-2.0-4.4-0.4","battery-v0.2","","""event"",""trial"",""time""
""fullscreenenter"",""1"",""2681""
","
","
","""event"",""trial"",""time""
""fullscreenenter"",""1"",""2681""
","
","","","533.5","","","23","7844","459","&#9784;","elianto","#FFFFF080"," "," ","1","&#10004","[1390.5]","1","0","0","","","","","","","",""
"pit-instructions","13","167439","0.0-2.0-5.0","battery-v0.2","","""event"",""trial"",""time""
""fullscreenenter"",""1"",""2681""
","
","
","""event"",""trial"",""time""
""fullscreenenter"",""1"",""2681""
","
","","[{""page_index"":0,""viewing_time"":5237.5},{""page_index"":1,""viewing_time"":5746.400000035763},{""page_index"":2,""viewing_time"":5369.399999976158},{""page_index"":3,""viewing_time"":5109.600000023842}]","21463.100000023842","","","","","","","","","","","","","","","","","","","","","","","",""
"pit-trial","14","172305","0.0-2.0-6.0-0.0","battery-v0.2","","""event"",""trial"",""time""
""fullscreenenter"",""1"",""2681""
","
","
","""event"",""trial"",""time""
""fullscreenenter"",""1"",""2681""
","
","","","-1","","","23","7844","459","&#9854;","elianto","#FFFFF080","-1","-1","1","&#10004","[]","0","0","1","","","","","","","",""
"pit-trial","15","177175","0.0-2.0-6.1-0.1","battery-v0.2","","""event"",""trial"",""time""
""fullscreenenter"",""1"",""2681""
","
","
","""event"",""trial"",""time""
""fullscreenenter"",""1"",""2681""
","
","","","-1","","","23","7844","459","&#9854;","elianto","#FFFFF080","-1","-1","1","&#10004","[]","0","0","1","","","","","","","",""
"pit-trial","16","182039","0.0-2.0-6.2-0.2","battery-v0.2","","""event"",""trial"",""time""
""fullscreenenter"",""1"",""2681""
","
","
","""event"",""trial"",""time""
""fullscreenenter"",""1"",""2681""
","
","","","-1","","","23","7844","459","&#9854;","elianto","#FFFFF080","-1","-1","1","&#10004","[]","0","0","1","","","","","","","",""
"pit-trial","17","186914","0.0-2.0-6.3-0.3","battery-v0.2","","""event"",""trial"",""time""
""fullscreenenter"",""1"",""2681""
","
","
","""event"",""trial"",""time""
""fullscreenenter"",""1"",""2681""
","
","","","-1","","","23","7844","459","&#9854;","elianto","#FFFFF080","-1","-1","1","&#10004","[]","0","0","1","","","","","","","",""
"pit-trial","18","191782","0.0-2.0-6.4-0.4","battery-v0.2","","""event"",""trial"",""time""
""fullscreenenter"",""1"",""2681""
","
","
","""event"",""trial"",""time""
""fullscreenenter"",""1"",""2681""
","
","","","-1","","","23","7844","459","&#9854;","elianto","#FFFFF080","-1","-1","1","&#10004","[]","0","0","1","","","","","","","",""
"pit-instructions","19","305877","0.0-2.0-7.0","battery-v0.2","","""event"",""trial"",""time""
""fullscreenenter"",""1"",""2681""
","
","
","""event"",""trial"",""time""
""fullscreenenter"",""1"",""2681""
","
","","[{""page_index"":0,""viewing_time"":5936.300000011921},{""page_index"":1,""viewing_time"":7359.399999976158},{""page_index"":2,""viewing_time"":5844.600000023842},{""page_index"":3,""viewing_time"":5669.199999988079},{""page_index"":4,""viewing_time"":6545},{""page_index"":5,""viewing_time"":5493.599999964237},{""page_index"":6,""viewing_time"":5592.5},{""page_index"":7,""viewing_time"":7660.700000047684},{""page_index"":8,""viewing_time"":6428.599999964237},{""page_index"":9,""viewing_time"":6180.900000035763},{""page_index"":10,""viewing_time"":6199.399999976158},{""page_index"":11,""viewing_time"":5320.399999976158},{""page_index"":12,""viewing_time"":6809.800000011921},{""page_index"":13,""viewing_time"":6594.800000011921},{""page_index"":14,""viewing_time"":6946.800000011921},{""page_index"":15,""viewing_time"":6310.800000011921},{""page_index"":16,""viewing_time"":6547.699999988079},{""page_index"":17,""viewing_time"":6648.099999964237}]","114088.89999997616","","","","","","","","","","","","","","","","","","","","","","","",""
"pit-trial","20","309654","0.0-2.0-8.0-0.0","battery-v0.2","","""event"",""trial"",""time""
""fullscreenenter"",""1"",""2681""
","
","
","""event"",""trial"",""time""
""fullscreenenter"",""1"",""2681""
","
","","","916.6999999880791","","","23","7844","459","&#9776;","elianto","#3366ff99"," "," ","1","+10","[1770]","1","0","1","","","","","","","",""
"pit-trial","21","313095","0.0-2.0-8.0-1.0","battery-v0.2","","""event"",""trial"",""time""
""fullscreenenter"",""1"",""2681""
","
","
","""event"",""trial"",""time""
""fullscreenenter"",""1"",""2681""
","
","","","580.8000000119209","","","23","7844","459","&#9776;","elianto","#3366ff99"," "," ","1","+10","[1432]","1","0","1","","","","","","","",""
"pit-trial","22","316482","0.0-2.0-8.0-2.0","battery-v0.2","","""event"",""trial"",""time""
""fullscreenenter"",""1"",""2681""
","
","
","""event"",""trial"",""time""
""fullscreenenter"",""1"",""2681""
","
","","","512","","","23","7844","459","&#9776;","elianto","#3366ff99"," "," ","1","+10","[1369.199999988079]","1","0","1","","","","","","","",""
"pit-trial","23","319830","0.0-2.0-8.0-3.0","battery-v0.2","","""event"",""trial"",""time""
""fullscreenenter"",""1"",""2681""
","
","
","""event"",""trial"",""time""
""fullscreenenter"",""1"",""2681""
","
","","","479.9000000357628","","","23","7844","459","&#9776;","elianto","#3366ff99"," "," ","1","0","[1335.300000011921]","1","0","1","","","","","","","",""
"pit-trial","24","323159","0.0-2.0-8.0-4.0","battery-v0.2","","""event"",""trial"",""time""
""fullscreenenter"",""1"",""2681""
","
","
","""event"",""trial"",""time""
""fullscreenenter"",""1"",""2681""
","
","","","464.4000000357628","","","23","7844","459","&#9776;","elianto","#3366ff99"," "," ","1","+10","[1319.2000000476837]","1","0","1","","","","","","","",""
"pit-trial","25","326471","0.0-2.0-8.1-0.1","battery-v0.2","","""event"",""trial"",""time""
""fullscreenenter"",""1"",""2681""
","
","
","""event"",""trial"",""time""
""fullscreenenter"",""1"",""2681""
","
","","","439","","","23","7844","459","&#9776;","elianto","#3366ff99"," "," ","1","+10","[1295.3999999761581]","1","0","1","","","","","","","",""
"pit-trial","26","329857","0.0-2.0-8.1-1.1","battery-v0.2","","""event"",""trial"",""time""
""fullscreenenter"",""1"",""2681""
","
","
","""event"",""trial"",""time""
""fullscreenenter"",""1"",""2681""
","
","","","522.1999999880791","","","23","7844","459","&#9776;","elianto","#3366ff99"," "," ","1","+10","[1373.199999988079]","1","0","1","","","","","","","",""
"pit-trial","27","333216","0.0-2.0-8.1-2.1","battery-v0.2","","""event"",""trial"",""time""
""fullscreenenter"",""1"",""2681""
","
","
","""event"",""trial"",""time""
""fullscreenenter"",""1"",""2681""
","
","","","490","","","23","7844","459","&#9776;","elianto","#3366ff99"," "," ","1","+10","[1349.5]","1","0","1","","","","","","","",""
"pit-trial","28","336577","0.0-2.0-8.1-3.1","battery-v0.2","","""event"",""trial"",""time""
""fullscreenenter"",""1"",""2681""
","
","
","""event"",""trial"",""time""
""fullscreenenter"",""1"",""2681""
","
","","","493.89999997615814","","","23","7844","459","&#9776;","elianto","#3366ff99"," "," ","1","0","[1349]","1","0","1","","","","","","","",""
"pit-trial","29","339921","0.0-2.0-8.1-4.1","battery-v0.2","","""event"",""trial"",""time""
""fullscreenenter"",""1"",""2681""
","
","
","""event"",""trial"",""time""
""fullscreenenter"",""1"",""2681""
","
","","","472.39999997615814","","","23","7844","459","&#9776;","elianto","#3366ff99"," "," ","1","+10","[1332.5999999642372]","1","0","1","","","","","","","",""
"pit-trial","30","343256","0.0-2.0-8.2-0.2","battery-v0.2","","""event"",""trial"",""time""
""fullscreenenter"",""1"",""2681""
","
","
","""event"",""trial"",""time""
""fullscreenenter"",""1"",""2681""
","
","","","463.10000002384186","","","23","7844","459","&#9776;","elianto","#3366ff99"," "," ","1","+10","[1322.300000011921]","1","0","1","","","","","","","",""
"pit-trial","31","346536","0.0-2.0-8.2-1.2","battery-v0.2","","""event"",""trial"",""time""
""fullscreenenter"",""1"",""2681""
","
","
","""event"",""trial"",""time""
""fullscreenenter"",""1"",""2681""
","
","","","410.5999999642372","","","23","7844","459","&#9776;","elianto","#3366ff99"," "," ","1","+10","[1269.4000000357628]","1","0","1","","","","","","","",""
"pit-trial","32","349993","0.0-2.0-8.2-2.2","battery-v0.2","","""event"",""trial"",""time""
""fullscreenenter"",""1"",""2681""
","
","
","""event"",""trial"",""time""
""fullscreenenter"",""1"",""2681""
","
","","","591.9000000357628","","","23","7844","459","&#9776;","elianto","#3366ff99"," "," ","1","+10","[1442.300000011921]","1","0","1","","","","","","","",""
"pit-trial","33","353305","0.0-2.0-8.2-3.2","battery-v0.2","","""event"",""trial"",""time""
""fullscreenenter"",""1"",""2681""
","
","
","""event"",""trial"",""time""
""fullscreenenter"",""1"",""2681""
","
","","","441.5","","","23","7844","459","&#9776;","elianto","#3366ff99"," "," ","1","0","[1300.5]","1","0","1","","","","","","","",""
"pit-trial","34","356913","0.0-2.0-8.2-4.2","battery-v0.2","","""event"",""trial"",""time""
""fullscreenenter"",""1"",""2681""
","
","
","""event"",""trial"",""time""
""fullscreenenter"",""1"",""2681""
","
","","","745","","","23","7844","459","&#9776;","elianto","#3366ff99"," "," ","1","+10","[1597.6000000238419]","1","0","1","","","","","","","",""
"call-function","35","356918","0.0-2.0-9.0","battery-v0.2","","""event"",""trial"",""time""
""fullscreenenter"",""1"",""2681""
","
","
","""event"",""trial"",""time""
""fullscreenenter"",""1"",""2681""
","
","","","","","","","","","","","","","","","","","","","","","","","","","","",""
"pit-instructions","36","400609","0.0-2.0-10.0","battery-v0.2","","""event"",""trial"",""time""
""fullscreenenter"",""1"",""2681""
","
","
","""event"",""trial"",""time""
""fullscreenenter"",""1"",""2681""
","
","","[{""page_index"":0,""viewing_time"":6025.099999964237},{""page_index"":1,""viewing_time"":6494.200000047684},{""page_index"":2,""viewing_time"":10696},{""page_index"":3,""viewing_time"":11580.5},{""page_index"":4,""viewing_time"":8893.599999964237}]","43689.80000001192","","","","","","","","","","","","","","","","","","","","","","","",""
"pit-trial","37","404343","0.0-2.0-11.0-0.0","battery-v0.2","","""event"",""trial"",""time""
""fullscreenenter"",""1"",""2681""
","
","
","""event"",""trial"",""time""
""fullscreenenter"",""1"",""2681""
","
","","","862.6000000238419","","","23","7844","459","&#9761;","elianto","#3366ff99","-1"," ","0","0","[1720.2999999523163]","1","0","2","","","","","","","",""
"pit-trial","38","407889","0.0-2.0-11.0-1.0","battery-v0.2","","""event"",""trial"",""time""
""fullscreenenter"",""1"",""2681""
","
","
","""event"",""trial"",""time""
""fullscreenenter"",""1"",""2681""
","
","","","678.1999999880791","","","23","7844","459","&#9761;","elianto","#3366ff99","-1"," ","0","0","[1536]","1","0","2","","","","","","","",""
"pit-trial","39","412759","0.0-2.0-11.0-2.0","battery-v0.2","","""event"",""trial"",""time""
""fullscreenenter"",""1"",""2681""
","
","
","""event"",""trial"",""time""
""fullscreenenter"",""1"",""2681""
","
","","","-1","","","23","7844","459","&#9761;","elianto","#3366ff99","-1","-1","1","+10","[]","0","0","2","","","","","","","",""
"pit-trial","40","417622","0.0-2.0-11.0-3.0","battery-v0.2","","""event"",""trial"",""time""
""fullscreenenter"",""1"",""2681""
","
","
","""event"",""trial"",""time""
""fullscreenenter"",""1"",""2681""
","
","","","-1","","","23","7844","459","&#9761;","elianto","#3366ff99","-1","-1","1","0","[]","0","0","2","","","","","","","",""
"pit-trial","41","422486","0.0-2.0-11.0-4.0","battery-v0.2","","""event"",""trial"",""time""
""fullscreenenter"",""1"",""2681""
","
","
","""event"",""trial"",""time""
""fullscreenenter"",""1"",""2681""
","
","","","-1","","","23","7844","459","&#9761;","elianto","#3366ff99","-1","-1","1","+10","[]","0","0","2","","","","","","","",""
"pit-trial","42","427353","0.0-2.0-11.1-0.1","battery-v0.2","","""event"",""trial"",""time""
""fullscreenenter"",""1"",""2681""
","
","
","""event"",""trial"",""time""
""fullscreenenter"",""1"",""2681""
","
","","","-1","","","23","7844","459","&#9761;","elianto","#3366ff99","-1","-1","1","+10","[]","0","0","2","","","","","","","",""
"pit-trial","43","432226","0.0-2.0-11.1-1.1","battery-v0.2","","""event"",""trial"",""time""
""fullscreenenter"",""1"",""2681""
","
","
","""event"",""trial"",""time""
""fullscreenenter"",""1"",""2681""
","
","","","-1","","","23","7844","459","&#9761;","elianto","#3366ff99","-1","-1","1","+10","[]","0","0","2","","","","","","","",""
"pit-trial","44","437096","0.0-2.0-11.1-2.1","battery-v0.2","","""event"",""trial"",""time""
""fullscreenenter"",""1"",""2681""
","
","
","""event"",""trial"",""time""
""fullscreenenter"",""1"",""2681""
","
","","","-1","","","23","7844","459","&#9761;","elianto","#3366ff99","-1","-1","1","+10","[]","0","0","2","","","","","","","",""
"pit-trial","45","441969","0.0-2.0-11.1-3.1","battery-v0.2","","""event"",""trial"",""time""
""fullscreenenter"",""1"",""2681""
","
","
","""event"",""trial"",""time""
""fullscreenenter"",""1"",""2681""
","
","","","-1","","","23","7844","459","&#9761;","elianto","#3366ff99","-1","-1","1","0","[]","0","0","2","","","","","","","",""
"pit-trial","46","446841","0.0-2.0-11.1-4.1","battery-v0.2","","""event"",""trial"",""time""
""fullscreenenter"",""1"",""2681""
","
","
","""event"",""trial"",""time""
""fullscreenenter"",""1"",""2681""
","
","","","-1","","","23","7844","459","&#9761;","elianto","#3366ff99","-1","-1","1","+10","[]","0","0","2","","","","","","","",""
"pit-trial","47","451713","0.0-2.0-11.2-0.2","battery-v0.2","","""event"",""trial"",""time""
""fullscreenenter"",""1"",""2681""
","
","
","""event"",""trial"",""time""
""fullscreenenter"",""1"",""2681""
","
","","","-1","","","23","7844","459","&#9761;","elianto","#3366ff99","-1","-1","1","+10","[]","0","0","2","","","","","","","",""
"pit-trial","48","456585","0.0-2.0-11.2-1.2","battery-v0.2","","""event"",""trial"",""time""
""fullscreenenter"",""1"",""2681""
","
","
","""event"",""trial"",""time""
""fullscreenenter"",""1"",""2681""
","
","","","-1","","","23","7844","459","&#9761;","elianto","#3366ff99","-1","-1","1","+10","[]","0","0","2","","","","","","","",""
"pit-trial","49","461457","0.0-2.0-11.2-2.2","battery-v0.2","","""event"",""trial"",""time""
""fullscreenenter"",""1"",""2681""
","
","
","""event"",""trial"",""time""
""fullscreenenter"",""1"",""2681""
","
","","","-1","","","23","7844","459","&#9761;","elianto","#3366ff99","-1","-1","1","+10","[]","0","0","2","","","","","","","",""
"pit-trial","50","466328","0.0-2.0-11.2-3.2","battery-v0.2","","""event"",""trial"",""time""
""fullscreenenter"",""1"",""2681""
","
","
","""event"",""trial"",""time""
""fullscreenenter"",""1"",""2681""
","
","","","-1","","","23","7844","459","&#9761;","elianto","#3366ff99","-1","-1","1","0","[]","0","0","2","","","","","","","",""
"pit-trial","51","471202","0.0-2.0-11.2-4.2","battery-v0.2","","""event"",""trial"",""time""
""fullscreenenter"",""1"",""2681""
","
","
","""event"",""trial"",""time""
""fullscreenenter"",""1"",""2681""
","
","","","-1","","","23","7844","459","&#9761;","elianto","#3366ff99","-1","-1","1","+10","[]","0","0","2","","","","","","","",""
"pit-trial","52","476073","0.0-2.0-11.3-0.3","battery-v0.2","","""event"",""trial"",""time""
""fullscreenenter"",""1"",""2681""
","
","
","""event"",""trial"",""time""
""fullscreenenter"",""1"",""2681""
","
","","","-1","","","23","7844","459","&#9761;","elianto","#3366ff99","-1","-1","1","+10","[]","0","0","2","","","","","","","",""
"pit-trial","53","480946","0.0-2.0-11.3-1.3","battery-v0.2","","""event"",""trial"",""time""
""fullscreenenter"",""1"",""2681""
","
","
","""event"",""trial"",""time""
""fullscreenenter"",""1"",""2681""
","
","","","-1","","","23","7844","459","&#9761;","elianto","#3366ff99","-1","-1","1","+10","[]","0","0","2","","","","","","","",""
"pit-trial","54","485817","0.0-2.0-11.3-2.3","battery-v0.2","","""event"",""trial"",""time""
""fullscreenenter"",""1"",""2681""
","
","
","""event"",""trial"",""time""
""fullscreenenter"",""1"",""2681""
","
","","","-1","","","23","7844","459","&#9761;","elianto","#3366ff99","-1","-1","1","+10","[]","0","0","2","","","","","","","",""
"pit-trial","55","490690","0.0-2.0-11.3-3.3","battery-v0.2","","""event"",""trial"",""time""
""fullscreenenter"",""1"",""2681""
","
","
","""event"",""trial"",""time""
""fullscreenenter"",""1"",""2681""
","
","","","-1","","","23","7844","459","&#9761;","elianto","#3366ff99","-1","-1","1","0","[]","0","0","2","","","","","","","",""
"pit-trial","56","495561","0.0-2.0-11.3-4.3","battery-v0.2","","""event"",""trial"",""time""
""fullscreenenter"",""1"",""2681""
","
","
","""event"",""trial"",""time""
""fullscreenenter"",""1"",""2681""
","
","","","-1","","","23","7844","459","&#9761;","elianto","#3366ff99","-1","-1","1","+10","[]","0","0","2","","","","","","","",""
"call-function","57","495565","0.0-2.0-12.0","battery-v0.2","","""event"",""trial"",""time""
""fullscreenenter"",""1"",""2681""
","
","
","""event"",""trial"",""time""
""fullscreenenter"",""1"",""2681""
","
","","","","","","","","","","","","","","","","","","","","","","","","","","",""
"pit-instructions","58","533162","0.0-2.0-13.0","battery-v0.2","","""event"",""trial"",""time""
""fullscreenenter"",""1"",""2681""
","
","
","""event"",""trial"",""time""
""fullscreenenter"",""1"",""2681""
","
","","[{""page_index"":0,""viewing_time"":8653.900000035763},{""page_index"":1,""viewing_time"":6708.399999976158},{""page_index"":2,""viewing_time"":3353.800000011921},{""page_index"":3,""viewing_time"":12288.300000011921},{""page_index"":4,""viewing_time"":6592.199999988079}]","37596.90000003576","","","","","","","","","","","","","","","","","","","","","","","",""
"pit-trial","59","536513","0.0-2.0-14.0-0.0","battery-v0.2","","""event"",""trial"",""time""
""fullscreenenter"",""1"",""2681""
","
","
","""event"",""trial"",""time""
""fullscreenenter"",""1"",""2681""
","
","","","479.69999998807907","","","23","7844","459","&#9826;","elianto","#f73b6a7A","-1"," ","0","-10","[1336]","1","0","3","","","","","","","",""
"pit-trial","60","541383","0.0-2.0-14.0-1.0","battery-v0.2","","""event"",""trial"",""time""
""fullscreenenter"",""1"",""2681""
","
","
","""event"",""trial"",""time""
""fullscreenenter"",""1"",""2681""
","
","","","-1","","","23","7844","459","&#9826;","elianto","#f73b6a7A","-1","-1","1","0","[]","0","0","3","","","","","","","",""
"pit-trial","61","546247","0.0-2.0-14.0-2.0","battery-v0.2","","""event"",""trial"",""time""
""fullscreenenter"",""1"",""2681""
","
","
","""event"",""trial"",""time""
""fullscreenenter"",""1"",""2681""
","
","","","-1","","","23","7844","459","&#9826;","elianto","#f73b6a7A","-1","-1","1","0","[]","0","0","3","","","","","","","",""
"pit-trial","62","551122","0.0-2.0-14.0-3.0","battery-v0.2","","""event"",""trial"",""time""
""fullscreenenter"",""1"",""2681""
","
","
","""event"",""trial"",""time""
""fullscreenenter"",""1"",""2681""
","
","","","-1","","","23","7844","459","&#9826;","elianto","#f73b6a7A","-1","-1","1","-10","[]","0","0","3","","","","","","","",""
"pit-trial","63","555992","0.0-2.0-14.0-4.0","battery-v0.2","","""event"",""trial"",""time""
""fullscreenenter"",""1"",""2681""
","
","
","""event"",""trial"",""time""
""fullscreenenter"",""1"",""2681""
","
","","","-1","","","23","7844","459","&#9826;","elianto","#f73b6a7A","-1","-1","1","0","[]","0","0","3","","","","","","","",""
"pit-trial","64","560859","0.0-2.0-14.1-0.1","battery-v0.2","","""event"",""trial"",""time""
""fullscreenenter"",""1"",""2681""
","
","
","""event"",""trial"",""time""
""fullscreenenter"",""1"",""2681""
","
","","","-1","","","23","7844","459","&#9826;","elianto","#f73b6a7A","-1","-1","1","0","[]","0","0","3","","","","","","","",""
"pit-trial","65","565730","0.0-2.0-14.1-1.1","battery-v0.2","","""event"",""trial"",""time""
""fullscreenenter"",""1"",""2681""
","
","
","""event"",""trial"",""time""
""fullscreenenter"",""1"",""2681""
","
","","","-1","","","23","7844","459","&#9826;","elianto","#f73b6a7A","-1","-1","1","0","[]","0","0","3","","","","","","","",""
"pit-trial","66","570602","0.0-2.0-14.1-2.1","battery-v0.2","","""event"",""trial"",""time""
""fullscreenenter"",""1"",""2681""
","
","
","""event"",""trial"",""time""
""fullscreenenter"",""1"",""2681""
","
","","","-1","","","23","7844","459","&#9826;","elianto","#f73b6a7A","-1","-1","1","0","[]","0","0","3","","","","","","","",""
"pit-trial","67","575474","0.0-2.0-14.1-3.1","battery-v0.2","","""event"",""trial"",""time""
""fullscreenenter"",""1"",""2681""
","
","
","""event"",""trial"",""time""
""fullscreenenter"",""1"",""2681""
","
","","","-1","","","23","7844","459","&#9826;","elianto","#f73b6a7A","-1","-1","1","-10","[]","0","0","3","","","","","","","",""
"pit-trial","68","580344","0.0-2.0-14.1-4.1","battery-v0.2","","""event"",""trial"",""time""
""fullscreenenter"",""1"",""2681""
","
","
","""event"",""trial"",""time""
""fullscreenenter"",""1"",""2681""
","
","","","-1","","","23","7844","459","&#9826;","elianto","#f73b6a7A","-1","-1","1","0","[]","0","0","3","","","","","","","",""
"pit-trial","69","585218","0.0-2.0-14.2-0.2","battery-v0.2","","""event"",""trial"",""time""
""fullscreenenter"",""1"",""2681""
","
","
","""event"",""trial"",""time""
""fullscreenenter"",""1"",""2681""
","
","","","-1","","","23","7844","459","&#9826;","elianto","#f73b6a7A","-1","-1","1","0","[]","0","0","3","","","","","","","",""
"pit-trial","70","590089","0.0-2.0-14.2-1.2","battery-v0.2","","""event"",""trial"",""time""
""fullscreenenter"",""1"",""2681""
","
","
","""event"",""trial"",""time""
""fullscreenenter"",""1"",""2681""
","
","","","-1","","","23","7844","459","&#9826;","elianto","#f73b6a7A","-1","-1","1","0","[]","0","0","3","","","","","","","",""
"pit-trial","71","594962","0.0-2.0-14.2-2.2","battery-v0.2","","""event"",""trial"",""time""
""fullscreenenter"",""1"",""2681""
","
","
","""event"",""trial"",""time""
""fullscreenenter"",""1"",""2681""
","
","","","-1","","","23","7844","459","&#9826;","elianto","#f73b6a7A","-1","-1","1","0","[]","0","0","3","","","","","","","",""
"pit-trial","72","599832","0.0-2.0-14.2-3.2","battery-v0.2","","""event"",""trial"",""time""
""fullscreenenter"",""1"",""2681""
","
","
","""event"",""trial"",""time""
""fullscreenenter"",""1"",""2681""
","
","","","-1","","","23","7844","459","&#9826;","elianto","#f73b6a7A","-1","-1","1","-10","[]","0","0","3","","","","","","","",""
"pit-trial","73","604705","0.0-2.0-14.2-4.2","battery-v0.2","","""event"",""trial"",""time""
""fullscreenenter"",""1"",""2681""
","
","
","""event"",""trial"",""time""
""fullscreenenter"",""1"",""2681""
","
","","","-1","","","23","7844","459","&#9826;","elianto","#f73b6a7A","-1","-1","1","0","[]","0","0","3","","","","","","","",""
"pit-trial","74","609579","0.0-2.0-14.3-0.3","battery-v0.2","","""event"",""trial"",""time""
""fullscreenenter"",""1"",""2681""
","
","
","""event"",""trial"",""time""
""fullscreenenter"",""1"",""2681""
","
","","","-1","","","23","7844","459","&#9826;","elianto","#f73b6a7A","-1","-1","1","0","[]","0","0","3","","","","","","","",""
"pit-trial","75","614450","0.0-2.0-14.3-1.3","battery-v0.2","","""event"",""trial"",""time""
""fullscreenenter"",""1"",""2681""
","
","
","""event"",""trial"",""time""
""fullscreenenter"",""1"",""2681""
","
","","","-1","","","23","7844","459","&#9826;","elianto","#f73b6a7A","-1","-1","1","0","[]","0","0","3","","","","","","","",""
"pit-trial","76","619322","0.0-2.0-14.3-2.3","battery-v0.2","","""event"",""trial"",""time""
""fullscreenenter"",""1"",""2681""
","
","
","""event"",""trial"",""time""
""fullscreenenter"",""1"",""2681""
","
","","","-1","","","23","7844","459","&#9826;","elianto","#f73b6a7A","-1","-1","1","0","[]","0","0","3","","","","","","","",""
"pit-trial","77","624194","0.0-2.0-14.3-3.3","battery-v0.2","","""event"",""trial"",""time""
""fullscreenenter"",""1"",""2681""
","
","
","""event"",""trial"",""time""
""fullscreenenter"",""1"",""2681""
","
","","","-1","","","23","7844","459","&#9826;","elianto","#f73b6a7A","-1","-1","1","-10","[]","0","0","3","","","","","","","",""
"pit-trial","78","629064","0.0-2.0-14.3-4.3","battery-v0.2","","""event"",""trial"",""time""
""fullscreenenter"",""1"",""2681""
","
","
","""event"",""trial"",""time""
""fullscreenenter"",""1"",""2681""
","
","","","-1","","","23","7844","459","&#9826;","elianto","#f73b6a7A","-1","-1","1","0","[]","0","0","3","","","","","","","",""
"call-function","79","629069","0.0-2.0-15.0","battery-v0.2","","""event"",""trial"",""time""
""fullscreenenter"",""1"",""2681""
","
","
","""event"",""trial"",""time""
""fullscreenenter"",""1"",""2681""
","
","","","","","","","","","","","","","","","","","","","","","","","","","","",""
"pit-instructions","80","657602","0.0-2.0-16.0","battery-v0.2","","""event"",""trial"",""time""
""fullscreenenter"",""1"",""2681""
","
","
","""event"",""trial"",""time""
""fullscreenenter"",""1"",""2681""
","
","","[{""page_index"":0,""viewing_time"":8755.699999988079},{""page_index"":1,""viewing_time"":8856},{""page_index"":2,""viewing_time"":5027.5},{""page_index"":3,""viewing_time"":5893.400000035763}]","28532.899999976158","","","","","","","","","","","","","","","","","","","","","","","",""
"pit-trial","81","660897","0.0-2.0-17.0-0.0","battery-v0.2","","""event"",""trial"",""time""
""fullscreenenter"",""1"",""2681""
","
","
","""event"",""trial"",""time""
""fullscreenenter"",""1"",""2681""
","
","","","430.69999998807907","","","23","7844","459","&#9789;","elianto","#f73b6a7A"," "," ","1","0","[1281.0999999642372]","1","0","4","","","","","","","",""
"pit-trial","82","663847","0.0-2.0-17.0-1.0","battery-v0.2","","""event"",""trial"",""time""
""fullscreenenter"",""1"",""2681""
","
","
","""event"",""trial"",""time""
""fullscreenenter"",""1"",""2681""
","
","","","89.40000003576279","","","23","7844","459","&#9789;","elianto","#f73b6a7A"," "," ","1","0","[941]","1","0","4","","","","","","","",""
"pit-trial","83","668712","0.0-2.0-17.0-2.0","battery-v0.2","","""event"",""trial"",""time""
""fullscreenenter"",""1"",""2681""
","
","
","""event"",""trial"",""time""
""fullscreenenter"",""1"",""2681""
","
","","","-1","","","23","7844","459","&#9789;","elianto","#f73b6a7A"," ","-1","0","-10","[]","0","0","4","","","","","","","",""
"pit-trial","84","671975","0.0-2.0-17.0-3.0","battery-v0.2","","""event"",""trial"",""time""
""fullscreenenter"",""1"",""2681""
","
","
","""event"",""trial"",""time""
""fullscreenenter"",""1"",""2681""
","
","","","395.4000000357628","","","23","7844","459","&#9789;","elianto","#f73b6a7A"," "," ","1","-10","[1249.5]","1","0","4","","","","","","","",""
"pit-trial","85","674898","0.0-2.0-17.0-4.0","battery-v0.2","","""event"",""trial"",""time""
""fullscreenenter"",""1"",""2681""
","
","
","""event"",""trial"",""time""
""fullscreenenter"",""1"",""2681""
","
","","","53.200000047683716","","","23","7844","459","&#9789;","elianto","#f73b6a7A"," "," ","1","0","[910.3999999761581]","1","0","4","","","","","","","",""
"pit-trial","86","677911","0.0-2.0-17.1-0.1","battery-v0.2","","""event"",""trial"",""time""
""fullscreenenter"",""1"",""2681""
","
","
","""event"",""trial"",""time""
""fullscreenenter"",""1"",""2681""
","
","","","147.89999997615814","","","23","7844","459","&#9789;","elianto","#f73b6a7A"," "," ","1","0","[1000.3999999761581]","1","0","4","","","","","","","",""
"pit-trial","87","681480","0.0-2.0-17.1-1.1","battery-v0.2","","""event"",""trial"",""time""
""fullscreenenter"",""1"",""2681""
","
","
","""event"",""trial"",""time""
""fullscreenenter"",""1"",""2681""
","
","","","699.6000000238419","","","23","7844","459","&#9789;","elianto","#f73b6a7A"," "," ","1","0","[1553.9000000357628]","1","0","4","","","","","","","",""
"pit-trial","88","684690","0.0-2.0-17.1-2.1","battery-v0.2","","""event"",""trial"",""time""
""fullscreenenter"",""1"",""2681""
","
","
","""event"",""trial"",""time""
""fullscreenenter"",""1"",""2681""
","
","","","341.10000002384186","","","23","7844","459","&#9789;","elianto","#f73b6a7A"," "," ","1","0","[1194.2999999523163]","1","0","4","","","","","","","",""
"pit-trial","89","688153","0.0-2.0-17.1-3.1","battery-v0.2","","""event"",""trial"",""time""
""fullscreenenter"",""1"",""2681""
","
","
","""event"",""trial"",""time""
""fullscreenenter"",""1"",""2681""
","
","","","595.8000000119209","","","23","7844","459","&#9789;","elianto","#f73b6a7A"," "," ","1","-10","[1454.5]","1","0","4","","","","","","","",""
"pit-trial","90","691297","0.0-2.0-17.1-4.1","battery-v0.2","","""event"",""trial"",""time""
""fullscreenenter"",""1"",""2681""
","
","
","""event"",""trial"",""time""
""fullscreenenter"",""1"",""2681""
","
","","","278.5","","","23","7844","459","&#9789;","elianto","#f73b6a7A"," "," ","1","0","[1135.5]","1","0","4","","","","","","","",""
"pit-trial","91","694609","0.0-2.0-17.2-0.2","battery-v0.2","","""event"",""trial"",""time""
""fullscreenenter"",""1"",""2681""
","
","
","""event"",""trial"",""time""
""fullscreenenter"",""1"",""2681""
","
","","","449.19999998807907","","","23","7844","459","&#9789;","elianto","#f73b6a7A"," "," ","1","0","[1304]","1","0","4","","","","","","","",""
"pit-trial","92","697857","0.0-2.0-17.2-1.2","battery-v0.2","","""event"",""trial"",""time""
""fullscreenenter"",""1"",""2681""
","
","
","""event"",""trial"",""time""
""fullscreenenter"",""1"",""2681""
","
","","","383.0999999642372","","","23","7844","459","&#9789;","elianto","#f73b6a7A"," "," ","1","0","[1239.1000000238419]","1","0","4","","","","","","","",""
"pit-trial","93","701128","0.0-2.0-17.2-2.2","battery-v0.2","","""event"",""trial"",""time""
""fullscreenenter"",""1"",""2681""
","
","
","""event"",""trial"",""time""
""fullscreenenter"",""1"",""2681""
","
","","","404.30000001192093","","","23","7844","459","&#9789;","elianto","#f73b6a7A"," "," ","1","0","[1263.1000000238419]","1","0","4","","","","","","","",""
"pit-trial","94","704402","0.0-2.0-17.2-3.2","battery-v0.2","","""event"",""trial"",""time""
""fullscreenenter"",""1"",""2681""
","
","
","""event"",""trial"",""time""
""fullscreenenter"",""1"",""2681""
","
","","","405","","","23","7844","459","&#9789;","elianto","#f73b6a7A"," "," ","1","-10","[1260]","1","0","4","","","","","","","",""
"pit-trial","95","707897","0.0-2.0-17.2-4.2","battery-v0.2","","""event"",""trial"",""time""
""fullscreenenter"",""1"",""2681""
","
","
","""event"",""trial"",""time""
""fullscreenenter"",""1"",""2681""
","
","","","630.7000000476837","","","23","7844","459","&#9789;","elianto","#f73b6a7A"," "," ","1","0","[1481.300000011921]","1","0","4","","","","","","","",""
"pit-trial","96","711465","0.0-2.0-17.3-0.3","battery-v0.2","","""event"",""trial"",""time""
""fullscreenenter"",""1"",""2681""
","
","
","""event"",""trial"",""time""
""fullscreenenter"",""1"",""2681""
","
","","","705.8999999761581","","","23","7844","459","&#9789;","elianto","#f73b6a7A"," "," ","1","0","[1558]","1","0","4","","","","","","","",""
"pit-trial","97","714921","0.0-2.0-17.3-1.3","battery-v0.2","","""event"",""trial"",""time""
""fullscreenenter"",""1"",""2681""
","
","
","""event"",""trial"",""time""
""fullscreenenter"",""1"",""2681""
","
","","","596.6999999880791","","","23","7844","459","&#9789;","elianto","#f73b6a7A"," "," ","1","0","[1448.8999999761581]","1","0","4","","","","","","","",""
"pit-trial","98","718050","0.0-2.0-17.3-2.3","battery-v0.2","","""event"",""trial"",""time""
""fullscreenenter"",""1"",""2681""
","
","
","""event"",""trial"",""time""
""fullscreenenter"",""1"",""2681""
","
","","","255.39999997615814","","","23","7844","459","&#9789;","elianto","#f73b6a7A"," "," ","1","0","[1116.0999999642372]","1","0","4","","","","","","","",""
"pit-trial","99","721245","0.0-2.0-17.3-3.3","battery-v0.2","","""event"",""trial"",""time""
""fullscreenenter"",""1"",""2681""
","
","
","""event"",""trial"",""time""
""fullscreenenter"",""1"",""2681""
","
","","","271.5","","","23","7844","459","&#9789;","elianto","#f73b6a7A"," "," ","1","-10","[1125.5999999642372]","1","0","4","","","","","","","",""
"pit-trial","100","724309","0.0-2.0-17.3-4.3","battery-v0.2","","""event"",""trial"",""time""
""fullscreenenter"",""1"",""2681""
","
","
","""event"",""trial"",""time""
""fullscreenenter"",""1"",""2681""
","
","","","196","","","23","7844","459","&#9789;","elianto","#f73b6a7A"," "," ","1","0","[1056.0999999642372]","1","0","4","","","","","","","",""
"call-function","101","724313","0.0-2.0-18.0","battery-v0.2","","""event"",""trial"",""time""
""fullscreenenter"",""1"",""2681""
","
","
","""event"",""trial"",""time""
""fullscreenenter"",""1"",""2681""
","
","","","","","","","","","","","","","","","","","","","","","","","","","","",""
"pit-instructions","102","789209","0.0-2.0-19.0","battery-v0.2","","""event"",""trial"",""time""
""fullscreenenter"",""1"",""2681""
","
","
","""event"",""trial"",""time""
""fullscreenenter"",""1"",""2681""
","
","","[{""page_index"":0,""viewing_time"":6694.800000011921},{""page_index"":1,""viewing_time"":5940.5},{""page_index"":2,""viewing_time"":8397.800000011921},{""page_index"":3,""viewing_time"":7739.800000011921},{""page_index"":4,""viewing_time"":7810.300000011921},{""page_index"":5,""viewing_time"":8245.699999988079},{""page_index"":6,""viewing_time"":5678.899999976158},{""page_index"":7,""viewing_time"":8755.400000035763},{""page_index"":8,""viewing_time"":5629.799999952316}]","64893.30000001192","","","","","","","","","","","","","","","","","","","","","","","",""
"pit-comprehension","103","794227","0.0-2.0-20.0-0.0","battery-v0.2","","""event"",""trial"",""time""
""fullscreenenter"",""1"",""2681""
","
","
","""event"",""trial"",""time""
""fullscreenenter"",""1"",""2681""
","
","","","5010.699999988079","[""SPACE""]","0","23","7844","459","","","","","","","","","","","","","","","","","","",""
"pit-instructions","104","803739","0.0-2.0-20.0-1.0","battery-v0.2","","""event"",""trial"",""time""
""fullscreenenter"",""1"",""2681""
","
","
","""event"",""trial"",""time""
""fullscreenenter"",""1"",""2681""
","
","","[{""page_index"":0,""viewing_time"":9476.200000047684}]","9476.5","","","","","","","","","","","","","","","","","","","","","","","",""
"pit-comprehension","105","808808","0.0-2.0-21.0-0.0","battery-v0.2","","""event"",""trial"",""time""
""fullscreenenter"",""1"",""2681""
","
","
","""event"",""trial"",""time""
""fullscreenenter"",""1"",""2681""
","
","","","5062.400000035763","[""10""]","0","23","7844","459","","","","","","","","","","","","","","","","","","",""
"pit-instructions","106","810650","0.0-2.0-21.0-1.0","battery-v0.2","","""event"",""trial"",""time""
""fullscreenenter"",""1"",""2681""
","
","
","""event"",""trial"",""time""
""fullscreenenter"",""1"",""2681""
","
","","[{""page_index"":0,""viewing_time"":1810.0999999642372}]","1810.300000011921","","","","","","","","","","","","","","","","","","","","","","","",""
"pit-comprehension","107","817211","0.0-2.0-22.0-0.0","battery-v0.2","","""event"",""trial"",""time""
""fullscreenenter"",""1"",""2681""
","
","
","""event"",""trial"",""time""
""fullscreenenter"",""1"",""2681""
","
","","","6556.699999988079","[""0""]","0","23","7844","459","","","","","","","","","","","","","","","","","","",""
"pit-instructions","108","819391","0.0-2.0-22.0-1.0","battery-v0.2","","""event"",""trial"",""time""
""fullscreenenter"",""1"",""2681""
","
","
","""event"",""trial"",""time""
""fullscreenenter"",""1"",""2681""
","
","","[{""page_index"":0,""viewing_time"":2145.400000035763}]","2145.800000011921","","","","","","","","","","","","","","","","","","","","","","","",""
"pit-comprehension","109","829886","0.0-2.0-23.0-0.0","battery-v0.2","","""event"",""trial"",""time""
""fullscreenenter"",""1"",""2681""
","
","
","""event"",""trial"",""time""
""fullscreenenter"",""1"",""2681""
","
","","","10488.899999976158","[""True""]","0","23","7844","459","","","","","","","","","","","","","","","","","","",""
"pit-instructions","110","832370","0.0-2.0-23.0-1.0","battery-v0.2","","""event"",""trial"",""time""
""fullscreenenter"",""1"",""2681""
","
","
","""event"",""trial"",""time""
""fullscreenenter"",""1"",""2681""
","
","","[{""page_index"":0,""viewing_time"":2447.600000023842}]","2447.800000011921","","","","","","","","","","","","","","","","","","","","","","","",""
"pit-comprehension","111","839803","0.0-2.0-24.0-0.0","battery-v0.2","","""event"",""trial"",""time""
""fullscreenenter"",""1"",""2681""
","
","
","""event"",""trial"",""time""
""fullscreenenter"",""1"",""2681""
","
","","","7427.199999988079","[""True""]","0","23","7844","459","","","","","","","","","","","","","","","","","","",""
"pit-instructions","112","841853","0.0-2.0-24.0-1.0","battery-v0.2","","""event"",""trial"",""time""
""fullscreenenter"",""1"",""2681""
","
","
","""event"",""trial"",""time""
""fullscreenenter"",""1"",""2681""
","
","","[{""page_index"":0,""viewing_time"":2015.7000000476837}]","2016","","","","","","","","","","","","","","","","","","","","","","","",""
"pit-comprehension","113","848241","0.0-2.0-25.0-0.0","battery-v0.2","","""event"",""trial"",""time""
""fullscreenenter"",""1"",""2681""
","
","
","""event"",""trial"",""time""
""fullscreenenter"",""1"",""2681""
","
","","","6382.800000011921","[""True""]","0","23","7844","459","","","","","","","","","","","","","","","","","","",""
"pit-instructions","114","852946","0.0-2.0-25.0-1.0","battery-v0.2","","""event"",""trial"",""time""
""fullscreenenter"",""1"",""2681""
","
","
","""event"",""trial"",""time""
""fullscreenenter"",""1"",""2681""
","
","","[{""page_index"":0,""viewing_time"":4670.900000035763}]","4671.200000047684","","","","","","","","","","","","","","","","","","","","","","","",""
"pit-comprehension","115","857673","0.0-2.0-26.0-0.0","battery-v0.2","","""event"",""trial"",""time""
""fullscreenenter"",""1"",""2681""
","
","
","""event"",""trial"",""time""
""fullscreenenter"",""1"",""2681""
","
","","","4720.199999988079","[""False""]","0","23","7844","459","","","","","","","","","","","","","","","","","","",""
"pit-instructions","116","859573","0.0-2.0-26.0-1.0","battery-v0.2","","""event"",""trial"",""time""
""fullscreenenter"",""1"",""2681""
","
","
","""event"",""trial"",""time""
""fullscreenenter"",""1"",""2681""
","
","","[{""page_index"":0,""viewing_time"":1865}]","1865.199999988079","","","","","","","","","","","","","","","","","","","","","","","",""
"pit-instructions","117","875731","0.0-3.0","battery-v0.2","","""event"",""trial"",""time""
""fullscreenenter"",""1"",""2681""
","
","
","""event"",""trial"",""time""
""fullscreenenter"",""1"",""2681""
","
","","[{""page_index"":0,""viewing_time"":3670.199999988079},{""page_index"":1,""viewing_time"":5141.200000047684},{""page_index"":2,""viewing_time"":7339.299999952316}]","16151","","","","","","","","","","","","","","","","","","","","","","","",""
"pit-trial","118","879573","0.0-4.0","battery-v0.2","","""event"",""trial"",""time""
""fullscreenenter"",""1"",""2681""
","
","
","""event"",""trial"",""time""
""fullscreenenter"",""1"",""2681""
","
","","","967.1999999880791","","","23","7844","459","&#9752;","elianto","#f73b6a7A"," "," ","1","0","[1825.0999999642372]","1","1","","","7844","1","3","3","lose","go","0"
"pit-trial","119","883167","0.0-5.0","battery-v0.2","","""event"",""trial"",""time""
""fullscreenenter"",""1"",""2681""
","
","
","""event"",""trial"",""time""
""fullscreenenter"",""1"",""2681""
","
","","","726","","","23","7844","459","&#9728;","elianto","#f73b6a7A","-1"," ","0","0","[1578.5999999642372]","1","1","","","7844","2","0","4","lose","no-go","1"
"pit-trial","120","886688","0.0-6.0","battery-v0.2","","""event"",""trial"",""time""
""fullscreenenter"",""1"",""2681""
","
","
","""event"",""trial"",""time""
""fullscreenenter"",""1"",""2681""
","
","","","652.8000000119209","","","23","7844","459","&#9730;","elianto","#3366ff99"," "," ","1","0","[1511.8999999761581]","1","1","","","7844","3","1","1","win","go","1"
"pit-trial","121","889919","0.0-7.0","battery-v0.2","","""event"",""trial"",""time""
""fullscreenenter"",""1"",""2681""
","
","
","""event"",""trial"",""time""
""fullscreenenter"",""1"",""2681""
","
","","","360.30000001192093","","","23","7844","459","&#9733;","elianto","#3366ff99","-1"," ","0","0","[1214.6000000238419]","1","1","","","7844","4","2","2","win","no-go","0"
"pit-trial","122","893656","0.0-8.0","battery-v0.2","","""event"",""trial"",""time""
""fullscreenenter"",""1"",""2681""
","
","
","""event"",""trial"",""time""
""fullscreenenter"",""1"",""2681""
","
","","","869.5","","","23","7844","459","&#9730;","elianto","#3366ff99"," "," ","1","+10","[1726.6000000238419]","1","1","","","7844","5","1","1","win","go","0"
"pit-trial","123","897089","0.0-9.0","battery-v0.2","","""event"",""trial"",""time""
""fullscreenenter"",""1"",""2681""
","
","
","""event"",""trial"",""time""
""fullscreenenter"",""1"",""2681""
","
","","","566.6000000238419","","","23","7844","459","&#9733;","elianto","#3366ff99","-1"," ","0","0","[1421.4000000357628]","1","1","","","7844","6","2","2","win","no-go","0"
"pit-trial","124","901960","0.0-10.0","battery-v0.2","","""event"",""trial"",""time""
""fullscreenenter"",""1"",""2681""
","
","
","""event"",""trial"",""time""
""fullscreenenter"",""1"",""2681""
","
","","","-1","","","23","7844","459","&#9752;","elianto","#f73b6a7A"," ","-1","0","-10","[]","0","1","","","7844","7","3","3","lose","go","0"
"pit-trial","125","905637","0.0-11.0","battery-v0.2","","""event"",""trial"",""time""
""fullscreenenter"",""1"",""2681""
","
","
","""event"",""trial"",""time""
""fullscreenenter"",""1"",""2681""
","
","","","817.6999999880791","","","23","7844","459","&#9728;","elianto","#f73b6a7A","-1"," ","0","-10","[1668.7999999523163]","1","1","","","7844","8","0","4","lose","no-go","0"
"pit-trial","126","909552","0.0-12.0","battery-v0.2","","""event"",""trial"",""time""
""fullscreenenter"",""1"",""2681""
","
","
","""event"",""trial"",""time""
""fullscreenenter"",""1"",""2681""
","
","","","1045.1000000238419","","","23","7844","459","&#9730;","elianto","#3366ff99"," "," ","1","+10","[1899.300000011921]","1","1","","","7844","9","1","1","win","go","0"
"pit-trial","127","914422","0.0-13.0","battery-v0.2","","""event"",""trial"",""time""
""fullscreenenter"",""1"",""2681""
","
","
","""event"",""trial"",""time""
""fullscreenenter"",""1"",""2681""
","
","","","-1","","","23","7844","459","&#9733;","elianto","#3366ff99","-1","-1","1","+10","[]","0","1","","","7844","10","2","2","win","no-go","0"
"pit-trial","128","918167","0.0-14.0","battery-v0.2","","""event"",""trial"",""time""
""fullscreenenter"",""1"",""2681""
","
","
","""event"",""trial"",""time""
""fullscreenenter"",""1"",""2681""
","
","","","877.6999999880791","","","23","7844","459","&#9752;","elianto","#f73b6a7A"," "," ","1","-10","[1730.8999999761581]","1","1","","","7844","11","3","3","lose","go","1"
"pit-trial","129","923040","0.0-15.0","battery-v0.2","","""event"",""trial"",""time""
""fullscreenenter"",""1"",""2681""
","
","
","""event"",""trial"",""time""
""fullscreenenter"",""1"",""2681""
","
","","","-1","","","23","7844","459","&#9728;","elianto","#f73b6a7A","-1","-1","1","-10","[]","0","1","","","7844","12","0","4","lose","no-go","1"
"pit-trial","130","926678","0.0-16.0","battery-v0.2","","""event"",""trial"",""time""
""fullscreenenter"",""1"",""2681""
","
","
","""event"",""trial"",""time""
""fullscreenenter"",""1"",""2681""
","
","","","775.8999999761581","","","23","7844","459","&#9728;","elianto","#f73b6a7A","-1"," ","0","-10","[1628.3999999761581]","1","1","","","7844","13","0","4","lose","no-go","0"
"pit-trial","131","930368","0.0-17.0","battery-v0.2","","""event"",""trial"",""time""
""fullscreenenter"",""1"",""2681""
","
","
","""event"",""trial"",""time""
""fullscreenenter"",""1"",""2681""
","
","","","824.3000000119209","","","23","7844","459","&#9730;","elianto","#3366ff99"," "," ","1","0","[1678.3999999761581]","1","1","","","7844","14","1","1","win","go","1"
"pit-trial","132","935189","0.0-18.0","battery-v0.2","","""event"",""trial"",""time""
""fullscreenenter"",""1"",""2681""
","
","
","""event"",""trial"",""time""
""fullscreenenter"",""1"",""2681""
","
","","","1955.699999988079","","","23","7844","459","&#9733;","elianto","#3366ff99","-1"," ","0","0","[2813.599999964237]","1","1","","","7844","15","2","2","win","no-go","0"
"pit-trial","133","940056","0.0-19.0","battery-v0.2","","""event"",""trial"",""time""
""fullscreenenter"",""1"",""2681""
","
","
","""event"",""trial"",""time""
""fullscreenenter"",""1"",""2681""
","
","","","-1","","","23","7844","459","&#9752;","elianto","#f73b6a7A"," ","-1","0","-10","[]","0","1","","","7844","16","3","3","lose","go","0"
"pit-trial","134","944039","0.0-20.0","battery-v0.2","","""event"",""trial"",""time""
""fullscreenenter"",""1"",""2681""
","
","
","""event"",""trial"",""time""
""fullscreenenter"",""1"",""2681""
","
","","","1114.1000000238419","","","23","7844","459","&#9728;","elianto","#f73b6a7A","-1"," ","0","0","[1968.5]","1","1","","","7844","17","0","4","lose","no-go","1"
"pit-trial","135","948534","0.0-21.0","battery-v0.2","","""event"",""trial"",""time""
""fullscreenenter"",""1"",""2681""
","
","
","""event"",""trial"",""time""
""fullscreenenter"",""1"",""2681""
","
","","","1629.3999999761581","","","23","7844","459","&#9733;","elianto","#3366ff99","-1"," ","0","0","[2483]","1","1","","","7844","18","2","2","win","no-go","0"
"pit-trial","136","952710","0.0-22.0","battery-v0.2","","""event"",""trial"",""time""
""fullscreenenter"",""1"",""2681""
","
","
","""event"",""trial"",""time""
""fullscreenenter"",""1"",""2681""
","
","","","1307.6000000238419","","","23","7844","459","&#9752;","elianto","#f73b6a7A"," "," ","1","-10","[2164.5]","1","1","","","7844","19","3","3","lose","go","1"
"pit-trial","137","956312","0.0-23.0","battery-v0.2","","""event"",""trial"",""time""
""fullscreenenter"",""1"",""2681""
","
","
","""event"",""trial"",""time""
""fullscreenenter"",""1"",""2681""
","
","","","741.1000000238419","","","23","7844","459","&#9730;","elianto","#3366ff99"," "," ","1","0","[1591.300000011921]","1","1","","","7844","20","1","1","win","go","1"
"pit-instructions","138","968334","0.0-24.0","battery-v0.2","","""event"",""trial"",""time""
""fullscreenenter"",""1"",""2681""
","
","
","""event"",""trial"",""time""
""fullscreenenter"",""1"",""2681""
","
","","[{""page_index"":0,""viewing_time"":5641.5},{""page_index"":1,""viewing_time"":6377}]","12018.799999952316","","","","","","","","","","","","","","","","","","","","","","","",""
"pit-trial","139","972265","0.0-25.0","battery-v0.2","","""event"",""trial"",""time""
""fullscreenenter"",""1"",""2681""
","
","
","""event"",""trial"",""time""
""fullscreenenter"",""1"",""2681""
","
","","","1062.1000000238419","","","23","7844","459","a","elianto","#f73b6a7A","-1"," ","0","0","[1921]","1","2","","","7844","21","2","4","lose","no-go","1"
"pit-trial","140","975783","0.0-26.0","battery-v0.2","","""event"",""trial"",""time""
""fullscreenenter"",""1"",""2681""
","
","
","""event"",""trial"",""time""
""fullscreenenter"",""1"",""2681""
","
","","","648.5","","","23","7844","459","l","elianto","#3366ff99"," "," ","1","+10","[1503.800000011921]","1","2","","","7844","22","1","1","win","go","0"
"pit-trial","141","979527","0.0-27.0","battery-v0.2","","""event"",""trial"",""time""
""fullscreenenter"",""1"",""2681""
","
","
","""event"",""trial"",""time""
""fullscreenenter"",""1"",""2681""
","
","","","875.6999999880791","","","23","7844","459","g","elianto","#f73b6a7A"," "," ","1","0","[1734.699999988079]","1","2","","","7844","23","3","3","lose","go","0"
"pit-trial","142","984321","0.0-28.0","battery-v0.2","","""event"",""trial"",""time""
""fullscreenenter"",""1"",""2681""
","
","
","""event"",""trial"",""time""
""fullscreenenter"",""1"",""2681""
","
","","","1927.3999999761581","","","23","7844","459","u","elianto","#f73b6a7A","-1"," ","0","-10","[2778.2999999523163]","1","2","","","7844","24","0","4","lose","no-go","0"
"pit-trial","143","988273","0.0-29.0","battery-v0.2","","""event"",""trial"",""time""
""fullscreenenter"",""1"",""2681""
","
","
","""event"",""trial"",""time""
""fullscreenenter"",""1"",""2681""
","
","","","1087.7000000476837","","","23","7844","459","a","elianto","#f73b6a7A","-1"," ","0","-10","[1940.800000011921]","1","2","","","7844","25","2","4","lose","no-go","0"
"pit-trial","144","991895","0.0-30.0","battery-v0.2","","""event"",""trial"",""time""
""fullscreenenter"",""1"",""2681""
","
","
","""event"",""trial"",""time""
""fullscreenenter"",""1"",""2681""
","
","","","762.1000000238419","","","23","7844","459","l","elianto","#3366ff99"," "," ","1","+10","[1616.300000011921]","1","2","","","7844","26","1","1","win","go","0"
"pit-trial","145","996758","0.0-31.0","battery-v0.2","","""event"",""trial"",""time""
""fullscreenenter"",""1"",""2681""
","
","
","""event"",""trial"",""time""
""fullscreenenter"",""1"",""2681""
","
","","","-1","","","23","7844","459","u","elianto","#f73b6a7A","-1","-1","1","0","[]","0","2","","","7844","27","0","4","lose","no-go","0"
"pit-trial","146","1001626","0.0-32.0","battery-v0.2","","""event"",""trial"",""time""
""fullscreenenter"",""1"",""2681""
","
","
","""event"",""trial"",""time""
""fullscreenenter"",""1"",""2681""
","
","","","-1","","","23","7844","459","g","elianto","#f73b6a7A"," ","-1","0","-10","[]","0","2","","","7844","28","3","3","lose","go","0"
"pit-trial","147","1006497","0.0-33.0","battery-v0.2","","""event"",""trial"",""time""
""fullscreenenter"",""1"",""2681""
","
","
","""event"",""trial"",""time""
""fullscreenenter"",""1"",""2681""
","
","","","-1","","","23","7844","459","a","elianto","#f73b6a7A","-1","-1","1","0","[]","0","2","","","7844","29","2","4","lose","no-go","0"
"pit-trial","148","1010537","0.0-34.0","battery-v0.2","","""event"",""trial"",""time""
""fullscreenenter"",""1"",""2681""
","
","
","""event"",""trial"",""time""
""fullscreenenter"",""1"",""2681""
","
","","","1175.2999999523163","","","23","7844","459","g","elianto","#f73b6a7A"," "," ","1","-10","[2034.4000000357628]","1","2","","","7844","30","3","3","lose","go","1"
"pit-trial","149","1014753","0.0-35.0","battery-v0.2","","""event"",""trial"",""time""
""fullscreenenter"",""1"",""2681""
","
","
","""event"",""trial"",""time""
""fullscreenenter"",""1"",""2681""
","
","","","1351.2999999523163","","","23","7844","459","u","elianto","#f73b6a7A","-1"," ","0","0","[2206.599999964237]","1","2","","","7844","31","0","4","lose","no-go","1"
"pit-trial","150","1018249","0.0-36.0","battery-v0.2","","""event"",""trial"",""time""
""fullscreenenter"",""1"",""2681""
","
","
","""event"",""trial"",""time""
""fullscreenenter"",""1"",""2681""
","
","","","624.6999999880791","","","23","7844","459","l","elianto","#3366ff99"," "," ","1","0","[1481.9000000357628]","1","2","","","7844","32","1","1","win","go","1"
"pit-trial","151","1021737","0.0-37.0","battery-v0.2","","""event"",""trial"",""time""
""fullscreenenter"",""1"",""2681""
","
","
","""event"",""trial"",""time""
""fullscreenenter"",""1"",""2681""
","
","","","618.3000000119209","","","23","7844","459","l","elianto","#3366ff99"," "," ","1","0","[1477.5999999642372]","1","2","","","7844","33","1","1","win","go","1"
"pit-trial","152","1026610","0.0-38.0","battery-v0.2","","""event"",""trial"",""time""
""fullscreenenter"",""1"",""2681""
","
","
","""event"",""trial"",""time""
""fullscreenenter"",""1"",""2681""
","
","","","-1","","","23","7844","459","u","elianto","#f73b6a7A","-1","-1","1","0","[]","0","2","","","7844","34","0","4","lose","no-go","0"
"pit-trial","153","1031481","0.0-39.0","battery-v0.2","","""event"",""trial"",""time""
""fullscreenenter"",""1"",""2681""
","
","
","""event"",""trial"",""time""
""fullscreenenter"",""1"",""2681""
","
","","","-1","","","23","7844","459","g","elianto","#f73b6a7A"," ","-1","0","-10","[]","0","2","","","7844","35","3","3","lose","go","0"
"pit-trial","154","1036354","0.0-40.0","battery-v0.2","","""event"",""trial"",""time""
""fullscreenenter"",""1"",""2681""
","
","
","""event"",""trial"",""time""
""fullscreenenter"",""1"",""2681""
","
","","","-1","","","23","7844","459","a","elianto","#f73b6a7A","-1","-1","1","0","[3076.300000011921]","1","2","","","7844","36","2","4","lose","no-go","0"
"pit-trial","155","1041225","0.0-41.0","battery-v0.2","","""event"",""trial"",""time""
""fullscreenenter"",""1"",""2681""
","
","
","""event"",""trial"",""time""
""fullscreenenter"",""1"",""2681""
","
","","","-1","","","23","7844","459","l","elianto","#3366ff99"," ","-1","0","0","[]","0","2","","","7844","37","1","1","win","go","0"
"pit-trial","156","1045897","0.0-42.0","battery-v0.2","","""event"",""trial"",""time""
""fullscreenenter"",""1"",""2681""
","
","
","""event"",""trial"",""time""
""fullscreenenter"",""1"",""2681""
","
","","","1785.199999988079","","","23","7844","459","g","elianto","#f73b6a7A"," "," ","1","0","[2659.300000011921]","1","2","","","7844","38","3","3","lose","go","0"
"pit-trial","157","1049450","0.0-43.0","battery-v0.2","","""event"",""trial"",""time""
""fullscreenenter"",""1"",""2681""
","
","
","""event"",""trial"",""time""
""fullscreenenter"",""1"",""2681""
","
","","","683.3000000119209","","","23","7844","459","u","elianto","#f73b6a7A","-1"," ","0","-10","[1543.1000000238419]","1","2","","","7844","39","0","4","lose","no-go","0"
"pit-trial","158","1053458","0.0-44.0","battery-v0.2","","""event"",""trial"",""time""
""fullscreenenter"",""1"",""2681""
","
","
","""event"",""trial"",""time""
""fullscreenenter"",""1"",""2681""
","
","","","1132.199999988079","","","23","7844","459","a","elianto","#f73b6a7A","-1"," ","0","-10","[1991.199999988079]","1","2","","","7844","40","2","4","lose","no-go","0"
"pit-trial","159","1057801","0.0-45.0","battery-v0.2","","""event"",""trial"",""time""
""fullscreenenter"",""1"",""2681""
","
","
","""event"",""trial"",""time""
""fullscreenenter"",""1"",""2681""
","
","","","1479.2999999523163","","","23","7844","459","u","elianto","#f73b6a7A","-1"," ","0","-10","[2329.599999964237]","1","2","","","7844","41","0","4","lose","no-go","0"
"pit-trial","160","1062674","0.0-46.0","battery-v0.2","","""event"",""trial"",""time""
""fullscreenenter"",""1"",""2681""
","
","
","""event"",""trial"",""time""
""fullscreenenter"",""1"",""2681""
","
","","","-1","","","23","7844","459","g","elianto","#f73b6a7A"," ","-1","0","-10","[]","0","2","","","7844","42","3","3","lose","go","0"
"pit-trial","161","1066666","0.0-47.0","battery-v0.2","","""event"",""trial"",""time""
""fullscreenenter"",""1"",""2681""
","
","
","""event"",""trial"",""time""
""fullscreenenter"",""1"",""2681""
","
","","","1129.1000000238419","","","23","7844","459","a","elianto","#f73b6a7A","-1"," ","0","0","[1980.800000011921]","1","2","","","7844","43","2","4","lose","no-go","1"
"pit-trial","162","1071027","0.0-48.0","battery-v0.2","","""event"",""trial"",""time""
""fullscreenenter"",""1"",""2681""
","
","
","""event"",""trial"",""time""
""fullscreenenter"",""1"",""2681""
","
","","","1492","","","23","7844","459","l","elianto","#3366ff99"," "," ","1","0","[2351.5]","1","2","","","7844","44","1","1","win","go","1"
"pit-trial","163","1075763","0.0-49.0","battery-v0.2","","""event"",""trial"",""time""
""fullscreenenter"",""1"",""2681""
","
","
","""event"",""trial"",""time""
""fullscreenenter"",""1"",""2681""
","
","","","1877.300000011921","","","23","7844","459","u","elianto","#f73b6a7A","-1"," ","0","-10","[2728.199999988079]","1","2","","","7844","45","0","4","lose","no-go","0"
"pit-trial","164","1080634","0.0-50.0","battery-v0.2","","""event"",""trial"",""time""
""fullscreenenter"",""1"",""2681""
","
","
","""event"",""trial"",""time""
""fullscreenenter"",""1"",""2681""
","
","","","-1","","","23","7844","459","g","elianto","#f73b6a7A"," ","-1","0","-10","[]","0","2","","","7844","46","3","3","lose","go","0"
"pit-trial","165","1084642","0.0-51.0","battery-v0.2","","""event"",""trial"",""time""
""fullscreenenter"",""1"",""2681""
","
","
","""event"",""trial"",""time""
""fullscreenenter"",""1"",""2681""
","
","","","1133.0999999642372","","","23","7844","459","p","elianto","#3366ff99","-1"," ","0","0","[1992.6000000238419]","1","2","","","7844","47","4","2","win","no-go","0"
"pit-trial","166","1088067","0.0-52.0","battery-v0.2","","""event"",""trial"",""time""
""fullscreenenter"",""1"",""2681""
","
","
","""event"",""trial"",""time""
""fullscreenenter"",""1"",""2681""
","
","","","562","","","23","7844","459","a","elianto","#f73b6a7A","-1"," ","0","-10","[1412.6000000238419]","1","2","","","7844","48","2","4","lose","no-go","0"
"pit-trial","167","1091802","0.0-53.0","battery-v0.2","","""event"",""trial"",""time""
""fullscreenenter"",""1"",""2681""
","
","
","""event"",""trial"",""time""
""fullscreenenter"",""1"",""2681""
","
","","","863","","","23","7844","459","l","elianto","#3366ff99"," "," ","1","+10","[1723]","1","2","","","7844","49","1","1","win","go","0"
"pit-trial","168","1095546","0.0-54.0","battery-v0.2","","""event"",""trial"",""time""
""fullscreenenter"",""1"",""2681""
","
","
","""event"",""trial"",""time""
""fullscreenenter"",""1"",""2681""
","
","","","873.9000000357628","","","23","7844","459","g","elianto","#f73b6a7A"," "," ","1","0","[1731.2000000476837]","1","2","","","7844","50","3","3","lose","go","0"
"pit-trial","169","1098978","0.0-55.0","battery-v0.2","","""event"",""trial"",""time""
""fullscreenenter"",""1"",""2681""
","
","
","""event"",""trial"",""time""
""fullscreenenter"",""1"",""2681""
","
","","","563.4000000357628","","","23","7844","459","u","elianto","#f73b6a7A","-1"," ","0","-10","[1421.800000011921]","1","2","","","7844","51","0","4","lose","no-go","0"
"pit-trial","170","1103850","0.0-56.0","battery-v0.2","","""event"",""trial"",""time""
""fullscreenenter"",""1"",""2681""
","
","
","""event"",""trial"",""time""
""fullscreenenter"",""1"",""2681""
","
","","","-1","","","23","7844","459","p","elianto","#3366ff99","-1","-1","1","+10","[]","0","2","","","7844","52","4","2","win","no-go","0"
"pit-trial","171","1108723","0.0-57.0","battery-v0.2","","""event"",""trial"",""time""
""fullscreenenter"",""1"",""2681""
","
","
","""event"",""trial"",""time""
""fullscreenenter"",""1"",""2681""
","
","","","-1","","","23","7844","459","p","elianto","#3366ff99","-1","-1","1","+10","[]","0","2","","","7844","53","4","2","win","no-go","0"
"pit-trial","172","1113507","0.0-58.0","battery-v0.2","","""event"",""trial"",""time""
""fullscreenenter"",""1"",""2681""
","
","
","""event"",""trial"",""time""
""fullscreenenter"",""1"",""2681""
","
","","","1920.5","","","23","7844","459","l","elianto","#3366ff99"," "," ","1","+10","[2774.300000011921]","1","2","","","7844","54","1","1","win","go","0"
"pit-trial","173","1118379","0.0-59.0","battery-v0.2","","""event"",""trial"",""time""
""fullscreenenter"",""1"",""2681""
","
","
","""event"",""trial"",""time""
""fullscreenenter"",""1"",""2681""
","
","","","-1","","","23","7844","459","u","elianto","#f73b6a7A","-1","-1","1","0","[]","0","2","","","7844","55","0","4","lose","no-go","0"
"pit-trial","174","1123251","0.0-60.0","battery-v0.2","","""event"",""trial"",""time""
""fullscreenenter"",""1"",""2681""
","
","
","""event"",""trial"",""time""
""fullscreenenter"",""1"",""2681""
","
","","","-1","","","23","7844","459","a","elianto","#f73b6a7A","-1","-1","1","0","[]","0","2","","","7844","56","2","4","lose","no-go","0"
"pit-trial","175","1128123","0.0-61.0","battery-v0.2","","""event"",""trial"",""time""
""fullscreenenter"",""1"",""2681""
","
","
","""event"",""trial"",""time""
""fullscreenenter"",""1"",""2681""
","
","","","-1","","","23","7844","459","p","elianto","#3366ff99","-1","-1","1","+10","[]","0","2","","","7844","57","4","2","win","no-go","0"
"pit-trial","176","1132996","0.0-62.0","battery-v0.2","","""event"",""trial"",""time""
""fullscreenenter"",""1"",""2681""
","
","
","""event"",""trial"",""time""
""fullscreenenter"",""1"",""2681""
","
","","","-1","","","23","7844","459","l","elianto","#3366ff99"," ","-1","0","+10","[]","0","2","","","7844","58","1","1","win","go","1"
"pit-trial","177","1137867","0.0-63.0","battery-v0.2","","""event"",""trial"",""time""
""fullscreenenter"",""1"",""2681""
","
","
","""event"",""trial"",""time""
""fullscreenenter"",""1"",""2681""
","
","","","-1","","","23","7844","459","g","elianto","#f73b6a7A"," ","-1","0","-10","[]","0","2","","","7844","59","3","3","lose","go","0"
"pit-trial","178","1142740","0.0-64.0","battery-v0.2","","""event"",""trial"",""time""
""fullscreenenter"",""1"",""2681""
","
","
","""event"",""trial"",""time""
""fullscreenenter"",""1"",""2681""
","
","","","-1","","","23","7844","459","u","elianto","#f73b6a7A","-1","-1","1","-10","[]","0","2","","","7844","60","0","4","lose","no-go","1"
"pit-trial","179","1147611","0.0-65.0","battery-v0.2","","""event"",""trial"",""time""
""fullscreenenter"",""1"",""2681""
","
","
","""event"",""trial"",""time""
""fullscreenenter"",""1"",""2681""
","
","","","-1","","","23","7844","459","a","elianto","#f73b6a7A","-1","-1","1","-10","[]","0","2","","","7844","61","2","4","lose","no-go","1"
"pit-trial","180","1152483","0.0-66.0","battery-v0.2","","""event"",""trial"",""time""
""fullscreenenter"",""1"",""2681""
","
","
","""event"",""trial"",""time""
""fullscreenenter"",""1"",""2681""
","
","","","-1","","","23","7844","459","l","elianto","#3366ff99"," ","-1","0","0","[]","0","2","","","7844","62","1","1","win","go","0"
"pit-trial","181","1157355","0.0-67.0","battery-v0.2","","""event"",""trial"",""time""
""fullscreenenter"",""1"",""2681""
","
","
","""event"",""trial"",""time""
""fullscreenenter"",""1"",""2681""
","
","","","-1","","","23","7844","459","g","elianto","#f73b6a7A"," ","-1","0","-10","[3089.2999999523163]","1","2","","","7844","63","3","3","lose","go","0"
"pit-trial","182","1161242","0.0-68.0","battery-v0.2","","""event"",""trial"",""time""
""fullscreenenter"",""1"",""2681""
","
","
","""event"",""trial"",""time""
""fullscreenenter"",""1"",""2681""
","
","","","1020.8000000119209","","","23","7844","459","p","elianto","#3366ff99","-1"," ","0","+10","[1876.300000011921]","1","2","","","7844","64","4","2","win","no-go","1"
"pit-trial","183","1166116","0.0-69.0","battery-v0.2","","""event"",""trial"",""time""
""fullscreenenter"",""1"",""2681""
","
","
","""event"",""trial"",""time""
""fullscreenenter"",""1"",""2681""
","
","","","-1","","","23","7844","459","g","elianto","#f73b6a7A"," ","-1","0","0","[]","0","2","","","7844","65","3","3","lose","go","1"
"pit-trial","184","1169540","0.0-70.0","battery-v0.2","","""event"",""trial"",""time""
""fullscreenenter"",""1"",""2681""
","
","
","""event"",""trial"",""time""
""fullscreenenter"",""1"",""2681""
","
","","","552.4000000357628","","","23","7844","459","l","elianto","#3366ff99"," "," ","1","+10","[1410.300000011921]","1","2","","","7844","66","1","1","win","go","0"
"pit-trial","185","1174411","0.0-71.0","battery-v0.2","","""event"",""trial"",""time""
""fullscreenenter"",""1"",""2681""
","
","
","""event"",""trial"",""time""
""fullscreenenter"",""1"",""2681""
","
","","","-1","","","23","7844","459","p","elianto","#3366ff99","-1","-1","1","+10","[]","0","2","","","7844","67","4","2","win","no-go","0"
"pit-trial","186","1179284","0.0-72.0","battery-v0.2","","""event"",""trial"",""time""
""fullscreenenter"",""1"",""2681""
","
","
","""event"",""trial"",""time""
""fullscreenenter"",""1"",""2681""
","
","","","-1","","","23","7844","459","a","elianto","#f73b6a7A","-1","-1","1","-10","[]","0","2","","","7844","68","2","4","lose","no-go","1"
"pit-trial","187","1184155","0.0-73.0","battery-v0.2","","""event"",""trial"",""time""
""fullscreenenter"",""1"",""2681""
","
","
","""event"",""trial"",""time""
""fullscreenenter"",""1"",""2681""
","
","","","-1","","","23","7844","459","p","elianto","#3366ff99","-1","-1","1","+10","[]","0","2","","","7844","69","4","2","win","no-go","0"
"pit-trial","188","1189028","0.0-74.0","battery-v0.2","","""event"",""trial"",""time""
""fullscreenenter"",""1"",""2681""
","
","
","""event"",""trial"",""time""
""fullscreenenter"",""1"",""2681""
","
","","","-1","","","23","7844","459","s","elianto","#3366ff99"," ","-1","0","0","[]","0","2","","","7844","70","5","1","win","go","0"
"pit-trial","189","1193899","0.0-75.0","battery-v0.2","","""event"",""trial"",""time""
""fullscreenenter"",""1"",""2681""
","
","
","""event"",""trial"",""time""
""fullscreenenter"",""1"",""2681""
","
","","","-1","","","23","7844","459","l","elianto","#3366ff99"," ","-1","0","0","[]","0","2","","","7844","71","1","1","win","go","0"
"pit-trial","190","1198772","0.0-76.0","battery-v0.2","","""event"",""trial"",""time""
""fullscreenenter"",""1"",""2681""
","
","
","""event"",""trial"",""time""
""fullscreenenter"",""1"",""2681""
","
","","","-1","","","23","7844","459","g","elianto","#f73b6a7A"," ","-1","0","-10","[]","0","2","","","7844","72","3","3","lose","go","0"
"pit-trial","191","1203643","0.0-77.0","battery-v0.2","","""event"",""trial"",""time""
""fullscreenenter"",""1"",""2681""
","
","
","""event"",""trial"",""time""
""fullscreenenter"",""1"",""2681""
","
","","","-1","","","23","7844","459","l","elianto","#3366ff99"," ","-1","0","0","[]","0","2","","","7844","73","1","1","win","go","0"
"pit-trial","192","1207412","0.0-78.0","battery-v0.2","","""event"",""trial"",""time""
""fullscreenenter"",""1"",""2681""
","
","
","""event"",""trial"",""time""
""fullscreenenter"",""1"",""2681""
","
","","","907.5","","","23","7844","459","g","elianto","#f73b6a7A"," "," ","1","0","[1758.3999999761581]","1","2","","","7844","74","3","3","lose","go","0"
"pit-trial","193","1212284","0.0-79.0","battery-v0.2","","""event"",""trial"",""time""
""fullscreenenter"",""1"",""2681""
","
","
","""event"",""trial"",""time""
""fullscreenenter"",""1"",""2681""
","
","","","-1","","","23","7844","459","s","elianto","#3366ff99"," ","-1","0","0","[]","0","2","","","7844","75","5","1","win","go","0"
"pit-trial","194","1217156","0.0-80.0","battery-v0.2","","""event"",""trial"",""time""
""fullscreenenter"",""1"",""2681""
","
","
","""event"",""trial"",""time""
""fullscreenenter"",""1"",""2681""
","
","","","-1","","","23","7844","459","p","elianto","#3366ff99","-1","-1","1","+10","[]","0","2","","","7844","76","4","2","win","no-go","0"
"pit-trial","195","1222028","0.0-81.0","battery-v0.2","","""event"",""trial"",""time""
""fullscreenenter"",""1"",""2681""
","
","
","""event"",""trial"",""time""
""fullscreenenter"",""1"",""2681""
","
","","","-1","","","23","7844","459","w","elianto","#f73b6a7A","-1","-1","1","0","[]","0","2","","","7844","77","6","4","lose","no-go","0"
"pit-trial","196","1226901","0.0-82.0","battery-v0.2","","""event"",""trial"",""time""
""fullscreenenter"",""1"",""2681""
","
","
","""event"",""trial"",""time""
""fullscreenenter"",""1"",""2681""
","
","","","-1","","","23","7844","459","p","elianto","#3366ff99","-1","-1","1","+10","[]","0","2","","","7844","78","4","2","win","no-go","0"
"pit-trial","197","1231771","0.0-83.0","battery-v0.2","","""event"",""trial"",""time""
""fullscreenenter"",""1"",""2681""
","
","
","""event"",""trial"",""time""
""fullscreenenter"",""1"",""2681""
","
","","","-1","","","23","7844","459","g","elianto","#f73b6a7A"," ","-1","0","-10","[]","0","2","","","7844","79","3","3","lose","go","0"
"pit-trial","198","1236645","0.0-84.0","battery-v0.2","","""event"",""trial"",""time""
""fullscreenenter"",""1"",""2681""
","
","
","""event"",""trial"",""time""
""fullscreenenter"",""1"",""2681""
","
","","","-1","","","23","7844","459","s","elianto","#3366ff99"," ","-1","0","0","[]","0","2","","","7844","80","5","1","win","go","0"
"pit-trial","199","1241516","0.0-85.0","battery-v0.2","","""event"",""trial"",""time""
""fullscreenenter"",""1"",""2681""
","
","
","""event"",""trial"",""time""
""fullscreenenter"",""1"",""2681""
","
","","","-1","","","23","7844","459","p","elianto","#3366ff99","-1","-1","1","+10","[]","0","2","","","7844","81","4","2","win","no-go","0"
"pit-trial","200","1246389","0.0-86.0","battery-v0.2","","""event"",""trial"",""time""
""fullscreenenter"",""1"",""2681""
","
","
","""event"",""trial"",""time""
""fullscreenenter"",""1"",""2681""
","
","","","-1","","","23","7844","459","e","elianto","#f73b6a7A"," ","-1","0","0","[]","0","2","","","7844","82","7","3","lose","go","1"
"pit-trial","201","1251260","0.0-87.0","battery-v0.2","","""event"",""trial"",""time""
""fullscreenenter"",""1"",""2681""
","
","
","""event"",""trial"",""time""
""fullscreenenter"",""1"",""2681""
","
","","","-1","","","23","7844","459","s","elianto","#3366ff99"," ","-1","0","+10","[]","0","2","","","7844","83","5","1","win","go","1"
"pit-trial","202","1256133","0.0-88.0","battery-v0.2","","""event"",""trial"",""time""
""fullscreenenter"",""1"",""2681""
","
","
","""event"",""trial"",""time""
""fullscreenenter"",""1"",""2681""
","
","","","-1","","","23","7844","459","w","elianto","#f73b6a7A","-1","-1","1","0","[]","0","2","","","7844","84","6","4","lose","no-go","0"
"pit-trial","203","1261004","0.0-89.0","battery-v0.2","","""event"",""trial"",""time""
""fullscreenenter"",""1"",""2681""
","
","
","""event"",""trial"",""time""
""fullscreenenter"",""1"",""2681""
","
","","","-1","","","23","7844","459","p","elianto","#3366ff99","-1","-1","1","+10","[]","0","2","","","7844","85","4","2","win","no-go","0"
"pit-trial","204","1265877","0.0-90.0","battery-v0.2","","""event"",""trial"",""time""
""fullscreenenter"",""1"",""2681""
","
","
","""event"",""trial"",""time""
""fullscreenenter"",""1"",""2681""
","
","","","-1","","","23","7844","459","w","elianto","#f73b6a7A","-1","-1","1","0","[]","0","2","","","7844","86","6","4","lose","no-go","0"
"pit-trial","205","1270748","0.0-91.0","battery-v0.2","","""event"",""trial"",""time""
""fullscreenenter"",""1"",""2681""
","
","
","""event"",""trial"",""time""
""fullscreenenter"",""1"",""2681""
","
","","","-1","","","23","7844","459","e","elianto","#f73b6a7A"," ","-1","0","-10","[]","0","2","","","7844","87","7","3","lose","go","0"
"pit-trial","206","1275621","0.0-92.0","battery-v0.2","","""event"",""trial"",""time""
""fullscreenenter"",""1"",""2681""
","
","
","""event"",""trial"",""time""
""fullscreenenter"",""1"",""2681""
","
","","","-1","","","23","7844","459","s","elianto","#3366ff99"," ","-1","0","0","[]","0","2","","","7844","88","5","1","win","go","0"
"pit-trial","207","1280493","0.0-93.0","battery-v0.2","","""event"",""trial"",""time""
""fullscreenenter"",""1"",""2681""
","
","
","""event"",""trial"",""time""
""fullscreenenter"",""1"",""2681""
","
","","","-1","","","23","7844","459","e","elianto","#f73b6a7A"," ","-1","0","-10","[]","0","2","","","7844","89","7","3","lose","go","0"
"pit-trial","208","1285365","0.0-94.0","battery-v0.2","","""event"",""trial"",""time""
""fullscreenenter"",""1"",""2681""
","
","
","""event"",""trial"",""time""
""fullscreenenter"",""1"",""2681""
","
","","","-1","","","23","7844","459","s","elianto","#3366ff99"," ","-1","0","0","[]","0","2","","","7844","90","5","1","win","go","0"
"pit-trial","209","1290237","0.0-95.0","battery-v0.2","","""event"",""trial"",""time""
""fullscreenenter"",""1"",""2681""
","
","
","""event"",""trial"",""time""
""fullscreenenter"",""1"",""2681""
","
","","","-1","","","23","7844","459","p","elianto","#3366ff99","-1","-1","1","0","[]","0","2","","","7844","91","4","2","win","no-go","1"
"pit-trial","210","1294293","0.0-96.0","battery-v0.2","","""event"",""trial"",""time""
""fullscreenenter"",""1"",""2681""
","
","
","""event"",""trial"",""time""
""fullscreenenter"",""1"",""2681""
","
","","","1186.7999999523163","","","23","7844","459","w","elianto","#f73b6a7A","-1"," ","0","-10","[2042.7999999523163]","1","2","","","7844","92","6","4","lose","no-go","0"
"pit-trial","211","1299165","0.0-97.0","battery-v0.2","","""event"",""trial"",""time""
""fullscreenenter"",""1"",""2681""
","
","
","""event"",""trial"",""time""
""fullscreenenter"",""1"",""2681""
","
","","","-1","","","23","7844","459","d","elianto","#3366ff99","-1","-1","1","+10","[]","0","2","","","7844","93","8","2","win","no-go","0"
"pit-trial","212","1302982","0.0-98.0","battery-v0.2","","""event"",""trial"",""time""
""fullscreenenter"",""1"",""2681""
","
","
","""event"",""trial"",""time""
""fullscreenenter"",""1"",""2681""
","
","","","944.2000000476837","","","23","7844","459","s","elianto","#3366ff99"," "," ","1","0","[1804]","1","2","","","7844","94","5","1","win","go","1"
"pit-trial","213","1307853","0.0-99.0","battery-v0.2","","""event"",""trial"",""time""
""fullscreenenter"",""1"",""2681""
","
","
","""event"",""trial"",""time""
""fullscreenenter"",""1"",""2681""
","
","","","-1","","","23","7844","459","w","elianto","#f73b6a7A","-1","-1","1","0","[]","0","2","","","7844","95","6","4","lose","no-go","0"
"pit-trial","214","1312726","0.0-100.0","battery-v0.2","","""event"",""trial"",""time""
""fullscreenenter"",""1"",""2681""
","
","
","""event"",""trial"",""time""
""fullscreenenter"",""1"",""2681""
","
","","","-1","","","23","7844","459","e","elianto","#f73b6a7A"," ","-1","0","-10","[]","0","2","","","7844","96","7","3","lose","go","0"
"pit-trial","215","1317599","0.0-101.0","battery-v0.2","","""event"",""trial"",""time""
""fullscreenenter"",""1"",""2681""
","
","
","""event"",""trial"",""time""
""fullscreenenter"",""1"",""2681""
","
","","","-1","","","23","7844","459","w","elianto","#f73b6a7A","-1","-1","1","0","[]","0","2","","","7844","97","6","4","lose","no-go","0"
"pit-trial","216","1320653","0.0-102.0","battery-v0.2","","""event"",""trial"",""time""
""fullscreenenter"",""1"",""2681""
","
","
","""event"",""trial"",""time""
""fullscreenenter"",""1"",""2681""
","
","","","184.5999999642372","","","23","7844","459","e","elianto","#f73b6a7A"," "," ","1","0","[1040.300000011921]","1","2","","","7844","98","7","3","lose","go","0"
"pit-trial","217","1323830","0.0-103.0","battery-v0.2","","""event"",""trial"",""time""
""fullscreenenter"",""1"",""2681""
","
","
","""event"",""trial"",""time""
""fullscreenenter"",""1"",""2681""
","
","","","310.0999999642372","","","23","7844","459","d","elianto","#3366ff99","-1"," ","0","0","[1166.5]","1","2","","","7844","99","8","2","win","no-go","0"
"pit-trial","218","1328701","0.0-104.0","battery-v0.2","","""event"",""trial"",""time""
""fullscreenenter"",""1"",""2681""
","
","
","""event"",""trial"",""time""
""fullscreenenter"",""1"",""2681""
","
","","","-1","","","23","7844","459","s","elianto","#3366ff99"," ","-1","0","0","[]","0","2","","","7844","100","5","1","win","go","0"
"pit-trial","219","1333575","0.0-105.0","battery-v0.2","","""event"",""trial"",""time""
""fullscreenenter"",""1"",""2681""
","
","
","""event"",""trial"",""time""
""fullscreenenter"",""1"",""2681""
","
","","","-1","","","23","7844","459","s","elianto","#3366ff99"," ","-1","0","0","[]","0","2","","","7844","101","5","1","win","go","0"
"pit-trial","220","1338446","0.0-106.0","battery-v0.2","","""event"",""trial"",""time""
""fullscreenenter"",""1"",""2681""
","
","
","""event"",""trial"",""time""
""fullscreenenter"",""1"",""2681""
","
","","","-1","","","23","7844","459","d","elianto","#3366ff99","-1","-1","1","0","[]","0","2","","","7844","102","8","2","win","no-go","1"
"pit-trial","221","1343070","0.0-107.0","battery-v0.2","","""event"",""trial"",""time""
""fullscreenenter"",""1"",""2681""
","
","
","""event"",""trial"",""time""
""fullscreenenter"",""1"",""2681""
","
","","","1750.6000000238419","","","23","7844","459","j","elianto","#3366ff99","-1"," ","0","0","[2608.5]","1","2","","","7844","103","9","2","win","no-go","0"
"pit-trial","222","1346749","0.0-108.0","battery-v0.2","","""event"",""trial"",""time""
""fullscreenenter"",""1"",""2681""
","
","
","""event"",""trial"",""time""
""fullscreenenter"",""1"",""2681""
","
","","","809.3000000119209","","","23","7844","459","w","elianto","#f73b6a7A","-1"," ","0","-10","[1665.1000000238419]","1","2","","","7844","104","6","4","lose","no-go","0"
"pit-trial","223","1351622","0.0-109.0","battery-v0.2","","""event"",""trial"",""time""
""fullscreenenter"",""1"",""2681""
","
","
","""event"",""trial"",""time""
""fullscreenenter"",""1"",""2681""
","
","","","-1","","","23","7844","459","d","elianto","#3366ff99","-1","-1","1","+10","[]","0","2","","","7844","105","8","2","win","no-go","0"
"pit-trial","224","1356493","0.0-110.0","battery-v0.2","","""event"",""trial"",""time""
""fullscreenenter"",""1"",""2681""
","
","
","""event"",""trial"",""time""
""fullscreenenter"",""1"",""2681""
","
","","","-1","","","23","7844","459","j","elianto","#3366ff99","-1","-1","1","+10","[2898.199999988079]","1","2","","","7844","106","9","2","win","no-go","0"
"pit-trial","225","1361367","0.0-111.0","battery-v0.2","","""event"",""trial"",""time""
""fullscreenenter"",""1"",""2681""
","
","
","""event"",""trial"",""time""
""fullscreenenter"",""1"",""2681""
","
","","","-1","","","23","7844","459","s","elianto","#3366ff99"," ","-1","0","0","[]","0","2","","","7844","107","5","1","win","go","0"
"pit-trial","226","1366238","0.0-112.0","battery-v0.2","","""event"",""trial"",""time""
""fullscreenenter"",""1"",""2681""
","
","
","""event"",""trial"",""time""
""fullscreenenter"",""1"",""2681""
","
","","","-1","","","23","7844","459","w","elianto","#f73b6a7A","-1","-1","1","-10","[]","0","2","","","7844","108","6","4","lose","no-go","1"
"pit-trial","227","1369534","0.0-113.0","battery-v0.2","","""event"",""trial"",""time""
""fullscreenenter"",""1"",""2681""
","
","
","""event"",""trial"",""time""
""fullscreenenter"",""1"",""2681""
","
","","","429","","","23","7844","459","s","elianto","#3366ff99"," "," ","1","+10","[1284]","1","2","","","7844","109","5","1","win","go","0"
"pit-trial","228","1373734","0.0-114.0","battery-v0.2","","""event"",""trial"",""time""
""fullscreenenter"",""1"",""2681""
","
","
","""event"",""trial"",""time""
""fullscreenenter"",""1"",""2681""
","
","","","1331.800000011921","","","23","7844","459","d","elianto","#3366ff99","-1"," ","0","+10","[2191.5]","1","2","","","7844","110","8","2","win","no-go","1"
"pit-trial","229","1378606","0.0-115.0","battery-v0.2","","""event"",""trial"",""time""
""fullscreenenter"",""1"",""2681""
","
","
","""event"",""trial"",""time""
""fullscreenenter"",""1"",""2681""
","
","","","-1","","","23","7844","459","j","elianto","#3366ff99","-1","-1","1","+10","[]","0","2","","","7844","111","9","2","win","no-go","0"
"pit-trial","230","1383479","0.0-116.0","battery-v0.2","","""event"",""trial"",""time""
""fullscreenenter"",""1"",""2681""
","
","
","""event"",""trial"",""time""
""fullscreenenter"",""1"",""2681""
","
","","","-1","","","23","7844","459","w","elianto","#f73b6a7A","-1","-1","1","-10","[]","0","2","","","7844","112","6","4","lose","no-go","1"
"pit-trial","231","1388356","0.0-117.0","battery-v0.2","","""event"",""trial"",""time""
""fullscreenenter"",""1"",""2681""
","
","
","""event"",""trial"",""time""
""fullscreenenter"",""1"",""2681""
","
","","","-1","","","23","7844","459","e","elianto","#f73b6a7A"," ","-1","0","-10","[]","0","2","","","7844","113","7","3","lose","go","0"
"pit-trial","232","1393223","0.0-118.0","battery-v0.2","","""event"",""trial"",""time""
""fullscreenenter"",""1"",""2681""
","
","
","""event"",""trial"",""time""
""fullscreenenter"",""1"",""2681""
","
","","","-1","","","23","7844","459","d","elianto","#3366ff99","-1","-1","1","+10","[]","0","2","","","7844","114","8","2","win","no-go","0"
"pit-trial","233","1398095","0.0-119.0","battery-v0.2","","""event"",""trial"",""time""
""fullscreenenter"",""1"",""2681""
","
","
","""event"",""trial"",""time""
""fullscreenenter"",""1"",""2681""
","
","","","-1","","","23","7844","459","j","elianto","#3366ff99","-1","-1","1","+10","[]","0","2","","","7844","115","9","2","win","no-go","0"
"pit-trial","234","1402967","0.0-120.0","battery-v0.2","","""event"",""trial"",""time""
""fullscreenenter"",""1"",""2681""
","
","
","""event"",""trial"",""time""
""fullscreenenter"",""1"",""2681""
","
","","","-1","","","23","7844","459","s","elianto","#3366ff99"," ","-1","0","0","[]","0","2","","","7844","116","5","1","win","go","0"
"pit-trial","235","1407840","0.0-121.0","battery-v0.2","","""event"",""trial"",""time""
""fullscreenenter"",""1"",""2681""
","
","
","""event"",""trial"",""time""
""fullscreenenter"",""1"",""2681""
","
","","","-1","","","23","7844","459","w","elianto","#f73b6a7A","-1","-1","1","0","[]","0","2","","","7844","117","6","4","lose","no-go","0"
"pit-trial","236","1412712","0.0-122.0","battery-v0.2","","""event"",""trial"",""time""
""fullscreenenter"",""1"",""2681""
","
","
","""event"",""trial"",""time""
""fullscreenenter"",""1"",""2681""
","
","","","-1","","","23","7844","459","d","elianto","#3366ff99","-1","-1","1","+10","[]","0","2","","","7844","118","8","2","win","no-go","0"
"pit-trial","237","1417582","0.0-123.0","battery-v0.2","","""event"",""trial"",""time""
""fullscreenenter"",""1"",""2681""
","
","
","""event"",""trial"",""time""
""fullscreenenter"",""1"",""2681""
","
","","","-1","","","23","7844","459","s","elianto","#3366ff99"," ","-1","0","0","[]","0","2","","","7844","119","5","1","win","go","0"
"pit-trial","238","1420743","0.0-124.0","battery-v0.2","","""event"",""trial"",""time""
""fullscreenenter"",""1"",""2681""
","
","
","""event"",""trial"",""time""
""fullscreenenter"",""1"",""2681""
","
","","","285.10000002384186","","","23","7844","459","j","elianto","#3366ff99","-1"," ","0","0","[372.69999998807907,1145.699999988079]","2","2","","","7844","120","9","2","win","no-go","0"
"pit-trial","239","1425615","0.0-125.0","battery-v0.2","","""event"",""trial"",""time""
""fullscreenenter"",""1"",""2681""
","
","
","""event"",""trial"",""time""
""fullscreenenter"",""1"",""2681""
","
","","","-1","","","23","7844","459","d","elianto","#3366ff99","-1","-1","1","0","[]","0","2","","","7844","121","8","2","win","no-go","1"
"pit-trial","240","1430488","0.0-126.0","battery-v0.2","","""event"",""trial"",""time""
""fullscreenenter"",""1"",""2681""
","
","
","""event"",""trial"",""time""
""fullscreenenter"",""1"",""2681""
","
","","","-1","","","23","7844","459","j","elianto","#3366ff99","-1","-1","1","+10","[]","0","2","","","7844","122","9","2","win","no-go","0"
"pit-trial","241","1435359","0.0-127.0","battery-v0.2","","""event"",""trial"",""time""
""fullscreenenter"",""1"",""2681""
","
","
","""event"",""trial"",""time""
""fullscreenenter"",""1"",""2681""
","
","","","-1","","","23","7844","459","e","elianto","#f73b6a7A"," ","-1","0","-10","[]","0","2","","","7844","123","7","3","lose","go","0"
"pit-trial","242","1440232","0.0-128.0","battery-v0.2","","""event"",""trial"",""time""
""fullscreenenter"",""1"",""2681""
","
","
","""event"",""trial"",""time""
""fullscreenenter"",""1"",""2681""
","
","","","-1","","","23","7844","459","s","elianto","#3366ff99"," ","-1","0","0","[]","0","2","","","7844","124","5","1","win","go","0"
"pit-trial","243","1445103","0.0-129.0","battery-v0.2","","""event"",""trial"",""time""
""fullscreenenter"",""1"",""2681""
","
","
","""event"",""trial"",""time""
""fullscreenenter"",""1"",""2681""
","
","","","-1","","","23","7844","459","w","elianto","#f73b6a7A","-1","-1","1","0","[]","0","2","","","7844","125","6","4","lose","no-go","0"
"pit-trial","244","1449134","0.0-130.0","battery-v0.2","","""event"",""trial"",""time""
""fullscreenenter"",""1"",""2681""
","
","
","""event"",""trial"",""time""
""fullscreenenter"",""1"",""2681""
","
","","","1160.6000000238419","","","23","7844","459","j","elianto","#3366ff99","-1"," ","0","0","[2015.7000000476837]","1","2","","","7844","126","9","2","win","no-go","0"
"pit-trial","245","1454004","0.0-131.0","battery-v0.2","","""event"",""trial"",""time""
""fullscreenenter"",""1"",""2681""
","
","
","""event"",""trial"",""time""
""fullscreenenter"",""1"",""2681""
","
","","","-1","","","23","7844","459","e","elianto","#f73b6a7A"," ","-1","0","-10","[]","0","2","","","7844","127","7","3","lose","go","0"
"pit-trial","246","1458872","0.0-132.0","battery-v0.2","","""event"",""trial"",""time""
""fullscreenenter"",""1"",""2681""
","
","
","""event"",""trial"",""time""
""fullscreenenter"",""1"",""2681""
","
","","","-1","","","23","7844","459","d","elianto","#3366ff99","-1","-1","1","+10","[]","0","2","","","7844","128","8","2","win","no-go","0"
"pit-trial","247","1463743","0.0-133.0","battery-v0.2","","""event"",""trial"",""time""
""fullscreenenter"",""1"",""2681""
","
","
","""event"",""trial"",""time""
""fullscreenenter"",""1"",""2681""
","
","","","-1","","","23","7844","459","d","elianto","#3366ff99","-1","-1","1","+10","[]","0","2","","","7844","129","8","2","win","no-go","0"
"pit-trial","248","1468616","0.0-134.0","battery-v0.2","","""event"",""trial"",""time""
""fullscreenenter"",""1"",""2681""
","
","
","""event"",""trial"",""time""
""fullscreenenter"",""1"",""2681""
","
","","","-1","","","23","7844","459","w","elianto","#f73b6a7A","-1","-1","1","0","[]","0","2","","","7844","130","6","4","lose","no-go","0"
"pit-trial","249","1471983","0.0-135.0","battery-v0.2","","""event"",""trial"",""time""
""fullscreenenter"",""1"",""2681""
","
","
","""event"",""trial"",""time""
""fullscreenenter"",""1"",""2681""
","
","","","493.19999998807907","","","23","7844","459","j","elianto","#3366ff99","-1"," ","0","0","[1352.3999999761581]","1","2","","","7844","131","9","2","win","no-go","0"
"pit-trial","250","1476856","0.0-136.0","battery-v0.2","","""event"",""trial"",""time""
""fullscreenenter"",""1"",""2681""
","
","
","""event"",""trial"",""time""
""fullscreenenter"",""1"",""2681""
","
","","","-1","","","23","7844","459","e","elianto","#f73b6a7A"," ","-1","0","0","[]","0","2","","","7844","132","7","3","lose","go","1"
"pit-trial","251","1481727","0.0-137.0","battery-v0.2","","""event"",""trial"",""time""
""fullscreenenter"",""1"",""2681""
","
","
","""event"",""trial"",""time""
""fullscreenenter"",""1"",""2681""
","
","","","-1","","","23","7844","459","w","elianto","#f73b6a7A","-1","-1","1","0","[]","0","2","","","7844","133","6","4","lose","no-go","0"
"pit-trial","252","1486600","0.0-138.0","battery-v0.2","","""event"",""trial"",""time""
""fullscreenenter"",""1"",""2681""
","
","
","""event"",""trial"",""time""
""fullscreenenter"",""1"",""2681""
","
","","","-1","","","23","7844","459","d","elianto","#3366ff99","-1","-1","1","+10","[]","0","2","","","7844","134","8","2","win","no-go","0"
"pit-trial","253","1491473","0.0-139.0","battery-v0.2","","""event"",""trial"",""time""
""fullscreenenter"",""1"",""2681""
","
","
","""event"",""trial"",""time""
""fullscreenenter"",""1"",""2681""
","
","","","-1","","","23","7844","459","e","elianto","#f73b6a7A"," ","-1","0","-10","[]","0","2","","","7844","135","7","3","lose","go","0"
"pit-trial","254","1496344","0.0-140.0","battery-v0.2","","""event"",""trial"",""time""
""fullscreenenter"",""1"",""2681""
","
","
","""event"",""trial"",""time""
""fullscreenenter"",""1"",""2681""
","
","","","-1","","","23","7844","459","j","elianto","#3366ff99","-1","-1","1","+10","[]","0","2","","","7844","136","9","2","win","no-go","0"
"pit-trial","255","1501215","0.0-141.0","battery-v0.2","","""event"",""trial"",""time""
""fullscreenenter"",""1"",""2681""
","
","
","""event"",""trial"",""time""
""fullscreenenter"",""1"",""2681""
","
","","","-1","","","23","7844","459","e","elianto","#f73b6a7A"," ","-1","0","-10","[]","0","2","","","7844","137","7","3","lose","go","0"
"pit-trial","256","1506089","0.0-142.0","battery-v0.2","","""event"",""trial"",""time""
""fullscreenenter"",""1"",""2681""
","
","
","""event"",""trial"",""time""
""fullscreenenter"",""1"",""2681""
","
","","","-1","","","23","7844","459","w","elianto","#f73b6a7A","-1","-1","1","0","[]","0","2","","","7844","138","6","4","lose","no-go","0"
"pit-trial","257","1510960","0.0-143.0","battery-v0.2","","""event"",""trial"",""time""
""fullscreenenter"",""1"",""2681""
","
","
","""event"",""trial"",""time""
""fullscreenenter"",""1"",""2681""
","
","","","-1","","","23","7844","459","d","elianto","#3366ff99","-1","-1","1","+10","[]","0","2","","","7844","139","8","2","win","no-go","0"
"pit-trial","258","1515832","0.0-144.0","battery-v0.2","","""event"",""trial"",""time""
""fullscreenenter"",""1"",""2681""
","
","
","""event"",""trial"",""time""
""fullscreenenter"",""1"",""2681""
","
","","","-1","","","23","7844","459","j","elianto","#3366ff99","-1","-1","1","+10","[]","0","2","","","7844","140","9","2","win","no-go","0"
"pit-instructions","259","1571940","0.0-145.0","battery-v0.2","","""event"",""trial"",""time""
""fullscreenenter"",""1"",""2681""
","
","
","""event"",""trial"",""time""
""fullscreenenter"",""1"",""2681""
","
","","[{""page_index"":0,""viewing_time"":47529},{""page_index"":1,""viewing_time"":8572.700000047684}]","56101.90000003576","","","","","","","","","","","","","","","","","","","","","","","",""
"pit-trial","260","1575280","0.0-146.0","battery-v0.2","","""event"",""trial"",""time""
""fullscreenenter"",""1"",""2681""
","
","
","""event"",""trial"",""time""
""fullscreenenter"",""1"",""2681""
","
","","","477.89999997615814","","","23","7844","459","h","elianto","#f73b6a7A","-1"," ","0","-10","[1329.300000011921]","1","3","","","7844","141","3","4","lose","no-go","0"
"pit-trial","261","1579167","0.0-147.0","battery-v0.2","","""event"",""trial"",""time""
""fullscreenenter"",""1"",""2681""
","
","
","""event"",""trial"",""time""
""fullscreenenter"",""1"",""2681""
","
","","","1012.8000000119209","","","23","7844","459","m","elianto","#f73b6a7A"," "," ","1","0","[1873.9000000357628]","1","3","","","7844","142","0","3","lose","go","0"
"pit-trial","262","1584041","0.0-148.0","battery-v0.2","","""event"",""trial"",""time""
""fullscreenenter"",""1"",""2681""
","
","
","""event"",""trial"",""time""
""fullscreenenter"",""1"",""2681""
","
","","","-1","","","23","7844","459","y","elianto","#f73b6a7A"," ","-1","0","-10","[]","0","3","","","7844","143","2","3","lose","go","0"
"pit-trial","263","1588911","0.0-149.0","battery-v0.2","","""event"",""trial"",""time""
""fullscreenenter"",""1"",""2681""
","
","
","""event"",""trial"",""time""
""fullscreenenter"",""1"",""2681""
","
","","","-1","","","23","7844","459","r","elianto","#3366ff99","-1","-1","1","+10","[]","0","3","","","7844","144","1","2","win","no-go","0"
"pit-trial","264","1593785","0.0-150.0","battery-v0.2","","""event"",""trial"",""time""
""fullscreenenter"",""1"",""2681""
","
","
","""event"",""trial"",""time""
""fullscreenenter"",""1"",""2681""
","
","","","-1","","","23","7844","459","y","elianto","#f73b6a7A"," ","-1","0","-10","[]","0","3","","","7844","145","2","3","lose","go","0"
"pit-trial","265","1598655","0.0-151.0","battery-v0.2","","""event"",""trial"",""time""
""fullscreenenter"",""1"",""2681""
","
","
","""event"",""trial"",""time""
""fullscreenenter"",""1"",""2681""
","
","","","-1","","","23","7844","459","h","elianto","#f73b6a7A","-1","-1","1","0","[]","0","3","","","7844","146","3","4","lose","no-go","0"
"pit-trial","266","1603017","0.0-152.0","battery-v0.2","","""event"",""trial"",""time""
""fullscreenenter"",""1"",""2681""
","
","
","""event"",""trial"",""time""
""fullscreenenter"",""1"",""2681""
","
","","","1492.300000011921","","","23","7844","459","m","elianto","#f73b6a7A"," "," ","1","-10","[2347.5]","1","3","","","7844","147","0","3","lose","go","1"
"pit-trial","267","1607889","0.0-153.0","battery-v0.2","","""event"",""trial"",""time""
""fullscreenenter"",""1"",""2681""
","
","
","""event"",""trial"",""time""
""fullscreenenter"",""1"",""2681""
","
","","","-1","","","23","7844","459","r","elianto","#3366ff99","-1","-1","1","0","[]","0","3","","","7844","148","1","2","win","no-go","1"
"pit-trial","268","1612762","0.0-154.0","battery-v0.2","","""event"",""trial"",""time""
""fullscreenenter"",""1"",""2681""
","
","
","""event"",""trial"",""time""
""fullscreenenter"",""1"",""2681""
","
","","","-1","","","23","7844","459","r","elianto","#3366ff99","-1","-1","1","+10","[]","0","3","","","7844","149","1","2","win","no-go","0"
"pit-trial","269","1617633","0.0-155.0","battery-v0.2","","""event"",""trial"",""time""
""fullscreenenter"",""1"",""2681""
","
","
","""event"",""trial"",""time""
""fullscreenenter"",""1"",""2681""
","
","","","-1","","","23","7844","459","h","elianto","#f73b6a7A","-1","-1","1","0","[]","0","3","","","7844","150","3","4","lose","no-go","0"
"pit-trial","270","1622506","0.0-156.0","battery-v0.2","","""event"",""trial"",""time""
""fullscreenenter"",""1"",""2681""
","
","
","""event"",""trial"",""time""
""fullscreenenter"",""1"",""2681""
","
","","","-1","","","23","7844","459","m","elianto","#f73b6a7A"," ","-1","0","-10","[]","0","3","","","7844","151","0","3","lose","go","0"
