"trial_type","trial_index","time_elapsed","internal_node_id","task_version","subject_id","interactions","blur_events","focus_events","fullscreenenter_events","fullscreenexit_events","success","view_history","rt","responses","num_errors","age","subject","participantId","rune","rune_set","hex","correct","choice","accuracy","outcome","keys","total_keys","block","practice","value","sub","trial","stimulus","robot","valence","action","sham"
"pavlovia","0","64","0.0-0.0","battery-v0.2","","""event"",""trial"",""time""
""fullscreenenter"",""1"",""2440""
","
","
","""event"",""trial"",""time""
""fullscreenenter"",""1"",""2440""
","
","","","","","","","","","","","","","","","","","","","","","","","","","","",""
"fullscreen","1","3440","0.0-1.0","battery-v0.2","","""event"",""trial"",""time""
""fullscreenenter"",""1"",""2440""
","
","
","""event"",""trial"",""time""
""fullscreenenter"",""1"",""2440""
","
","true","","","","","","","","","","","","","","","","","","","","","","","","","",""
"pit-instructions","2","7988","0.0-2.0-0.0","battery-v0.2","","""event"",""trial"",""time""
""fullscreenenter"",""1"",""2440""
","
","
","""event"",""trial"",""time""
""fullscreenenter"",""1"",""2440""
","
","","[{""page_index"":0,""viewing_time"":4543.700000047684}]","4544","","","","","","","","","","","","","","","","","","","","","","","",""
"pit-comprehension","3","11073","0.0-2.0-1.0-0.0","battery-v0.2","","""event"",""trial"",""time""
""fullscreenenter"",""1"",""2440""
","
","
","""event"",""trial"",""time""
""fullscreenenter"",""1"",""2440""
","
","","","3079.5","[""shark""]","0","24","6192","2712","","","","","","","","","","","","","","","","","","",""
"pit-instructions","4","13969","0.0-2.0-1.0-1.0","battery-v0.2","","""event"",""trial"",""time""
""fullscreenenter"",""1"",""2440""
","
","
","""event"",""trial"",""time""
""fullscreenenter"",""1"",""2440""
","
","","[{""page_index"":0,""viewing_time"":2885}]","2885.300000011921","","","","","","","","","","","","","","","","","","","","","","","",""
"pit-comprehension","5","17307","0.0-2.0-2.0-0.0","battery-v0.2","","""event"",""trial"",""time""
""fullscreenenter"",""1"",""2440""
","
","
","""event"",""trial"",""time""
""fullscreenenter"",""1"",""2440""
","
","","","3332.800000011921","[""tiger""]","0","24","6192","2712","","","","","","","","","","","","","","","","","","",""
"pit-instructions","6","18530","0.0-2.0-2.0-1.0","battery-v0.2","","""event"",""trial"",""time""
""fullscreenenter"",""1"",""2440""
","
","
","""event"",""trial"",""time""
""fullscreenenter"",""1"",""2440""
","
","","[{""page_index"":0,""viewing_time"":1217.199999988079}]","1217.3999999761581","","","","","","","","","","","","","","","","","","","","","","","",""
"pit-instructions","7","119700","0.0-2.0-3.0","battery-v0.2","","""event"",""trial"",""time""
""fullscreenenter"",""1"",""2440""
","
","
","""event"",""trial"",""time""
""fullscreenenter"",""1"",""2440""
","
","","[{""page_index"":0,""viewing_time"":7682.199999988079},{""page_index"":1,""viewing_time"":6331.800000011921},{""page_index"":2,""viewing_time"":6332.800000011921},{""page_index"":3,""viewing_time"":5507.699999988079},{""page_index"":4,""viewing_time"":6033.100000023842},{""page_index"":5,""viewing_time"":5319.899999976158},{""page_index"":6,""viewing_time"":6663.399999976158},{""page_index"":7,""viewing_time"":6404.900000035763},{""page_index"":8,""viewing_time"":7672.599999964237},{""page_index"":9,""viewing_time"":14787.300000011921},{""page_index"":10,""viewing_time"":7308},{""page_index"":11,""viewing_time"":8567.900000035763},{""page_index"":12,""viewing_time"":6675.399999976158},{""page_index"":13,""viewing_time"":5874.5}]","101161.80000001192","","","","","","","","","","","","","","","","","","","","","","","",""
"pit-trial","8","123200","0.0-2.0-4.0-0.0","battery-v0.2","","""event"",""trial"",""time""
""fullscreenenter"",""1"",""2440""
","
","
","""event"",""trial"",""time""
""fullscreenenter"",""1"",""2440""
","
","","","633.5","","","24","6192","2712","&#9784;","elianto","#FFFFF080"," "," ","1","&#10004","[1490.6000000238419]","1","0","0","","","","","","","",""
"pit-trial","9","126543","0.0-2.0-4.1-0.1","battery-v0.2","","""event"",""trial"",""time""
""fullscreenenter"",""1"",""2440""
","
","
","""event"",""trial"",""time""
""fullscreenenter"",""1"",""2440""
","
","","","478.80000001192093","","","24","6192","2712","&#9784;","elianto","#FFFFF080"," "," ","1","&#10004","[1329.7000000476837]","1","0","0","","","","","","","",""
"pit-trial","10","129876","0.0-2.0-4.2-0.2","battery-v0.2","","""event"",""trial"",""time""
""fullscreenenter"",""1"",""2440""
","
","
","""event"",""trial"",""time""
""fullscreenenter"",""1"",""2440""
","
","","","463.80000001192093","","","24","6192","2712","&#9784;","elianto","#FFFFF080"," "," ","1","&#10004","[1315]","1","0","0","","","","","","","",""
"pit-trial","11","133208","0.0-2.0-4.3-0.3","battery-v0.2","","""event"",""trial"",""time""
""fullscreenenter"",""1"",""2440""
","
","
","""event"",""trial"",""time""
""fullscreenenter"",""1"",""2440""
","
","","","469.39999997615814","","","24","6192","2712","&#9784;","elianto","#FFFFF080"," "," ","1","&#10004","[1323.5]","1","0","0","","","","","","","",""
"pit-trial","12","136520","0.0-2.0-4.4-0.4","battery-v0.2","","""event"",""trial"",""time""
""fullscreenenter"",""1"",""2440""
","
","
","""event"",""trial"",""time""
""fullscreenenter"",""1"",""2440""
","
","","","447.39999997615814","","","24","6192","2712","&#9784;","elianto","#FFFFF080"," "," ","1","&#10004","[1300.800000011921]","1","0","0","","","","","","","",""
"pit-instructions","13","157258","0.0-2.0-5.0","battery-v0.2","","""event"",""trial"",""time""
""fullscreenenter"",""1"",""2440""
","
","
","""event"",""trial"",""time""
""fullscreenenter"",""1"",""2440""
","
","","[{""page_index"":0,""viewing_time"":4882.400000035763},{""page_index"":1,""viewing_time"":5494.699999988079},{""page_index"":2,""viewing_time"":4427.899999976158},{""page_index"":3,""viewing_time"":5926.199999988079}]","20732","","","","","","","","","","","","","","","","","","","","","","","",""
"pit-trial","14","162129","0.0-2.0-6.0-0.0","battery-v0.2","","""event"",""trial"",""time""
""fullscreenenter"",""1"",""2440""
","
","
","""event"",""trial"",""time""
""fullscreenenter"",""1"",""2440""
","
","","","-1","","","24","6192","2712","&#9854;","elianto","#FFFFF080","-1","-1","1","&#10004","[]","0","0","1","","","","","","","",""
"pit-trial","15","167006","0.0-2.0-6.1-0.1","battery-v0.2","","""event"",""trial"",""time""
""fullscreenenter"",""1"",""2440""
","
","
","""event"",""trial"",""time""
""fullscreenenter"",""1"",""2440""
","
","","","-1","","","24","6192","2712","&#9854;","elianto","#FFFFF080","-1","-1","1","&#10004","[]","0","0","1","","","","","","","",""
"pit-trial","16","171874","0.0-2.0-6.2-0.2","battery-v0.2","","""event"",""trial"",""time""
""fullscreenenter"",""1"",""2440""
","
","
","""event"",""trial"",""time""
""fullscreenenter"",""1"",""2440""
","
","","","-1","","","24","6192","2712","&#9854;","elianto","#FFFFF080","-1","-1","1","&#10004","[]","0","0","1","","","","","","","",""
"pit-trial","17","176747","0.0-2.0-6.3-0.3","battery-v0.2","","""event"",""trial"",""time""
""fullscreenenter"",""1"",""2440""
","
","
","""event"",""trial"",""time""
""fullscreenenter"",""1"",""2440""
","
","","","-1","","","24","6192","2712","&#9854;","elianto","#FFFFF080","-1","-1","1","&#10004","[]","0","0","1","","","","","","","",""
"pit-trial","18","181617","0.0-2.0-6.4-0.4","battery-v0.2","","""event"",""trial"",""time""
""fullscreenenter"",""1"",""2440""
","
","
","""event"",""trial"",""time""
""fullscreenenter"",""1"",""2440""
","
","","","-1","","","24","6192","2712","&#9854;","elianto","#FFFFF080","-1","-1","1","&#10004","[]","0","0","1","","","","","","","",""
"pit-instructions","19","299913","0.0-2.0-7.0","battery-v0.2","","""event"",""trial"",""time""
""fullscreenenter"",""1"",""2440""
","
","
","""event"",""trial"",""time""
""fullscreenenter"",""1"",""2440""
","
","","[{""page_index"":0,""viewing_time"":5524.399999976158},{""page_index"":1,""viewing_time"":6540.800000011921},{""page_index"":2,""viewing_time"":5130.899999976158},{""page_index"":3,""viewing_time"":5762.5},{""page_index"":4,""viewing_time"":5580.800000011921},{""page_index"":5,""viewing_time"":5261.5},{""page_index"":6,""viewing_time"":4384.600000023842},{""page_index"":7,""viewing_time"":7154.599999964237},{""page_index"":8,""viewing_time"":6358.5},{""page_index"":9,""viewing_time"":5345.700000047684},{""page_index"":10,""viewing_time"":7308.199999988079},{""page_index"":11,""viewing_time"":4139.099999964237},{""page_index"":12,""viewing_time"":7102},{""page_index"":13,""viewing_time"":6914.900000035763},{""page_index"":14,""viewing_time"":7607.399999976158},{""page_index"":15,""viewing_time"":14533.600000023842},{""page_index"":16,""viewing_time"":6707.599999964237},{""page_index"":17,""viewing_time"":6930.300000011921}]","118287.80000001192","","","","","","","","","","","","","","","","","","","","","","","",""
"pit-trial","20","303481","0.0-2.0-8.0-0.0","battery-v0.2","","""event"",""trial"",""time""
""fullscreenenter"",""1"",""2440""
","
","
","""event"",""trial"",""time""
""fullscreenenter"",""1"",""2440""
","
","","","701.3000000119209","","","24","6192","2712","&#9776;","elianto","#3366ff99"," "," ","1","+10","[1558.6000000238419]","1","0","1","","","","","","","",""
"pit-trial","21","306829","0.0-2.0-8.0-1.0","battery-v0.2","","""event"",""trial"",""time""
""fullscreenenter"",""1"",""2440""
","
","
","""event"",""trial"",""time""
""fullscreenenter"",""1"",""2440""
","
","","","484.19999998807907","","","24","6192","2712","&#9776;","elianto","#3366ff99"," "," ","1","+10","[1339.5]","1","0","1","","","","","","","",""
"pit-trial","22","310190","0.0-2.0-8.0-2.0","battery-v0.2","","""event"",""trial"",""time""
""fullscreenenter"",""1"",""2440""
","
","
","""event"",""trial"",""time""
""fullscreenenter"",""1"",""2440""
","
","","","494.19999998807907","","","24","6192","2712","&#9776;","elianto","#3366ff99"," "," ","1","+10","[1348.3999999761581]","1","0","1","","","","","","","",""
"pit-trial","23","313502","0.0-2.0-8.0-3.0","battery-v0.2","","""event"",""trial"",""time""
""fullscreenenter"",""1"",""2440""
","
","
","""event"",""trial"",""time""
""fullscreenenter"",""1"",""2440""
","
","","","448.69999998807907","","","24","6192","2712","&#9776;","elianto","#3366ff99"," "," ","1","0","[1299.5]","1","0","1","","","","","","","",""
"pit-trial","24","316796","0.0-2.0-8.0-4.0","battery-v0.2","","""event"",""trial"",""time""
""fullscreenenter"",""1"",""2440""
","
","
","""event"",""trial"",""time""
""fullscreenenter"",""1"",""2440""
","
","","","437.60000002384186","","","24","6192","2712","&#9776;","elianto","#3366ff99"," "," ","1","+10","[1288]","1","0","1","","","","","","","",""
"pit-trial","25","320087","0.0-2.0-8.1-0.1","battery-v0.2","","""event"",""trial"",""time""
""fullscreenenter"",""1"",""2440""
","
","
","""event"",""trial"",""time""
""fullscreenenter"",""1"",""2440""
","
","","","423.5","","","24","6192","2712","&#9776;","elianto","#3366ff99"," "," ","1","+10","[1279.1000000238419]","1","0","1","","","","","","","",""
"pit-trial","26","323344","0.0-2.0-8.1-1.1","battery-v0.2","","""event"",""trial"",""time""
""fullscreenenter"",""1"",""2440""
","
","
","""event"",""trial"",""time""
""fullscreenenter"",""1"",""2440""
","
","","","392.2999999523163","","","24","6192","2712","&#9776;","elianto","#3366ff99"," "," ","1","+10","[1245.2999999523163]","1","0","1","","","","","","","",""
"pit-trial","27","326642","0.0-2.0-8.1-2.1","battery-v0.2","","""event"",""trial"",""time""
""fullscreenenter"",""1"",""2440""
","
","
","""event"",""trial"",""time""
""fullscreenenter"",""1"",""2440""
","
","","","426.19999998807907","","","24","6192","2712","&#9776;","elianto","#3366ff99"," "," ","1","+10","[1286.8999999761581]","1","0","1","","","","","","","",""
"pit-trial","28","329842","0.0-2.0-8.1-3.1","battery-v0.2","","""event"",""trial"",""time""
""fullscreenenter"",""1"",""2440""
","
","
","""event"",""trial"",""time""
""fullscreenenter"",""1"",""2440""
","
","","","339.30000001192093","","","24","6192","2712","&#9776;","elianto","#3366ff99"," "," ","1","0","[1189.4000000357628]","1","0","1","","","","","","","",""
"pit-trial","29","333149","0.0-2.0-8.1-4.1","battery-v0.2","","""event"",""trial"",""time""
""fullscreenenter"",""1"",""2440""
","
","
","""event"",""trial"",""time""
""fullscreenenter"",""1"",""2440""
","
","","","451.10000002384186","","","24","6192","2712","&#9776;","elianto","#3366ff99"," "," ","1","+10","[1302]","1","0","1","","","","","","","",""
"pit-trial","30","336517","0.0-2.0-8.2-0.2","battery-v0.2","","""event"",""trial"",""time""
""fullscreenenter"",""1"",""2440""
","
","
","""event"",""trial"",""time""
""fullscreenenter"",""1"",""2440""
","
","","","505.69999998807907","","","24","6192","2712","&#9776;","elianto","#3366ff99"," "," ","1","+10","[1361.800000011921]","1","0","1","","","","","","","",""
"pit-trial","31","339814","0.0-2.0-8.2-1.2","battery-v0.2","","""event"",""trial"",""time""
""fullscreenenter"",""1"",""2440""
","
","
","""event"",""trial"",""time""
""fullscreenenter"",""1"",""2440""
","
","","","432.0999999642372","","","24","6192","2712","&#9776;","elianto","#3366ff99"," "," ","1","+10","[1287.199999988079]","1","0","1","","","","","","","",""
"pit-trial","32","343129","0.0-2.0-8.2-2.2","battery-v0.2","","""event"",""trial"",""time""
""fullscreenenter"",""1"",""2440""
","
","
","""event"",""trial"",""time""
""fullscreenenter"",""1"",""2440""
","
","","","447.89999997615814","","","24","6192","2712","&#9776;","elianto","#3366ff99"," "," ","1","+10","[1304.5]","1","0","1","","","","","","","",""
"pit-trial","33","346809","0.0-2.0-8.2-3.2","battery-v0.2","","""event"",""trial"",""time""
""fullscreenenter"",""1"",""2440""
","
","
","""event"",""trial"",""time""
""fullscreenenter"",""1"",""2440""
","
","","","807.1999999880791","","","24","6192","2712","&#9776;","elianto","#3366ff99"," "," ","1","0","[1667.6000000238419]","1","0","1","","","","","","","",""
"pit-trial","34","350154","0.0-2.0-8.2-4.2","battery-v0.2","","""event"",""trial"",""time""
""fullscreenenter"",""1"",""2440""
","
","
","""event"",""trial"",""time""
""fullscreenenter"",""1"",""2440""
","
","","","474.30000001192093","","","24","6192","2712","&#9776;","elianto","#3366ff99"," "," ","1","+10","[1333]","1","0","1","","","","","","","",""
"call-function","35","350158","0.0-2.0-9.0","battery-v0.2","","""event"",""trial"",""time""
""fullscreenenter"",""1"",""2440""
","
","
","""event"",""trial"",""time""
""fullscreenenter"",""1"",""2440""
","
","","","","","","","","","","","","","","","","","","","","","","","","","","",""
"pit-instructions","36","399765","0.0-2.0-10.0","battery-v0.2","","""event"",""trial"",""time""
""fullscreenenter"",""1"",""2440""
","
","
","""event"",""trial"",""time""
""fullscreenenter"",""1"",""2440""
","
","","[{""page_index"":0,""viewing_time"":10690.600000023842},{""page_index"":1,""viewing_time"":7385},{""page_index"":2,""viewing_time"":11361.199999988079},{""page_index"":3,""viewing_time"":12658.699999988079},{""page_index"":4,""viewing_time"":7508.100000023842}]","49604.200000047684","","","","","","","","","","","","","","","","","","","","","","","",""
"pit-trial","37","403265","0.0-2.0-11.0-0.0","battery-v0.2","","""event"",""trial"",""time""
""fullscreenenter"",""1"",""2440""
","
","
","""event"",""trial"",""time""
""fullscreenenter"",""1"",""2440""
","
","","","626.6000000238419","","","24","6192","2712","&#9761;","elianto","#3366ff99","-1"," ","0","0","[1483.300000011921]","1","0","2","","","","","","","",""
"pit-trial","38","406650","0.0-2.0-11.0-1.0","battery-v0.2","","""event"",""trial"",""time""
""fullscreenenter"",""1"",""2440""
","
","
","""event"",""trial"",""time""
""fullscreenenter"",""1"",""2440""
","
","","","521.1999999880791","","","24","6192","2712","&#9761;","elianto","#3366ff99","-1"," ","0","0","[1376.1000000238419]","1","0","2","","","","","","","",""
"pit-trial","39","411519","0.0-2.0-11.0-2.0","battery-v0.2","","""event"",""trial"",""time""
""fullscreenenter"",""1"",""2440""
","
","
","""event"",""trial"",""time""
""fullscreenenter"",""1"",""2440""
","
","","","-1","","","24","6192","2712","&#9761;","elianto","#3366ff99","-1","-1","1","+10","[]","0","0","2","","","","","","","",""
"pit-trial","40","416385","0.0-2.0-11.0-3.0","battery-v0.2","","""event"",""trial"",""time""
""fullscreenenter"",""1"",""2440""
","
","
","""event"",""trial"",""time""
""fullscreenenter"",""1"",""2440""
","
","","","-1","","","24","6192","2712","&#9761;","elianto","#3366ff99","-1","-1","1","0","[]","0","0","2","","","","","","","",""
"pit-trial","41","421249","0.0-2.0-11.0-4.0","battery-v0.2","","""event"",""trial"",""time""
""fullscreenenter"",""1"",""2440""
","
","
","""event"",""trial"",""time""
""fullscreenenter"",""1"",""2440""
","
","","","-1","","","24","6192","2712","&#9761;","elianto","#3366ff99","-1","-1","1","+10","[]","0","0","2","","","","","","","",""
"pit-trial","42","426114","0.0-2.0-11.1-0.1","battery-v0.2","","""event"",""trial"",""time""
""fullscreenenter"",""1"",""2440""
","
","
","""event"",""trial"",""time""
""fullscreenenter"",""1"",""2440""
","
","","","-1","","","24","6192","2712","&#9761;","elianto","#3366ff99","-1","-1","1","+10","[]","0","0","2","","","","","","","",""
"pit-trial","43","430986","0.0-2.0-11.1-1.1","battery-v0.2","","""event"",""trial"",""time""
""fullscreenenter"",""1"",""2440""
","
","
","""event"",""trial"",""time""
""fullscreenenter"",""1"",""2440""
","
","","","-1","","","24","6192","2712","&#9761;","elianto","#3366ff99","-1","-1","1","+10","[]","0","0","2","","","","","","","",""
"pit-trial","44","435857","0.0-2.0-11.1-2.1","battery-v0.2","","""event"",""trial"",""time""
""fullscreenenter"",""1"",""2440""
","
","
","""event"",""trial"",""time""
""fullscreenenter"",""1"",""2440""
","
","","","-1","","","24","6192","2712","&#9761;","elianto","#3366ff99","-1","-1","1","+10","[]","0","0","2","","","","","","","",""
"pit-trial","45","440722","0.0-2.0-11.1-3.1","battery-v0.2","","""event"",""trial"",""time""
""fullscreenenter"",""1"",""2440""
","
","
","""event"",""trial"",""time""
""fullscreenenter"",""1"",""2440""
","
","","","-1","","","24","6192","2712","&#9761;","elianto","#3366ff99","-1","-1","1","0","[]","0","0","2","","","","","","","",""
"pit-trial","46","445586","0.0-2.0-11.1-4.1","battery-v0.2","","""event"",""trial"",""time""
""fullscreenenter"",""1"",""2440""
","
","
","""event"",""trial"",""time""
""fullscreenenter"",""1"",""2440""
","
","","","-1","","","24","6192","2712","&#9761;","elianto","#3366ff99","-1","-1","1","+10","[]","0","0","2","","","","","","","",""
"pit-trial","47","450457","0.0-2.0-11.2-0.2","battery-v0.2","","""event"",""trial"",""time""
""fullscreenenter"",""1"",""2440""
","
","
","""event"",""trial"",""time""
""fullscreenenter"",""1"",""2440""
","
","","","-1","","","24","6192","2712","&#9761;","elianto","#3366ff99","-1","-1","1","+10","[]","0","0","2","","","","","","","",""
"pit-trial","48","455321","0.0-2.0-11.2-1.2","battery-v0.2","","""event"",""trial"",""time""
""fullscreenenter"",""1"",""2440""
","
","
","""event"",""trial"",""time""
""fullscreenenter"",""1"",""2440""
","
","","","-1","","","24","6192","2712","&#9761;","elianto","#3366ff99","-1","-1","1","+10","[]","0","0","2","","","","","","","",""
"pit-trial","49","460280","0.0-2.0-11.2-2.2","battery-v0.2","","""event"",""trial"",""time""
""fullscreenenter"",""1"",""2440""
","
","
","""event"",""trial"",""time""
""fullscreenenter"",""1"",""2440""
","
","","","-1","","","24","6192","2712","&#9761;","elianto","#3366ff99","-1","-1","1","+10","[]","0","0","2","","","","","","","",""
"pit-trial","50","465202","0.0-2.0-11.2-3.2","battery-v0.2","","""event"",""trial"",""time""
""fullscreenenter"",""1"",""2440""
","
","
","""event"",""trial"",""time""
""fullscreenenter"",""1"",""2440""
","
","","","-1","","","24","6192","2712","&#9761;","elianto","#3366ff99","-1","-1","1","0","[]","0","0","2","","","","","","","",""
"pit-trial","51","470066","0.0-2.0-11.2-4.2","battery-v0.2","","""event"",""trial"",""time""
""fullscreenenter"",""1"",""2440""
","
","
","""event"",""trial"",""time""
""fullscreenenter"",""1"",""2440""
","
","","","-1","","","24","6192","2712","&#9761;","elianto","#3366ff99","-1","-1","1","+10","[]","0","0","2","","","","","","","",""
"pit-trial","52","474931","0.0-2.0-11.3-0.3","battery-v0.2","","""event"",""trial"",""time""
""fullscreenenter"",""1"",""2440""
","
","
","""event"",""trial"",""time""
""fullscreenenter"",""1"",""2440""
","
","","","-1","","","24","6192","2712","&#9761;","elianto","#3366ff99","-1","-1","1","+10","[]","0","0","2","","","","","","","",""
"pit-trial","53","479802","0.0-2.0-11.3-1.3","battery-v0.2","","""event"",""trial"",""time""
""fullscreenenter"",""1"",""2440""
","
","
","""event"",""trial"",""time""
""fullscreenenter"",""1"",""2440""
","
","","","-1","","","24","6192","2712","&#9761;","elianto","#3366ff99","-1","-1","1","+10","[]","0","0","2","","","","","","","",""
"pit-trial","54","484666","0.0-2.0-11.3-2.3","battery-v0.2","","""event"",""trial"",""time""
""fullscreenenter"",""1"",""2440""
","
","
","""event"",""trial"",""time""
""fullscreenenter"",""1"",""2440""
","
","","","-1","","","24","6192","2712","&#9761;","elianto","#3366ff99","-1","-1","1","+10","[]","0","0","2","","","","","","","",""
"pit-trial","55","489531","0.0-2.0-11.3-3.3","battery-v0.2","","""event"",""trial"",""time""
""fullscreenenter"",""1"",""2440""
","
","
","""event"",""trial"",""time""
""fullscreenenter"",""1"",""2440""
","
","","","-1","","","24","6192","2712","&#9761;","elianto","#3366ff99","-1","-1","1","0","[]","0","0","2","","","","","","","",""
"pit-trial","56","494396","0.0-2.0-11.3-4.3","battery-v0.2","","""event"",""trial"",""time""
""fullscreenenter"",""1"",""2440""
","
","
","""event"",""trial"",""time""
""fullscreenenter"",""1"",""2440""
","
","","","-1","","","24","6192","2712","&#9761;","elianto","#3366ff99","-1","-1","1","+10","[]","0","0","2","","","","","","","",""
"call-function","57","494400","0.0-2.0-12.0","battery-v0.2","","""event"",""trial"",""time""
""fullscreenenter"",""1"",""2440""
","
","
","""event"",""trial"",""time""
""fullscreenenter"",""1"",""2440""
","
","","","","","","","","","","","","","","","","","","","","","","","","","","",""
"pit-instructions","58","524638","0.0-2.0-13.0","battery-v0.2","","""event"",""trial"",""time""
""fullscreenenter"",""1"",""2440""
","
","
","""event"",""trial"",""time""
""fullscreenenter"",""1"",""2440""
","
","","[{""page_index"":0,""viewing_time"":4868.699999988079},{""page_index"":1,""viewing_time"":6715.200000047684},{""page_index"":2,""viewing_time"":3345.5},{""page_index"":3,""viewing_time"":10498.599999964237},{""page_index"":4,""viewing_time"":4807.199999988079}]","30235.900000035763","","","","","","","","","","","","","","","","","","","","","","","",""
"pit-trial","59","528034","0.0-2.0-14.0-0.0","battery-v0.2","","""event"",""trial"",""time""
""fullscreenenter"",""1"",""2440""
","
","
","""event"",""trial"",""time""
""fullscreenenter"",""1"",""2440""
","
","","","512.6000000238419","","","24","6192","2712","&#9826;","elianto","#f73b6a7A","-1"," ","0","-10","[1369]","1","0","3","","","","","","","",""
"pit-trial","60","532932","0.0-2.0-14.0-1.0","battery-v0.2","","""event"",""trial"",""time""
""fullscreenenter"",""1"",""2440""
","
","
","""event"",""trial"",""time""
""fullscreenenter"",""1"",""2440""
","
","","","-1","","","24","6192","2712","&#9826;","elianto","#f73b6a7A","-1","-1","1","0","[]","0","0","3","","","","","","","",""
"pit-trial","61","537797","0.0-2.0-14.0-2.0","battery-v0.2","","""event"",""trial"",""time""
""fullscreenenter"",""1"",""2440""
","
","
","""event"",""trial"",""time""
""fullscreenenter"",""1"",""2440""
","
","","","-1","","","24","6192","2712","&#9826;","elianto","#f73b6a7A","-1","-1","1","0","[]","0","0","3","","","","","","","",""
"pit-trial","62","542659","0.0-2.0-14.0-3.0","battery-v0.2","","""event"",""trial"",""time""
""fullscreenenter"",""1"",""2440""
","
","
","""event"",""trial"",""time""
""fullscreenenter"",""1"",""2440""
","
","","","-1","","","24","6192","2712","&#9826;","elianto","#f73b6a7A","-1","-1","1","-10","[]","0","0","3","","","","","","","",""
"pit-trial","63","547524","0.0-2.0-14.0-4.0","battery-v0.2","","""event"",""trial"",""time""
""fullscreenenter"",""1"",""2440""
","
","
","""event"",""trial"",""time""
""fullscreenenter"",""1"",""2440""
","
","","","-1","","","24","6192","2712","&#9826;","elianto","#f73b6a7A","-1","-1","1","0","[]","0","0","3","","","","","","","",""
"pit-trial","64","552392","0.0-2.0-14.1-0.1","battery-v0.2","","""event"",""trial"",""time""
""fullscreenenter"",""1"",""2440""
","
","
","""event"",""trial"",""time""
""fullscreenenter"",""1"",""2440""
","
","","","-1","","","24","6192","2712","&#9826;","elianto","#f73b6a7A","-1","-1","1","0","[]","0","0","3","","","","","","","",""
"pit-trial","65","557261","0.0-2.0-14.1-1.1","battery-v0.2","","""event"",""trial"",""time""
""fullscreenenter"",""1"",""2440""
","
","
","""event"",""trial"",""time""
""fullscreenenter"",""1"",""2440""
","
","","","-1","","","24","6192","2712","&#9826;","elianto","#f73b6a7A","-1","-1","1","0","[]","0","0","3","","","","","","","",""
"pit-trial","66","562132","0.0-2.0-14.1-2.1","battery-v0.2","","""event"",""trial"",""time""
""fullscreenenter"",""1"",""2440""
","
","
","""event"",""trial"",""time""
""fullscreenenter"",""1"",""2440""
","
","","","-1","","","24","6192","2712","&#9826;","elianto","#f73b6a7A","-1","-1","1","0","[]","0","0","3","","","","","","","",""
"pit-trial","67","567008","0.0-2.0-14.1-3.1","battery-v0.2","","""event"",""trial"",""time""
""fullscreenenter"",""1"",""2440""
","
","
","""event"",""trial"",""time""
""fullscreenenter"",""1"",""2440""
","
","","","-1","","","24","6192","2712","&#9826;","elianto","#f73b6a7A","-1","-1","1","-10","[]","0","0","3","","","","","","","",""
"pit-trial","68","571879","0.0-2.0-14.1-4.1","battery-v0.2","","""event"",""trial"",""time""
""fullscreenenter"",""1"",""2440""
","
","
","""event"",""trial"",""time""
""fullscreenenter"",""1"",""2440""
","
","","","-1","","","24","6192","2712","&#9826;","elianto","#f73b6a7A","-1","-1","1","0","[]","0","0","3","","","","","","","",""
"pit-trial","69","576749","0.0-2.0-14.2-0.2","battery-v0.2","","""event"",""trial"",""time""
""fullscreenenter"",""1"",""2440""
","
","
","""event"",""trial"",""time""
""fullscreenenter"",""1"",""2440""
","
","","","-1","","","24","6192","2712","&#9826;","elianto","#f73b6a7A","-1","-1","1","0","[]","0","0","3","","","","","","","",""
"pit-trial","70","581609","0.0-2.0-14.2-1.2","battery-v0.2","","""event"",""trial"",""time""
""fullscreenenter"",""1"",""2440""
","
","
","""event"",""trial"",""time""
""fullscreenenter"",""1"",""2440""
","
","","","-1","","","24","6192","2712","&#9826;","elianto","#f73b6a7A","-1","-1","1","0","[]","0","0","3","","","","","","","",""
"pit-trial","71","586479","0.0-2.0-14.2-2.2","battery-v0.2","","""event"",""trial"",""time""
""fullscreenenter"",""1"",""2440""
","
","
","""event"",""trial"",""time""
""fullscreenenter"",""1"",""2440""
","
","","","-1","","","24","6192","2712","&#9826;","elianto","#f73b6a7A","-1","-1","1","0","[]","0","0","3","","","","","","","",""
"pit-trial","72","591349","0.0-2.0-14.2-3.2","battery-v0.2","","""event"",""trial"",""time""
""fullscreenenter"",""1"",""2440""
","
","
","""event"",""trial"",""time""
""fullscreenenter"",""1"",""2440""
","
","","","-1","","","24","6192","2712","&#9826;","elianto","#f73b6a7A","-1","-1","1","-10","[]","0","0","3","","","","","","","",""
"pit-trial","73","596214","0.0-2.0-14.2-4.2","battery-v0.2","","""event"",""trial"",""time""
""fullscreenenter"",""1"",""2440""
","
","
","""event"",""trial"",""time""
""fullscreenenter"",""1"",""2440""
","
","","","-1","","","24","6192","2712","&#9826;","elianto","#f73b6a7A","-1","-1","1","0","[]","0","0","3","","","","","","","",""
"pit-trial","74","601096","0.0-2.0-14.3-0.3","battery-v0.2","","""event"",""trial"",""time""
""fullscreenenter"",""1"",""2440""
","
","
","""event"",""trial"",""time""
""fullscreenenter"",""1"",""2440""
","
","","","-1","","","24","6192","2712","&#9826;","elianto","#f73b6a7A","-1","-1","1","0","[]","0","0","3","","","","","","","",""
"pit-trial","75","605967","0.0-2.0-14.3-1.3","battery-v0.2","","""event"",""trial"",""time""
""fullscreenenter"",""1"",""2440""
","
","
","""event"",""trial"",""time""
""fullscreenenter"",""1"",""2440""
","
","","","-1","","","24","6192","2712","&#9826;","elianto","#f73b6a7A","-1","-1","1","0","[]","0","0","3","","","","","","","",""
"pit-trial","76","610838","0.0-2.0-14.3-2.3","battery-v0.2","","""event"",""trial"",""time""
""fullscreenenter"",""1"",""2440""
","
","
","""event"",""trial"",""time""
""fullscreenenter"",""1"",""2440""
","
","","","-1","","","24","6192","2712","&#9826;","elianto","#f73b6a7A","-1","-1","1","0","[]","0","0","3","","","","","","","",""
"pit-trial","77","615702","0.0-2.0-14.3-3.3","battery-v0.2","","""event"",""trial"",""time""
""fullscreenenter"",""1"",""2440""
","
","
","""event"",""trial"",""time""
""fullscreenenter"",""1"",""2440""
","
","","","-1","","","24","6192","2712","&#9826;","elianto","#f73b6a7A","-1","-1","1","-10","[]","0","0","3","","","","","","","",""
"pit-trial","78","620567","0.0-2.0-14.3-4.3","battery-v0.2","","""event"",""trial"",""time""
""fullscreenenter"",""1"",""2440""
","
","
","""event"",""trial"",""time""
""fullscreenenter"",""1"",""2440""
","
","","","-1","","","24","6192","2712","&#9826;","elianto","#f73b6a7A","-1","-1","1","0","[]","0","0","3","","","","","","","",""
"call-function","79","620570","0.0-2.0-15.0","battery-v0.2","","""event"",""trial"",""time""
""fullscreenenter"",""1"",""2440""
","
","
","""event"",""trial"",""time""
""fullscreenenter"",""1"",""2440""
","
","","","","","","","","","","","","","","","","","","","","","","","","","","",""
"pit-instructions","80","644053","0.0-2.0-16.0","battery-v0.2","","""event"",""trial"",""time""
""fullscreenenter"",""1"",""2440""
","
","
","""event"",""trial"",""time""
""fullscreenenter"",""1"",""2440""
","
","","[{""page_index"":0,""viewing_time"":6486.699999988079},{""page_index"":1,""viewing_time"":8032},{""page_index"":2,""viewing_time"":4404.200000047684},{""page_index"":3,""viewing_time"":4557.599999964237}]","23481.30000001192","","","","","","","","","","","","","","","","","","","","","","","",""
"pit-trial","81","647367","0.0-2.0-17.0-0.0","battery-v0.2","","""event"",""trial"",""time""
""fullscreenenter"",""1"",""2440""
","
","
","""event"",""trial"",""time""
""fullscreenenter"",""1"",""2440""
","
","","","439.5","","","24","6192","2712","&#9789;","elianto","#f73b6a7A"," "," ","1","0","[1295.1000000238419]","1","0","4","","","","","","","",""
"pit-trial","82","650559","0.0-2.0-17.0-1.0","battery-v0.2","","""event"",""trial"",""time""
""fullscreenenter"",""1"",""2440""
","
","
","""event"",""trial"",""time""
""fullscreenenter"",""1"",""2440""
","
","","","330.5","","","24","6192","2712","&#9789;","elianto","#f73b6a7A"," "," ","1","0","[1185.300000011921]","1","0","4","","","","","","","",""
"pit-trial","83","653927","0.0-2.0-17.0-2.0","battery-v0.2","","""event"",""trial"",""time""
""fullscreenenter"",""1"",""2440""
","
","
","""event"",""trial"",""time""
""fullscreenenter"",""1"",""2440""
","
","","","509.60000002384186","","","24","6192","2712","&#9789;","elianto","#f73b6a7A"," "," ","1","0","[1361.7999999523163]","1","0","4","","","","","","","",""
"pit-trial","84","657113","0.0-2.0-17.0-3.0","battery-v0.2","","""event"",""trial"",""time""
""fullscreenenter"",""1"",""2440""
","
","
","""event"",""trial"",""time""
""fullscreenenter"",""1"",""2440""
","
","","","324.4000000357628","","","24","6192","2712","&#9789;","elianto","#f73b6a7A"," "," ","1","-10","[1178.9000000357628]","1","0","4","","","","","","","",""
"pit-trial","85","660475","0.0-2.0-17.0-4.0","battery-v0.2","","""event"",""trial"",""time""
""fullscreenenter"",""1"",""2440""
","
","
","""event"",""trial"",""time""
""fullscreenenter"",""1"",""2440""
","
","","","494.10000002384186","","","24","6192","2712","&#9789;","elianto","#f73b6a7A"," "," ","1","0","[1350.300000011921]","1","0","4","","","","","","","",""
"pit-trial","86","663807","0.0-2.0-17.1-0.1","battery-v0.2","","""event"",""trial"",""time""
""fullscreenenter"",""1"",""2440""
","
","
","""event"",""trial"",""time""
""fullscreenenter"",""1"",""2440""
","
","","","463.0999999642372","","","24","6192","2712","&#9789;","elianto","#f73b6a7A"," "," ","1","0","[1322.5]","1","0","4","","","","","","","",""
"pit-trial","87","667104","0.0-2.0-17.1-1.1","battery-v0.2","","""event"",""trial"",""time""
""fullscreenenter"",""1"",""2440""
","
","
","""event"",""trial"",""time""
""fullscreenenter"",""1"",""2440""
","
","","","429.19999998807907","","","24","6192","2712","&#9789;","elianto","#f73b6a7A"," "," ","1","0","[1283.8999999761581]","1","0","4","","","","","","","",""
"pit-trial","88","670376","0.0-2.0-17.1-2.1","battery-v0.2","","""event"",""trial"",""time""
""fullscreenenter"",""1"",""2440""
","
","
","""event"",""trial"",""time""
""fullscreenenter"",""1"",""2440""
","
","","","405.80000001192093","","","24","6192","2712","&#9789;","elianto","#f73b6a7A"," "," ","1","0","[1260.699999988079]","1","0","4","","","","","","","",""
"pit-trial","89","673800","0.0-2.0-17.1-3.1","battery-v0.2","","""event"",""trial"",""time""
""fullscreenenter"",""1"",""2440""
","
","
","""event"",""trial"",""time""
""fullscreenenter"",""1"",""2440""
","
","","","551","","","24","6192","2712","&#9789;","elianto","#f73b6a7A"," "," ","1","-10","[1410.699999988079]","1","0","4","","","","","","","",""
"pit-trial","90","677032","0.0-2.0-17.1-4.1","battery-v0.2","","""event"",""trial"",""time""
""fullscreenenter"",""1"",""2440""
","
","
","""event"",""trial"",""time""
""fullscreenenter"",""1"",""2440""
","
","","","374.19999998807907","","","24","6192","2712","&#9789;","elianto","#f73b6a7A"," "," ","1","0","[1225]","1","0","4","","","","","","","",""
"pit-trial","91","680016","0.0-2.0-17.2-0.2","battery-v0.2","","""event"",""trial"",""time""
""fullscreenenter"",""1"",""2440""
","
","
","""event"",""trial"",""time""
""fullscreenenter"",""1"",""2440""
","
","","","117.5","","","24","6192","2712","&#9789;","elianto","#f73b6a7A"," "," ","1","0","[970.1999999880791]","1","0","4","","","","","","","",""
"pit-trial","92","683377","0.0-2.0-17.2-1.2","battery-v0.2","","""event"",""trial"",""time""
""fullscreenenter"",""1"",""2440""
","
","
","""event"",""trial"",""time""
""fullscreenenter"",""1"",""2440""
","
","","","492.19999998807907","","","24","6192","2712","&#9789;","elianto","#f73b6a7A"," "," ","1","0","[1348.800000011921]","1","0","4","","","","","","","",""
"pit-trial","93","686692","0.0-2.0-17.2-2.2","battery-v0.2","","""event"",""trial"",""time""
""fullscreenenter"",""1"",""2440""
","
","
","""event"",""trial"",""time""
""fullscreenenter"",""1"",""2440""
","
","","","437.5","","","24","6192","2712","&#9789;","elianto","#f73b6a7A"," "," ","1","0","[1298]","1","0","4","","","","","","","",""
"pit-trial","94","689972","0.0-2.0-17.2-3.2","battery-v0.2","","""event"",""trial"",""time""
""fullscreenenter"",""1"",""2440""
","
","
","""event"",""trial"",""time""
""fullscreenenter"",""1"",""2440""
","
","","","412.69999998807907","","","24","6192","2712","&#9789;","elianto","#f73b6a7A"," "," ","1","-10","[1269.5]","1","0","4","","","","","","","",""
"pit-trial","95","693281","0.0-2.0-17.2-4.2","battery-v0.2","","""event"",""trial"",""time""
""fullscreenenter"",""1"",""2440""
","
","
","""event"",""trial"",""time""
""fullscreenenter"",""1"",""2440""
","
","","","449.30000001192093","","","24","6192","2712","&#9789;","elianto","#f73b6a7A"," "," ","1","0","[1299.800000011921]","1","0","4","","","","","","","",""
"pit-trial","96","696508","0.0-2.0-17.3-0.3","battery-v0.2","","""event"",""trial"",""time""
""fullscreenenter"",""1"",""2440""
","
","
","""event"",""trial"",""time""
""fullscreenenter"",""1"",""2440""
","
","","","359.9000000357628","","","24","6192","2712","&#9789;","elianto","#f73b6a7A"," "," ","1","0","[1214.4000000357628]","1","0","4","","","","","","","",""
"pit-trial","97","700096","0.0-2.0-17.3-1.3","battery-v0.2","","""event"",""trial"",""time""
""fullscreenenter"",""1"",""2440""
","
","
","""event"",""trial"",""time""
""fullscreenenter"",""1"",""2440""
","
","","","718.9000000357628","","","24","6192","2712","&#9789;","elianto","#f73b6a7A"," "," ","1","0","[1575.9000000357628]","1","0","4","","","","","","","",""
"pit-trial","98","703388","0.0-2.0-17.3-2.3","battery-v0.2","","""event"",""trial"",""time""
""fullscreenenter"",""1"",""2440""
","
","
","""event"",""trial"",""time""
""fullscreenenter"",""1"",""2440""
","
","","","424.89999997615814","","","24","6192","2712","&#9789;","elianto","#f73b6a7A"," "," ","1","0","[1281.699999988079]","1","0","4","","","","","","","",""
"pit-trial","99","706785","0.0-2.0-17.3-3.3","battery-v0.2","","""event"",""trial"",""time""
""fullscreenenter"",""1"",""2440""
","
","
","""event"",""trial"",""time""
""fullscreenenter"",""1"",""2440""
","
","","","534.3999999761581","","","24","6192","2712","&#9789;","elianto","#f73b6a7A"," "," ","1","-10","[1388.1000000238419]","1","0","4","","","","","","","",""
"pit-trial","100","709981","0.0-2.0-17.3-4.3","battery-v0.2","","""event"",""trial"",""time""
""fullscreenenter"",""1"",""2440""
","
","
","""event"",""trial"",""time""
""fullscreenenter"",""1"",""2440""
","
","","","327.7000000476837","","","24","6192","2712","&#9789;","elianto","#f73b6a7A"," "," ","1","0","[1181]","1","0","4","","","","","","","",""
"call-function","101","709985","0.0-2.0-18.0","battery-v0.2","","""event"",""trial"",""time""
""fullscreenenter"",""1"",""2440""
","
","
","""event"",""trial"",""time""
""fullscreenenter"",""1"",""2440""
","
","","","","","","","","","","","","","","","","","","","","","","","","","","",""
"pit-instructions","102","778485","0.0-2.0-19.0","battery-v0.2","","""event"",""trial"",""time""
""fullscreenenter"",""1"",""2440""
","
","
","""event"",""trial"",""time""
""fullscreenenter"",""1"",""2440""
","
","","[{""page_index"":0,""viewing_time"":7682.200000047684},{""page_index"":1,""viewing_time"":6046},{""page_index"":2,""viewing_time"":12865.899999976158},{""page_index"":3,""viewing_time"":7549.100000023842},{""page_index"":4,""viewing_time"":8212.399999976158},{""page_index"":5,""viewing_time"":8150.199999988079},{""page_index"":6,""viewing_time"":7899.300000011921},{""page_index"":7,""viewing_time"":6112.199999988079},{""page_index"":8,""viewing_time"":3980}]","68497.60000002384","","","","","","","","","","","","","","","","","","","","","","","",""
"pit-comprehension","103","782911","0.0-2.0-20.0-0.0","battery-v0.2","","""event"",""trial"",""time""
""fullscreenenter"",""1"",""2440""
","
","
","""event"",""trial"",""time""
""fullscreenenter"",""1"",""2440""
","
","","","4415.899999976158","[""SPACE""]","0","24","6192","2712","","","","","","","","","","","","","","","","","","",""
"pit-instructions","104","786821","0.0-2.0-20.0-1.0","battery-v0.2","","""event"",""trial"",""time""
""fullscreenenter"",""1"",""2440""
","
","
","""event"",""trial"",""time""
""fullscreenenter"",""1"",""2440""
","
","","[{""page_index"":0,""viewing_time"":3873.5}]","3873.900000035763","","","","","","","","","","","","","","","","","","","","","","","",""
"pit-comprehension","105","793321","0.0-2.0-21.0-0.0","battery-v0.2","","""event"",""trial"",""time""
""fullscreenenter"",""1"",""2440""
","
","
","""event"",""trial"",""time""
""fullscreenenter"",""1"",""2440""
","
","","","6473.699999988079","[""10""]","0","24","6192","2712","","","","","","","","","","","","","","","","","","",""
"pit-instructions","106","795506","0.0-2.0-21.0-1.0","battery-v0.2","","""event"",""trial"",""time""
""fullscreenenter"",""1"",""2440""
","
","
","""event"",""trial"",""time""
""fullscreenenter"",""1"",""2440""
","
","","[{""page_index"":0,""viewing_time"":2152}]","2152.300000011921","","","","","","","","","","","","","","","","","","","","","","","",""
"pit-comprehension","107","802445","0.0-2.0-22.0-0.0","battery-v0.2","","""event"",""trial"",""time""
""fullscreenenter"",""1"",""2440""
","
","
","""event"",""trial"",""time""
""fullscreenenter"",""1"",""2440""
","
","","","6934.899999976158","[""0""]","0","24","6192","2712","","","","","","","","","","","","","","","","","","",""
"pit-instructions","108","804158","0.0-2.0-22.0-1.0","battery-v0.2","","""event"",""trial"",""time""
""fullscreenenter"",""1"",""2440""
","
","
","""event"",""trial"",""time""
""fullscreenenter"",""1"",""2440""
","
","","[{""page_index"":0,""viewing_time"":1682.4000000357628}]","1682.699999988079","","","","","","","","","","","","","","","","","","","","","","","",""
"pit-comprehension","109","820178","0.0-2.0-23.0-0.0","battery-v0.2","","""event"",""trial"",""time""
""fullscreenenter"",""1"",""2440""
","
","
","""event"",""trial"",""time""
""fullscreenenter"",""1"",""2440""
","
","","","16014.299999952316","[""True""]","0","24","6192","2712","","","","","","","","","","","","","","","","","","",""
"pit-instructions","110","823221","0.0-2.0-23.0-1.0","battery-v0.2","","""event"",""trial"",""time""
""fullscreenenter"",""1"",""2440""
","
","
","""event"",""trial"",""time""
""fullscreenenter"",""1"",""2440""
","
","","[{""page_index"":0,""viewing_time"":3005.399999976158}]","3005.599999964237","","","","","","","","","","","","","","","","","","","","","","","",""
"pit-comprehension","111","830720","0.0-2.0-24.0-0.0","battery-v0.2","","""event"",""trial"",""time""
""fullscreenenter"",""1"",""2440""
","
","
","""event"",""trial"",""time""
""fullscreenenter"",""1"",""2440""
","
","","","7494.199999988079","[""True""]","0","24","6192","2712","","","","","","","","","","","","","","","","","","",""
"pit-instructions","112","832466","0.0-2.0-24.0-1.0","battery-v0.2","","""event"",""trial"",""time""
""fullscreenenter"",""1"",""2440""
","
","
","""event"",""trial"",""time""
""fullscreenenter"",""1"",""2440""
","
","","[{""page_index"":0,""viewing_time"":1714.3999999761581}]","1714.699999988079","","","","","","","","","","","","","","","","","","","","","","","",""
"pit-comprehension","113","838507","0.0-2.0-25.0-0.0","battery-v0.2","","""event"",""trial"",""time""
""fullscreenenter"",""1"",""2440""
","
","
","""event"",""trial"",""time""
""fullscreenenter"",""1"",""2440""
","
","","","6035.699999988079","[""True""]","0","24","6192","2712","","","","","","","","","","","","","","","","","","",""
"pit-instructions","114","841265","0.0-2.0-25.0-1.0","battery-v0.2","","""event"",""trial"",""time""
""fullscreenenter"",""1"",""2440""
","
","
","""event"",""trial"",""time""
""fullscreenenter"",""1"",""2440""
","
","","[{""page_index"":0,""viewing_time"":2725.800000011921}]","2726","","","","","","","","","","","","","","","","","","","","","","","",""
"pit-comprehension","115","846889","0.0-2.0-26.0-0.0","battery-v0.2","","""event"",""trial"",""time""
""fullscreenenter"",""1"",""2440""
","
","
","""event"",""trial"",""time""
""fullscreenenter"",""1"",""2440""
","
","","","5618.800000011921","[""False""]","0","24","6192","2712","","","","","","","","","","","","","","","","","","",""
"pit-instructions","116","848921","0.0-2.0-26.0-1.0","battery-v0.2","","""event"",""trial"",""time""
""fullscreenenter"",""1"",""2440""
","
","
","""event"",""trial"",""time""
""fullscreenenter"",""1"",""2440""
","
","","[{""page_index"":0,""viewing_time"":2000.199999988079}]","2000.3999999761581","","","","","","","","","","","","","","","","","","","","","","","",""
"pit-instructions","117","864919","0.0-3.0","battery-v0.2","","""event"",""trial"",""time""
""fullscreenenter"",""1"",""2440""
","
","
","""event"",""trial"",""time""
""fullscreenenter"",""1"",""2440""
","
","","[{""page_index"":0,""viewing_time"":3743.599999964237},{""page_index"":1,""viewing_time"":5090.300000011921},{""page_index"":2,""viewing_time"":7159.600000023842}]","15993.800000011921","","","","","","","","","","","","","","","","","","","","","","","",""
"pit-trial","118","868542","0.0-4.0","battery-v0.2","","""event"",""trial"",""time""
""fullscreenenter"",""1"",""2440""
","
","
","""event"",""trial"",""time""
""fullscreenenter"",""1"",""2440""
","
","","","755.3000000119209","","","24","6192","2712","&#9733;","elianto","#3366ff99","-1"," ","0","0","[1611.5]","1","1","","","6192","1","2","2","win","no-go","0"
"pit-trial","119","872105","0.0-5.0","battery-v0.2","","""event"",""trial"",""time""
""fullscreenenter"",""1"",""2440""
","
","
","""event"",""trial"",""time""
""fullscreenenter"",""1"",""2440""
","
","","","696.0999999642372","","","24","6192","2712","&#9730;","elianto","#3366ff99"," "," ","1","+10","[1550.8999999761581]","1","1","","","6192","2","1","1","win","go","0"
"pit-trial","120","876519","0.0-6.0","battery-v0.2","","""event"",""trial"",""time""
""fullscreenenter"",""1"",""2440""
","
","
","""event"",""trial"",""time""
""fullscreenenter"",""1"",""2440""
","
","","","1543.2999999523163","","","24","6192","2712","&#9752;","elianto","#f73b6a7A"," "," ","1","0","[2399.399999976158]","1","1","","","6192","3","3","3","lose","go","0"
"pit-trial","121","880541","0.0-7.0","battery-v0.2","","""event"",""trial"",""time""
""fullscreenenter"",""1"",""2440""
","
","
","""event"",""trial"",""time""
""fullscreenenter"",""1"",""2440""
","
","","","1161.6000000238419","","","24","6192","2712","&#9728;","elianto","#f73b6a7A","-1"," ","0","0","[2013.1000000238419]","1","1","","","6192","4","0","4","lose","no-go","1"
"pit-trial","122","884402","0.0-8.0","battery-v0.2","","""event"",""trial"",""time""
""fullscreenenter"",""1"",""2440""
","
","
","""event"",""trial"",""time""
""fullscreenenter"",""1"",""2440""
","
","","","992.4000000357628","","","24","6192","2712","&#9728;","elianto","#f73b6a7A","-1"," ","0","-10","[1844.5]","1","1","","","6192","5","0","4","lose","no-go","0"
"pit-trial","123","888146","0.0-9.0","battery-v0.2","","""event"",""trial"",""time""
""fullscreenenter"",""1"",""2440""
","
","
","""event"",""trial"",""time""
""fullscreenenter"",""1"",""2440""
","
","","","869.1999999880791","","","24","6192","2712","&#9730;","elianto","#3366ff99"," "," ","1","+10","[1729.8999999761581]","1","1","","","6192","6","1","1","win","go","0"
"pit-trial","124","891643","0.0-10.0","battery-v0.2","","""event"",""trial"",""time""
""fullscreenenter"",""1"",""2440""
","
","
","""event"",""trial"",""time""
""fullscreenenter"",""1"",""2440""
","
","","","625.9000000357628","","","24","6192","2712","&#9733;","elianto","#3366ff99","-1"," ","0","0","[1481.300000011921]","1","1","","","6192","7","2","2","win","no-go","0"
"pit-trial","125","895967","0.0-11.0","battery-v0.2","","""event"",""trial"",""time""
""fullscreenenter"",""1"",""2440""
","
","
","""event"",""trial"",""time""
""fullscreenenter"",""1"",""2440""
","
","","","1454.300000011921","","","24","6192","2712","&#9752;","elianto","#f73b6a7A"," "," ","1","0","[2313.5]","1","1","","","6192","8","3","3","lose","go","0"
"pit-trial","126","899681","0.0-12.0","battery-v0.2","","""event"",""trial"",""time""
""fullscreenenter"",""1"",""2440""
","
","
","""event"",""trial"",""time""
""fullscreenenter"",""1"",""2440""
","
","","","852.1000000238419","","","24","6192","2712","&#9752;","elianto","#f73b6a7A"," "," ","1","0","[1703.199999988079]","1","1","","","6192","9","3","3","lose","go","0"
"pit-trial","127","904553","0.0-13.0","battery-v0.2","","""event"",""trial"",""time""
""fullscreenenter"",""1"",""2440""
","
","
","""event"",""trial"",""time""
""fullscreenenter"",""1"",""2440""
","
","","","-1","","","24","6192","2712","&#9733;","elianto","#3366ff99","-1","-1","1","0","[]","0","1","","","6192","10","2","2","win","no-go","1"
"pit-trial","128","908257","0.0-14.0","battery-v0.2","","""event"",""trial"",""time""
""fullscreenenter"",""1"",""2440""
","
","
","""event"",""trial"",""time""
""fullscreenenter"",""1"",""2440""
","
","","","831.3999999761581","","","24","6192","2712","&#9730;","elianto","#3366ff99"," "," ","1","+10","[1691.5]","1","1","","","6192","11","1","1","win","go","0"
"pit-trial","129","913127","0.0-15.0","battery-v0.2","","""event"",""trial"",""time""
""fullscreenenter"",""1"",""2440""
","
","
","""event"",""trial"",""time""
""fullscreenenter"",""1"",""2440""
","
","","","-1","","","24","6192","2712","&#9728;","elianto","#f73b6a7A","-1","-1","1","0","[]","0","1","","","6192","12","0","4","lose","no-go","0"
"pit-trial","130","917057","0.0-16.0","battery-v0.2","","""event"",""trial"",""time""
""fullscreenenter"",""1"",""2440""
","
","
","""event"",""trial"",""time""
""fullscreenenter"",""1"",""2440""
","
","","","1067","","","24","6192","2712","&#9752;","elianto","#f73b6a7A"," "," ","1","-10","[1921.8999999761581]","1","1","","","6192","13","3","3","lose","go","1"
"pit-trial","131","920947","0.0-17.0","battery-v0.2","","""event"",""trial"",""time""
""fullscreenenter"",""1"",""2440""
","
","
","""event"",""trial"",""time""
""fullscreenenter"",""1"",""2440""
","
","","","1014.8000000119209","","","24","6192","2712","&#9730;","elianto","#3366ff99"," "," ","1","+10","[1874.6000000238419]","1","1","","","6192","14","1","1","win","go","0"
"pit-trial","132","925817","0.0-18.0","battery-v0.2","","""event"",""trial"",""time""
""fullscreenenter"",""1"",""2440""
","
","
","""event"",""trial"",""time""
""fullscreenenter"",""1"",""2440""
","
","","","-1","","","24","6192","2712","&#9728;","elianto","#f73b6a7A","-1","-1","1","0","[]","0","1","","","6192","15","0","4","lose","no-go","0"
"pit-trial","133","930688","0.0-19.0","battery-v0.2","","""event"",""trial"",""time""
""fullscreenenter"",""1"",""2440""
","
","
","""event"",""trial"",""time""
""fullscreenenter"",""1"",""2440""
","
","","","-1","","","24","6192","2712","&#9733;","elianto","#3366ff99","-1","-1","1","+10","[]","0","1","","","6192","16","2","2","win","no-go","0"
"pit-trial","134","935040","0.0-20.0","battery-v0.2","","""event"",""trial"",""time""
""fullscreenenter"",""1"",""2440""
","
","
","""event"",""trial"",""time""
""fullscreenenter"",""1"",""2440""
","
","","","1490.5","","","24","6192","2712","&#9752;","elianto","#f73b6a7A"," "," ","1","0","[2345.199999988079]","1","1","","","6192","17","3","3","lose","go","0"
"pit-trial","135","939907","0.0-21.0","battery-v0.2","","""event"",""trial"",""time""
""fullscreenenter"",""1"",""2440""
","
","
","""event"",""trial"",""time""
""fullscreenenter"",""1"",""2440""
","
","","","-1","","","24","6192","2712","&#9733;","elianto","#3366ff99","-1","-1","1","+10","[]","0","1","","","6192","18","2","2","win","no-go","0"
"pit-trial","136","944776","0.0-22.0","battery-v0.2","","""event"",""trial"",""time""
""fullscreenenter"",""1"",""2440""
","
","
","""event"",""trial"",""time""
""fullscreenenter"",""1"",""2440""
","
","","","-1","","","24","6192","2712","&#9728;","elianto","#f73b6a7A","-1","-1","1","-10","[]","0","1","","","6192","19","0","4","lose","no-go","1"
"pit-trial","137","948400","0.0-23.0","battery-v0.2","","""event"",""trial"",""time""
""fullscreenenter"",""1"",""2440""
","
","
","""event"",""trial"",""time""
""fullscreenenter"",""1"",""2440""
","
","","","755.3000000119209","","","24","6192","2712","&#9730;","elianto","#3366ff99"," "," ","1","0","[1610.800000011921]","1","1","","","6192","20","1","1","win","go","1"
"pit-instructions","138","959958","0.0-24.0","battery-v0.2","","""event"",""trial"",""time""
""fullscreenenter"",""1"",""2440""
","
","
","""event"",""trial"",""time""
""fullscreenenter"",""1"",""2440""
","
","","[{""page_index"":0,""viewing_time"":5451.400000035763},{""page_index"":1,""viewing_time"":6103}]","11554.800000011921","","","","","","","","","","","","","","","","","","","","","","","",""
"pit-trial","139","963720","0.0-25.0","battery-v0.2","","""event"",""trial"",""time""
""fullscreenenter"",""1"",""2440""
","
","
","""event"",""trial"",""time""
""fullscreenenter"",""1"",""2440""
","
","","","896.5","","","24","6192","2712","l","elianto","#3366ff99"," "," ","1","+10","[1748.199999988079]","1","2","","","6192","21","1","1","win","go","0"
"pit-trial","140","967457","0.0-26.0","battery-v0.2","","""event"",""trial"",""time""
""fullscreenenter"",""1"",""2440""
","
","
","""event"",""trial"",""time""
""fullscreenenter"",""1"",""2440""
","
","","","872.2000000476837","","","24","6192","2712","u","elianto","#f73b6a7A","-1"," ","0","-10","[1725.2000000476837]","1","2","","","6192","22","0","4","lose","no-go","0"
"pit-trial","141","971555","0.0-27.0","battery-v0.2","","""event"",""trial"",""time""
""fullscreenenter"",""1"",""2440""
","
","
","""event"",""trial"",""time""
""fullscreenenter"",""1"",""2440""
","
","","","1232.300000011921","","","24","6192","2712","a","elianto","#f73b6a7A","-1"," ","0","-10","[2087.5]","1","2","","","6192","23","2","4","lose","no-go","0"
"pit-trial","142","975338","0.0-28.0","battery-v0.2","","""event"",""trial"",""time""
""fullscreenenter"",""1"",""2440""
","
","
","""event"",""trial"",""time""
""fullscreenenter"",""1"",""2440""
","
","","","914.3999999761581","","","24","6192","2712","g","elianto","#f73b6a7A"," "," ","1","0","[1775]","1","2","","","6192","24","3","3","lose","go","0"
"pit-trial","143","980205","0.0-29.0","battery-v0.2","","""event"",""trial"",""time""
""fullscreenenter"",""1"",""2440""
","
","
","""event"",""trial"",""time""
""fullscreenenter"",""1"",""2440""
","
","","","-1","","","24","6192","2712","a","elianto","#f73b6a7A","-1","-1","1","0","[]","0","2","","","6192","25","2","4","lose","no-go","0"
"pit-trial","144","983996","0.0-30.0","battery-v0.2","","""event"",""trial"",""time""
""fullscreenenter"",""1"",""2440""
","
","
","""event"",""trial"",""time""
""fullscreenenter"",""1"",""2440""
","
","","","921.2000000476837","","","24","6192","2712","g","elianto","#f73b6a7A"," "," ","1","0","[1778.6000000238419]","1","2","","","6192","26","3","3","lose","go","0"
"pit-trial","145","988866","0.0-31.0","battery-v0.2","","""event"",""trial"",""time""
""fullscreenenter"",""1"",""2440""
","
","
","""event"",""trial"",""time""
""fullscreenenter"",""1"",""2440""
","
","","","-1","","","24","6192","2712","u","elianto","#f73b6a7A","-1","-1","1","-10","[]","0","2","","","6192","27","0","4","lose","no-go","1"
"pit-trial","146","992170","0.0-32.0","battery-v0.2","","""event"",""trial"",""time""
""fullscreenenter"",""1"",""2440""
","
","
","""event"",""trial"",""time""
""fullscreenenter"",""1"",""2440""
","
","","","438.80000001192093","","","24","6192","2712","l","elianto","#3366ff99"," "," ","1","+10","[1295.199999988079]","1","2","","","6192","28","1","1","win","go","0"
"pit-trial","147","997035","0.0-33.0","battery-v0.2","","""event"",""trial"",""time""
""fullscreenenter"",""1"",""2440""
","
","
","""event"",""trial"",""time""
""fullscreenenter"",""1"",""2440""
","
","","","-1","","","24","6192","2712","u","elianto","#f73b6a7A","-1","-1","1","0","[]","0","2","","","6192","29","0","4","lose","no-go","0"
"pit-trial","148","1000953","0.0-34.0","battery-v0.2","","""event"",""trial"",""time""
""fullscreenenter"",""1"",""2440""
","
","
","""event"",""trial"",""time""
""fullscreenenter"",""1"",""2440""
","
","","","1052.2000000476837","","","24","6192","2712","g","elianto","#f73b6a7A"," "," ","1","-10","[1912.7000000476837]","1","2","","","6192","30","3","3","lose","go","1"
"pit-trial","149","1004286","0.0-35.0","battery-v0.2","","""event"",""trial"",""time""
""fullscreenenter"",""1"",""2440""
","
","
","""event"",""trial"",""time""
""fullscreenenter"",""1"",""2440""
","
","","","466.60000002384186","","","24","6192","2712","l","elianto","#3366ff99"," "," ","1","+10","[1322.3999999761581]","1","2","","","6192","31","1","1","win","go","0"
"pit-trial","150","1009156","0.0-36.0","battery-v0.2","","""event"",""trial"",""time""
""fullscreenenter"",""1"",""2440""
","
","
","""event"",""trial"",""time""
""fullscreenenter"",""1"",""2440""
","
","","","-1","","","24","6192","2712","a","elianto","#f73b6a7A","-1","-1","1","0","[]","0","2","","","6192","32","2","4","lose","no-go","0"
"pit-trial","151","1012779","0.0-37.0","battery-v0.2","","""event"",""trial"",""time""
""fullscreenenter"",""1"",""2440""
","
","
","""event"",""trial"",""time""
""fullscreenenter"",""1"",""2440""
","
","","","763.4000000357628","","","24","6192","2712","g","elianto","#f73b6a7A"," "," ","1","0","[1614.300000011921]","1","2","","","6192","33","3","3","lose","go","0"
"pit-trial","152","1016314","0.0-38.0","battery-v0.2","","""event"",""trial"",""time""
""fullscreenenter"",""1"",""2440""
","
","
","""event"",""trial"",""time""
""fullscreenenter"",""1"",""2440""
","
","","","673.1999999880791","","","24","6192","2712","l","elianto","#3366ff99"," "," ","1","+10","[1527.5999999642372]","1","2","","","6192","34","1","1","win","go","0"
"pit-trial","153","1021179","0.0-39.0","battery-v0.2","","""event"",""trial"",""time""
""fullscreenenter"",""1"",""2440""
","
","
","""event"",""trial"",""time""
""fullscreenenter"",""1"",""2440""
","
","","","-1","","","24","6192","2712","u","elianto","#f73b6a7A","-1","-1","1","0","[]","0","2","","","6192","35","0","4","lose","no-go","0"
"pit-trial","154","1026038","0.0-40.0","battery-v0.2","","""event"",""trial"",""time""
""fullscreenenter"",""1"",""2440""
","
","
","""event"",""trial"",""time""
""fullscreenenter"",""1"",""2440""
","
","","","-1","","","24","6192","2712","a","elianto","#f73b6a7A","-1","-1","1","-10","[]","0","2","","","6192","36","2","4","lose","no-go","1"
"pit-trial","155","1029677","0.0-41.0","battery-v0.2","","""event"",""trial"",""time""
""fullscreenenter"",""1"",""2440""
","
","
","""event"",""trial"",""time""
""fullscreenenter"",""1"",""2440""
","
","","","780","","","24","6192","2712","l","elianto","#3366ff99"," "," ","1","+10","[1630.4000000357628]","1","2","","","6192","37","1","1","win","go","0"
"pit-trial","156","1034548","0.0-42.0","battery-v0.2","","""event"",""trial"",""time""
""fullscreenenter"",""1"",""2440""
","
","
","""event"",""trial"",""time""
""fullscreenenter"",""1"",""2440""
","
","","","-1","","","24","6192","2712","a","elianto","#f73b6a7A","-1","-1","1","0","[]","0","2","","","6192","38","2","4","lose","no-go","0"
"pit-trial","157","1039210","0.0-43.0","battery-v0.2","","""event"",""trial"",""time""
""fullscreenenter"",""1"",""2440""
","
","
","""event"",""trial"",""time""
""fullscreenenter"",""1"",""2440""
","
","","","1805.3999999761581","","","24","6192","2712","g","elianto","#f73b6a7A"," "," ","1","0","[2656.7000000476837]","1","2","","","6192","39","3","3","lose","go","0"
"pit-trial","158","1044077","0.0-44.0","battery-v0.2","","""event"",""trial"",""time""
""fullscreenenter"",""1"",""2440""
","
","
","""event"",""trial"",""time""
""fullscreenenter"",""1"",""2440""
","
","","","-1","","","24","6192","2712","u","elianto","#f73b6a7A","-1","-1","1","-10","[]","0","2","","","6192","40","0","4","lose","no-go","1"
"pit-trial","159","1048951","0.0-45.0","battery-v0.2","","""event"",""trial"",""time""
""fullscreenenter"",""1"",""2440""
","
","
","""event"",""trial"",""time""
""fullscreenenter"",""1"",""2440""
","
","","","-1","","","24","6192","2712","a","elianto","#f73b6a7A","-1","-1","1","0","[]","0","2","","","6192","41","2","4","lose","no-go","0"
"pit-trial","160","1053821","0.0-46.0","battery-v0.2","","""event"",""trial"",""time""
""fullscreenenter"",""1"",""2440""
","
","
","""event"",""trial"",""time""
""fullscreenenter"",""1"",""2440""
","
","","","-1","","","24","6192","2712","u","elianto","#f73b6a7A","-1","-1","1","0","[]","0","2","","","6192","42","0","4","lose","no-go","0"
"pit-trial","161","1057238","0.0-47.0","battery-v0.2","","""event"",""trial"",""time""
""fullscreenenter"",""1"",""2440""
","
","
","""event"",""trial"",""time""
""fullscreenenter"",""1"",""2440""
","
","","","541.0999999642372","","","24","6192","2712","l","elianto","#3366ff99"," "," ","1","+10","[1401.800000011921]","1","2","","","6192","43","1","1","win","go","0"
"pit-trial","162","1061300","0.0-48.0","battery-v0.2","","""event"",""trial"",""time""
""fullscreenenter"",""1"",""2440""
","
","
","""event"",""trial"",""time""
""fullscreenenter"",""1"",""2440""
","
","","","1193.199999988079","","","24","6192","2712","g","elianto","#f73b6a7A"," "," ","1","-10","[2049.399999976158]","1","2","","","6192","44","3","3","lose","go","1"
"pit-trial","163","1066169","0.0-49.0","battery-v0.2","","""event"",""trial"",""time""
""fullscreenenter"",""1"",""2440""
","
","
","""event"",""trial"",""time""
""fullscreenenter"",""1"",""2440""
","
","","","-1","","","24","6192","2712","u","elianto","#f73b6a7A","-1","-1","1","0","[]","0","2","","","6192","45","0","4","lose","no-go","0"
"pit-trial","164","1070581","0.0-50.0","battery-v0.2","","""event"",""trial"",""time""
""fullscreenenter"",""1"",""2440""
","
","
","""event"",""trial"",""time""
""fullscreenenter"",""1"",""2440""
","
","","","1547.699999988079","","","24","6192","2712","p","elianto","#3366ff99","-1"," ","0","0","[2403]","1","2","","","6192","46","4","2","win","no-go","0"
"pit-trial","165","1075453","0.0-51.0","battery-v0.2","","""event"",""trial"",""time""
""fullscreenenter"",""1"",""2440""
","
","
","""event"",""trial"",""time""
""fullscreenenter"",""1"",""2440""
","
","","","-1","","","24","6192","2712","a","elianto","#f73b6a7A","-1","-1","1","0","[]","0","2","","","6192","47","2","4","lose","no-go","0"
"pit-trial","166","1079068","0.0-52.0","battery-v0.2","","""event"",""trial"",""time""
""fullscreenenter"",""1"",""2440""
","
","
","""event"",""trial"",""time""
""fullscreenenter"",""1"",""2440""
","
","","","748.5","","","24","6192","2712","g","elianto","#f73b6a7A"," "," ","1","0","[1606.5]","1","2","","","6192","48","3","3","lose","go","0"
"pit-trial","167","1082470","0.0-53.0","battery-v0.2","","""event"",""trial"",""time""
""fullscreenenter"",""1"",""2440""
","
","
","""event"",""trial"",""time""
""fullscreenenter"",""1"",""2440""
","
","","","541.6000000238419","","","24","6192","2712","p","elianto","#3366ff99","-1"," ","0","0","[1392.3999999761581]","1","2","","","6192","49","4","2","win","no-go","0"
"pit-trial","168","1086191","0.0-54.0","battery-v0.2","","""event"",""trial"",""time""
""fullscreenenter"",""1"",""2440""
","
","
","""event"",""trial"",""time""
""fullscreenenter"",""1"",""2440""
","
","","","849.6000000238419","","","24","6192","2712","g","elianto","#f73b6a7A"," "," ","1","0","[1710.1000000238419]","1","2","","","6192","50","3","3","lose","go","0"
"pit-trial","169","1091064","0.0-55.0","battery-v0.2","","""event"",""trial"",""time""
""fullscreenenter"",""1"",""2440""
","
","
","""event"",""trial"",""time""
""fullscreenenter"",""1"",""2440""
","
","","","-1","","","24","6192","2712","u","elianto","#f73b6a7A","-1","-1","1","0","[]","0","2","","","6192","51","0","4","lose","no-go","0"
"pit-trial","170","1094638","0.0-56.0","battery-v0.2","","""event"",""trial"",""time""
""fullscreenenter"",""1"",""2440""
","
","
","""event"",""trial"",""time""
""fullscreenenter"",""1"",""2440""
","
","","","709.2000000476837","","","24","6192","2712","l","elianto","#3366ff99"," "," ","1","0","[1562.2000000476837]","1","2","","","6192","52","1","1","win","go","1"
"pit-trial","171","1099508","0.0-57.0","battery-v0.2","","""event"",""trial"",""time""
""fullscreenenter"",""1"",""2440""
","
","
","""event"",""trial"",""time""
""fullscreenenter"",""1"",""2440""
","
","","","-1","","","24","6192","2712","a","elianto","#f73b6a7A","-1","-1","1","0","[]","0","2","","","6192","53","2","4","lose","no-go","0"
"pit-trial","172","1104375","0.0-58.0","battery-v0.2","","""event"",""trial"",""time""
""fullscreenenter"",""1"",""2440""
","
","
","""event"",""trial"",""time""
""fullscreenenter"",""1"",""2440""
","
","","","-1","","","24","6192","2712","u","elianto","#f73b6a7A","-1","-1","1","0","[]","0","2","","","6192","54","0","4","lose","no-go","0"
"pit-trial","173","1107838","0.0-59.0","battery-v0.2","","""event"",""trial"",""time""
""fullscreenenter"",""1"",""2440""
","
","
","""event"",""trial"",""time""
""fullscreenenter"",""1"",""2440""
","
","","","592.6999999880791","","","24","6192","2712","l","elianto","#3366ff99"," "," ","1","+10","[1450.800000011921]","1","2","","","6192","55","1","1","win","go","0"
"pit-trial","174","1111663","0.0-60.0","battery-v0.2","","""event"",""trial"",""time""
""fullscreenenter"",""1"",""2440""
","
","
","""event"",""trial"",""time""
""fullscreenenter"",""1"",""2440""
","
","","","961.5999999642372","","","24","6192","2712","p","elianto","#3366ff99","-1"," ","0","+10","[1815.300000011921]","1","2","","","6192","56","4","2","win","no-go","1"
"pit-trial","175","1115176","0.0-61.0","battery-v0.2","","""event"",""trial"",""time""
""fullscreenenter"",""1"",""2440""
","
","
","""event"",""trial"",""time""
""fullscreenenter"",""1"",""2440""
","
","","","638.2999999523163","","","24","6192","2712","g","elianto","#f73b6a7A"," "," ","1","0","[1498.3999999761581]","1","2","","","6192","57","3","3","lose","go","0"
"pit-trial","176","1118474","0.0-62.0","battery-v0.2","","""event"",""trial"",""time""
""fullscreenenter"",""1"",""2440""
","
","
","""event"",""trial"",""time""
""fullscreenenter"",""1"",""2440""
","
","","","425.39999997615814","","","24","6192","2712","l","elianto","#3366ff99"," "," ","1","0","[1287.5]","1","2","","","6192","58","1","1","win","go","1"
"pit-trial","177","1121945","0.0-63.0","battery-v0.2","","""event"",""trial"",""time""
""fullscreenenter"",""1"",""2440""
","
","
","""event"",""trial"",""time""
""fullscreenenter"",""1"",""2440""
","
","","","600.3000000119209","","","24","6192","2712","p","elianto","#3366ff99","-1"," ","0","0","[1455]","1","2","","","6192","59","4","2","win","no-go","0"
"pit-trial","178","1126815","0.0-64.0","battery-v0.2","","""event"",""trial"",""time""
""fullscreenenter"",""1"",""2440""
","
","
","""event"",""trial"",""time""
""fullscreenenter"",""1"",""2440""
","
","","","-1","","","24","6192","2712","u","elianto","#f73b6a7A","-1","-1","1","0","[]","0","2","","","6192","60","0","4","lose","no-go","0"
"pit-trial","179","1130386","0.0-65.0","battery-v0.2","","""event"",""trial"",""time""
""fullscreenenter"",""1"",""2440""
","
","
","""event"",""trial"",""time""
""fullscreenenter"",""1"",""2440""
","
","","","706.5999999642372","","","24","6192","2712","p","elianto","#3366ff99","-1"," ","0","0","[1557.800000011921]","1","2","","","6192","61","4","2","win","no-go","0"
"pit-trial","180","1133938","0.0-66.0","battery-v0.2","","""event"",""trial"",""time""
""fullscreenenter"",""1"",""2440""
","
","
","""event"",""trial"",""time""
""fullscreenenter"",""1"",""2440""
","
","","","680.1999999880791","","","24","6192","2712","g","elianto","#f73b6a7A"," "," ","1","0","[1537.4000000357628]","1","2","","","6192","62","3","3","lose","go","0"
"pit-trial","181","1138809","0.0-67.0","battery-v0.2","","""event"",""trial"",""time""
""fullscreenenter"",""1"",""2440""
","
","
","""event"",""trial"",""time""
""fullscreenenter"",""1"",""2440""
","
","","","-1","","","24","6192","2712","a","elianto","#f73b6a7A","-1","-1","1","0","[]","0","2","","","6192","63","2","4","lose","no-go","0"
"pit-trial","182","1142120","0.0-68.0","battery-v0.2","","""event"",""trial"",""time""
""fullscreenenter"",""1"",""2440""
","
","
","""event"",""trial"",""time""
""fullscreenenter"",""1"",""2440""
","
","","","438","","","24","6192","2712","l","elianto","#3366ff99"," "," ","1","+10","[1298.699999988079]","1","2","","","6192","64","1","1","win","go","0"
"pit-trial","183","1145682","0.0-69.0","battery-v0.2","","""event"",""trial"",""time""
""fullscreenenter"",""1"",""2440""
","
","
","""event"",""trial"",""time""
""fullscreenenter"",""1"",""2440""
","
","","","688.1999999880791","","","24","6192","2712","l","elianto","#3366ff99"," "," ","1","+10","[1544.7000000476837]","1","2","","","6192","65","1","1","win","go","0"
"pit-trial","184","1150553","0.0-70.0","battery-v0.2","","""event"",""trial"",""time""
""fullscreenenter"",""1"",""2440""
","
","
","""event"",""trial"",""time""
""fullscreenenter"",""1"",""2440""
","
","","","-1","","","24","6192","2712","a","elianto","#f73b6a7A","-1","-1","1","-10","[]","0","2","","","6192","66","2","4","lose","no-go","1"
"pit-trial","185","1154488","0.0-71.0","battery-v0.2","","""event"",""trial"",""time""
""fullscreenenter"",""1"",""2440""
","
","
","""event"",""trial"",""time""
""fullscreenenter"",""1"",""2440""
","
","","","1070.800000011921","","","24","6192","2712","g","elianto","#f73b6a7A"," "," ","1","0","[1925.8999999761581]","1","2","","","6192","67","3","3","lose","go","0"
"pit-trial","186","1159359","0.0-72.0","battery-v0.2","","""event"",""trial"",""time""
""fullscreenenter"",""1"",""2440""
","
","
","""event"",""trial"",""time""
""fullscreenenter"",""1"",""2440""
","
","","","-1","","","24","6192","2712","p","elianto","#3366ff99","-1","-1","1","+10","[]","0","2","","","6192","68","4","2","win","no-go","0"
"pit-trial","187","1162738","0.0-73.0","battery-v0.2","","""event"",""trial"",""time""
""fullscreenenter"",""1"",""2440""
","
","
","""event"",""trial"",""time""
""fullscreenenter"",""1"",""2440""
","
","","","509.10000002384186","","","24","6192","2712","l","elianto","#3366ff99"," "," ","1","+10","[1365.300000011921]","1","2","","","6192","69","1","1","win","go","0"
"pit-trial","188","1167608","0.0-74.0","battery-v0.2","","""event"",""trial"",""time""
""fullscreenenter"",""1"",""2440""
","
","
","""event"",""trial"",""time""
""fullscreenenter"",""1"",""2440""
","
","","","-1","","","24","6192","2712","p","elianto","#3366ff99","-1","-1","1","+10","[]","0","2","","","6192","70","4","2","win","no-go","0"
"pit-trial","189","1171753","0.0-75.0","battery-v0.2","","""event"",""trial"",""time""
""fullscreenenter"",""1"",""2440""
","
","
","""event"",""trial"",""time""
""fullscreenenter"",""1"",""2440""
","
","","","1273.4000000357628","","","24","6192","2712","s","elianto","#3366ff99"," "," ","1","+10","[2133.300000011921]","1","2","","","6192","71","5","1","win","go","0"
"pit-trial","190","1175440","0.0-76.0","battery-v0.2","","""event"",""trial"",""time""
""fullscreenenter"",""1"",""2440""
","
","
","""event"",""trial"",""time""
""fullscreenenter"",""1"",""2440""
","
","","","818","","","24","6192","2712","g","elianto","#f73b6a7A"," "," ","1","0","[1678.300000011921]","1","2","","","6192","72","3","3","lose","go","0"
"pit-trial","191","1180304","0.0-77.0","battery-v0.2","","""event"",""trial"",""time""
""fullscreenenter"",""1"",""2440""
","
","
","""event"",""trial"",""time""
""fullscreenenter"",""1"",""2440""
","
","","","-1","","","24","6192","2712","p","elianto","#3366ff99","-1","-1","1","+10","[]","0","2","","","6192","73","4","2","win","no-go","0"
"pit-trial","192","1183735","0.0-78.0","battery-v0.2","","""event"",""trial"",""time""
""fullscreenenter"",""1"",""2440""
","
","
","""event"",""trial"",""time""
""fullscreenenter"",""1"",""2440""
","
","","","563.1999999880791","","","24","6192","2712","s","elianto","#3366ff99"," "," ","1","+10","[1423.699999988079]","1","2","","","6192","74","5","1","win","go","0"
"pit-trial","193","1187015","0.0-79.0","battery-v0.2","","""event"",""trial"",""time""
""fullscreenenter"",""1"",""2440""
","
","
","""event"",""trial"",""time""
""fullscreenenter"",""1"",""2440""
","
","","","419.0999999642372","","","24","6192","2712","l","elianto","#3366ff99"," "," ","1","0","[1274]","1","2","","","6192","75","1","1","win","go","1"
"pit-trial","194","1190617","0.0-80.0","battery-v0.2","","""event"",""trial"",""time""
""fullscreenenter"",""1"",""2440""
","
","
","""event"",""trial"",""time""
""fullscreenenter"",""1"",""2440""
","
","","","735.0999999642372","","","24","6192","2712","g","elianto","#f73b6a7A"," "," ","1","-10","[1589.699999988079]","1","2","","","6192","76","3","3","lose","go","1"
"pit-trial","195","1195491","0.0-81.0","battery-v0.2","","""event"",""trial"",""time""
""fullscreenenter"",""1"",""2440""
","
","
","""event"",""trial"",""time""
""fullscreenenter"",""1"",""2440""
","
","","","-1","","","24","6192","2712","p","elianto","#3366ff99","-1","-1","1","0","[]","0","2","","","6192","77","4","2","win","no-go","1"
"pit-trial","196","1199113","0.0-82.0","battery-v0.2","","""event"",""trial"",""time""
""fullscreenenter"",""1"",""2440""
","
","
","""event"",""trial"",""time""
""fullscreenenter"",""1"",""2440""
","
","","","753.8999999761581","","","24","6192","2712","g","elianto","#f73b6a7A"," "," ","1","-10","[1614.0999999642372]","1","2","","","6192","78","3","3","lose","go","1"
"pit-trial","197","1202585","0.0-83.0","battery-v0.2","","""event"",""trial"",""time""
""fullscreenenter"",""1"",""2440""
","
","
","""event"",""trial"",""time""
""fullscreenenter"",""1"",""2440""
","
","","","604.6999999880791","","","24","6192","2712","s","elianto","#3366ff99"," "," ","1","0","[1465.300000011921]","1","2","","","6192","79","5","1","win","go","1"
"pit-trial","198","1206903","0.0-84.0","battery-v0.2","","""event"",""trial"",""time""
""fullscreenenter"",""1"",""2440""
","
","
","""event"",""trial"",""time""
""fullscreenenter"",""1"",""2440""
","
","","","1457.3999999761581","","","24","6192","2712","w","elianto","#f73b6a7A","-1"," ","0","-10","[2312.199999988079]","1","2","","","6192","80","6","4","lose","no-go","0"
"pit-trial","199","1210892","0.0-85.0","battery-v0.2","","""event"",""trial"",""time""
""fullscreenenter"",""1"",""2440""
","
","
","""event"",""trial"",""time""
""fullscreenenter"",""1"",""2440""
","
","","","1119.699999988079","","","24","6192","2712","s","elianto","#3366ff99"," "," ","1","0","[1975.7999999523163]","1","2","","","6192","81","5","1","win","go","1"
"pit-trial","200","1215762","0.0-86.0","battery-v0.2","","""event"",""trial"",""time""
""fullscreenenter"",""1"",""2440""
","
","
","""event"",""trial"",""time""
""fullscreenenter"",""1"",""2440""
","
","","","-1","","","24","6192","2712","p","elianto","#3366ff99","-1","-1","1","+10","[]","0","2","","","6192","82","4","2","win","no-go","0"
"pit-trial","201","1220633","0.0-87.0","battery-v0.2","","""event"",""trial"",""time""
""fullscreenenter"",""1"",""2440""
","
","
","""event"",""trial"",""time""
""fullscreenenter"",""1"",""2440""
","
","","","-1","","","24","6192","2712","e","elianto","#f73b6a7A"," ","-1","0","-10","[]","0","2","","","6192","83","7","3","lose","go","0"
"pit-trial","202","1225498","0.0-88.0","battery-v0.2","","""event"",""trial"",""time""
""fullscreenenter"",""1"",""2440""
","
","
","""event"",""trial"",""time""
""fullscreenenter"",""1"",""2440""
","
","","","-1","","","24","6192","2712","w","elianto","#f73b6a7A","-1","-1","1","0","[]","0","2","","","6192","84","6","4","lose","no-go","0"
"pit-trial","203","1228953","0.0-89.0","battery-v0.2","","""event"",""trial"",""time""
""fullscreenenter"",""1"",""2440""
","
","
","""event"",""trial"",""time""
""fullscreenenter"",""1"",""2440""
","
","","","583.3999999761581","","","24","6192","2712","e","elianto","#f73b6a7A"," "," ","1","-10","[1443.2999999523163]","1","2","","","6192","85","7","3","lose","go","1"
"pit-trial","204","1233828","0.0-90.0","battery-v0.2","","""event"",""trial"",""time""
""fullscreenenter"",""1"",""2440""
","
","
","""event"",""trial"",""time""
""fullscreenenter"",""1"",""2440""
","
","","","-1","","","24","6192","2712","p","elianto","#3366ff99","-1","-1","1","+10","[]","0","2","","","6192","86","4","2","win","no-go","0"
"pit-trial","205","1237305","0.0-91.0","battery-v0.2","","""event"",""trial"",""time""
""fullscreenenter"",""1"",""2440""
","
","
","""event"",""trial"",""time""
""fullscreenenter"",""1"",""2440""
","
","","","609.8999999761581","","","24","6192","2712","s","elianto","#3366ff99"," "," ","1","+10","[1468.5]","1","2","","","6192","87","5","1","win","go","0"
"pit-trial","206","1242170","0.0-92.0","battery-v0.2","","""event"",""trial"",""time""
""fullscreenenter"",""1"",""2440""
","
","
","""event"",""trial"",""time""
""fullscreenenter"",""1"",""2440""
","
","","","-1","","","24","6192","2712","w","elianto","#f73b6a7A","-1","-1","1","0","[]","0","2","","","6192","88","6","4","lose","no-go","0"
"pit-trial","207","1245972","0.0-93.0","battery-v0.2","","""event"",""trial"",""time""
""fullscreenenter"",""1"",""2440""
","
","
","""event"",""trial"",""time""
""fullscreenenter"",""1"",""2440""
","
","","","933.6999999880791","","","24","6192","2712","e","elianto","#f73b6a7A"," "," ","1","-10","[1787.6000000238419]","1","2","","","6192","89","7","3","lose","go","1"
"pit-trial","208","1250843","0.0-94.0","battery-v0.2","","""event"",""trial"",""time""
""fullscreenenter"",""1"",""2440""
","
","
","""event"",""trial"",""time""
""fullscreenenter"",""1"",""2440""
","
","","","-1","","","24","6192","2712","w","elianto","#f73b6a7A","-1","-1","1","0","[]","0","2","","","6192","90","6","4","lose","no-go","0"
"pit-trial","209","1255713","0.0-95.0","battery-v0.2","","""event"",""trial"",""time""
""fullscreenenter"",""1"",""2440""
","
","
","""event"",""trial"",""time""
""fullscreenenter"",""1"",""2440""
","
","","","-1","","","24","6192","2712","p","elianto","#3366ff99","-1","-1","1","+10","[]","0","2","","","6192","91","4","2","win","no-go","0"
"pit-trial","210","1259579","0.0-96.0","battery-v0.2","","""event"",""trial"",""time""
""fullscreenenter"",""1"",""2440""
","
","
","""event"",""trial"",""time""
""fullscreenenter"",""1"",""2440""
","
","","","1001.3000000119209","","","24","6192","2712","s","elianto","#3366ff99"," "," ","1","+10","[1855.7000000476837]","1","2","","","6192","92","5","1","win","go","0"
"pit-trial","211","1264453","0.0-97.0","battery-v0.2","","""event"",""trial"",""time""
""fullscreenenter"",""1"",""2440""
","
","
","""event"",""trial"",""time""
""fullscreenenter"",""1"",""2440""
","
","","","-1","","","24","6192","2712","w","elianto","#f73b6a7A","-1","-1","1","0","[]","0","2","","","6192","93","6","4","lose","no-go","0"
"pit-trial","212","1268078","0.0-98.0","battery-v0.2","","""event"",""trial"",""time""
""fullscreenenter"",""1"",""2440""
","
","
","""event"",""trial"",""time""
""fullscreenenter"",""1"",""2440""
","
","","","751.9000000357628","","","24","6192","2712","s","elianto","#3366ff99"," "," ","1","+10","[1609.9000000357628]","1","2","","","6192","94","5","1","win","go","0"
"pit-trial","213","1272949","0.0-99.0","battery-v0.2","","""event"",""trial"",""time""
""fullscreenenter"",""1"",""2440""
","
","
","""event"",""trial"",""time""
""fullscreenenter"",""1"",""2440""
","
","","","-1","","","24","6192","2712","e","elianto","#f73b6a7A"," ","-1","0","0","[]","0","2","","","6192","95","7","3","lose","go","1"
"pit-trial","214","1277186","0.0-100.0","battery-v0.2","","""event"",""trial"",""time""
""fullscreenenter"",""1"",""2440""
","
","
","""event"",""trial"",""time""
""fullscreenenter"",""1"",""2440""
","
","","","1365.5999999642372","","","24","6192","2712","d","elianto","#3366ff99","-1"," ","0","0","[2225.699999988079]","1","2","","","6192","96","8","2","win","no-go","0"
"pit-trial","215","1280814","0.0-101.0","battery-v0.2","","""event"",""trial"",""time""
""fullscreenenter"",""1"",""2440""
","
","
","""event"",""trial"",""time""
""fullscreenenter"",""1"",""2440""
","
","","","756.1999999880791","","","24","6192","2712","s","elianto","#3366ff99"," "," ","1","+10","[1610.7999999523163]","1","2","","","6192","97","5","1","win","go","0"
"pit-trial","216","1285685","0.0-102.0","battery-v0.2","","""event"",""trial"",""time""
""fullscreenenter"",""1"",""2440""
","
","
","""event"",""trial"",""time""
""fullscreenenter"",""1"",""2440""
","
","","","-1","","","24","6192","2712","d","elianto","#3366ff99","-1","-1","1","+10","[]","0","2","","","6192","98","8","2","win","no-go","0"
"pit-trial","217","1290556","0.0-103.0","battery-v0.2","","""event"",""trial"",""time""
""fullscreenenter"",""1"",""2440""
","
","
","""event"",""trial"",""time""
""fullscreenenter"",""1"",""2440""
","
","","","-1","","","24","6192","2712","e","elianto","#f73b6a7A"," ","-1","0","-10","[]","0","2","","","6192","99","7","3","lose","go","0"
"pit-trial","218","1295426","0.0-104.0","battery-v0.2","","""event"",""trial"",""time""
""fullscreenenter"",""1"",""2440""
","
","
","""event"",""trial"",""time""
""fullscreenenter"",""1"",""2440""
","
","","","-1","","","24","6192","2712","w","elianto","#f73b6a7A","-1","-1","1","0","[]","0","2","","","6192","100","6","4","lose","no-go","0"
"pit-trial","219","1298927","0.0-105.0","battery-v0.2","","""event"",""trial"",""time""
""fullscreenenter"",""1"",""2440""
","
","
","""event"",""trial"",""time""
""fullscreenenter"",""1"",""2440""
","
","","","635.1999999880791","","","24","6192","2712","s","elianto","#3366ff99"," "," ","1","0","[1487.300000011921]","1","2","","","6192","101","5","1","win","go","1"
"pit-trial","220","1302892","0.0-106.0","battery-v0.2","","""event"",""trial"",""time""
""fullscreenenter"",""1"",""2440""
","
","
","""event"",""trial"",""time""
""fullscreenenter"",""1"",""2440""
","
","","","1098.699999988079","","","24","6192","2712","j","elianto","#3366ff99","-1"," ","0","0","[1953.4000000357628]","1","2","","","6192","102","9","2","win","no-go","0"
"pit-trial","221","1307762","0.0-107.0","battery-v0.2","","""event"",""trial"",""time""
""fullscreenenter"",""1"",""2440""
","
","
","""event"",""trial"",""time""
""fullscreenenter"",""1"",""2440""
","
","","","-1","","","24","6192","2712","w","elianto","#f73b6a7A","-1","-1","1","0","[]","0","2","","","6192","103","6","4","lose","no-go","0"
"pit-trial","222","1312627","0.0-108.0","battery-v0.2","","""event"",""trial"",""time""
""fullscreenenter"",""1"",""2440""
","
","
","""event"",""trial"",""time""
""fullscreenenter"",""1"",""2440""
","
","","","-1","","","24","6192","2712","d","elianto","#3366ff99","-1","-1","1","+10","[3032.300000011921]","1","2","","","6192","104","8","2","win","no-go","0"
"pit-trial","223","1316075","0.0-109.0","battery-v0.2","","""event"",""trial"",""time""
""fullscreenenter"",""1"",""2440""
","
","
","""event"",""trial"",""time""
""fullscreenenter"",""1"",""2440""
","
","","","584.8999999761581","","","24","6192","2712","s","elianto","#3366ff99"," "," ","1","+10","[1439.8999999761581]","1","2","","","6192","105","5","1","win","go","0"
"pit-trial","224","1320797","0.0-110.0","battery-v0.2","","""event"",""trial"",""time""
""fullscreenenter"",""1"",""2440""
","
","
","""event"",""trial"",""time""
""fullscreenenter"",""1"",""2440""
","
","","","1851.7999999523163","","","24","6192","2712","j","elianto","#3366ff99","-1"," ","0","0","[2707.599999964237]","1","2","","","6192","106","9","2","win","no-go","0"
"pit-trial","225","1325671","0.0-111.0","battery-v0.2","","""event"",""trial"",""time""
""fullscreenenter"",""1"",""2440""
","
","
","""event"",""trial"",""time""
""fullscreenenter"",""1"",""2440""
","
","","","-1","","","24","6192","2712","d","elianto","#3366ff99","-1","-1","1","+10","[]","0","2","","","6192","107","8","2","win","no-go","0"
"pit-trial","226","1330542","0.0-112.0","battery-v0.2","","""event"",""trial"",""time""
""fullscreenenter"",""1"",""2440""
","
","
","""event"",""trial"",""time""
""fullscreenenter"",""1"",""2440""
","
","","","-1","","","24","6192","2712","w","elianto","#f73b6a7A","-1","-1","1","-10","[]","0","2","","","6192","108","6","4","lose","no-go","1"
"pit-trial","227","1334031","0.0-113.0","battery-v0.2","","""event"",""trial"",""time""
""fullscreenenter"",""1"",""2440""
","
","
","""event"",""trial"",""time""
""fullscreenenter"",""1"",""2440""
","
","","","620.2999999523163","","","24","6192","2712","s","elianto","#3366ff99"," "," ","1","+10","[1477]","1","2","","","6192","109","5","1","win","go","0"
"pit-trial","228","1338901","0.0-114.0","battery-v0.2","","""event"",""trial"",""time""
""fullscreenenter"",""1"",""2440""
","
","
","""event"",""trial"",""time""
""fullscreenenter"",""1"",""2440""
","
","","","-1","","","24","6192","2712","j","elianto","#3366ff99","-1","-1","1","+10","[]","0","2","","","6192","110","9","2","win","no-go","0"
"pit-trial","229","1343766","0.0-115.0","battery-v0.2","","""event"",""trial"",""time""
""fullscreenenter"",""1"",""2440""
","
","
","""event"",""trial"",""time""
""fullscreenenter"",""1"",""2440""
","
","","","-1","","","24","6192","2712","d","elianto","#3366ff99","-1","-1","1","+10","[]","0","2","","","6192","111","8","2","win","no-go","0"
"pit-trial","230","1348631","0.0-116.0","battery-v0.2","","""event"",""trial"",""time""
""fullscreenenter"",""1"",""2440""
","
","
","""event"",""trial"",""time""
""fullscreenenter"",""1"",""2440""
","
","","","-1","","","24","6192","2712","w","elianto","#f73b6a7A","-1","-1","1","0","[]","0","2","","","6192","112","6","4","lose","no-go","0"
"pit-trial","231","1353501","0.0-117.0","battery-v0.2","","""event"",""trial"",""time""
""fullscreenenter"",""1"",""2440""
","
","
","""event"",""trial"",""time""
""fullscreenenter"",""1"",""2440""
","
","","","-1","","","24","6192","2712","j","elianto","#3366ff99","-1","-1","1","+10","[]","0","2","","","6192","113","9","2","win","no-go","0"
"pit-trial","232","1358373","0.0-118.0","battery-v0.2","","""event"",""trial"",""time""
""fullscreenenter"",""1"",""2440""
","
","
","""event"",""trial"",""time""
""fullscreenenter"",""1"",""2440""
","
","","","-1","","","24","6192","2712","e","elianto","#f73b6a7A"," ","-1","0","-10","[]","0","2","","","6192","114","7","3","lose","go","0"
"pit-trial","233","1363231","0.0-119.0","battery-v0.2","","""event"",""trial"",""time""
""fullscreenenter"",""1"",""2440""
","
","
","""event"",""trial"",""time""
""fullscreenenter"",""1"",""2440""
","
","","","-1","","","24","6192","2712","d","elianto","#3366ff99","-1","-1","1","+10","[]","0","2","","","6192","115","8","2","win","no-go","0"
"pit-trial","234","1366725","0.0-120.0","battery-v0.2","","""event"",""trial"",""time""
""fullscreenenter"",""1"",""2440""
","
","
","""event"",""trial"",""time""
""fullscreenenter"",""1"",""2440""
","
","","","626.6999999880791","","","24","6192","2712","s","elianto","#3366ff99"," "," ","1","+10","[1482.199999988079]","1","2","","","6192","116","5","1","win","go","0"
"pit-trial","235","1370400","0.0-121.0","battery-v0.2","","""event"",""trial"",""time""
""fullscreenenter"",""1"",""2440""
","
","
","""event"",""trial"",""time""
""fullscreenenter"",""1"",""2440""
","
","","","807.5","","","24","6192","2712","s","elianto","#3366ff99"," "," ","1","+10","[1662.6000000238419]","1","2","","","6192","117","5","1","win","go","0"
"pit-trial","236","1375270","0.0-122.0","battery-v0.2","","""event"",""trial"",""time""
""fullscreenenter"",""1"",""2440""
","
","
","""event"",""trial"",""time""
""fullscreenenter"",""1"",""2440""
","
","","","-1","","","24","6192","2712","w","elianto","#f73b6a7A","-1","-1","1","0","[]","0","2","","","6192","118","6","4","lose","no-go","0"
"pit-trial","237","1380141","0.0-123.0","battery-v0.2","","""event"",""trial"",""time""
""fullscreenenter"",""1"",""2440""
","
","
","""event"",""trial"",""time""
""fullscreenenter"",""1"",""2440""
","
","","","-1","","","24","6192","2712","j","elianto","#3366ff99","-1","-1","1","+10","[]","0","2","","","6192","119","9","2","win","no-go","0"
"pit-trial","238","1385008","0.0-124.0","battery-v0.2","","""event"",""trial"",""time""
""fullscreenenter"",""1"",""2440""
","
","
","""event"",""trial"",""time""
""fullscreenenter"",""1"",""2440""
","
","","","-1","","","24","6192","2712","d","elianto","#3366ff99","-1","-1","1","+10","[]","0","2","","","6192","120","8","2","win","no-go","0"
"pit-trial","239","1389017","0.0-125.0","battery-v0.2","","""event"",""trial"",""time""
""fullscreenenter"",""1"",""2440""
","
","
","""event"",""trial"",""time""
""fullscreenenter"",""1"",""2440""
","
","","","1135.8999999761581","","","24","6192","2712","s","elianto","#3366ff99"," "," ","1","0","[1995.1000000238419]","1","2","","","6192","121","5","1","win","go","1"
"pit-trial","240","1393888","0.0-126.0","battery-v0.2","","""event"",""trial"",""time""
""fullscreenenter"",""1"",""2440""
","
","
","""event"",""trial"",""time""
""fullscreenenter"",""1"",""2440""
","
","","","-1","","","24","6192","2712","j","elianto","#3366ff99","-1","-1","1","+10","[]","0","2","","","6192","122","9","2","win","no-go","0"
"pit-trial","241","1398759","0.0-127.0","battery-v0.2","","""event"",""trial"",""time""
""fullscreenenter"",""1"",""2440""
","
","
","""event"",""trial"",""time""
""fullscreenenter"",""1"",""2440""
","
","","","-1","","","24","6192","2712","d","elianto","#3366ff99","-1","-1","1","+10","[]","0","2","","","6192","123","8","2","win","no-go","0"
"pit-trial","242","1403623","0.0-128.0","battery-v0.2","","""event"",""trial"",""time""
""fullscreenenter"",""1"",""2440""
","
","
","""event"",""trial"",""time""
""fullscreenenter"",""1"",""2440""
","
","","","-1","","","24","6192","2712","e","elianto","#f73b6a7A"," ","-1","0","-10","[]","0","2","","","6192","124","7","3","lose","go","0"
"pit-trial","243","1407176","0.0-129.0","battery-v0.2","","""event"",""trial"",""time""
""fullscreenenter"",""1"",""2440""
","
","
","""event"",""trial"",""time""
""fullscreenenter"",""1"",""2440""
","
","","","683.8000000119209","","","24","6192","2712","e","elianto","#f73b6a7A"," "," ","1","0","[1544]","1","2","","","6192","125","7","3","lose","go","0"
"pit-trial","244","1412046","0.0-130.0","battery-v0.2","","""event"",""trial"",""time""
""fullscreenenter"",""1"",""2440""
","
","
","""event"",""trial"",""time""
""fullscreenenter"",""1"",""2440""
","
","","","-1","","","24","6192","2712","j","elianto","#3366ff99","-1","-1","1","+10","[]","0","2","","","6192","126","9","2","win","no-go","0"
"pit-trial","245","1416911","0.0-131.0","battery-v0.2","","""event"",""trial"",""time""
""fullscreenenter"",""1"",""2440""
","
","
","""event"",""trial"",""time""
""fullscreenenter"",""1"",""2440""
","
","","","-1","","","24","6192","2712","w","elianto","#f73b6a7A","-1","-1","1","0","[]","0","2","","","6192","127","6","4","lose","no-go","0"
"pit-trial","246","1421776","0.0-132.0","battery-v0.2","","""event"",""trial"",""time""
""fullscreenenter"",""1"",""2440""
","
","
","""event"",""trial"",""time""
""fullscreenenter"",""1"",""2440""
","
","","","-1","","","24","6192","2712","d","elianto","#3366ff99","-1","-1","1","+10","[]","0","2","","","6192","128","8","2","win","no-go","0"
"pit-trial","247","1425298","0.0-133.0","battery-v0.2","","""event"",""trial"",""time""
""fullscreenenter"",""1"",""2440""
","
","
","""event"",""trial"",""time""
""fullscreenenter"",""1"",""2440""
","
","","","650.0999999642372","","","24","6192","2712","e","elianto","#f73b6a7A"," "," ","1","0","[1510.5999999642372]","1","2","","","6192","129","7","3","lose","go","0"
"pit-trial","248","1430170","0.0-134.0","battery-v0.2","","""event"",""trial"",""time""
""fullscreenenter"",""1"",""2440""
","
","
","""event"",""trial"",""time""
""fullscreenenter"",""1"",""2440""
","
","","","-1","","","24","6192","2712","j","elianto","#3366ff99","-1","-1","1","+10","[]","0","2","","","6192","130","9","2","win","no-go","0"
"pit-trial","249","1435040","0.0-135.0","battery-v0.2","","""event"",""trial"",""time""
""fullscreenenter"",""1"",""2440""
","
","
","""event"",""trial"",""time""
""fullscreenenter"",""1"",""2440""
","
","","","-1","","","24","6192","2712","d","elianto","#3366ff99","-1","-1","1","+10","[]","0","2","","","6192","131","8","2","win","no-go","0"
"pit-trial","250","1439905","0.0-136.0","battery-v0.2","","""event"",""trial"",""time""
""fullscreenenter"",""1"",""2440""
","
","
","""event"",""trial"",""time""
""fullscreenenter"",""1"",""2440""
","
","","","-1","","","24","6192","2712","w","elianto","#f73b6a7A","-1","-1","1","-10","[]","0","2","","","6192","132","6","4","lose","no-go","1"
"pit-trial","251","1444776","0.0-137.0","battery-v0.2","","""event"",""trial"",""time""
""fullscreenenter"",""1"",""2440""
","
","
","""event"",""trial"",""time""
""fullscreenenter"",""1"",""2440""
","
","","","-1","","","24","6192","2712","d","elianto","#3366ff99","-1","-1","1","+10","[]","0","2","","","6192","133","8","2","win","no-go","0"
"pit-trial","252","1449513","0.0-138.0","battery-v0.2","","""event"",""trial"",""time""
""fullscreenenter"",""1"",""2440""
","
","
","""event"",""trial"",""time""
""fullscreenenter"",""1"",""2440""
","
","","","1871.3999999761581","","","24","6192","2712","e","elianto","#f73b6a7A"," "," ","1","0","[2726.300000011921]","1","2","","","6192","134","7","3","lose","go","0"
"pit-trial","253","1454384","0.0-139.0","battery-v0.2","","""event"",""trial"",""time""
""fullscreenenter"",""1"",""2440""
","
","
","""event"",""trial"",""time""
""fullscreenenter"",""1"",""2440""
","
","","","-1","","","24","6192","2712","w","elianto","#f73b6a7A","-1","-1","1","-10","[]","0","2","","","6192","135","6","4","lose","no-go","1"
"pit-trial","254","1459248","0.0-140.0","battery-v0.2","","""event"",""trial"",""time""
""fullscreenenter"",""1"",""2440""
","
","
","""event"",""trial"",""time""
""fullscreenenter"",""1"",""2440""
","
","","","-1","","","24","6192","2712","j","elianto","#3366ff99","-1","-1","1","+10","[]","0","2","","","6192","136","9","2","win","no-go","0"
"pit-trial","255","1464113","0.0-141.0","battery-v0.2","","""event"",""trial"",""time""
""fullscreenenter"",""1"",""2440""
","
","
","""event"",""trial"",""time""
""fullscreenenter"",""1"",""2440""
","
","","","-1","","","24","6192","2712","j","elianto","#3366ff99","-1","-1","1","+10","[]","0","2","","","6192","137","9","2","win","no-go","0"
"pit-trial","256","1468986","0.0-142.0","battery-v0.2","","""event"",""trial"",""time""
""fullscreenenter"",""1"",""2440""
","
","
","""event"",""trial"",""time""
""fullscreenenter"",""1"",""2440""
","
","","","-1","","","24","6192","2712","w","elianto","#f73b6a7A","-1","-1","1","0","[]","0","2","","","6192","138","6","4","lose","no-go","0"
"pit-trial","257","1472746","0.0-143.0","battery-v0.2","","""event"",""trial"",""time""
""fullscreenenter"",""1"",""2440""
","
","
","""event"",""trial"",""time""
""fullscreenenter"",""1"",""2440""
","
","","","886.6999999880791","","","24","6192","2712","e","elianto","#f73b6a7A"," "," ","1","0","[1744.800000011921]","1","2","","","6192","139","7","3","lose","go","0"
"pit-trial","258","1477615","0.0-144.0","battery-v0.2","","""event"",""trial"",""time""
""fullscreenenter"",""1"",""2440""
","
","
","""event"",""trial"",""time""
""fullscreenenter"",""1"",""2440""
","
","","","-1","","","24","6192","2712","d","elianto","#3366ff99","-1","-1","1","+10","[]","0","2","","","6192","140","8","2","win","no-go","0"
"pit-instructions","259","1518209","0.0-145.0","battery-v0.2","","""event"",""trial"",""time""
""fullscreenenter"",""1"",""2440""
","
","
","""event"",""trial"",""time""
""fullscreenenter"",""1"",""2440""
","
","","[{""page_index"":0,""viewing_time"":31549.100000023842},{""page_index"":1,""viewing_time"":9038.599999964237}]","40588","","","","","","","","","","","","","","","","","","","","","","","",""
"pit-trial","260","1522282","0.0-146.0","battery-v0.2","","""event"",""trial"",""time""
""fullscreenenter"",""1"",""2440""
","
","
","""event"",""trial"",""time""
""fullscreenenter"",""1"",""2440""
","
","","","1213.800000011921","","","24","6192","2712","n","elianto","#f73b6a7A"," "," ","1","-10","[2065.699999988079]","1","3","","","6192","141","0","3","lose","go","1"
"pit-trial","261","1525969","0.0-147.0","battery-v0.2","","""event"",""trial"",""time""
""fullscreenenter"",""1"",""2440""
","
","
","""event"",""trial"",""time""
""fullscreenenter"",""1"",""2440""
","
","","","821.7999999523163","","","24","6192","2712","f","elianto","#3366ff99","-1"," ","0","0","[1676.4000000357628]","1","3","","","6192","142","1","2","win","no-go","0"
"pit-trial","262","1530834","0.0-148.0","battery-v0.2","","""event"",""trial"",""time""
""fullscreenenter"",""1"",""2440""
","
","
","""event"",""trial"",""time""
""fullscreenenter"",""1"",""2440""
","
","","","-1","","","24","6192","2712","b","elianto","#f73b6a7A","-1","-1","1","0","[]","0","3","","","6192","143","3","4","lose","no-go","0"
"pit-trial","263","1535698","0.0-149.0","battery-v0.2","","""event"",""trial"",""time""
""fullscreenenter"",""1"",""2440""
","
","
","""event"",""trial"",""time""
""fullscreenenter"",""1"",""2440""
","
","","","-1","","","24","6192","2712","t","elianto","#f73b6a7A"," ","-1","0","0","[]","0","3","","","6192","144","2","3","lose","go","1"
"pit-trial","264","1540563","0.0-150.0","battery-v0.2","","""event"",""trial"",""time""
""fullscreenenter"",""1"",""2440""
","
","
","""event"",""trial"",""time""
""fullscreenenter"",""1"",""2440""
","
","","","-1","","","24","6192","2712","t","elianto","#f73b6a7A"," ","-1","0","-10","[]","0","3","","","6192","145","2","3","lose","go","0"
"pit-trial","265","1545434","0.0-151.0","battery-v0.2","","""event"",""trial"",""time""
""fullscreenenter"",""1"",""2440""
","
","
","""event"",""trial"",""time""
""fullscreenenter"",""1"",""2440""
","
","","","-1","","","24","6192","2712","f","elianto","#3366ff99","-1","-1","1","+10","[]","0","3","","","6192","146","1","2","win","no-go","0"
"pit-trial","266","1550299","0.0-152.0","battery-v0.2","","""event"",""trial"",""time""
""fullscreenenter"",""1"",""2440""
","
","
","""event"",""trial"",""time""
""fullscreenenter"",""1"",""2440""
","
","","","-1","","","24","6192","2712","b","elianto","#f73b6a7A","-1","-1","1","0","[]","0","3","","","6192","147","3","4","lose","no-go","0"
"pit-trial","267","1555164","0.0-153.0","battery-v0.2","","""event"",""trial"",""time""
""fullscreenenter"",""1"",""2440""
","
","
","""event"",""trial"",""time""
""fullscreenenter"",""1"",""2440""
","
","","","-1","","","24","6192","2712","n","elianto","#f73b6a7A"," ","-1","0","-10","[]","0","3","","","6192","148","0","3","lose","go","0"
"pit-trial","268","1560034","0.0-154.0","battery-v0.2","","""event"",""trial"",""time""
""fullscreenenter"",""1"",""2440""
","
","
","""event"",""trial"",""time""
""fullscreenenter"",""1"",""2440""
","
