"trial_type","trial_index","time_elapsed","internal_node_id","task_version","subject_id","interactions","blur_events","focus_events","fullscreenenter_events","fullscreenexit_events","success","view_history","rt","responses","num_errors","age","subject","participantId","rune","rune_set","hex","correct","choice","accuracy","outcome","keys","total_keys","block","practice","value","sub","trial","stimulus","robot","valence","action","sham"
"pavlovia","0","6","0.0-0.0","battery-v0.2","","""event"",""trial"",""time""
""fullscreenenter"",""1"",""1451""
""fullscreenenter"",""1"",""1452""
","
","
","""event"",""trial"",""time""
""fullscreenenter"",""1"",""1451""
""fullscreenenter"",""1"",""1452""
","
","","","","","","","","","","","","","","","","","","","","","","","","","","",""
"fullscreen","1","2410","0.0-1.0","battery-v0.2","","""event"",""trial"",""time""
""fullscreenenter"",""1"",""1451""
""fullscreenenter"",""1"",""1452""
","
","
","""event"",""trial"",""time""
""fullscreenenter"",""1"",""1451""
""fullscreenenter"",""1"",""1452""
","
","true","","","","","","","","","","","","","","","","","","","","","","","","","",""
"pit-instructions","2","6289","0.0-2.0-0.0","battery-v0.2","","""event"",""trial"",""time""
""fullscreenenter"",""1"",""1451""
""fullscreenenter"",""1"",""1452""
","
","
","""event"",""trial"",""time""
""fullscreenenter"",""1"",""1451""
""fullscreenenter"",""1"",""1452""
","
","","[{""page_index"":0,""viewing_time"":3872}]","3873","","","","","","","","","","","","","","","","","","","","","","","",""
"pit-comprehension","3","9446","0.0-2.0-1.0-0.0","battery-v0.2","","""event"",""trial"",""time""
""fullscreenenter"",""1"",""1451""
""fullscreenenter"",""1"",""1452""
","
","
","""event"",""trial"",""time""
""fullscreenenter"",""1"",""1451""
""fullscreenenter"",""1"",""1452""
","
","","","3113.000000000001","[""shark""]","0","18","13748","5980","","","","","","","","","","","","","","","","","","",""
"pit-instructions","4","10690","0.0-2.0-1.0-1.0","battery-v0.2","","""event"",""trial"",""time""
""fullscreenenter"",""1"",""1451""
""fullscreenenter"",""1"",""1452""
","
","
","""event"",""trial"",""time""
""fullscreenenter"",""1"",""1451""
""fullscreenenter"",""1"",""1452""
","
","","[{""page_index"":0,""viewing_time"":1239}]","1240","","","","","","","","","","","","","","","","","","","","","","","",""
"pit-comprehension","5","12476","0.0-2.0-2.0-0.0","battery-v0.2","","""event"",""trial"",""time""
""fullscreenenter"",""1"",""1451""
""fullscreenenter"",""1"",""1452""
","
","
","""event"",""trial"",""time""
""fullscreenenter"",""1"",""1451""
""fullscreenenter"",""1"",""1452""
","
","","","1784","[""tiger""]","0","18","13748","5980","","","","","","","","","","","","","","","","","","",""
"pit-instructions","6","13674","0.0-2.0-2.0-1.0","battery-v0.2","","""event"",""trial"",""time""
""fullscreenenter"",""1"",""1451""
""fullscreenenter"",""1"",""1452""
","
","
","""event"",""trial"",""time""
""fullscreenenter"",""1"",""1451""
""fullscreenenter"",""1"",""1452""
","
","","[{""page_index"":0,""viewing_time"":1194}]","1195","","","","","","","","","","","","","","","","","","","","","","","",""
"pit-instructions","7","271609","0.0-2.0-3.0","battery-v0.2","","""event"",""trial"",""time""
""fullscreenenter"",""1"",""1451""
""fullscreenenter"",""1"",""1452""
","
","
","""event"",""trial"",""time""
""fullscreenenter"",""1"",""1451""
""fullscreenenter"",""1"",""1452""
","
","","[{""page_index"":0,""viewing_time"":7950},{""page_index"":1,""viewing_time"":5766},{""page_index"":2,""viewing_time"":6568},{""page_index"":3,""viewing_time"":5101},{""page_index"":4,""viewing_time"":6367},{""page_index"":5,""viewing_time"":5251},{""page_index"":6,""viewing_time"":7570},{""page_index"":7,""viewing_time"":6215},{""page_index"":8,""viewing_time"":7634},{""page_index"":9,""viewing_time"":11968},{""page_index"":10,""viewing_time"":7918},{""page_index"":11,""viewing_time"":12652},{""page_index"":12,""viewing_time"":154203.00000000003},{""page_index"":11,""viewing_time"":2117.999999999971},{""page_index"":12,""viewing_time"":4734},{""page_index"":13,""viewing_time"":5918}]","257936","","","","","","","","","","","","","","","","","","","","","","","",""
"pit-trial","8","274933","0.0-2.0-4.0-0.0","battery-v0.2","","""event"",""trial"",""time""
""fullscreenenter"",""1"",""1451""
""fullscreenenter"",""1"",""1452""
","
","
","""event"",""trial"",""time""
""fullscreenenter"",""1"",""1451""
""fullscreenenter"",""1"",""1452""
","
","","","465","","","18","13748","5980","&#9784;","elianto","#FFFFF080"," "," ","1","&#10004","[1316]","1","0","0","","","","","","","",""
"pit-trial","9","278587","0.0-2.0-4.1-0.1","battery-v0.2","","""event"",""trial"",""time""
""fullscreenenter"",""1"",""1451""
""fullscreenenter"",""1"",""1452""
","
","
","""event"",""trial"",""time""
""fullscreenenter"",""1"",""1451""
""fullscreenenter"",""1"",""1452""
","
","","","795","","","18","13748","5980","&#9784;","elianto","#FFFFF080"," "," ","1","&#10004","[1646]","1","0","0","","","","","","","",""
"pit-trial","10","282000","0.0-2.0-4.2-0.2","battery-v0.2","","""event"",""trial"",""time""
""fullscreenenter"",""1"",""1451""
""fullscreenenter"",""1"",""1452""
","
","
","""event"",""trial"",""time""
""fullscreenenter"",""1"",""1451""
""fullscreenenter"",""1"",""1452""
","
","","","557","","","18","13748","5980","&#9784;","elianto","#FFFFF080"," "," ","1","&#10004","[1407]","1","0","0","","","","","","","",""
"pit-trial","11","285342","0.0-2.0-4.3-0.3","battery-v0.2","","""event"",""trial"",""time""
""fullscreenenter"",""1"",""1451""
""fullscreenenter"",""1"",""1452""
","
","
","""event"",""trial"",""time""
""fullscreenenter"",""1"",""1451""
""fullscreenenter"",""1"",""1452""
","
","","","486","","","18","13748","5980","&#9784;","elianto","#FFFFF080"," "," ","1","&#10004","[1336]","1","0","0","","","","","","","",""
"pit-trial","12","288723","0.0-2.0-4.4-0.4","battery-v0.2","","""event"",""trial"",""time""
""fullscreenenter"",""1"",""1451""
""fullscreenenter"",""1"",""1452""
","
","
","""event"",""trial"",""time""
""fullscreenenter"",""1"",""1451""
""fullscreenenter"",""1"",""1452""
","
","","","524","","","18","13748","5980","&#9784;","elianto","#FFFFF080"," "," ","1","&#10004","[1375]","1","0","0","","","","","","","",""
"pit-instructions","13","312462","0.0-2.0-5.0","battery-v0.2","","""event"",""trial"",""time""
""fullscreenenter"",""1"",""1451""
""fullscreenenter"",""1"",""1452""
","
","
","""event"",""trial"",""time""
""fullscreenenter"",""1"",""1451""
""fullscreenenter"",""1"",""1452""
","
","","[{""page_index"":0,""viewing_time"":5525},{""page_index"":1,""viewing_time"":5558},{""page_index"":2,""viewing_time"":6864},{""page_index"":3,""viewing_time"":5782.000000000058}]","23730","","","","","","","","","","","","","","","","","","","","","","","",""
"pit-trial","14","317317","0.0-2.0-6.0-0.0","battery-v0.2","","""event"",""trial"",""time""
""fullscreenenter"",""1"",""1451""
""fullscreenenter"",""1"",""1452""
","
","
","""event"",""trial"",""time""
""fullscreenenter"",""1"",""1451""
""fullscreenenter"",""1"",""1452""
","
","","","-1","","","18","13748","5980","&#9854;","elianto","#FFFFF080","-1","-1","1","&#10004","[]","0","0","1","","","","","","","",""
"pit-trial","15","322172","0.0-2.0-6.1-0.1","battery-v0.2","","""event"",""trial"",""time""
""fullscreenenter"",""1"",""1451""
""fullscreenenter"",""1"",""1452""
","
","
","""event"",""trial"",""time""
""fullscreenenter"",""1"",""1451""
""fullscreenenter"",""1"",""1452""
","
","","","-1","","","18","13748","5980","&#9854;","elianto","#FFFFF080","-1","-1","1","&#10004","[]","0","0","1","","","","","","","",""
"pit-trial","16","327029","0.0-2.0-6.2-0.2","battery-v0.2","","""event"",""trial"",""time""
""fullscreenenter"",""1"",""1451""
""fullscreenenter"",""1"",""1452""
","
","
","""event"",""trial"",""time""
""fullscreenenter"",""1"",""1451""
""fullscreenenter"",""1"",""1452""
","
","","","-1","","","18","13748","5980","&#9854;","elianto","#FFFFF080","-1","-1","1","&#10004","[]","0","0","1","","","","","","","",""
"pit-trial","17","331886","0.0-2.0-6.3-0.3","battery-v0.2","","""event"",""trial"",""time""
""fullscreenenter"",""1"",""1451""
""fullscreenenter"",""1"",""1452""
","
","
","""event"",""trial"",""time""
""fullscreenenter"",""1"",""1451""
""fullscreenenter"",""1"",""1452""
","
","","","-1","","","18","13748","5980","&#9854;","elianto","#FFFFF080","-1","-1","1","&#10004","[]","0","0","1","","","","","","","",""
"pit-trial","18","336742","0.0-2.0-6.4-0.4","battery-v0.2","","""event"",""trial"",""time""
""fullscreenenter"",""1"",""1451""
""fullscreenenter"",""1"",""1452""
","
","
","""event"",""trial"",""time""
""fullscreenenter"",""1"",""1451""
""fullscreenenter"",""1"",""1452""
","
","","","-1","","","18","13748","5980","&#9854;","elianto","#FFFFF080","-1","-1","1","&#10004","[]","0","0","1","","","","","","","",""
"pit-instructions","19","460129","0.0-2.0-7.0","battery-v0.2","","""event"",""trial"",""time""
""fullscreenenter"",""1"",""1451""
""fullscreenenter"",""1"",""1452""
","
","
","""event"",""trial"",""time""
""fullscreenenter"",""1"",""1451""
""fullscreenenter"",""1"",""1452""
","
","","[{""page_index"":0,""viewing_time"":8101.999999999942},{""page_index"":1,""viewing_time"":8734},{""page_index"":2,""viewing_time"":6217.000000000058},{""page_index"":3,""viewing_time"":6534.999999999942},{""page_index"":4,""viewing_time"":5767},{""page_index"":5,""viewing_time"":9802},{""page_index"":6,""viewing_time"":6249},{""page_index"":7,""viewing_time"":7435},{""page_index"":8,""viewing_time"":8090},{""page_index"":9,""viewing_time"":5783.000000000058},{""page_index"":10,""viewing_time"":6180.999999999942},{""page_index"":11,""viewing_time"":4419},{""page_index"":12,""viewing_time"":6330},{""page_index"":13,""viewing_time"":6822},{""page_index"":14,""viewing_time"":7067},{""page_index"":15,""viewing_time"":6364},{""page_index"":16,""viewing_time"":6084},{""page_index"":17,""viewing_time"":7401}]","123382.99999999994","","","","","","","","","","","","","","","","","","","","","","","",""
"pit-trial","20","463867","0.0-2.0-8.0-0.0","battery-v0.2","","""event"",""trial"",""time""
""fullscreenenter"",""1"",""1451""
""fullscreenenter"",""1"",""1452""
","
","
","""event"",""trial"",""time""
""fullscreenenter"",""1"",""1451""
""fullscreenenter"",""1"",""1452""
","
","","","883.0000000000582","","","18","13748","5980","&#9776;","elianto","#3366ff99"," "," ","1","+10","[1734.0000000000582]","1","0","1","","","","","","","",""
"pit-trial","21","467405","0.0-2.0-8.0-1.0","battery-v0.2","","""event"",""trial"",""time""
""fullscreenenter"",""1"",""1451""
""fullscreenenter"",""1"",""1452""
","
","
","""event"",""trial"",""time""
""fullscreenenter"",""1"",""1451""
""fullscreenenter"",""1"",""1452""
","
","","","683","","","18","13748","5980","&#9776;","elianto","#3366ff99"," "," ","1","+10","[1534]","1","0","1","","","","","","","",""
"pit-trial","22","470857","0.0-2.0-8.0-2.0","battery-v0.2","","""event"",""trial"",""time""
""fullscreenenter"",""1"",""1451""
""fullscreenenter"",""1"",""1452""
","
","
","""event"",""trial"",""time""
""fullscreenenter"",""1"",""1451""
""fullscreenenter"",""1"",""1452""
","
","","","597","","","18","13748","5980","&#9776;","elianto","#3366ff99"," "," ","1","+10","[1448]","1","0","1","","","","","","","",""
"pit-trial","23","474273","0.0-2.0-8.0-3.0","battery-v0.2","","""event"",""trial"",""time""
""fullscreenenter"",""1"",""1451""
""fullscreenenter"",""1"",""1452""
","
","
","""event"",""trial"",""time""
""fullscreenenter"",""1"",""1451""
""fullscreenenter"",""1"",""1452""
","
","","","561.9999999999418","","","18","13748","5980","&#9776;","elianto","#3366ff99"," "," ","1","0","[1412.9999999999418]","1","0","1","","","","","","","",""
"pit-trial","24","477679","0.0-2.0-8.0-4.0","battery-v0.2","","""event"",""trial"",""time""
""fullscreenenter"",""1"",""1451""
""fullscreenenter"",""1"",""1452""
","
","
","""event"",""trial"",""time""
""fullscreenenter"",""1"",""1451""
""fullscreenenter"",""1"",""1452""
","
","","","552","","","18","13748","5980","&#9776;","elianto","#3366ff99"," "," ","1","+10","[1403]","1","0","1","","","","","","","",""
"pit-trial","25","481035","0.0-2.0-8.1-0.1","battery-v0.2","","""event"",""trial"",""time""
""fullscreenenter"",""1"",""1451""
""fullscreenenter"",""1"",""1452""
","
","
","""event"",""trial"",""time""
""fullscreenenter"",""1"",""1451""
""fullscreenenter"",""1"",""1452""
","
","","","501","","","18","13748","5980","&#9776;","elianto","#3366ff99"," "," ","1","+10","[1352]","1","0","1","","","","","","","",""
"pit-trial","26","484290","0.0-2.0-8.1-1.1","battery-v0.2","","""event"",""trial"",""time""
""fullscreenenter"",""1"",""1451""
""fullscreenenter"",""1"",""1452""
","
","
","""event"",""trial"",""time""
""fullscreenenter"",""1"",""1451""
""fullscreenenter"",""1"",""1452""
","
","","","399","","","18","13748","5980","&#9776;","elianto","#3366ff99"," "," ","1","+10","[1250]","1","0","1","","","","","","","",""
"pit-trial","27","487405","0.0-2.0-8.1-2.1","battery-v0.2","","""event"",""trial"",""time""
""fullscreenenter"",""1"",""1451""
""fullscreenenter"",""1"",""1452""
","
","
","""event"",""trial"",""time""
""fullscreenenter"",""1"",""1451""
""fullscreenenter"",""1"",""1452""
","
","","","258.9999999999418","","","18","13748","5980","&#9776;","elianto","#3366ff99"," "," ","1","+10","[1109.9999999999418]","1","0","1","","","","","","","",""
"pit-trial","28","490644","0.0-2.0-8.1-3.1","battery-v0.2","","""event"",""trial"",""time""
""fullscreenenter"",""1"",""1451""
""fullscreenenter"",""1"",""1452""
","
","
","""event"",""trial"",""time""
""fullscreenenter"",""1"",""1451""
""fullscreenenter"",""1"",""1452""
","
","","","384.9999999999418","","","18","13748","5980","&#9776;","elianto","#3366ff99"," "," ","1","0","[1235]","1","0","1","","","","","","","",""
"pit-trial","29","493883","0.0-2.0-8.1-4.1","battery-v0.2","","""event"",""trial"",""time""
""fullscreenenter"",""1"",""1451""
""fullscreenenter"",""1"",""1452""
","
","
","""event"",""trial"",""time""
""fullscreenenter"",""1"",""1451""
""fullscreenenter"",""1"",""1452""
","
","","","385","","","18","13748","5980","&#9776;","elianto","#3366ff99"," "," ","1","+10","[1235]","1","0","1","","","","","","","",""
"pit-trial","30","497115","0.0-2.0-8.2-0.2","battery-v0.2","","""event"",""trial"",""time""
""fullscreenenter"",""1"",""1451""
""fullscreenenter"",""1"",""1452""
","
","
","""event"",""trial"",""time""
""fullscreenenter"",""1"",""1451""
""fullscreenenter"",""1"",""1452""
","
","","","378","","","18","13748","5980","&#9776;","elianto","#3366ff99"," "," ","1","+10","[1228]","1","0","1","","","","","","","",""
"pit-trial","31","500584","0.0-2.0-8.2-1.2","battery-v0.2","","""event"",""trial"",""time""
""fullscreenenter"",""1"",""1451""
""fullscreenenter"",""1"",""1452""
","
","
","""event"",""trial"",""time""
""fullscreenenter"",""1"",""1451""
""fullscreenenter"",""1"",""1452""
","
","","","614","","","18","13748","5980","&#9776;","elianto","#3366ff99"," "," ","1","+10","[1464]","1","0","1","","","","","","","",""
"pit-trial","32","503906","0.0-2.0-8.2-2.2","battery-v0.2","","""event"",""trial"",""time""
""fullscreenenter"",""1"",""1451""
""fullscreenenter"",""1"",""1452""
","
","
","""event"",""trial"",""time""
""fullscreenenter"",""1"",""1451""
""fullscreenenter"",""1"",""1452""
","
","","","466","","","18","13748","5980","&#9776;","elianto","#3366ff99"," "," ","1","+10","[1317]","1","0","1","","","","","","","",""
"pit-trial","33","507753","0.0-2.0-8.2-3.2","battery-v0.2","","""event"",""trial"",""time""
""fullscreenenter"",""1"",""1451""
""fullscreenenter"",""1"",""1452""
","
","
","""event"",""trial"",""time""
""fullscreenenter"",""1"",""1451""
""fullscreenenter"",""1"",""1452""
","
","","","992","","","18","13748","5980","&#9776;","elianto","#3366ff99"," "," ","1","0","[1843]","1","0","1","","","","","","","",""
"pit-trial","34","511031","0.0-2.0-8.2-4.2","battery-v0.2","","""event"",""trial"",""time""
""fullscreenenter"",""1"",""1451""
""fullscreenenter"",""1"",""1452""
","
","
","""event"",""trial"",""time""
""fullscreenenter"",""1"",""1451""
""fullscreenenter"",""1"",""1452""
","
","","","422","","","18","13748","5980","&#9776;","elianto","#3366ff99"," "," ","1","+10","[1272]","1","0","1","","","","","","","",""
"call-function","35","511035","0.0-2.0-9.0","battery-v0.2","","""event"",""trial"",""time""
""fullscreenenter"",""1"",""1451""
""fullscreenenter"",""1"",""1452""
","
","
","""event"",""trial"",""time""
""fullscreenenter"",""1"",""1451""
""fullscreenenter"",""1"",""1452""
","
","","","","","","","","","","","","","","","","","","","","","","","","","","",""
"pit-instructions","36","569162","0.0-2.0-10.0","battery-v0.2","","""event"",""trial"",""time""
""fullscreenenter"",""1"",""1451""
""fullscreenenter"",""1"",""1452""
","
","
","""event"",""trial"",""time""
""fullscreenenter"",""1"",""1451""
""fullscreenenter"",""1"",""1452""
","
","","[{""page_index"":0,""viewing_time"":13966.999999999942},{""page_index"":1,""viewing_time"":18620},{""page_index"":2,""viewing_time"":9185},{""page_index"":3,""viewing_time"":8852},{""page_index"":4,""viewing_time"":7501}]","58124.99999999994","","","","","","","","","","","","","","","","","","","","","","","",""
"pit-trial","37","572547","0.0-2.0-11.0-0.0","battery-v0.2","","""event"",""trial"",""time""
""fullscreenenter"",""1"",""1451""
""fullscreenenter"",""1"",""1452""
","
","
","""event"",""trial"",""time""
""fullscreenenter"",""1"",""1451""
""fullscreenenter"",""1"",""1452""
","
","","","529.0000000001164","","","18","13748","5980","&#9761;","elianto","#3366ff99","-1"," ","0","0","[1380.0000000001164]","1","0","2","","","","","","","",""
"pit-trial","38","575894","0.0-2.0-11.0-1.0","battery-v0.2","","""event"",""trial"",""time""
""fullscreenenter"",""1"",""1451""
""fullscreenenter"",""1"",""1452""
","
","
","""event"",""trial"",""time""
""fullscreenenter"",""1"",""1451""
""fullscreenenter"",""1"",""1452""
","
","","","489","","","18","13748","5980","&#9761;","elianto","#3366ff99","-1"," ","0","0","[1340]","1","0","2","","","","","","","",""
"pit-trial","39","579837","0.0-2.0-11.0-2.0","battery-v0.2","","""event"",""trial"",""time""
""fullscreenenter"",""1"",""1451""
""fullscreenenter"",""1"",""1452""
","
","
","""event"",""trial"",""time""
""fullscreenenter"",""1"",""1451""
""fullscreenenter"",""1"",""1452""
","
","","","1084","","","18","13748","5980","&#9761;","elianto","#3366ff99","-1"," ","0","0","[1935]","1","0","2","","","","","","","",""
"pit-trial","40","584695","0.0-2.0-11.0-3.0","battery-v0.2","","""event"",""trial"",""time""
""fullscreenenter"",""1"",""1451""
""fullscreenenter"",""1"",""1452""
","
","
","""event"",""trial"",""time""
""fullscreenenter"",""1"",""1451""
""fullscreenenter"",""1"",""1452""
","
","","","-1","","","18","13748","5980","&#9761;","elianto","#3366ff99","-1","-1","1","0","[]","0","0","2","","","","","","","",""
"pit-trial","41","589553","0.0-2.0-11.0-4.0","battery-v0.2","","""event"",""trial"",""time""
""fullscreenenter"",""1"",""1451""
""fullscreenenter"",""1"",""1452""
","
","
","""event"",""trial"",""time""
""fullscreenenter"",""1"",""1451""
""fullscreenenter"",""1"",""1452""
","
","","","-1","","","18","13748","5980","&#9761;","elianto","#3366ff99","-1","-1","1","+10","[]","0","0","2","","","","","","","",""
"pit-trial","42","594413","0.0-2.0-11.1-0.1","battery-v0.2","","""event"",""trial"",""time""
""fullscreenenter"",""1"",""1451""
""fullscreenenter"",""1"",""1452""
","
","
","""event"",""trial"",""time""
""fullscreenenter"",""1"",""1451""
""fullscreenenter"",""1"",""1452""
","
","","","-1","","","18","13748","5980","&#9761;","elianto","#3366ff99","-1","-1","1","+10","[]","0","0","2","","","","","","","",""
"pit-trial","43","599270","0.0-2.0-11.1-1.1","battery-v0.2","","""event"",""trial"",""time""
""fullscreenenter"",""1"",""1451""
""fullscreenenter"",""1"",""1452""
","
","
","""event"",""trial"",""time""
""fullscreenenter"",""1"",""1451""
""fullscreenenter"",""1"",""1452""
","
","","","-1","","","18","13748","5980","&#9761;","elianto","#3366ff99","-1","-1","1","+10","[]","0","0","2","","","","","","","",""
"pit-trial","44","604128","0.0-2.0-11.1-2.1","battery-v0.2","","""event"",""trial"",""time""
""fullscreenenter"",""1"",""1451""
""fullscreenenter"",""1"",""1452""
","
","
","""event"",""trial"",""time""
""fullscreenenter"",""1"",""1451""
""fullscreenenter"",""1"",""1452""
","
","","","-1","","","18","13748","5980","&#9761;","elianto","#3366ff99","-1","-1","1","+10","[]","0","0","2","","","","","","","",""
"pit-trial","45","608986","0.0-2.0-11.1-3.1","battery-v0.2","","""event"",""trial"",""time""
""fullscreenenter"",""1"",""1451""
""fullscreenenter"",""1"",""1452""
","
","
","""event"",""trial"",""time""
""fullscreenenter"",""1"",""1451""
""fullscreenenter"",""1"",""1452""
","
","","","-1","","","18","13748","5980","&#9761;","elianto","#3366ff99","-1","-1","1","0","[]","0","0","2","","","","","","","",""
"pit-trial","46","613844","0.0-2.0-11.1-4.1","battery-v0.2","","""event"",""trial"",""time""
""fullscreenenter"",""1"",""1451""
""fullscreenenter"",""1"",""1452""
","
","
","""event"",""trial"",""time""
""fullscreenenter"",""1"",""1451""
""fullscreenenter"",""1"",""1452""
","
","","","-1","","","18","13748","5980","&#9761;","elianto","#3366ff99","-1","-1","1","+10","[]","0","0","2","","","","","","","",""
"pit-trial","47","618702","0.0-2.0-11.2-0.2","battery-v0.2","","""event"",""trial"",""time""
""fullscreenenter"",""1"",""1451""
""fullscreenenter"",""1"",""1452""
","
","
","""event"",""trial"",""time""
""fullscreenenter"",""1"",""1451""
""fullscreenenter"",""1"",""1452""
","
","","","-1","","","18","13748","5980","&#9761;","elianto","#3366ff99","-1","-1","1","+10","[]","0","0","2","","","","","","","",""
"pit-trial","48","623560","0.0-2.0-11.2-1.2","battery-v0.2","","""event"",""trial"",""time""
""fullscreenenter"",""1"",""1451""
""fullscreenenter"",""1"",""1452""
","
","
","""event"",""trial"",""time""
""fullscreenenter"",""1"",""1451""
""fullscreenenter"",""1"",""1452""
","
","","","-1","","","18","13748","5980","&#9761;","elianto","#3366ff99","-1","-1","1","+10","[]","0","0","2","","","","","","","",""
"pit-trial","49","628418","0.0-2.0-11.2-2.2","battery-v0.2","","""event"",""trial"",""time""
""fullscreenenter"",""1"",""1451""
""fullscreenenter"",""1"",""1452""
","
","
","""event"",""trial"",""time""
""fullscreenenter"",""1"",""1451""
""fullscreenenter"",""1"",""1452""
","
","","","-1","","","18","13748","5980","&#9761;","elianto","#3366ff99","-1","-1","1","+10","[]","0","0","2","","","","","","","",""
"pit-trial","50","633276","0.0-2.0-11.2-3.2","battery-v0.2","","""event"",""trial"",""time""
""fullscreenenter"",""1"",""1451""
""fullscreenenter"",""1"",""1452""
","
","
","""event"",""trial"",""time""
""fullscreenenter"",""1"",""1451""
""fullscreenenter"",""1"",""1452""
","
","","","-1","","","18","13748","5980","&#9761;","elianto","#3366ff99","-1","-1","1","0","[]","0","0","2","","","","","","","",""
"pit-trial","51","638134","0.0-2.0-11.2-4.2","battery-v0.2","","""event"",""trial"",""time""
""fullscreenenter"",""1"",""1451""
""fullscreenenter"",""1"",""1452""
","
","
","""event"",""trial"",""time""
""fullscreenenter"",""1"",""1451""
""fullscreenenter"",""1"",""1452""
","
","","","-1","","","18","13748","5980","&#9761;","elianto","#3366ff99","-1","-1","1","+10","[]","0","0","2","","","","","","","",""
"pit-trial","52","642993","0.0-2.0-11.3-0.3","battery-v0.2","","""event"",""trial"",""time""
""fullscreenenter"",""1"",""1451""
""fullscreenenter"",""1"",""1452""
","
","
","""event"",""trial"",""time""
""fullscreenenter"",""1"",""1451""
""fullscreenenter"",""1"",""1452""
","
","","","-1","","","18","13748","5980","&#9761;","elianto","#3366ff99","-1","-1","1","+10","[]","0","0","2","","","","","","","",""
"pit-trial","53","647850","0.0-2.0-11.3-1.3","battery-v0.2","","""event"",""trial"",""time""
""fullscreenenter"",""1"",""1451""
""fullscreenenter"",""1"",""1452""
","
","
","""event"",""trial"",""time""
""fullscreenenter"",""1"",""1451""
""fullscreenenter"",""1"",""1452""
","
","","","-1","","","18","13748","5980","&#9761;","elianto","#3366ff99","-1","-1","1","+10","[]","0","0","2","","","","","","","",""
"pit-trial","54","652708","0.0-2.0-11.3-2.3","battery-v0.2","","""event"",""trial"",""time""
""fullscreenenter"",""1"",""1451""
""fullscreenenter"",""1"",""1452""
","
","
","""event"",""trial"",""time""
""fullscreenenter"",""1"",""1451""
""fullscreenenter"",""1"",""1452""
","
","","","-1","","","18","13748","5980","&#9761;","elianto","#3366ff99","-1","-1","1","+10","[]","0","0","2","","","","","","","",""
"pit-trial","55","657567","0.0-2.0-11.3-3.3","battery-v0.2","","""event"",""trial"",""time""
""fullscreenenter"",""1"",""1451""
""fullscreenenter"",""1"",""1452""
","
","
","""event"",""trial"",""time""
""fullscreenenter"",""1"",""1451""
""fullscreenenter"",""1"",""1452""
","
","","","-1","","","18","13748","5980","&#9761;","elianto","#3366ff99","-1","-1","1","0","[]","0","0","2","","","","","","","",""
"pit-trial","56","662425","0.0-2.0-11.3-4.3","battery-v0.2","","""event"",""trial"",""time""
""fullscreenenter"",""1"",""1451""
""fullscreenenter"",""1"",""1452""
","
","
","""event"",""trial"",""time""
""fullscreenenter"",""1"",""1451""
""fullscreenenter"",""1"",""1452""
","
","","","-1","","","18","13748","5980","&#9761;","elianto","#3366ff99","-1","-1","1","+10","[]","0","0","2","","","","","","","",""
"call-function","57","662429","0.0-2.0-12.0","battery-v0.2","","""event"",""trial"",""time""
""fullscreenenter"",""1"",""1451""
""fullscreenenter"",""1"",""1452""
","
","
","""event"",""trial"",""time""
""fullscreenenter"",""1"",""1451""
""fullscreenenter"",""1"",""1452""
","
","","","","","","","","","","","","","","","","","","","","","","","","","","",""
"pit-instructions","58","700727","0.0-2.0-13.0","battery-v0.2","","""event"",""trial"",""time""
""fullscreenenter"",""1"",""1451""
""fullscreenenter"",""1"",""1452""
","
","
","""event"",""trial"",""time""
""fullscreenenter"",""1"",""1451""
""fullscreenenter"",""1"",""1452""
","
","","[{""page_index"":0,""viewing_time"":8375},{""page_index"":1,""viewing_time"":7136},{""page_index"":2,""viewing_time"":7267},{""page_index"":3,""viewing_time"":10784},{""page_index"":4,""viewing_time"":4734.000000000116}]","38297","","","","","","","","","","","","","","","","","","","","","","","",""
"pit-trial","59","704697","0.0-2.0-14.0-0.0","battery-v0.2","","""event"",""trial"",""time""
""fullscreenenter"",""1"",""1451""
""fullscreenenter"",""1"",""1452""
","
","
","""event"",""trial"",""time""
""fullscreenenter"",""1"",""1451""
""fullscreenenter"",""1"",""1452""
","
","","","1113","","","18","13748","5980","&#9826;","elianto","#f73b6a7A","-1"," ","0","-10","[1963]","1","0","3","","","","","","","",""
"pit-trial","60","708715","0.0-2.0-14.0-1.0","battery-v0.2","","""event"",""trial"",""time""
""fullscreenenter"",""1"",""1451""
""fullscreenenter"",""1"",""1452""
","
","
","""event"",""trial"",""time""
""fullscreenenter"",""1"",""1451""
""fullscreenenter"",""1"",""1452""
","
","","","1159","","","18","13748","5980","&#9826;","elianto","#f73b6a7A","-1"," ","0","-10","[2010]","1","0","3","","","","","","","",""
"pit-trial","61","713573","0.0-2.0-14.0-2.0","battery-v0.2","","""event"",""trial"",""time""
""fullscreenenter"",""1"",""1451""
""fullscreenenter"",""1"",""1452""
","
","
","""event"",""trial"",""time""
""fullscreenenter"",""1"",""1451""
""fullscreenenter"",""1"",""1452""
","
","","","-1","","","18","13748","5980","&#9826;","elianto","#f73b6a7A","-1","-1","1","0","[]","0","0","3","","","","","","","",""
"pit-trial","62","718431","0.0-2.0-14.0-3.0","battery-v0.2","","""event"",""trial"",""time""
""fullscreenenter"",""1"",""1451""
""fullscreenenter"",""1"",""1452""
","
","
","""event"",""trial"",""time""
""fullscreenenter"",""1"",""1451""
""fullscreenenter"",""1"",""1452""
","
","","","-1","","","18","13748","5980","&#9826;","elianto","#f73b6a7A","-1","-1","1","-10","[]","0","0","3","","","","","","","",""
"pit-trial","63","722935","0.0-2.0-14.0-4.0","battery-v0.2","","""event"",""trial"",""time""
""fullscreenenter"",""1"",""1451""
""fullscreenenter"",""1"",""1452""
","
","
","""event"",""trial"",""time""
""fullscreenenter"",""1"",""1451""
""fullscreenenter"",""1"",""1452""
","
","","","1648","","","18","13748","5980","&#9826;","elianto","#f73b6a7A","-1"," ","0","-10","[2499]","1","0","3","","","","","","","",""
"pit-trial","64","727793","0.0-2.0-14.1-0.1","battery-v0.2","","""event"",""trial"",""time""
""fullscreenenter"",""1"",""1451""
""fullscreenenter"",""1"",""1452""
","
","
","""event"",""trial"",""time""
""fullscreenenter"",""1"",""1451""
""fullscreenenter"",""1"",""1452""
","
","","","-1","","","18","13748","5980","&#9826;","elianto","#f73b6a7A","-1","-1","1","0","[]","0","0","3","","","","","","","",""
"pit-trial","65","732651","0.0-2.0-14.1-1.1","battery-v0.2","","""event"",""trial"",""time""
""fullscreenenter"",""1"",""1451""
""fullscreenenter"",""1"",""1452""
","
","
","""event"",""trial"",""time""
""fullscreenenter"",""1"",""1451""
""fullscreenenter"",""1"",""1452""
","
","","","-1","","","18","13748","5980","&#9826;","elianto","#f73b6a7A","-1","-1","1","0","[]","0","0","3","","","","","","","",""
"pit-trial","66","737509","0.0-2.0-14.1-2.1","battery-v0.2","","""event"",""trial"",""time""
""fullscreenenter"",""1"",""1451""
""fullscreenenter"",""1"",""1452""
","
","
","""event"",""trial"",""time""
""fullscreenenter"",""1"",""1451""
""fullscreenenter"",""1"",""1452""
","
","","","-1","","","18","13748","5980","&#9826;","elianto","#f73b6a7A","-1","-1","1","0","[]","0","0","3","","","","","","","",""
"pit-trial","67","742367","0.0-2.0-14.1-3.1","battery-v0.2","","""event"",""trial"",""time""
""fullscreenenter"",""1"",""1451""
""fullscreenenter"",""1"",""1452""
","
","
","""event"",""trial"",""time""
""fullscreenenter"",""1"",""1451""
""fullscreenenter"",""1"",""1452""
","
","","","-1","","","18","13748","5980","&#9826;","elianto","#f73b6a7A","-1","-1","1","-10","[]","0","0","3","","","","","","","",""
"pit-trial","68","747225","0.0-2.0-14.1-4.1","battery-v0.2","","""event"",""trial"",""time""
""fullscreenenter"",""1"",""1451""
""fullscreenenter"",""1"",""1452""
","
","
","""event"",""trial"",""time""
""fullscreenenter"",""1"",""1451""
""fullscreenenter"",""1"",""1452""
","
","","","-1","","","18","13748","5980","&#9826;","elianto","#f73b6a7A","-1","-1","1","0","[]","0","0","3","","","","","","","",""
"pit-trial","69","752083","0.0-2.0-14.2-0.2","battery-v0.2","","""event"",""trial"",""time""
""fullscreenenter"",""1"",""1451""
""fullscreenenter"",""1"",""1452""
","
","
","""event"",""trial"",""time""
""fullscreenenter"",""1"",""1451""
""fullscreenenter"",""1"",""1452""
","
","","","-1","","","18","13748","5980","&#9826;","elianto","#f73b6a7A","-1","-1","1","0","[]","0","0","3","","","","","","","",""
"pit-trial","70","756940","0.0-2.0-14.2-1.2","battery-v0.2","","""event"",""trial"",""time""
""fullscreenenter"",""1"",""1451""
""fullscreenenter"",""1"",""1452""
","
","
","""event"",""trial"",""time""
""fullscreenenter"",""1"",""1451""
""fullscreenenter"",""1"",""1452""
","
","","","-1","","","18","13748","5980","&#9826;","elianto","#f73b6a7A","-1","-1","1","0","[]","0","0","3","","","","","","","",""
"pit-trial","71","761798","0.0-2.0-14.2-2.2","battery-v0.2","","""event"",""trial"",""time""
""fullscreenenter"",""1"",""1451""
""fullscreenenter"",""1"",""1452""
","
","
","""event"",""trial"",""time""
""fullscreenenter"",""1"",""1451""
""fullscreenenter"",""1"",""1452""
","
","","","-1","","","18","13748","5980","&#9826;","elianto","#f73b6a7A","-1","-1","1","0","[]","0","0","3","","","","","","","",""
"pit-trial","72","766655","0.0-2.0-14.2-3.2","battery-v0.2","","""event"",""trial"",""time""
""fullscreenenter"",""1"",""1451""
""fullscreenenter"",""1"",""1452""
","
","
","""event"",""trial"",""time""
""fullscreenenter"",""1"",""1451""
""fullscreenenter"",""1"",""1452""
","
","","","-1","","","18","13748","5980","&#9826;","elianto","#f73b6a7A","-1","-1","1","-10","[]","0","0","3","","","","","","","",""
"pit-trial","73","771513","0.0-2.0-14.2-4.2","battery-v0.2","","""event"",""trial"",""time""
""fullscreenenter"",""1"",""1451""
""fullscreenenter"",""1"",""1452""
","
","
","""event"",""trial"",""time""
""fullscreenenter"",""1"",""1451""
""fullscreenenter"",""1"",""1452""
","
","","","-1","","","18","13748","5980","&#9826;","elianto","#f73b6a7A","-1","-1","1","0","[]","0","0","3","","","","","","","",""
"pit-trial","74","776372","0.0-2.0-14.3-0.3","battery-v0.2","","""event"",""trial"",""time""
""fullscreenenter"",""1"",""1451""
""fullscreenenter"",""1"",""1452""
","
","
","""event"",""trial"",""time""
""fullscreenenter"",""1"",""1451""
""fullscreenenter"",""1"",""1452""
","
","","","-1","","","18","13748","5980","&#9826;","elianto","#f73b6a7A","-1","-1","1","0","[]","0","0","3","","","","","","","",""
"pit-trial","75","781229","0.0-2.0-14.3-1.3","battery-v0.2","","""event"",""trial"",""time""
""fullscreenenter"",""1"",""1451""
""fullscreenenter"",""1"",""1452""
","
","
","""event"",""trial"",""time""
""fullscreenenter"",""1"",""1451""
""fullscreenenter"",""1"",""1452""
","
","","","-1","","","18","13748","5980","&#9826;","elianto","#f73b6a7A","-1","-1","1","0","[]","0","0","3","","","","","","","",""
"pit-trial","76","786087","0.0-2.0-14.3-2.3","battery-v0.2","","""event"",""trial"",""time""
""fullscreenenter"",""1"",""1451""
""fullscreenenter"",""1"",""1452""
","
","
","""event"",""trial"",""time""
""fullscreenenter"",""1"",""1451""
""fullscreenenter"",""1"",""1452""
","
","","","-1","","","18","13748","5980","&#9826;","elianto","#f73b6a7A","-1","-1","1","0","[]","0","0","3","","","","","","","",""
"pit-trial","77","790945","0.0-2.0-14.3-3.3","battery-v0.2","","""event"",""trial"",""time""
""fullscreenenter"",""1"",""1451""
""fullscreenenter"",""1"",""1452""
","
","
","""event"",""trial"",""time""
""fullscreenenter"",""1"",""1451""
""fullscreenenter"",""1"",""1452""
","
","","","-1","","","18","13748","5980","&#9826;","elianto","#f73b6a7A","-1","-1","1","-10","[]","0","0","3","","","","","","","",""
"pit-trial","78","795802","0.0-2.0-14.3-4.3","battery-v0.2","","""event"",""trial"",""time""
""fullscreenenter"",""1"",""1451""
""fullscreenenter"",""1"",""1452""
","
","
","""event"",""trial"",""time""
""fullscreenenter"",""1"",""1451""
""fullscreenenter"",""1"",""1452""
","
","","","-1","","","18","13748","5980","&#9826;","elianto","#f73b6a7A","-1","-1","1","0","[]","0","0","3","","","","","","","",""
"call-function","79","795807","0.0-2.0-15.0","battery-v0.2","","""event"",""trial"",""time""
""fullscreenenter"",""1"",""1451""
""fullscreenenter"",""1"",""1452""
","
","
","""event"",""trial"",""time""
""fullscreenenter"",""1"",""1451""
""fullscreenenter"",""1"",""1452""
","
","","","","","","","","","","","","","","","","","","","","","","","","","","",""
"pit-instructions","80","827077","0.0-2.0-16.0","battery-v0.2","","""event"",""trial"",""time""
""fullscreenenter"",""1"",""1451""
""fullscreenenter"",""1"",""1452""
","
","
","""event"",""trial"",""time""
""fullscreenenter"",""1"",""1451""
""fullscreenenter"",""1"",""1452""
","
","","[{""page_index"":0,""viewing_time"":9599},{""page_index"":1,""viewing_time"":8235},{""page_index"":2,""viewing_time"":4684},{""page_index"":3,""viewing_time"":8751.000000000116}]","31270","","","","","","","","","","","","","","","","","","","","","","","",""
"pit-trial","81","830353","0.0-2.0-17.0-0.0","battery-v0.2","","""event"",""trial"",""time""
""fullscreenenter"",""1"",""1451""
""fullscreenenter"",""1"",""1452""
","
","
","""event"",""trial"",""time""
""fullscreenenter"",""1"",""1451""
""fullscreenenter"",""1"",""1452""
","
","","","420","","","18","13748","5980","&#9789;","elianto","#f73b6a7A"," "," ","1","0","[1270.0000000001164]","1","0","4","","","","","","","",""
"pit-trial","82","833797","0.0-2.0-17.0-1.0","battery-v0.2","","""event"",""trial"",""time""
""fullscreenenter"",""1"",""1451""
""fullscreenenter"",""1"",""1452""
","
","
","""event"",""trial"",""time""
""fullscreenenter"",""1"",""1451""
""fullscreenenter"",""1"",""1452""
","
","","","586","","","18","13748","5980","&#9789;","elianto","#f73b6a7A"," "," ","1","0","[1436]","1","0","4","","","","","","","",""
"pit-trial","83","837050","0.0-2.0-17.0-2.0","battery-v0.2","","""event"",""trial"",""time""
""fullscreenenter"",""1"",""1451""
""fullscreenenter"",""1"",""1452""
","
","
","""event"",""trial"",""time""
""fullscreenenter"",""1"",""1451""
""fullscreenenter"",""1"",""1452""
","
","","","396","","","18","13748","5980","&#9789;","elianto","#f73b6a7A"," "," ","1","0","[1247]","1","0","4","","","","","","","",""
"pit-trial","84","840373","0.0-2.0-17.0-3.0","battery-v0.2","","""event"",""trial"",""time""
""fullscreenenter"",""1"",""1451""
""fullscreenenter"",""1"",""1452""
","
","
","""event"",""trial"",""time""
""fullscreenenter"",""1"",""1451""
""fullscreenenter"",""1"",""1452""
","
","","","465","","","18","13748","5980","&#9789;","elianto","#f73b6a7A"," "," ","1","-10","[1315]","1","0","4","","","","","","","",""
"pit-trial","85","843605","0.0-2.0-17.0-4.0","battery-v0.2","","""event"",""trial"",""time""
""fullscreenenter"",""1"",""1451""
""fullscreenenter"",""1"",""1452""
","
","
","""event"",""trial"",""time""
""fullscreenenter"",""1"",""1451""
""fullscreenenter"",""1"",""1452""
","
","","","375","","","18","13748","5980","&#9789;","elianto","#f73b6a7A"," "," ","1","0","[1225]","1","0","4","","","","","","","",""
"pit-trial","86","848464","0.0-2.0-17.1-0.1","battery-v0.2","","""event"",""trial"",""time""
""fullscreenenter"",""1"",""1451""
""fullscreenenter"",""1"",""1452""
","
","
","""event"",""trial"",""time""
""fullscreenenter"",""1"",""1451""
""fullscreenenter"",""1"",""1452""
","
","","","-1","","","18","13748","5980","&#9789;","elianto","#f73b6a7A"," ","-1","0","-10","[]","0","0","4","","","","","","","",""
"pit-trial","87","853323","0.0-2.0-17.1-1.1","battery-v0.2","","""event"",""trial"",""time""
""fullscreenenter"",""1"",""1451""
""fullscreenenter"",""1"",""1452""
","
","
","""event"",""trial"",""time""
""fullscreenenter"",""1"",""1451""
""fullscreenenter"",""1"",""1452""
","
","","","-1","","","18","13748","5980","&#9789;","elianto","#f73b6a7A"," ","-1","0","-10","[]","0","0","4","","","","","","","",""
"pit-trial","88","856791","0.0-2.0-17.1-2.1","battery-v0.2","","""event"",""trial"",""time""
""fullscreenenter"",""1"",""1451""
""fullscreenenter"",""1"",""1452""
","
","
","""event"",""trial"",""time""
""fullscreenenter"",""1"",""1451""
""fullscreenenter"",""1"",""1452""
","
","","","611.9999999998836","","","18","13748","5980","&#9789;","elianto","#f73b6a7A"," "," ","1","0","[1462]","1","0","4","","","","","","","",""
"pit-trial","89","860244","0.0-2.0-17.1-3.1","battery-v0.2","","""event"",""trial"",""time""
""fullscreenenter"",""1"",""1451""
""fullscreenenter"",""1"",""1452""
","
","
","""event"",""trial"",""time""
""fullscreenenter"",""1"",""1451""
""fullscreenenter"",""1"",""1452""
","
","","","596","","","18","13748","5980","&#9789;","elianto","#f73b6a7A"," "," ","1","-10","[1447]","1","0","4","","","","","","","",""
"pit-trial","90","863721","0.0-2.0-17.1-4.1","battery-v0.2","","""event"",""trial"",""time""
""fullscreenenter"",""1"",""1451""
""fullscreenenter"",""1"",""1452""
","
","
","""event"",""trial"",""time""
""fullscreenenter"",""1"",""1451""
""fullscreenenter"",""1"",""1452""
","
","","","617.9999999998836","","","18","13748","5980","&#9789;","elianto","#f73b6a7A"," "," ","1","0","[1468.9999999998836]","1","0","4","","","","","","","",""
"pit-trial","91","867530","0.0-2.0-17.2-0.2","battery-v0.2","","""event"",""trial"",""time""
""fullscreenenter"",""1"",""1451""
""fullscreenenter"",""1"",""1452""
","
","
","""event"",""trial"",""time""
""fullscreenenter"",""1"",""1451""
""fullscreenenter"",""1"",""1452""
","
","","","950.9999999998836","","","18","13748","5980","&#9789;","elianto","#f73b6a7A"," "," ","1","0","[1801.9999999998836]","1","0","4","","","","","","","",""
"pit-trial","92","870930","0.0-2.0-17.2-1.2","battery-v0.2","","""event"",""trial"",""time""
""fullscreenenter"",""1"",""1451""
""fullscreenenter"",""1"",""1452""
","
","
","""event"",""trial"",""time""
""fullscreenenter"",""1"",""1451""
""fullscreenenter"",""1"",""1452""
","
","","","543","","","18","13748","5980","&#9789;","elianto","#f73b6a7A"," "," ","1","0","[1394]","1","0","4","","","","","","","",""
"pit-trial","93","874001","0.0-2.0-17.2-2.2","battery-v0.2","","""event"",""trial"",""time""
""fullscreenenter"",""1"",""1451""
""fullscreenenter"",""1"",""1452""
","
","
","""event"",""trial"",""time""
""fullscreenenter"",""1"",""1451""
""fullscreenenter"",""1"",""1452""
","
","","","213","","","18","13748","5980","&#9789;","elianto","#f73b6a7A"," "," ","1","0","[1064]","1","0","4","","","","","","","",""
"pit-trial","94","878859","0.0-2.0-17.2-3.2","battery-v0.2","","""event"",""trial"",""time""
""fullscreenenter"",""1"",""1451""
""fullscreenenter"",""1"",""1452""
","
","
","""event"",""trial"",""time""
""fullscreenenter"",""1"",""1451""
""fullscreenenter"",""1"",""1452""
","
","","","-1","","","18","13748","5980","&#9789;","elianto","#f73b6a7A"," ","-1","0","0","[150]","1","0","4","","","","","","","",""
"pit-trial","95","882879","0.0-2.0-17.2-4.2","battery-v0.2","","""event"",""trial"",""time""
""fullscreenenter"",""1"",""1451""
""fullscreenenter"",""1"",""1452""
","
","
","""event"",""trial"",""time""
""fullscreenenter"",""1"",""1451""
""fullscreenenter"",""1"",""1452""
","
","","","1164","","","18","13748","5980","&#9789;","elianto","#f73b6a7A"," "," ","1","0","[2014]","1","0","4","","","","","","","",""
"pit-trial","96","886319","0.0-2.0-17.3-0.3","battery-v0.2","","""event"",""trial"",""time""
""fullscreenenter"",""1"",""1451""
""fullscreenenter"",""1"",""1452""
","
","
","""event"",""trial"",""time""
""fullscreenenter"",""1"",""1451""
""fullscreenenter"",""1"",""1452""
","
","","","582.0000000001164","","","18","13748","5980","&#9789;","elianto","#f73b6a7A"," "," ","1","0","[1432.0000000001164]","1","0","4","","","","","","","",""
"pit-trial","97","891176","0.0-2.0-17.3-1.3","battery-v0.2","","""event"",""trial"",""time""
""fullscreenenter"",""1"",""1451""
""fullscreenenter"",""1"",""1452""
","
","
","""event"",""trial"",""time""
""fullscreenenter"",""1"",""1451""
""fullscreenenter"",""1"",""1452""
","
","","","-1","","","18","13748","5980","&#9789;","elianto","#f73b6a7A"," ","-1","0","-10","[]","0","0","4","","","","","","","",""
"pit-trial","98","896032","0.0-2.0-17.3-2.3","battery-v0.2","","""event"",""trial"",""time""
""fullscreenenter"",""1"",""1451""
""fullscreenenter"",""1"",""1452""
","
","
","""event"",""trial"",""time""
""fullscreenenter"",""1"",""1451""
""fullscreenenter"",""1"",""1452""
","
","","","-1","","","18","13748","5980","&#9789;","elianto","#f73b6a7A"," ","-1","0","-10","[3579]","1","0","4","","","","","","","",""
"pit-trial","99","899612","0.0-2.0-17.3-3.3","battery-v0.2","","""event"",""trial"",""time""
""fullscreenenter"",""1"",""1451""
""fullscreenenter"",""1"",""1452""
","
","
","""event"",""trial"",""time""
""fullscreenenter"",""1"",""1451""
""fullscreenenter"",""1"",""1452""
","
","","","724","","","18","13748","5980","&#9789;","elianto","#f73b6a7A"," "," ","1","-10","[1573.9999999998836]","1","0","4","","","","","","","",""
"pit-trial","100","903241","0.0-2.0-17.3-4.3","battery-v0.2","","""event"",""trial"",""time""
""fullscreenenter"",""1"",""1451""
""fullscreenenter"",""1"",""1452""
","
","
","""event"",""trial"",""time""
""fullscreenenter"",""1"",""1451""
""fullscreenenter"",""1"",""1452""
","
","","","773","","","18","13748","5980","&#9789;","elianto","#f73b6a7A"," "," ","1","0","[1624]","1","0","4","","","","","","","",""
"call-function","101","903245","0.0-2.0-18.0","battery-v0.2","","""event"",""trial"",""time""
""fullscreenenter"",""1"",""1451""
""fullscreenenter"",""1"",""1452""
","
","
","""event"",""trial"",""time""
""fullscreenenter"",""1"",""1451""
""fullscreenenter"",""1"",""1452""
","
","","","","","","","","","","","","","","","","","","","","","","","","","","",""
"pit-instructions","102","972678","0.0-2.0-19.0","battery-v0.2","","""event"",""trial"",""time""
""fullscreenenter"",""1"",""1451""
""fullscreenenter"",""1"",""1452""
","
","
","""event"",""trial"",""time""
""fullscreenenter"",""1"",""1451""
""fullscreenenter"",""1"",""1452""
","
","","[{""page_index"":0,""viewing_time"":7190},{""page_index"":1,""viewing_time"":7389.000000000116},{""page_index"":2,""viewing_time"":8427.999999999884},{""page_index"":3,""viewing_time"":6067.000000000116},{""page_index"":4,""viewing_time"":9187},{""page_index"":5,""viewing_time"":8917.999999999884},{""page_index"":6,""viewing_time"":9753},{""page_index"":7,""viewing_time"":8314},{""page_index"":8,""viewing_time"":4185}]","69432","","","","","","","","","","","","","","","","","","","","","","","",""
"pit-comprehension","103","977100","0.0-2.0-20.0-0.0","battery-v0.2","","""event"",""trial"",""time""
""fullscreenenter"",""1"",""1451""
""fullscreenenter"",""1"",""1452""
","
","
","""event"",""trial"",""time""
""fullscreenenter"",""1"",""1451""
""fullscreenenter"",""1"",""1452""
","
","","","4412.999999999884","[""SPACE""]","0","18","13748","5980","","","","","","","","","","","","","","","","","","",""
"pit-instructions","104","979628","0.0-2.0-20.0-1.0","battery-v0.2","","""event"",""trial"",""time""
""fullscreenenter"",""1"",""1451""
""fullscreenenter"",""1"",""1452""
","
","
","""event"",""trial"",""time""
""fullscreenenter"",""1"",""1451""
""fullscreenenter"",""1"",""1452""
","
","","[{""page_index"":0,""viewing_time"":2493}]","2493","","","","","","","","","","","","","","","","","","","","","","","",""
"pit-comprehension","105","984797","0.0-2.0-21.0-0.0","battery-v0.2","","""event"",""trial"",""time""
""fullscreenenter"",""1"",""1451""
""fullscreenenter"",""1"",""1452""
","
","
","""event"",""trial"",""time""
""fullscreenenter"",""1"",""1451""
""fullscreenenter"",""1"",""1452""
","
","","","5167","[""10""]","0","18","13748","5980","","","","","","","","","","","","","","","","","","",""
"pit-instructions","106","986382","0.0-2.0-21.0-1.0","battery-v0.2","","""event"",""trial"",""time""
""fullscreenenter"",""1"",""1451""
""fullscreenenter"",""1"",""1452""
","
","
","""event"",""trial"",""time""
""fullscreenenter"",""1"",""1451""
""fullscreenenter"",""1"",""1452""
","
","","[{""page_index"":0,""viewing_time"":1553}]","1553","","","","","","","","","","","","","","","","","","","","","","","",""
"pit-comprehension","107","992849","0.0-2.0-22.0-0.0","battery-v0.2","","""event"",""trial"",""time""
""fullscreenenter"",""1"",""1451""
""fullscreenenter"",""1"",""1452""
","
","
","""event"",""trial"",""time""
""fullscreenenter"",""1"",""1451""
""fullscreenenter"",""1"",""1452""
","
","","","6464.000000000116","[""0""]","0","18","13748","5980","","","","","","","","","","","","","","","","","","",""
"pit-instructions","108","994315","0.0-2.0-22.0-1.0","battery-v0.2","","""event"",""trial"",""time""
""fullscreenenter"",""1"",""1451""
""fullscreenenter"",""1"",""1452""
","
","
","""event"",""trial"",""time""
""fullscreenenter"",""1"",""1451""
""fullscreenenter"",""1"",""1452""
","
","","[{""page_index"":0,""viewing_time"":1433}]","1434.0000000001164","","","","","","","","","","","","","","","","","","","","","","","",""
"pit-comprehension","109","1003619","0.0-2.0-23.0-0.0","battery-v0.2","","""event"",""trial"",""time""
""fullscreenenter"",""1"",""1451""
""fullscreenenter"",""1"",""1452""
","
","
","""event"",""trial"",""time""
""fullscreenenter"",""1"",""1451""
""fullscreenenter"",""1"",""1452""
","
","","","9298","[""True""]","0","18","13748","5980","","","","","","","","","","","","","","","","","","",""
"pit-instructions","110","1005163","0.0-2.0-23.0-1.0","battery-v0.2","","""event"",""trial"",""time""
""fullscreenenter"",""1"",""1451""
""fullscreenenter"",""1"",""1452""
","
","
","""event"",""trial"",""time""
""fullscreenenter"",""1"",""1451""
""fullscreenenter"",""1"",""1452""
","
","","[{""page_index"":0,""viewing_time"":1512}]","1512","","","","","","","","","","","","","","","","","","","","","","","",""
"pit-comprehension","111","1012686","0.0-2.0-24.0-0.0","battery-v0.2","","""event"",""trial"",""time""
""fullscreenenter"",""1"",""1451""
""fullscreenenter"",""1"",""1452""
","
","
","""event"",""trial"",""time""
""fullscreenenter"",""1"",""1451""
""fullscreenenter"",""1"",""1452""
","
","","","7519.999999999884","[""True""]","0","18","13748","5980","","","","","","","","","","","","","","","","","","",""
"pit-instructions","112","1014167","0.0-2.0-24.0-1.0","battery-v0.2","","""event"",""trial"",""time""
""fullscreenenter"",""1"",""1451""
""fullscreenenter"",""1"",""1452""
","
","
","""event"",""trial"",""time""
""fullscreenenter"",""1"",""1451""
""fullscreenenter"",""1"",""1452""
","
","","[{""page_index"":0,""viewing_time"":1446.0000000001164}]","1447","","","","","","","","","","","","","","","","","","","","","","","",""
"pit-comprehension","113","1020888","0.0-2.0-25.0-0.0","battery-v0.2","","""event"",""trial"",""time""
""fullscreenenter"",""1"",""1451""
""fullscreenenter"",""1"",""1452""
","
","
","""event"",""trial"",""time""
""fullscreenenter"",""1"",""1451""
""fullscreenenter"",""1"",""1452""
","
","","","6718.000000000116","[""True""]","0","18","13748","5980","","","","","","","","","","","","","","","","","","",""
"pit-instructions","114","1022420","0.0-2.0-25.0-1.0","battery-v0.2","","""event"",""trial"",""time""
""fullscreenenter"",""1"",""1451""
""fullscreenenter"",""1"",""1452""
","
","
","""event"",""trial"",""time""
""fullscreenenter"",""1"",""1451""
""fullscreenenter"",""1"",""1452""
","
","","[{""page_index"":0,""viewing_time"":1498.9999999998836}]","1498.9999999998836","","","","","","","","","","","","","","","","","","","","","","","",""
"pit-comprehension","115","1027072","0.0-2.0-26.0-0.0","battery-v0.2","","""event"",""trial"",""time""
""fullscreenenter"",""1"",""1451""
""fullscreenenter"",""1"",""1452""
","
","
","""event"",""trial"",""time""
""fullscreenenter"",""1"",""1451""
""fullscreenenter"",""1"",""1452""
","
","","","4647.999999999884","[""False""]","0","18","13748","5980","","","","","","","","","","","","","","","","","","",""
"pit-instructions","116","1028618","0.0-2.0-26.0-1.0","battery-v0.2","","""event"",""trial"",""time""
""fullscreenenter"",""1"",""1451""
""fullscreenenter"",""1"",""1452""
","
","
","""event"",""trial"",""time""
""fullscreenenter"",""1"",""1451""
""fullscreenenter"",""1"",""1452""
","
","","[{""page_index"":0,""viewing_time"":1512}]","1512","","","","","","","","","","","","","","","","","","","","","","","",""
"pit-instructions","117","1045639","0.0-3.0","battery-v0.2","","""event"",""trial"",""time""
""fullscreenenter"",""1"",""1451""
""fullscreenenter"",""1"",""1452""
","
","
","""event"",""trial"",""time""
""fullscreenenter"",""1"",""1451""
""fullscreenenter"",""1"",""1452""
","
","","[{""page_index"":0,""viewing_time"":3948.9999999998836},{""page_index"":1,""viewing_time"":5237},{""page_index"":2,""viewing_time"":7832.999999999884}]","17020","","","","","","","","","","","","","","","","","","","","","","","",""
"pit-trial","118","1049109","0.0-4.0","battery-v0.2","","""event"",""trial"",""time""
""fullscreenenter"",""1"",""1451""
""fullscreenenter"",""1"",""1452""
","
","
","""event"",""trial"",""time""
""fullscreenenter"",""1"",""1451""
""fullscreenenter"",""1"",""1452""
","
","","","611.9999999998836","","","18","13748","5980","&#9733;","elianto","#3366ff99","-1"," ","0","0","[1462]","1","1","","","13748","1","2","2","win","no-go","0"
"pit-trial","119","1053085","0.0-5.0","battery-v0.2","","""event"",""trial"",""time""
""fullscreenenter"",""1"",""1451""
""fullscreenenter"",""1"",""1452""
","
","
","""event"",""trial"",""time""
""fullscreenenter"",""1"",""1451""
""fullscreenenter"",""1"",""1452""
","
","","","1117","","","18","13748","5980","&#9730;","elianto","#3366ff99"," "," ","1","0","[1969]","1","1","","","13748","2","1","1","win","go","1"
"pit-trial","120","1056939","0.0-6.0","battery-v0.2","","""event"",""trial"",""time""
""fullscreenenter"",""1"",""1451""
""fullscreenenter"",""1"",""1452""
","
","
","""event"",""trial"",""time""
""fullscreenenter"",""1"",""1451""
""fullscreenenter"",""1"",""1452""
","
","","","997","","","18","13748","5980","&#9728;","elianto","#f73b6a7A","-1"," ","0","-10","[1846]","1","1","","","13748","3","0","4","lose","no-go","0"
"pit-trial","121","1060595","0.0-7.0","battery-v0.2","","""event"",""trial"",""time""
""fullscreenenter"",""1"",""1451""
""fullscreenenter"",""1"",""1452""
","
","
","""event"",""trial"",""time""
""fullscreenenter"",""1"",""1451""
""fullscreenenter"",""1"",""1452""
","
","","","797","","","18","13748","5980","&#9752;","elianto","#f73b6a7A"," "," ","1","0","[1648]","1","1","","","13748","4","3","3","lose","go","0"
"pit-trial","122","1064930","0.0-8.0","battery-v0.2","","""event"",""trial"",""time""
""fullscreenenter"",""1"",""1451""
""fullscreenenter"",""1"",""1452""
","
","
","""event"",""trial"",""time""
""fullscreenenter"",""1"",""1451""
""fullscreenenter"",""1"",""1452""
","
","","","1474.0000000002328","","","18","13748","5980","&#9752;","elianto","#f73b6a7A"," "," ","1","0","[2326.000000000233]","1","1","","","13748","5","3","3","lose","go","0"
"pit-trial","123","1069095","0.0-9.0","battery-v0.2","","""event"",""trial"",""time""
""fullscreenenter"",""1"",""1451""
""fullscreenenter"",""1"",""1452""
","
","
","""event"",""trial"",""time""
""fullscreenenter"",""1"",""1451""
""fullscreenenter"",""1"",""1452""
","
","","","1303","","","18","13748","5980","&#9733;","elianto","#3366ff99","-1"," ","0","0","[2155]","1","1","","","13748","6","2","2","win","no-go","0"
"pit-trial","124","1072531","0.0-10.0","battery-v0.2","","""event"",""trial"",""time""
""fullscreenenter"",""1"",""1451""
""fullscreenenter"",""1"",""1452""
","
","
","""event"",""trial"",""time""
""fullscreenenter"",""1"",""1451""
""fullscreenenter"",""1"",""1452""
","
","","","574","","","18","13748","5980","&#9730;","elianto","#3366ff99"," "," ","1","0","[1427]","1","1","","","13748","7","1","1","win","go","1"
"pit-trial","125","1077391","0.0-11.0","battery-v0.2","","""event"",""trial"",""time""
""fullscreenenter"",""1"",""1451""
""fullscreenenter"",""1"",""1452""
","
","
","""event"",""trial"",""time""
""fullscreenenter"",""1"",""1451""
""fullscreenenter"",""1"",""1452""
","
","","","-1","","","18","13748","5980","&#9728;","elianto","#f73b6a7A","-1","-1","1","0","[]","0","1","","","13748","8","0","4","lose","no-go","0"
"pit-trial","126","1081311","0.0-12.0","battery-v0.2","","""event"",""trial"",""time""
""fullscreenenter"",""1"",""1451""
""fullscreenenter"",""1"",""1452""
","
","
","""event"",""trial"",""time""
""fullscreenenter"",""1"",""1451""
""fullscreenenter"",""1"",""1452""
","
","","","1059","","","18","13748","5980","&#9752;","elianto","#f73b6a7A"," "," ","1","-10","[1909.9999999997672]","1","1","","","13748","9","3","3","lose","go","1"
"pit-trial","127","1086172","0.0-13.0","battery-v0.2","","""event"",""trial"",""time""
""fullscreenenter"",""1"",""1451""
""fullscreenenter"",""1"",""1452""
","
","
","""event"",""trial"",""time""
""fullscreenenter"",""1"",""1451""
""fullscreenenter"",""1"",""1452""
","
","","","-1","","","18","13748","5980","&#9728;","elianto","#f73b6a7A","-1","-1","1","-10","[]","0","1","","","13748","10","0","4","lose","no-go","1"
"pit-trial","128","1089953","0.0-14.0","battery-v0.2","","""event"",""trial"",""time""
""fullscreenenter"",""1"",""1451""
""fullscreenenter"",""1"",""1452""
","
","
","""event"",""trial"",""time""
""fullscreenenter"",""1"",""1451""
""fullscreenenter"",""1"",""1452""
","
","","","922","","","18","13748","5980","&#9730;","elianto","#3366ff99"," "," ","1","+10","[1772]","1","1","","","13748","11","1","1","win","go","0"
"pit-trial","129","1093445","0.0-15.0","battery-v0.2","","""event"",""trial"",""time""
""fullscreenenter"",""1"",""1451""
""fullscreenenter"",""1"",""1452""
","
","
","""event"",""trial"",""time""
""fullscreenenter"",""1"",""1451""
""fullscreenenter"",""1"",""1452""
","
","","","632","","","18","13748","5980","&#9733;","elianto","#3366ff99","-1"," ","0","0","[1483]","1","1","","","13748","12","2","2","win","no-go","0"
"pit-trial","130","1097431","0.0-16.0","battery-v0.2","","""event"",""trial"",""time""
""fullscreenenter"",""1"",""1451""
""fullscreenenter"",""1"",""1452""
","
","
","""event"",""trial"",""time""
""fullscreenenter"",""1"",""1451""
""fullscreenenter"",""1"",""1452""
","
","","","1126","","","18","13748","5980","&#9752;","elianto","#f73b6a7A"," "," ","1","-10","[1977]","1","1","","","13748","13","3","3","lose","go","1"
"pit-trial","131","1101055","0.0-17.0","battery-v0.2","","""event"",""trial"",""time""
""fullscreenenter"",""1"",""1451""
""fullscreenenter"",""1"",""1452""
","
","
","""event"",""trial"",""time""
""fullscreenenter"",""1"",""1451""
""fullscreenenter"",""1"",""1452""
","
","","","764.0000000002328","","","18","13748","5980","&#9733;","elianto","#3366ff99","-1"," ","0","0","[1615.0000000002328]","1","1","","","13748","14","2","2","win","no-go","0"
"pit-trial","132","1104615","0.0-18.0","battery-v0.2","","""event"",""trial"",""time""
""fullscreenenter"",""1"",""1451""
""fullscreenenter"",""1"",""1452""
","
","
","""event"",""trial"",""time""
""fullscreenenter"",""1"",""1451""
""fullscreenenter"",""1"",""1452""
","
","","","701","","","18","13748","5980","&#9730;","elianto","#3366ff99"," "," ","1","+10","[1551]","1","1","","","13748","15","1","1","win","go","0"
"pit-trial","133","1109474","0.0-19.0","battery-v0.2","","""event"",""trial"",""time""
""fullscreenenter"",""1"",""1451""
""fullscreenenter"",""1"",""1452""
","
","
","""event"",""trial"",""time""
""fullscreenenter"",""1"",""1451""
""fullscreenenter"",""1"",""1452""
","
","","","-1","","","18","13748","5980","&#9728;","elianto","#f73b6a7A","-1","-1","1","0","[]","0","1","","","13748","16","0","4","lose","no-go","0"
"pit-trial","134","1112949","0.0-20.0","battery-v0.2","","""event"",""trial"",""time""
""fullscreenenter"",""1"",""1451""
""fullscreenenter"",""1"",""1452""
","
","
","""event"",""trial"",""time""
""fullscreenenter"",""1"",""1451""
""fullscreenenter"",""1"",""1452""
","
","","","617","","","18","13748","5980","&#9752;","elianto","#f73b6a7A"," "," ","1","0","[1467]","1","1","","","13748","17","3","3","lose","go","0"
"pit-trial","135","1116448","0.0-21.0","battery-v0.2","","""event"",""trial"",""time""
""fullscreenenter"",""1"",""1451""
""fullscreenenter"",""1"",""1452""
","
","
","""event"",""trial"",""time""
""fullscreenenter"",""1"",""1451""
""fullscreenenter"",""1"",""1452""
","
","","","639","","","18","13748","5980","&#9733;","elianto","#3366ff99","-1"," ","0","0","[1490]","1","1","","","13748","18","2","2","win","no-go","0"
"pit-trial","136","1120407","0.0-22.0","battery-v0.2","","""event"",""trial"",""time""
""fullscreenenter"",""1"",""1451""
""fullscreenenter"",""1"",""1452""
","
","
","""event"",""trial"",""time""
""fullscreenenter"",""1"",""1451""
""fullscreenenter"",""1"",""1452""
","
","","","1100","","","18","13748","5980","&#9730;","elianto","#3366ff99"," "," ","1","+10","[1951]","1","1","","","13748","19","1","1","win","go","0"
"pit-trial","137","1125266","0.0-23.0","battery-v0.2","","""event"",""trial"",""time""
""fullscreenenter"",""1"",""1451""
""fullscreenenter"",""1"",""1452""
","
","
","""event"",""trial"",""time""
""fullscreenenter"",""1"",""1451""
""fullscreenenter"",""1"",""1452""
","
","","","-1","","","18","13748","5980","&#9728;","elianto","#f73b6a7A","-1","-1","1","0","[]","0","1","","","13748","20","0","4","lose","no-go","0"
"pit-instructions","138","1138297","0.0-24.0","battery-v0.2","","""event"",""trial"",""time""
""fullscreenenter"",""1"",""1451""
""fullscreenenter"",""1"",""1452""
","
","
","""event"",""trial"",""time""
""fullscreenenter"",""1"",""1451""
""fullscreenenter"",""1"",""1452""
","
","","[{""page_index"":0,""viewing_time"":5994},{""page_index"":1,""viewing_time"":7033}]","13027","","","","","","","","","","","","","","","","","","","","","","","",""
"pit-trial","139","1142067","0.0-25.0","battery-v0.2","","""event"",""trial"",""time""
""fullscreenenter"",""1"",""1451""
""fullscreenenter"",""1"",""1452""
","
","
","""event"",""trial"",""time""
""fullscreenenter"",""1"",""1451""
""fullscreenenter"",""1"",""1452""
","
","","","913","","","18","13748","5980","a","elianto","#f73b6a7A"," "," ","1","0","[1763]","1","2","","","13748","21","2","3","lose","go","0"
"pit-trial","140","1146235","0.0-26.0","battery-v0.2","","""event"",""trial"",""time""
""fullscreenenter"",""1"",""1451""
""fullscreenenter"",""1"",""1452""
","
","
","""event"",""trial"",""time""
""fullscreenenter"",""1"",""1451""
""fullscreenenter"",""1"",""1452""
","
","","","1308","","","18","13748","5980","g","elianto","#f73b6a7A","-1"," ","0","-10","[2159]","1","2","","","13748","22","3","4","lose","no-go","0"
"pit-trial","141","1150927","0.0-27.0","battery-v0.2","","""event"",""trial"",""time""
""fullscreenenter"",""1"",""1451""
""fullscreenenter"",""1"",""1452""
","
","
","""event"",""trial"",""time""
""fullscreenenter"",""1"",""1451""
""fullscreenenter"",""1"",""1452""
","
","","","1833","","","18","13748","5980","u","elianto","#f73b6a7A"," "," ","1","0","[2684]","1","2","","","13748","23","0","3","lose","go","0"
"pit-trial","142","1154571","0.0-28.0","battery-v0.2","","""event"",""trial"",""time""
""fullscreenenter"",""1"",""1451""
""fullscreenenter"",""1"",""1452""
","
","
","""event"",""trial"",""time""
""fullscreenenter"",""1"",""1451""
""fullscreenenter"",""1"",""1452""
","
","","","785.9999999997672","","","18","13748","5980","l","elianto","#3366ff99","-1"," ","0","+10","[1636]","1","2","","","13748","24","1","2","win","no-go","1"
"pit-trial","143","1158716","0.0-29.0","battery-v0.2","","""event"",""trial"",""time""
""fullscreenenter"",""1"",""1451""
""fullscreenenter"",""1"",""1452""
","
","
","""event"",""trial"",""time""
""fullscreenenter"",""1"",""1451""
""fullscreenenter"",""1"",""1452""
","
","","","1283","","","18","13748","5980","a","elianto","#f73b6a7A"," "," ","1","0","[2136]","1","2","","","13748","25","2","3","lose","go","0"
"pit-trial","144","1162304","0.0-30.0","battery-v0.2","","""event"",""trial"",""time""
""fullscreenenter"",""1"",""1451""
""fullscreenenter"",""1"",""1452""
","
","
","""event"",""trial"",""time""
""fullscreenenter"",""1"",""1451""
""fullscreenenter"",""1"",""1452""
","
","","","729.0000000002328","","","18","13748","5980","l","elianto","#3366ff99","-1"," ","0","0","[1580.0000000002328]","1","2","","","13748","26","1","2","win","no-go","0"
"pit-trial","145","1167167","0.0-31.0","battery-v0.2","","""event"",""trial"",""time""
""fullscreenenter"",""1"",""1451""
""fullscreenenter"",""1"",""1452""
","
","
","""event"",""trial"",""time""
""fullscreenenter"",""1"",""1451""
""fullscreenenter"",""1"",""1452""
","
","","","-1","","","18","13748","5980","g","elianto","#f73b6a7A","-1","-1","1","0","[]","0","2","","","13748","27","3","4","lose","no-go","0"
"pit-trial","146","1171004","0.0-32.0","battery-v0.2","","""event"",""trial"",""time""
""fullscreenenter"",""1"",""1451""
""fullscreenenter"",""1"",""1452""
","
","
","""event"",""trial"",""time""
""fullscreenenter"",""1"",""1451""
""fullscreenenter"",""1"",""1452""
","
","","","978","","","18","13748","5980","u","elianto","#f73b6a7A"," "," ","1","0","[1828]","1","2","","","13748","28","0","3","lose","go","0"
"pit-trial","147","1174916","0.0-33.0","battery-v0.2","","""event"",""trial"",""time""
""fullscreenenter"",""1"",""1451""
""fullscreenenter"",""1"",""1452""
","
","
","""event"",""trial"",""time""
""fullscreenenter"",""1"",""1451""
""fullscreenenter"",""1"",""1452""
","
","","","1052","","","18","13748","5980","a","elianto","#f73b6a7A"," "," ","1","0","[1902]","1","2","","","13748","29","2","3","lose","go","0"
"pit-trial","148","1178333","0.0-34.0","battery-v0.2","","""event"",""trial"",""time""
""fullscreenenter"",""1"",""1451""
""fullscreenenter"",""1"",""1452""
","
","
","""event"",""trial"",""time""
""fullscreenenter"",""1"",""1451""
""fullscreenenter"",""1"",""1452""
","
","","","556","","","18","13748","5980","l","elianto","#3366ff99","-1"," ","0","0","[1407]","1","2","","","13748","30","1","2","win","no-go","0"
"pit-trial","149","1183193","0.0-35.0","battery-v0.2","","""event"",""trial"",""time""
""fullscreenenter"",""1"",""1451""
""fullscreenenter"",""1"",""1452""
","
","
","""event"",""trial"",""time""
""fullscreenenter"",""1"",""1451""
""fullscreenenter"",""1"",""1452""
","
","","","-1","","","18","13748","5980","g","elianto","#f73b6a7A","-1","-1","1","-10","[]","0","2","","","13748","31","3","4","lose","no-go","1"
"pit-trial","150","1186849","0.0-36.0","battery-v0.2","","""event"",""trial"",""time""
""fullscreenenter"",""1"",""1451""
""fullscreenenter"",""1"",""1452""
","
","
","""event"",""trial"",""time""
""fullscreenenter"",""1"",""1451""
""fullscreenenter"",""1"",""1452""
","
","","","796","","","18","13748","5980","u","elianto","#f73b6a7A"," "," ","1","0","[1646]","1","2","","","13748","32","0","3","lose","go","0"
"pit-trial","151","1190211","0.0-37.0","battery-v0.2","","""event"",""trial"",""time""
""fullscreenenter"",""1"",""1451""
""fullscreenenter"",""1"",""1452""
","
","
","""event"",""trial"",""time""
""fullscreenenter"",""1"",""1451""
""fullscreenenter"",""1"",""1452""
","
","","","502.99999999976717","","","18","13748","5980","l","elianto","#3366ff99","-1"," ","0","0","[1354]","1","2","","","13748","33","1","2","win","no-go","0"
"pit-trial","152","1193525","0.0-38.0","battery-v0.2","","""event"",""trial"",""time""
""fullscreenenter"",""1"",""1451""
""fullscreenenter"",""1"",""1452""
","
","
","""event"",""trial"",""time""
""fullscreenenter"",""1"",""1451""
""fullscreenenter"",""1"",""1452""
","
","","","454.00000000023283","","","18","13748","5980","u","elianto","#f73b6a7A"," "," ","1","0","[1306.0000000002328]","1","2","","","13748","34","0","3","lose","go","0"
"pit-trial","153","1196905","0.0-39.0","battery-v0.2","","""event"",""trial"",""time""
""fullscreenenter"",""1"",""1451""
""fullscreenenter"",""1"",""1452""
","
","
","""event"",""trial"",""time""
""fullscreenenter"",""1"",""1451""
""fullscreenenter"",""1"",""1452""
","
","","","519","","","18","13748","5980","a","elianto","#f73b6a7A"," "," ","1","0","[1369.9999999997672]","1","2","","","13748","35","2","3","lose","go","0"
"pit-trial","154","1201766","0.0-40.0","battery-v0.2","","""event"",""trial"",""time""
""fullscreenenter"",""1"",""1451""
""fullscreenenter"",""1"",""1452""
","
","
","""event"",""trial"",""time""
""fullscreenenter"",""1"",""1451""
""fullscreenenter"",""1"",""1452""
","
","","","-1","","","18","13748","5980","g","elianto","#f73b6a7A","-1","-1","1","0","[]","0","2","","","13748","36","3","4","lose","no-go","0"
"pit-trial","155","1205302","0.0-41.0","battery-v0.2","","""event"",""trial"",""time""
""fullscreenenter"",""1"",""1451""
""fullscreenenter"",""1"",""1452""
","
","
","""event"",""trial"",""time""
""fullscreenenter"",""1"",""1451""
""fullscreenenter"",""1"",""1452""
","
","","","678","","","18","13748","5980","a","elianto","#f73b6a7A"," "," ","1","-10","[1528]","1","2","","","13748","37","2","3","lose","go","1"
"pit-trial","156","1208899","0.0-42.0","battery-v0.2","","""event"",""trial"",""time""
""fullscreenenter"",""1"",""1451""
""fullscreenenter"",""1"",""1452""
","
","
","""event"",""trial"",""time""
""fullscreenenter"",""1"",""1451""
""fullscreenenter"",""1"",""1452""
","
","","","737","","","18","13748","5980","u","elianto","#f73b6a7A"," "," ","1","0","[1588]","1","2","","","13748","38","0","3","lose","go","0"
"pit-trial","157","1213759","0.0-43.0","battery-v0.2","","""event"",""trial"",""time""
""fullscreenenter"",""1"",""1451""
""fullscreenenter"",""1"",""1452""
","
","
","""event"",""trial"",""time""
""fullscreenenter"",""1"",""1451""
""fullscreenenter"",""1"",""1452""
","
","","","-1","","","18","13748","5980","g","elianto","#f73b6a7A","-1","-1","1","0","[]","0","2","","","13748","39","3","4","lose","no-go","0"
"pit-trial","158","1217062","0.0-44.0","battery-v0.2","","""event"",""trial"",""time""
""fullscreenenter"",""1"",""1451""
""fullscreenenter"",""1"",""1452""
","
","
","""event"",""trial"",""time""
""fullscreenenter"",""1"",""1451""
""fullscreenenter"",""1"",""1452""
","
","","","443","","","18","13748","5980","l","elianto","#3366ff99","-1"," ","0","+10","[1294]","1","2","","","13748","40","1","2","win","no-go","1"
"pit-trial","159","1220448","0.0-45.0","battery-v0.2","","""event"",""trial"",""time""
""fullscreenenter"",""1"",""1451""
""fullscreenenter"",""1"",""1452""
","
","
","""event"",""trial"",""time""
""fullscreenenter"",""1"",""1451""
""fullscreenenter"",""1"",""1452""
","
","","","527","","","18","13748","5980","l","elianto","#3366ff99","-1"," ","0","0","[1378]","1","2","","","13748","41","1","2","win","no-go","0"
"pit-trial","160","1223993","0.0-46.0","battery-v0.2","","""event"",""trial"",""time""
""fullscreenenter"",""1"",""1451""
""fullscreenenter"",""1"",""1452""
","
","
","""event"",""trial"",""time""
""fullscreenenter"",""1"",""1451""
""fullscreenenter"",""1"",""1452""
","
","","","682","","","18","13748","5980","a","elianto","#f73b6a7A"," "," ","1","0","[1534.9999999997672]","1","2","","","13748","42","2","3","lose","go","0"
"pit-trial","161","1228853","0.0-47.0","battery-v0.2","","""event"",""trial"",""time""
""fullscreenenter"",""1"",""1451""
""fullscreenenter"",""1"",""1452""
","
","
","""event"",""trial"",""time""
""fullscreenenter"",""1"",""1451""
""fullscreenenter"",""1"",""1452""
","
","","","-1","","","18","13748","5980","g","elianto","#f73b6a7A","-1","-1","1","-10","[]","0","2","","","13748","43","3","4","lose","no-go","1"
"pit-trial","162","1232287","0.0-48.0","battery-v0.2","","""event"",""trial"",""time""
""fullscreenenter"",""1"",""1451""
""fullscreenenter"",""1"",""1452""
","
","
","""event"",""trial"",""time""
""fullscreenenter"",""1"",""1451""
""fullscreenenter"",""1"",""1452""
","
","","","574","","","18","13748","5980","u","elianto","#f73b6a7A"," "," ","1","0","[1424.9999999997672]","1","2","","","13748","44","0","3","lose","go","0"
"pit-trial","163","1235622","0.0-49.0","battery-v0.2","","""event"",""trial"",""time""
""fullscreenenter"",""1"",""1451""
""fullscreenenter"",""1"",""1452""
","
","
","""event"",""trial"",""time""
""fullscreenenter"",""1"",""1451""
""fullscreenenter"",""1"",""1452""
","
","","","477","","","18","13748","5980","a","elianto","#f73b6a7A"," "," ","1","0","[1327]","1","2","","","13748","45","2","3","lose","go","0"
"pit-trial","164","1238991","0.0-50.0","battery-v0.2","","""event"",""trial"",""time""
""fullscreenenter"",""1"",""1451""
""fullscreenenter"",""1"",""1452""
","
","
","""event"",""trial"",""time""
""fullscreenenter"",""1"",""1451""
""fullscreenenter"",""1"",""1452""
","
","","","509","","","18","13748","5980","u","elianto","#f73b6a7A"," "," ","1","0","[1359.9999999997672]","1","2","","","13748","46","0","3","lose","go","0"
"pit-trial","165","1242320","0.0-51.0","battery-v0.2","","""event"",""trial"",""time""
""fullscreenenter"",""1"",""1451""
""fullscreenenter"",""1"",""1452""
","
","
","""event"",""trial"",""time""
""fullscreenenter"",""1"",""1451""
""fullscreenenter"",""1"",""1452""
","
","","","468.99999999976717","","","18","13748","5980","l","elianto","#3366ff99","-1"," ","0","0","[1320]","1","2","","","13748","47","1","2","win","no-go","0"
"pit-trial","166","1247181","0.0-52.0","battery-v0.2","","""event"",""trial"",""time""
""fullscreenenter"",""1"",""1451""
""fullscreenenter"",""1"",""1452""
","
","
","""event"",""trial"",""time""
""fullscreenenter"",""1"",""1451""
""fullscreenenter"",""1"",""1452""
","
","","","-1","","","18","13748","5980","g","elianto","#f73b6a7A","-1","-1","1","0","[]","0","2","","","13748","48","3","4","lose","no-go","0"
"pit-trial","167","1250642","0.0-53.0","battery-v0.2","","""event"",""trial"",""time""
""fullscreenenter"",""1"",""1451""
""fullscreenenter"",""1"",""1452""
","
","
","""event"",""trial"",""time""
""fullscreenenter"",""1"",""1451""
""fullscreenenter"",""1"",""1452""
","
","","","602","","","18","13748","5980","a","elianto","#f73b6a7A"," "," ","1","-10","[1452]","1","2","","","13748","49","2","3","lose","go","1"
"pit-trial","168","1254012","0.0-54.0","battery-v0.2","","""event"",""trial"",""time""
""fullscreenenter"",""1"",""1451""
""fullscreenenter"",""1"",""1452""
","
","
","""event"",""trial"",""time""
""fullscreenenter"",""1"",""1451""
""fullscreenenter"",""1"",""1452""
","
","","","511","","","18","13748","5980","l","elianto","#3366ff99","-1"," ","0","0","[1361]","1","2","","","13748","50","1","2","win","no-go","0"
"pit-trial","169","1257546","0.0-55.0","battery-v0.2","","""event"",""trial"",""time""
""fullscreenenter"",""1"",""1451""
""fullscreenenter"",""1"",""1452""
","
","
","""event"",""trial"",""time""
""fullscreenenter"",""1"",""1451""
""fullscreenenter"",""1"",""1452""
","
","","","673","","","18","13748","5980","u","elianto","#f73b6a7A"," "," ","1","0","[1524]","1","2","","","13748","51","0","3","lose","go","0"
"pit-trial","170","1262405","0.0-56.0","battery-v0.2","","""event"",""trial"",""time""
""fullscreenenter"",""1"",""1451""
""fullscreenenter"",""1"",""1452""
","
","
","""event"",""trial"",""time""
""fullscreenenter"",""1"",""1451""
""fullscreenenter"",""1"",""1452""
","
","","","-1","","","18","13748","5980","g","elianto","#f73b6a7A","-1","-1","1","0","[]","0","2","","","13748","52","3","4","lose","no-go","0"
"pit-trial","171","1265756","0.0-57.0","battery-v0.2","","""event"",""trial"",""time""
""fullscreenenter"",""1"",""1451""
""fullscreenenter"",""1"",""1452""
","
","
","""event"",""trial"",""time""
""fullscreenenter"",""1"",""1451""
""fullscreenenter"",""1"",""1452""
","
","","","490.00000000023283","","","18","13748","5980","l","elianto","#3366ff99","-1"," ","0","+10","[1342.0000000002328]","1","2","","","13748","53","1","2","win","no-go","1"
"pit-trial","172","1269416","0.0-58.0","battery-v0.2","","""event"",""trial"",""time""
""fullscreenenter"",""1"",""1451""
""fullscreenenter"",""1"",""1452""
","
","
","""event"",""trial"",""time""
""fullscreenenter"",""1"",""1451""
""fullscreenenter"",""1"",""1452""
","
","","","799","","","18","13748","5980","u","elianto","#f73b6a7A"," "," ","1","0","[1650]","1","2","","","13748","54","0","3","lose","go","0"
"pit-trial","173","1274276","0.0-59.0","battery-v0.2","","""event"",""trial"",""time""
""fullscreenenter"",""1"",""1451""
""fullscreenenter"",""1"",""1452""
","
","
","""event"",""trial"",""time""
""fullscreenenter"",""1"",""1451""
""fullscreenenter"",""1"",""1452""
","
","","","-1","","","18","13748","5980","g","elianto","#f73b6a7A","-1","-1","1","0","[]","0","2","","","13748","55","3","4","lose","no-go","0"
"pit-trial","174","1277842","0.0-60.0","battery-v0.2","","""event"",""trial"",""time""
""fullscreenenter"",""1"",""1451""
""fullscreenenter"",""1"",""1452""
","
","
","""event"",""trial"",""time""
""fullscreenenter"",""1"",""1451""
""fullscreenenter"",""1"",""1452""
","
","","","707","","","18","13748","5980","a","elianto","#f73b6a7A"," "," ","1","-10","[1557.9999999997672]","1","2","","","13748","56","2","3","lose","go","1"
"pit-trial","175","1281349","0.0-61.0","battery-v0.2","","""event"",""trial"",""time""
""fullscreenenter"",""1"",""1451""
""fullscreenenter"",""1"",""1452""
","
","
","""event"",""trial"",""time""
""fullscreenenter"",""1"",""1451""
""fullscreenenter"",""1"",""1452""
","
","","","648","","","18","13748","5980","a","elianto","#f73b6a7A"," "," ","1","0","[1497.9999999997672]","1","2","","","13748","57","2","3","lose","go","0"
"pit-trial","176","1286209","0.0-62.0","battery-v0.2","","""event"",""trial"",""time""
""fullscreenenter"",""1"",""1451""
""fullscreenenter"",""1"",""1452""
","
","
","""event"",""trial"",""time""
""fullscreenenter"",""1"",""1451""
""fullscreenenter"",""1"",""1452""
","
","","","-1","","","18","13748","5980","g","elianto","#f73b6a7A","-1","-1","1","0","[]","0","2","","","13748","58","3","4","lose","no-go","0"
"pit-trial","177","1289673","0.0-63.0","battery-v0.2","","""event"",""trial"",""time""
""fullscreenenter"",""1"",""1451""
""fullscreenenter"",""1"",""1452""
","
","
","""event"",""trial"",""time""
""fullscreenenter"",""1"",""1451""
""fullscreenenter"",""1"",""1452""
","
","","","603","","","18","13748","5980","p","elianto","#3366ff99"," "," ","1","+10","[1454]","1","2","","","13748","59","4","1","win","go","0"
"pit-trial","178","1293272","0.0-64.0","battery-v0.2","","""event"",""trial"",""time""
""fullscreenenter"",""1"",""1451""
""fullscreenenter"",""1"",""1452""
","
","
","""event"",""trial"",""time""
""fullscreenenter"",""1"",""1451""
""fullscreenenter"",""1"",""1452""
","
","","","739","","","18","13748","5980","u","elianto","#f73b6a7A"," "," ","1","-10","[1591]","1","2","","","13748","60","0","3","lose","go","1"
"pit-trial","179","1296617","0.0-65.0","battery-v0.2","","""event"",""trial"",""time""
""fullscreenenter"",""1"",""1451""
""fullscreenenter"",""1"",""1452""
","
","
","""event"",""trial"",""time""
""fullscreenenter"",""1"",""1451""
""fullscreenenter"",""1"",""1452""
","
","","","485","","","18","13748","5980","l","elianto","#3366ff99","-1"," ","0","0","[1337]","1","2","","","13748","61","1","2","win","no-go","0"
"pit-trial","180","1301477","0.0-66.0","battery-v0.2","","""event"",""trial"",""time""
""fullscreenenter"",""1"",""1451""
""fullscreenenter"",""1"",""1452""
","
","
","""event"",""trial"",""time""
""fullscreenenter"",""1"",""1451""
""fullscreenenter"",""1"",""1452""
","
","","","-1","","","18","13748","5980","g","elianto","#f73b6a7A","-1","-1","1","0","[]","0","2","","","13748","62","3","4","lose","no-go","0"
"pit-trial","181","1305194","0.0-67.0","battery-v0.2","","""event"",""trial"",""time""
""fullscreenenter"",""1"",""1451""
""fullscreenenter"",""1"",""1452""
","
","
","""event"",""trial"",""time""
""fullscreenenter"",""1"",""1451""
""fullscreenenter"",""1"",""1452""
","
","","","858","","","18","13748","5980","p","elianto","#3366ff99"," "," ","1","+10","[1707.9999999997672]","1","2","","","13748","63","4","1","win","go","0"
"pit-trial","182","1308678","0.0-68.0","battery-v0.2","","""event"",""trial"",""time""
""fullscreenenter"",""1"",""1451""
""fullscreenenter"",""1"",""1452""
","
","
","""event"",""trial"",""time""
""fullscreenenter"",""1"",""1451""
""fullscreenenter"",""1"",""1452""
","
","","","624.0000000002328","","","18","13748","5980","a","elianto","#f73b6a7A"," "," ","1","0","[1475.0000000002328]","1","2","","","13748","64","2","3","lose","go","0"
"pit-trial","183","1312042","0.0-69.0","battery-v0.2","","""event"",""trial"",""time""
""fullscreenenter"",""1"",""1451""
""fullscreenenter"",""1"",""1452""
","
","
","""event"",""trial"",""time""
""fullscreenenter"",""1"",""1451""
""fullscreenenter"",""1"",""1452""
","
","","","503","","","18","13748","5980","p","elianto","#3366ff99"," "," ","1","+10","[1354.9999999997672]","1","2","","","13748","65","4","1","win","go","0"
"pit-trial","184","1315402","0.0-70.0","battery-v0.2","","""event"",""trial"",""time""
""fullscreenenter"",""1"",""1451""
""fullscreenenter"",""1"",""1452""
","
","
","""event"",""trial"",""time""
""fullscreenenter"",""1"",""1451""
""fullscreenenter"",""1"",""1452""
","
","","","496","","","18","13748","5980","s","elianto","#3366ff99","-1"," ","0","+10","[1350]","1","2","","","13748","66","5","2","win","no-go","1"
"pit-trial","185","1320262","0.0-71.0","battery-v0.2","","""event"",""trial"",""time""
""fullscreenenter"",""1"",""1451""
""fullscreenenter"",""1"",""1452""
","
","
","""event"",""trial"",""time""
""fullscreenenter"",""1"",""1451""
""fullscreenenter"",""1"",""1452""
","
","","","-1","","","18","13748","5980","g","elianto","#f73b6a7A","-1","-1","1","0","[]","0","2","","","13748","67","3","4","lose","no-go","0"
"pit-trial","186","1323667","0.0-72.0","battery-v0.2","","""event"",""trial"",""time""
""fullscreenenter"",""1"",""1451""
""fullscreenenter"",""1"",""1452""
","
","
","""event"",""trial"",""time""
""fullscreenenter"",""1"",""1451""
""fullscreenenter"",""1"",""1452""
","
","","","546","","","18","13748","5980","l","elianto","#3366ff99","-1"," ","0","0","[1398]","1","2","","","13748","68","1","2","win","no-go","0"
"pit-trial","187","1327092","0.0-73.0","battery-v0.2","","""event"",""trial"",""time""
""fullscreenenter"",""1"",""1451""
""fullscreenenter"",""1"",""1452""
","
","
","""event"",""trial"",""time""
""fullscreenenter"",""1"",""1451""
""fullscreenenter"",""1"",""1452""
","
","","","564","","","18","13748","5980","p","elianto","#3366ff99"," "," ","1","+10","[1415]","1","2","","","13748","69","4","1","win","go","0"
"pit-trial","188","1330601","0.0-74.0","battery-v0.2","","""event"",""trial"",""time""
""fullscreenenter"",""1"",""1451""
""fullscreenenter"",""1"",""1452""
","
","
","""event"",""trial"",""time""
""fullscreenenter"",""1"",""1451""
""fullscreenenter"",""1"",""1452""
","
","","","649.0000000002328","","","18","13748","5980","a","elianto","#f73b6a7A"," "," ","1","0","[1500]","1","2","","","13748","70","2","3","lose","go","0"
"pit-trial","189","1334006","0.0-75.0","battery-v0.2","","""event"",""trial"",""time""
""fullscreenenter"",""1"",""1451""
""fullscreenenter"",""1"",""1452""
","
","
","""event"",""trial"",""time""
""fullscreenenter"",""1"",""1451""
""fullscreenenter"",""1"",""1452""
","
","","","546","","","18","13748","5980","l","elianto","#3366ff99","-1"," ","0","0","[1396]","1","2","","","13748","71","1","2","win","no-go","0"
"pit-trial","190","1337319","0.0-76.0","battery-v0.2","","""event"",""trial"",""time""
""fullscreenenter"",""1"",""1451""
""fullscreenenter"",""1"",""1452""
","
","
","""event"",""trial"",""time""
""fullscreenenter"",""1"",""1451""
""fullscreenenter"",""1"",""1452""
","
","","","453","","","18","13748","5980","s","elianto","#3366ff99","-1"," ","0","0","[1304]","1","2","","","13748","72","5","2","win","no-go","0"
"pit-trial","191","1340681","0.0-77.0","battery-v0.2","","""event"",""trial"",""time""
""fullscreenenter"",""1"",""1451""
""fullscreenenter"",""1"",""1452""
","
","
","""event"",""trial"",""time""
""fullscreenenter"",""1"",""1451""
""fullscreenenter"",""1"",""1452""
","
","","","502.99999999976717","","","18","13748","5980","p","elianto","#3366ff99"," "," ","1","+10","[1353]","1","2","","","13748","73","4","1","win","go","0"
"pit-trial","192","1345540","0.0-78.0","battery-v0.2","","""event"",""trial"",""time""
""fullscreenenter"",""1"",""1451""
""fullscreenenter"",""1"",""1452""
","
","
","""event"",""trial"",""time""
""fullscreenenter"",""1"",""1451""
""fullscreenenter"",""1"",""1452""
","
","","","-1","","","18","13748","5980","g","elianto","#f73b6a7A","-1","-1","1","0","[]","0","2","","","13748","74","3","4","lose","no-go","0"
"pit-trial","193","1348916","0.0-79.0","battery-v0.2","","""event"",""trial"",""time""
""fullscreenenter"",""1"",""1451""
""fullscreenenter"",""1"",""1452""
","
","
","""event"",""trial"",""time""
""fullscreenenter"",""1"",""1451""
""fullscreenenter"",""1"",""1452""
","
","","","514","","","18","13748","5980","l","elianto","#3366ff99","-1"," ","0","0","[1365]","1","2","","","13748","75","1","2","win","no-go","0"
"pit-trial","194","1352245","0.0-80.0","battery-v0.2","","""event"",""trial"",""time""
""fullscreenenter"",""1"",""1451""
""fullscreenenter"",""1"",""1452""
","
","
","""event"",""trial"",""time""
""fullscreenenter"",""1"",""1451""
""fullscreenenter"",""1"",""1452""
","
","","","468.00000000023283","","","18","13748","5980","s","elianto","#3366ff99","-1"," ","0","+10","[1319.0000000002328]","1","2","","","13748","76","5","2","win","no-go","1"
"pit-trial","195","1355547","0.0-81.0","battery-v0.2","","""event"",""trial"",""time""
""fullscreenenter"",""1"",""1451""
""fullscreenenter"",""1"",""1452""
","
","
","""event"",""trial"",""time""
""fullscreenenter"",""1"",""1451""
""fullscreenenter"",""1"",""1452""
","
","","","441","","","18","13748","5980","p","elianto","#3366ff99"," "," ","1","+10","[1291.9999999997672]","1","2","","","13748","77","4","1","win","go","0"
"pit-trial","196","1360409","0.0-82.0","battery-v0.2","","""event"",""trial"",""time""
""fullscreenenter"",""1"",""1451""
""fullscreenenter"",""1"",""1452""
","
","
","""event"",""trial"",""time""
""fullscreenenter"",""1"",""1451""
""fullscreenenter"",""1"",""1452""
","
","","","-1","","","18","13748","5980","g","elianto","#f73b6a7A","-1","-1","1","0","[]","0","2","","","13748","78","3","4","lose","no-go","0"
"pit-trial","197","1363743","0.0-83.0","battery-v0.2","","""event"",""trial"",""time""
""fullscreenenter"",""1"",""1451""
""fullscreenenter"",""1"",""1452""
","
","
","""event"",""trial"",""time""
""fullscreenenter"",""1"",""1451""
""fullscreenenter"",""1"",""1452""
","
","","","474","","","18","13748","5980","p","elianto","#3366ff99"," "," ","1","+10","[1326]","1","2","","","13748","79","4","1","win","go","0"
"pit-trial","198","1367039","0.0-84.0","battery-v0.2","","""event"",""trial"",""time""
""fullscreenenter"",""1"",""1451""
""fullscreenenter"",""1"",""1452""
","
","
","""event"",""trial"",""time""
""fullscreenenter"",""1"",""1451""
""fullscreenenter"",""1"",""1452""
","
","","","436","","","18","13748","5980","s","elianto","#3366ff99","-1"," ","0","0","[1287]","1","2","","","13748","80","5","2","win","no-go","0"
"pit-trial","199","1370338","0.0-85.0","battery-v0.2","","""event"",""trial"",""time""
""fullscreenenter"",""1"",""1451""
""fullscreenenter"",""1"",""1452""
","
","
","""event"",""trial"",""time""
""fullscreenenter"",""1"",""1451""
""fullscreenenter"",""1"",""1452""
","
","","","438","","","18","13748","5980","s","elianto","#3366ff99","-1"," ","0","+10","[1289]","1","2","","","13748","81","5","2","win","no-go","1"
"pit-trial","200","1373684","0.0-86.0","battery-v0.2","","""event"",""trial"",""time""
""fullscreenenter"",""1"",""1451""
""fullscreenenter"",""1"",""1452""
","
","
","""event"",""trial"",""time""
""fullscreenenter"",""1"",""1451""
""fullscreenenter"",""1"",""1452""
","
","","","488","","","18","13748","5980","p","elianto","#3366ff99"," "," ","1","+10","[1338]","1","2","","","13748","82","4","1","win","go","0"
"pit-trial","201","1377335","0.0-87.0","battery-v0.2","","""event"",""trial"",""time""
""fullscreenenter"",""1"",""1451""
""fullscreenenter"",""1"",""1452""
","
","
","""event"",""trial"",""time""
""fullscreenenter"",""1"",""1451""
""fullscreenenter"",""1"",""1452""
","
","","","790","","","18","13748","5980","e","elianto","#f73b6a7A","-1"," ","0","-10","[1642]","1","2","","","13748","83","7","4","lose","no-go","0"
"pit-trial","202","1382195","0.0-88.0","battery-v0.2","","""event"",""trial"",""time""
""fullscreenenter"",""1"",""1451""
""fullscreenenter"",""1"",""1452""
","
","
","""event"",""trial"",""time""
""fullscreenenter"",""1"",""1451""
""fullscreenenter"",""1"",""1452""
","
","","","-1","","","18","13748","5980","g","elianto","#f73b6a7A","-1","-1","1","0","[]","0","2","","","13748","84","3","4","lose","no-go","0"
"pit-trial","203","1387055","0.0-89.0","battery-v0.2","","""event"",""trial"",""time""
""fullscreenenter"",""1"",""1451""
""fullscreenenter"",""1"",""1452""
","
","
","""event"",""trial"",""time""
""fullscreenenter"",""1"",""1451""
""fullscreenenter"",""1"",""1452""
","
","","","-1","","","18","13748","5980","e","elianto","#f73b6a7A","-1","-1","1","0","[]","0","2","","","13748","85","7","4","lose","no-go","0"
"pit-trial","204","1390406","0.0-90.0","battery-v0.2","","""event"",""trial"",""time""
""fullscreenenter"",""1"",""1451""
""fullscreenenter"",""1"",""1452""
","
","
","""event"",""trial"",""time""
""fullscreenenter"",""1"",""1451""
""fullscreenenter"",""1"",""1452""
","
","","","491","","","18","13748","5980","p","elianto","#3366ff99"," "," ","1","+10","[1341]","1","2","","","13748","86","4","1","win","go","0"
"pit-trial","205","1393740","0.0-91.0","battery-v0.2","","""event"",""trial"",""time""
""fullscreenenter"",""1"",""1451""
""fullscreenenter"",""1"",""1452""
","
","
","""event"",""trial"",""time""
""fullscreenenter"",""1"",""1451""
""fullscreenenter"",""1"",""1452""
","
","","","474","","","18","13748","5980","s","elianto","#3366ff99","-1"," ","0","+10","[1325]","1","2","","","13748","87","5","2","win","no-go","1"
"pit-trial","206","1397579","0.0-92.0","battery-v0.2","","""event"",""trial"",""time""
""fullscreenenter"",""1"",""1451""
""fullscreenenter"",""1"",""1452""
","
","
","""event"",""trial"",""time""
""fullscreenenter"",""1"",""1451""
""fullscreenenter"",""1"",""1452""
","
","","","981","","","18","13748","5980","w","elianto","#f73b6a7A"," "," ","1","0","[1831]","1","2","","","13748","88","6","3","lose","go","0"
"pit-trial","207","1401062","0.0-93.0","battery-v0.2","","""event"",""trial"",""time""
""fullscreenenter"",""1"",""1451""
""fullscreenenter"",""1"",""1452""
","
","
","""event"",""trial"",""time""
""fullscreenenter"",""1"",""1451""
""fullscreenenter"",""1"",""1452""
","
","","","623.0000000002328","","","18","13748","5980","w","elianto","#f73b6a7A"," "," ","1","0","[1474.0000000002328]","1","2","","","13748","89","6","3","lose","go","0"
"pit-trial","208","1404472","0.0-94.0","battery-v0.2","","""event"",""trial"",""time""
""fullscreenenter"",""1"",""1451""
""fullscreenenter"",""1"",""1452""
","
","
","""event"",""trial"",""time""
""fullscreenenter"",""1"",""1451""
""fullscreenenter"",""1"",""1452""
","
","","","551","","","18","13748","5980","s","elianto","#3366ff99","-1"," ","0","0","[1402]","1","2","","","13748","90","5","2","win","no-go","0"
"pit-trial","209","1409332","0.0-95.0","battery-v0.2","","""event"",""trial"",""time""
""fullscreenenter"",""1"",""1451""
""fullscreenenter"",""1"",""1452""
","
","
","""event"",""trial"",""time""
""fullscreenenter"",""1"",""1451""
""fullscreenenter"",""1"",""1452""
","
","","","-1","","","18","13748","5980","e","elianto","#f73b6a7A","-1","-1","1","-10","[]","0","2","","","13748","91","7","4","lose","no-go","1"
"pit-trial","210","1412790","0.0-96.0","battery-v0.2","","""event"",""trial"",""time""
""fullscreenenter"",""1"",""1451""
""fullscreenenter"",""1"",""1452""
","
","
","""event"",""trial"",""time""
""fullscreenenter"",""1"",""1451""
""fullscreenenter"",""1"",""1452""
","
","","","597","","","18","13748","5980","p","elianto","#3366ff99"," "," ","1","+10","[1449]","1","2","","","13748","92","4","1","win","go","0"
"pit-trial","211","1416249","0.0-97.0","battery-v0.2","","""event"",""trial"",""time""
""fullscreenenter"",""1"",""1451""
""fullscreenenter"",""1"",""1452""
","
","
","""event"",""trial"",""time""
""fullscreenenter"",""1"",""1451""
""fullscreenenter"",""1"",""1452""
","
","","","600.9999999997672","","","18","13748","5980","d","elianto","#3366ff99"," "," ","1","+10","[1451]","1","2","","","13748","93","8","1","win","go","0"
"pit-trial","212","1419530","0.0-98.0","battery-v0.2","","""event"",""trial"",""time""
""fullscreenenter"",""1"",""1451""
""fullscreenenter"",""1"",""1452""
","
","
","""event"",""trial"",""time""
""fullscreenenter"",""1"",""1451""
""fullscreenenter"",""1"",""1452""
","
","","","422","","","18","13748","5980","s","elianto","#3366ff99","-1"," ","0","0","[1273]","1","2","","","13748","94","5","2","win","no-go","0"
"pit-trial","213","1424304","0.0-99.0","battery-v0.2","","""event"",""trial"",""time""
""fullscreenenter"",""1"",""1451""
""fullscreenenter"",""1"",""1452""
","
","
","""event"",""trial"",""time""
""fullscreenenter"",""1"",""1451""
""fullscreenenter"",""1"",""1452""
","
","","","1914","","","18","13748","5980","w","elianto","#f73b6a7A"," "," ","1","0","[2765]","1","2","","","13748","95","6","3","lose","go","0"
"pit-trial","214","1429163","0.0-100.0","battery-v0.2","","""event"",""trial"",""time""
""fullscreenenter"",""1"",""1451""
""fullscreenenter"",""1"",""1452""
","
","
","""event"",""trial"",""time""
""fullscreenenter"",""1"",""1451""
""fullscreenenter"",""1"",""1452""
","
","","","-1","","","18","13748","5980","e","elianto","#f73b6a7A","-1","-1","1","0","[]","0","2","","","13748","96","7","4","lose","no-go","0"
"pit-trial","215","1433396","0.0-101.0","battery-v0.2","","""event"",""trial"",""time""
""fullscreenenter"",""1"",""1451""
""fullscreenenter"",""1"",""1452""
","
","
","""event"",""trial"",""time""
""fullscreenenter"",""1"",""1451""
""fullscreenenter"",""1"",""1452""
","
","","","1374","","","18","13748","5980","w","elianto","#f73b6a7A"," "," ","1","0","[2224]","1","2","","","13748","97","6","3","lose","go","0"
"pit-trial","216","1436870","0.0-102.0","battery-v0.2","","""event"",""trial"",""time""
""fullscreenenter"",""1"",""1451""
""fullscreenenter"",""1"",""1452""
","
","
","""event"",""trial"",""time""
""fullscreenenter"",""1"",""1451""
""fullscreenenter"",""1"",""1452""
","
","","","615.9999999997672","","","18","13748","5980","d","elianto","#3366ff99"," "," ","1","+10","[1466]","1","2","","","13748","98","8","1","win","go","0"
"pit-trial","217","1440240","0.0-103.0","battery-v0.2","","""event"",""trial"",""time""
""fullscreenenter"",""1"",""1451""
""fullscreenenter"",""1"",""1452""
","
","
","""event"",""trial"",""time""
""fullscreenenter"",""1"",""1451""
""fullscreenenter"",""1"",""1452""
","
","","","513","","","18","13748","5980","s","elianto","#3366ff99","-1"," ","0","0","[1364]","1","2","","","13748","99","5","2","win","no-go","0"
"pit-trial","218","1445096","0.0-104.0","battery-v0.2","","""event"",""trial"",""time""
""fullscreenenter"",""1"",""1451""
""fullscreenenter"",""1"",""1452""
","
","
","""event"",""trial"",""time""
""fullscreenenter"",""1"",""1451""
""fullscreenenter"",""1"",""1452""
","
","","","-1","","","18","13748","5980","e","elianto","#f73b6a7A","-1","-1","1","-10","[]","0","2","","","13748","100","7","4","lose","no-go","1"
"pit-trial","219","1448584","0.0-105.0","battery-v0.2","","""event"",""trial"",""time""
""fullscreenenter"",""1"",""1451""
""fullscreenenter"",""1"",""1452""
","
","
","""event"",""trial"",""time""
""fullscreenenter"",""1"",""1451""
""fullscreenenter"",""1"",""1452""
","
","","","628","","","18","13748","5980","j","elianto","#3366ff99"," "," ","1","+10","[1479]","1","2","","","13748","101","9","1","win","go","0"
"pit-trial","220","1451958","0.0-106.0","battery-v0.2","","""event"",""trial"",""time""
""fullscreenenter"",""1"",""1451""
""fullscreenenter"",""1"",""1452""
","
","
","""event"",""trial"",""time""
""fullscreenenter"",""1"",""1451""
""fullscreenenter"",""1"",""1452""
","
","","","515","","","18","13748","5980","d","elianto","#3366ff99"," "," ","1","0","[1366]","1","2","","","13748","102","8","1","win","go","1"
"pit-trial","221","1455310","0.0-107.0","battery-v0.2","","""event"",""trial"",""time""
""fullscreenenter"",""1"",""1451""
""fullscreenenter"",""1"",""1452""
","
","
","""event"",""trial"",""time""
""fullscreenenter"",""1"",""1451""
""fullscreenenter"",""1"",""1452""
","
","","","490","","","18","13748","5980","s","elianto","#3366ff99","-1"," ","0","0","[1342]","1","2","","","13748","103","5","2","win","no-go","0"
"pit-trial","222","1460169","0.0-108.0","battery-v0.2","","""event"",""trial"",""time""
""fullscreenenter"",""1"",""1451""
""fullscreenenter"",""1"",""1452""
","
","
","""event"",""trial"",""time""
""fullscreenenter"",""1"",""1451""
""fullscreenenter"",""1"",""1452""
","
","","","-1","","","18","13748","5980","e","elianto","#f73b6a7A","-1","-1","1","0","[]","0","2","","","13748","104","7","4","lose","no-go","0"
"pit-trial","223","1464373","0.0-109.0","battery-v0.2","","""event"",""trial"",""time""
""fullscreenenter"",""1"",""1451""
""fullscreenenter"",""1"",""1452""
","
","
","""event"",""trial"",""time""
""fullscreenenter"",""1"",""1451""
""fullscreenenter"",""1"",""1452""
","
","","","1345","","","18","13748","5980","w","elianto","#f73b6a7A"," "," ","1","0","[2195]","1","2","","","13748","105","6","3","lose","go","0"
"pit-trial","224","1467795","0.0-110.0","battery-v0.2","","""event"",""trial"",""time""
""fullscreenenter"",""1"",""1451""
""fullscreenenter"",""1"",""1452""
","
","
","""event"",""trial"",""time""
""fullscreenenter"",""1"",""1451""
""fullscreenenter"",""1"",""1452""
","
","","","563","","","18","13748","5980","j","elianto","#3366ff99"," "," ","1","+10","[1414]","1","2","","","13748","106","9","1","win","go","0"
"pit-trial","225","1471210","0.0-111.0","battery-v0.2","","""event"",""trial"",""time""
""fullscreenenter"",""1"",""1451""
""fullscreenenter"",""1"",""1452""
","
","
","""event"",""trial"",""time""
""fullscreenenter"",""1"",""1451""
""fullscreenenter"",""1"",""1452""
","
","","","556","","","18","13748","5980","d","elianto","#3366ff99"," "," ","1","+10","[1406]","1","2","","","13748","107","8","1","win","go","0"
"pit-trial","226","1474632","0.0-112.0","battery-v0.2","","""event"",""trial"",""time""
""fullscreenenter"",""1"",""1451""
""fullscreenenter"",""1"",""1452""
","
","
","""event"",""trial"",""time""
""fullscreenenter"",""1"",""1451""
""fullscreenenter"",""1"",""1452""
","
","","","561","","","18","13748","5980","p","elianto","#3366ff99"," "," ","1","+10","[1413]","1","2","","","13748","108","4","1","win","go","0"
"pit-trial","227","1478382","0.0-113.0","battery-v0.2","","""event"",""trial"",""time""
""fullscreenenter"",""1"",""1451""
""fullscreenenter"",""1"",""1452""
","
","
","""event"",""trial"",""time""
""fullscreenenter"",""1"",""1451""
""fullscreenenter"",""1"",""1452""
","
","","","888","","","18","13748","5980","w","elianto","#f73b6a7A"," "," ","1","0","[1741]","1","2","","","13748","109","6","3","lose","go","0"
"pit-trial","228","1481777","0.0-114.0","battery-v0.2","","""event"",""trial"",""time""
""fullscreenenter"",""1"",""1451""
