"trial_type","trial_index","time_elapsed","internal_node_id","task_version","subject_id","interactions","blur_events","focus_events","fullscreenenter_events","fullscreenexit_events","success","view_history","rt","responses","num_errors","age","subject","participantId","rune","rune_set","hex","correct","choice","accuracy","outcome","keys","total_keys","block","practice","value","sub","trial","stimulus","robot","valence","action","sham"
"pavlovia","0","14","0.0-0.0","battery-v0.2","","""event"",""trial"",""time""
""fullscreenenter"",""1"",""2665""
","
","
","""event"",""trial"",""time""
""fullscreenenter"",""1"",""2665""
","
","","","","","","","","","","","","","","","","","","","","","","","","","","",""
"fullscreen","1","3584","0.0-1.0","battery-v0.2","","""event"",""trial"",""time""
""fullscreenenter"",""1"",""2665""
","
","
","""event"",""trial"",""time""
""fullscreenenter"",""1"",""2665""
","
","true","","","","","","","","","","","","","","","","","","","","","","","","","",""
"pit-instructions","2","9818","0.0-2.0-0.0","battery-v0.2","","""event"",""trial"",""time""
""fullscreenenter"",""1"",""2665""
","
","
","""event"",""trial"",""time""
""fullscreenenter"",""1"",""2665""
","
","","[{""page_index"":0,""viewing_time"":6219.10000038147}]","6220.10000038147","","","","","","","","","","","","","","","","","","","","","","","",""
"pit-comprehension","3","15986","0.0-2.0-1.0-0.0","battery-v0.2","","""event"",""trial"",""time""
""fullscreenenter"",""1"",""2665""
","
","
","""event"",""trial"",""time""
""fullscreenenter"",""1"",""2665""
","
","","","6157.400000095367","[""shark""]","0","15","9928","4673","","","","","","","","","","","","","","","","","","",""
"pit-instructions","4","17521","0.0-2.0-1.0-1.0","battery-v0.2","","""event"",""trial"",""time""
""fullscreenenter"",""1"",""2665""
","
","
","""event"",""trial"",""time""
""fullscreenenter"",""1"",""2665""
","
","","[{""page_index"":0,""viewing_time"":1519}]","1519.6999998092651","","","","","","","","","","","","","","","","","","","","","","","",""
"pit-comprehension","5","21468","0.0-2.0-2.0-0.0","battery-v0.2","","""event"",""trial"",""time""
""fullscreenenter"",""1"",""2665""
","
","
","""event"",""trial"",""time""
""fullscreenenter"",""1"",""2665""
","
","","","3938.699999809265","[""tiger""]","0","15","9928","4673","","","","","","","","","","","","","","","","","","",""
"pit-instructions","6","22620","0.0-2.0-2.0-1.0","battery-v0.2","","""event"",""trial"",""time""
""fullscreenenter"",""1"",""2665""
","
","
","""event"",""trial"",""time""
""fullscreenenter"",""1"",""2665""
","
","","[{""page_index"":0,""viewing_time"":1142.2000002861023}]","1143.5999999046326","","","","","","","","","","","","","","","","","","","","","","","",""
"pit-instructions","7","117449","0.0-2.0-3.0","battery-v0.2","","""event"",""trial"",""time""
""fullscreenenter"",""1"",""2665""
","
","
","""event"",""trial"",""time""
""fullscreenenter"",""1"",""2665""
","
","","[{""page_index"":0,""viewing_time"":8412.799999713898},{""page_index"":1,""viewing_time"":7264.5},{""page_index"":2,""viewing_time"":6153.10000038147},{""page_index"":3,""viewing_time"":5896.699999809265},{""page_index"":4,""viewing_time"":6990.800000190735},{""page_index"":5,""viewing_time"":5401.299999713898},{""page_index"":6,""viewing_time"":5152.900000095367},{""page_index"":7,""viewing_time"":6139.900000095367},{""page_index"":8,""viewing_time"":6218},{""page_index"":9,""viewing_time"":5234.400000095367},{""page_index"":10,""viewing_time"":8395.599999904633},{""page_index"":11,""viewing_time"":9465.299999713898},{""page_index"":12,""viewing_time"":7118.5},{""page_index"":13,""viewing_time"":6976.200000286102}]","94821","","","","","","","","","","","","","","","","","","","","","","","",""
"pit-trial","8","121876","0.0-2.0-4.0-0.0","battery-v0.2","","""event"",""trial"",""time""
""fullscreenenter"",""1"",""2665""
","
","
","""event"",""trial"",""time""
""fullscreenenter"",""1"",""2665""
","
","","","1545.8999996185303","","","15","9928","4673","&#9784;","elianto","#FFFFF080"," "," ","1","&#10004","[2405.800000190735]","1","0","0","","","","","","","",""
"pit-trial","9","125731","0.0-2.0-4.1-0.1","battery-v0.2","","""event"",""trial"",""time""
""fullscreenenter"",""1"",""2665""
","
","
","""event"",""trial"",""time""
""fullscreenenter"",""1"",""2665""
","
","","","991.5","","","15","9928","4673","&#9784;","elianto","#FFFFF080"," "," ","1","&#10004","[1843.2999997138977]","1","0","0","","","","","","","",""
"pit-trial","10","128978","0.0-2.0-4.2-0.2","battery-v0.2","","""event"",""trial"",""time""
""fullscreenenter"",""1"",""2665""
","
","
","""event"",""trial"",""time""
""fullscreenenter"",""1"",""2665""
","
","","","386","","","15","9928","4673","&#9784;","elianto","#FFFFF080"," "," ","1","&#10004","[1236.0999999046326]","1","0","0","","","","","","","",""
"pit-trial","11","132321","0.0-2.0-4.3-0.3","battery-v0.2","","""event"",""trial"",""time""
""fullscreenenter"",""1"",""2665""
","
","
","""event"",""trial"",""time""
""fullscreenenter"",""1"",""2665""
","
","","","479.7000002861023","","","15","9928","4673","&#9784;","elianto","#FFFFF080"," "," ","1","&#10004","[1332.7999997138977]","1","0","0","","","","","","","",""
"pit-trial","12","135606","0.0-2.0-4.4-0.4","battery-v0.2","","""event"",""trial"",""time""
""fullscreenenter"",""1"",""2665""
","
","
","""event"",""trial"",""time""
""fullscreenenter"",""1"",""2665""
","
","","","427.69999980926514","","","15","9928","4673","&#9784;","elianto","#FFFFF080"," "," ","1","&#10004","[1279.7000002861023]","1","0","0","","","","","","","",""
"pit-instructions","13","162352","0.0-2.0-5.0","battery-v0.2","","""event"",""trial"",""time""
""fullscreenenter"",""1"",""2665""
","
","
","""event"",""trial"",""time""
""fullscreenenter"",""1"",""2665""
","
","","[{""page_index"":0,""viewing_time"":6805.5},{""page_index"":1,""viewing_time"":7248.200000286102},{""page_index"":2,""viewing_time"":6245.599999904633},{""page_index"":3,""viewing_time"":6439.900000095367}]","26740","","","","","","","","","","","","","","","","","","","","","","","",""
"pit-trial","14","167228","0.0-2.0-6.0-0.0","battery-v0.2","","""event"",""trial"",""time""
""fullscreenenter"",""1"",""2665""
","
","
","""event"",""trial"",""time""
""fullscreenenter"",""1"",""2665""
","
","","","-1","","","15","9928","4673","&#9854;","elianto","#FFFFF080","-1","-1","1","&#10004","[]","0","0","1","","","","","","","",""
"pit-trial","15","172100","0.0-2.0-6.1-0.1","battery-v0.2","","""event"",""trial"",""time""
""fullscreenenter"",""1"",""2665""
","
","
","""event"",""trial"",""time""
""fullscreenenter"",""1"",""2665""
","
","","","-1","","","15","9928","4673","&#9854;","elianto","#FFFFF080","-1","-1","1","&#10004","[]","0","0","1","","","","","","","",""
"pit-trial","16","176977","0.0-2.0-6.2-0.2","battery-v0.2","","""event"",""trial"",""time""
""fullscreenenter"",""1"",""2665""
","
","
","""event"",""trial"",""time""
""fullscreenenter"",""1"",""2665""
","
","","","-1","","","15","9928","4673","&#9854;","elianto","#FFFFF080","-1","-1","1","&#10004","[]","0","0","1","","","","","","","",""
"pit-trial","17","181847","0.0-2.0-6.3-0.3","battery-v0.2","","""event"",""trial"",""time""
""fullscreenenter"",""1"",""2665""
","
","
","""event"",""trial"",""time""
""fullscreenenter"",""1"",""2665""
","
","","","-1","","","15","9928","4673","&#9854;","elianto","#FFFFF080","-1","-1","1","&#10004","[]","0","0","1","","","","","","","",""
"pit-trial","18","186715","0.0-2.0-6.4-0.4","battery-v0.2","","""event"",""trial"",""time""
""fullscreenenter"",""1"",""2665""
","
","
","""event"",""trial"",""time""
""fullscreenenter"",""1"",""2665""
","
","","","-1","","","15","9928","4673","&#9854;","elianto","#FFFFF080","-1","-1","1","&#10004","[]","0","0","1","","","","","","","",""
"pit-instructions","19","323604","0.0-2.0-7.0","battery-v0.2","","""event"",""trial"",""time""
""fullscreenenter"",""1"",""2665""
","
","
","""event"",""trial"",""time""
""fullscreenenter"",""1"",""2665""
","
","","[{""page_index"":0,""viewing_time"":6350},{""page_index"":1,""viewing_time"":8906.599999904633},{""page_index"":2,""viewing_time"":7738.200000286102},{""page_index"":3,""viewing_time"":8108.400000095367},{""page_index"":4,""viewing_time"":5507.5},{""page_index"":5,""viewing_time"":6468.699999809265},{""page_index"":6,""viewing_time"":6247.900000095367},{""page_index"":7,""viewing_time"":8817},{""page_index"":8,""viewing_time"":9515.799999713898},{""page_index"":9,""viewing_time"":8021.10000038147},{""page_index"":10,""viewing_time"":7378},{""page_index"":11,""viewing_time"":6086.39999961853},{""page_index"":12,""viewing_time"":7234.10000038147},{""page_index"":13,""viewing_time"":9017.39999961853},{""page_index"":14,""viewing_time"":8259.5},{""page_index"":15,""viewing_time"":8201.700000286102},{""page_index"":16,""viewing_time"":6508.299999713898},{""page_index"":17,""viewing_time"":8514.900000095367}]","136883","","","","","","","","","","","","","","","","","","","","","","","",""
"pit-trial","20","327457","0.0-2.0-8.0-0.0","battery-v0.2","","""event"",""trial"",""time""
""fullscreenenter"",""1"",""2665""
","
","
","""event"",""trial"",""time""
""fullscreenenter"",""1"",""2665""
","
","","","990.1999998092651","","","15","9928","4673","&#9776;","elianto","#3366ff99"," "," ","1","+10","[1842]","1","0","1","","","","","","","",""
"pit-trial","21","330810","0.0-2.0-8.0-1.0","battery-v0.2","","""event"",""trial"",""time""
""fullscreenenter"",""1"",""2665""
","
","
","""event"",""trial"",""time""
""fullscreenenter"",""1"",""2665""
","
","","","499.40000009536743","","","15","9928","4673","&#9776;","elianto","#3366ff99"," "," ","1","+10","[1349.8000001907349]","1","0","1","","","","","","","",""
"pit-trial","22","334126","0.0-2.0-8.0-2.0","battery-v0.2","","""event"",""trial"",""time""
""fullscreenenter"",""1"",""2665""
","
","
","""event"",""trial"",""time""
""fullscreenenter"",""1"",""2665""
","
","","","457.69999980926514","","","15","9928","4673","&#9776;","elianto","#3366ff99"," "," ","1","+10","[1309.3999996185303]","1","0","1","","","","","","","",""
"pit-trial","23","337435","0.0-2.0-8.0-3.0","battery-v0.2","","""event"",""trial"",""time""
""fullscreenenter"",""1"",""2665""
","
","
","""event"",""trial"",""time""
""fullscreenenter"",""1"",""2665""
","
","","","454.59999990463257","","","15","9928","4673","&#9776;","elianto","#3366ff99"," "," ","1","0","[1304.8000001907349]","1","0","1","","","","","","","",""
"pit-trial","24","340762","0.0-2.0-8.0-4.0","battery-v0.2","","""event"",""trial"",""time""
""fullscreenenter"",""1"",""2665""
","
","
","""event"",""trial"",""time""
""fullscreenenter"",""1"",""2665""
","
","","","459.80000019073486","","","15","9928","4673","&#9776;","elianto","#3366ff99"," "," ","1","+10","[1317.4000000953674]","1","0","1","","","","","","","",""
"pit-trial","25","343894","0.0-2.0-8.1-0.1","battery-v0.2","","""event"",""trial"",""time""
""fullscreenenter"",""1"",""2665""
","
","
","""event"",""trial"",""time""
""fullscreenenter"",""1"",""2665""
","
","","","271.40000009536743","","","15","9928","4673","&#9776;","elianto","#3366ff99"," "," ","1","+10","[1122.5999999046326]","1","0","1","","","","","","","",""
"pit-trial","26","347288","0.0-2.0-8.1-1.1","battery-v0.2","","""event"",""trial"",""time""
""fullscreenenter"",""1"",""2665""
","
","
","""event"",""trial"",""time""
""fullscreenenter"",""1"",""2665""
","
","","","535.3000001907349","","","15","9928","4673","&#9776;","elianto","#3366ff99"," "," ","1","+10","[1390.2999997138977]","1","0","1","","","","","","","",""
"pit-trial","27","350756","0.0-2.0-8.1-2.1","battery-v0.2","","""event"",""trial"",""time""
""fullscreenenter"",""1"",""2665""
","
","
","""event"",""trial"",""time""
""fullscreenenter"",""1"",""2665""
","
","","","604.2000002861023","","","15","9928","4673","&#9776;","elianto","#3366ff99"," "," ","1","+10","[1459.0999999046326]","1","0","1","","","","","","","",""
"pit-trial","28","354134","0.0-2.0-8.1-3.1","battery-v0.2","","""event"",""trial"",""time""
""fullscreenenter"",""1"",""2665""
","
","
","""event"",""trial"",""time""
""fullscreenenter"",""1"",""2665""
","
","","","518.8999996185303","","","15","9928","4673","&#9776;","elianto","#3366ff99"," "," ","1","0","[1374.1999998092651]","1","0","1","","","","","","","",""
"pit-trial","29","357586","0.0-2.0-8.1-4.1","battery-v0.2","","""event"",""trial"",""time""
""fullscreenenter"",""1"",""2665""
","
","
","""event"",""trial"",""time""
""fullscreenenter"",""1"",""2665""
","
","","","596.5","","","15","9928","4673","&#9776;","elianto","#3366ff99"," "," ","1","+10","[1446.9000000953674]","1","0","1","","","","","","","",""
"pit-trial","30","361108","0.0-2.0-8.2-0.2","battery-v0.2","","""event"",""trial"",""time""
""fullscreenenter"",""1"",""2665""
","
","
","""event"",""trial"",""time""
""fullscreenenter"",""1"",""2665""
","
","","","654.8000001907349","","","15","9928","4673","&#9776;","elianto","#3366ff99"," "," ","1","+10","[1509.9000000953674]","1","0","1","","","","","","","",""
"pit-trial","31","364623","0.0-2.0-8.2-1.2","battery-v0.2","","""event"",""trial"",""time""
""fullscreenenter"",""1"",""2665""
","
","
","""event"",""trial"",""time""
""fullscreenenter"",""1"",""2665""
","
","","","658.0999999046326","","","15","9928","4673","&#9776;","elianto","#3366ff99"," "," ","1","+10","[1508.5]","1","0","1","","","","","","","",""
"pit-trial","32","368163","0.0-2.0-8.2-2.2","battery-v0.2","","""event"",""trial"",""time""
""fullscreenenter"",""1"",""2665""
","
","
","""event"",""trial"",""time""
""fullscreenenter"",""1"",""2665""
","
","","","679.5999999046326","","","15","9928","4673","&#9776;","elianto","#3366ff99"," "," ","1","+10","[1530]","1","0","1","","","","","","","",""
"pit-trial","33","371294","0.0-2.0-8.2-3.2","battery-v0.2","","""event"",""trial"",""time""
""fullscreenenter"",""1"",""2665""
","
","
","""event"",""trial"",""time""
""fullscreenenter"",""1"",""2665""
","
","","","278.30000019073486","","","15","9928","4673","&#9776;","elianto","#3366ff99"," "," ","1","0","[1131.0999999046326]","1","0","1","","","","","","","",""
"pit-trial","34","374555","0.0-2.0-8.2-4.2","battery-v0.2","","""event"",""trial"",""time""
""fullscreenenter"",""1"",""2665""
","
","
","""event"",""trial"",""time""
""fullscreenenter"",""1"",""2665""
","
","","","399.5","","","15","9928","4673","&#9776;","elianto","#3366ff99"," "," ","1","+10","[1249.9000000953674]","1","0","1","","","","","","","",""
"call-function","35","374559","0.0-2.0-9.0","battery-v0.2","","""event"",""trial"",""time""
""fullscreenenter"",""1"",""2665""
","
","
","""event"",""trial"",""time""
""fullscreenenter"",""1"",""2665""
","
","","","","","","","","","","","","","","","","","","","","","","","","","","",""
"pit-instructions","36","419902","0.0-2.0-10.0","battery-v0.2","","""event"",""trial"",""time""
""fullscreenenter"",""1"",""2665""
","
","
","""event"",""trial"",""time""
""fullscreenenter"",""1"",""2665""
","
","","[{""page_index"":0,""viewing_time"":7019.800000190735},{""page_index"":1,""viewing_time"":7537.099999904633},{""page_index"":2,""viewing_time"":11068.400000095367},{""page_index"":3,""viewing_time"":10274.299999713898},{""page_index"":4,""viewing_time"":9441.200000286102}]","45341.5","","","","","","","","","","","","","","","","","","","","","","","",""
"pit-trial","37","424782","0.0-2.0-11.0-0.0","battery-v0.2","","""event"",""trial"",""time""
""fullscreenenter"",""1"",""2665""
","
","
","""event"",""trial"",""time""
""fullscreenenter"",""1"",""2665""
","
","","","-1","","","15","9928","4673","&#9761;","elianto","#3366ff99","-1","-1","1","+10","[]","0","0","2","","","","","","","",""
"pit-trial","38","429658","0.0-2.0-11.0-1.0","battery-v0.2","","""event"",""trial"",""time""
""fullscreenenter"",""1"",""2665""
","
","
","""event"",""trial"",""time""
""fullscreenenter"",""1"",""2665""
","
","","","-1","","","15","9928","4673","&#9761;","elianto","#3366ff99","-1","-1","1","+10","[]","0","0","2","","","","","","","",""
"pit-trial","39","434517","0.0-2.0-11.0-2.0","battery-v0.2","","""event"",""trial"",""time""
""fullscreenenter"",""1"",""2665""
","
","
","""event"",""trial"",""time""
""fullscreenenter"",""1"",""2665""
","
","","","-1","","","15","9928","4673","&#9761;","elianto","#3366ff99","-1","-1","1","+10","[]","0","0","2","","","","","","","",""
"pit-trial","40","439398","0.0-2.0-11.0-3.0","battery-v0.2","","""event"",""trial"",""time""
""fullscreenenter"",""1"",""2665""
","
","
","""event"",""trial"",""time""
""fullscreenenter"",""1"",""2665""
","
","","","-1","","","15","9928","4673","&#9761;","elianto","#3366ff99","-1","-1","1","0","[]","0","0","2","","","","","","","",""
"pit-trial","41","444268","0.0-2.0-11.0-4.0","battery-v0.2","","""event"",""trial"",""time""
""fullscreenenter"",""1"",""2665""
","
","
","""event"",""trial"",""time""
""fullscreenenter"",""1"",""2665""
","
","","","-1","","","15","9928","4673","&#9761;","elianto","#3366ff99","-1","-1","1","+10","[]","0","0","2","","","","","","","",""
"pit-trial","42","449135","0.0-2.0-11.1-0.1","battery-v0.2","","""event"",""trial"",""time""
""fullscreenenter"",""1"",""2665""
","
","
","""event"",""trial"",""time""
""fullscreenenter"",""1"",""2665""
","
","","","-1","","","15","9928","4673","&#9761;","elianto","#3366ff99","-1","-1","1","+10","[]","0","0","2","","","","","","","",""
"pit-trial","43","453999","0.0-2.0-11.1-1.1","battery-v0.2","","""event"",""trial"",""time""
""fullscreenenter"",""1"",""2665""
","
","
","""event"",""trial"",""time""
""fullscreenenter"",""1"",""2665""
","
","","","-1","","","15","9928","4673","&#9761;","elianto","#3366ff99","-1","-1","1","+10","[]","0","0","2","","","","","","","",""
"pit-trial","44","458863","0.0-2.0-11.1-2.1","battery-v0.2","","""event"",""trial"",""time""
""fullscreenenter"",""1"",""2665""
","
","
","""event"",""trial"",""time""
""fullscreenenter"",""1"",""2665""
","
","","","-1","","","15","9928","4673","&#9761;","elianto","#3366ff99","-1","-1","1","+10","[]","0","0","2","","","","","","","",""
"pit-trial","45","463731","0.0-2.0-11.1-3.1","battery-v0.2","","""event"",""trial"",""time""
""fullscreenenter"",""1"",""2665""
","
","
","""event"",""trial"",""time""
""fullscreenenter"",""1"",""2665""
","
","","","-1","","","15","9928","4673","&#9761;","elianto","#3366ff99","-1","-1","1","0","[]","0","0","2","","","","","","","",""
"pit-trial","46","468605","0.0-2.0-11.1-4.1","battery-v0.2","","""event"",""trial"",""time""
""fullscreenenter"",""1"",""2665""
","
","
","""event"",""trial"",""time""
""fullscreenenter"",""1"",""2665""
","
","","","-1","","","15","9928","4673","&#9761;","elianto","#3366ff99","-1","-1","1","+10","[]","0","0","2","","","","","","","",""
"pit-trial","47","473470","0.0-2.0-11.2-0.2","battery-v0.2","","""event"",""trial"",""time""
""fullscreenenter"",""1"",""2665""
","
","
","""event"",""trial"",""time""
""fullscreenenter"",""1"",""2665""
","
","","","-1","","","15","9928","4673","&#9761;","elianto","#3366ff99","-1","-1","1","+10","[]","0","0","2","","","","","","","",""
"pit-trial","48","478337","0.0-2.0-11.2-1.2","battery-v0.2","","""event"",""trial"",""time""
""fullscreenenter"",""1"",""2665""
","
","
","""event"",""trial"",""time""
""fullscreenenter"",""1"",""2665""
","
","","","-1","","","15","9928","4673","&#9761;","elianto","#3366ff99","-1","-1","1","+10","[]","0","0","2","","","","","","","",""
"pit-trial","49","483198","0.0-2.0-11.2-2.2","battery-v0.2","","""event"",""trial"",""time""
""fullscreenenter"",""1"",""2665""
","
","
","""event"",""trial"",""time""
""fullscreenenter"",""1"",""2665""
","
","","","-1","","","15","9928","4673","&#9761;","elianto","#3366ff99","-1","-1","1","+10","[]","0","0","2","","","","","","","",""
"pit-trial","50","488068","0.0-2.0-11.2-3.2","battery-v0.2","","""event"",""trial"",""time""
""fullscreenenter"",""1"",""2665""
","
","
","""event"",""trial"",""time""
""fullscreenenter"",""1"",""2665""
","
","","","-1","","","15","9928","4673","&#9761;","elianto","#3366ff99","-1","-1","1","0","[]","0","0","2","","","","","","","",""
"pit-trial","51","492925","0.0-2.0-11.2-4.2","battery-v0.2","","""event"",""trial"",""time""
""fullscreenenter"",""1"",""2665""
","
","
","""event"",""trial"",""time""
""fullscreenenter"",""1"",""2665""
","
","","","-1","","","15","9928","4673","&#9761;","elianto","#3366ff99","-1","-1","1","+10","[]","0","0","2","","","","","","","",""
"pit-trial","52","497789","0.0-2.0-11.3-0.3","battery-v0.2","","""event"",""trial"",""time""
""fullscreenenter"",""1"",""2665""
","
","
","""event"",""trial"",""time""
""fullscreenenter"",""1"",""2665""
","
","","","-1","","","15","9928","4673","&#9761;","elianto","#3366ff99","-1","-1","1","+10","[]","0","0","2","","","","","","","",""
"pit-trial","53","502646","0.0-2.0-11.3-1.3","battery-v0.2","","""event"",""trial"",""time""
""fullscreenenter"",""1"",""2665""
","
","
","""event"",""trial"",""time""
""fullscreenenter"",""1"",""2665""
","
","","","-1","","","15","9928","4673","&#9761;","elianto","#3366ff99","-1","-1","1","+10","[]","0","0","2","","","","","","","",""
"pit-trial","54","507503","0.0-2.0-11.3-2.3","battery-v0.2","","""event"",""trial"",""time""
""fullscreenenter"",""1"",""2665""
","
","
","""event"",""trial"",""time""
""fullscreenenter"",""1"",""2665""
","
","","","-1","","","15","9928","4673","&#9761;","elianto","#3366ff99","-1","-1","1","+10","[]","0","0","2","","","","","","","",""
"pit-trial","55","512372","0.0-2.0-11.3-3.3","battery-v0.2","","""event"",""trial"",""time""
""fullscreenenter"",""1"",""2665""
","
","
","""event"",""trial"",""time""
""fullscreenenter"",""1"",""2665""
","
","","","-1","","","15","9928","4673","&#9761;","elianto","#3366ff99","-1","-1","1","0","[]","0","0","2","","","","","","","",""
"pit-trial","56","517231","0.0-2.0-11.3-4.3","battery-v0.2","","""event"",""trial"",""time""
""fullscreenenter"",""1"",""2665""
","
","
","""event"",""trial"",""time""
""fullscreenenter"",""1"",""2665""
","
","","","-1","","","15","9928","4673","&#9761;","elianto","#3366ff99","-1","-1","1","+10","[]","0","0","2","","","","","","","",""
"call-function","57","517234","0.0-2.0-12.0","battery-v0.2","","""event"",""trial"",""time""
""fullscreenenter"",""1"",""2665""
","
","
","""event"",""trial"",""time""
""fullscreenenter"",""1"",""2665""
","
","","","","","","","","","","","","","","","","","","","","","","","","","","",""
"pit-instructions","58","612127","0.0-2.0-13.0","battery-v0.2","","""event"",""trial"",""time""
""fullscreenenter"",""1"",""2665""
","
","
","""event"",""trial"",""time""
""fullscreenenter"",""1"",""2665""
","
","","[{""page_index"":0,""viewing_time"":9951.39999961853},{""page_index"":1,""viewing_time"":9308},{""page_index"":2,""viewing_time"":46602.2000002861},{""page_index"":3,""viewing_time"":18503.5},{""page_index"":4,""viewing_time"":10523.699999809265}]","94889.7999997139","","","","","","","","","","","","","","","","","","","","","","","",""
"pit-trial","59","616996","0.0-2.0-14.0-0.0","battery-v0.2","","""event"",""trial"",""time""
""fullscreenenter"",""1"",""2665""
","
","
","""event"",""trial"",""time""
""fullscreenenter"",""1"",""2665""
","
","","","-1","","","15","9928","4673","&#9826;","elianto","#f73b6a7A","-1","-1","1","0","[]","0","0","3","","","","","","","",""
"pit-trial","60","621864","0.0-2.0-14.0-1.0","battery-v0.2","","""event"",""trial"",""time""
""fullscreenenter"",""1"",""2665""
","
","
","""event"",""trial"",""time""
""fullscreenenter"",""1"",""2665""
","
","","","-1","","","15","9928","4673","&#9826;","elianto","#f73b6a7A","-1","-1","1","0","[]","0","0","3","","","","","","","",""
"pit-trial","61","626737","0.0-2.0-14.0-2.0","battery-v0.2","","""event"",""trial"",""time""
""fullscreenenter"",""1"",""2665""
","
","
","""event"",""trial"",""time""
""fullscreenenter"",""1"",""2665""
","
","","","-1","","","15","9928","4673","&#9826;","elianto","#f73b6a7A","-1","-1","1","0","[]","0","0","3","","","","","","","",""
"pit-trial","62","631594","0.0-2.0-14.0-3.0","battery-v0.2","","""event"",""trial"",""time""
""fullscreenenter"",""1"",""2665""
","
","
","""event"",""trial"",""time""
""fullscreenenter"",""1"",""2665""
","
","","","-1","","","15","9928","4673","&#9826;","elianto","#f73b6a7A","-1","-1","1","-10","[]","0","0","3","","","","","","","",""
"pit-trial","63","636460","0.0-2.0-14.0-4.0","battery-v0.2","","""event"",""trial"",""time""
""fullscreenenter"",""1"",""2665""
","
","
","""event"",""trial"",""time""
""fullscreenenter"",""1"",""2665""
","
","","","-1","","","15","9928","4673","&#9826;","elianto","#f73b6a7A","-1","-1","1","0","[]","0","0","3","","","","","","","",""
"pit-trial","64","641322","0.0-2.0-14.1-0.1","battery-v0.2","","""event"",""trial"",""time""
""fullscreenenter"",""1"",""2665""
","
","
","""event"",""trial"",""time""
""fullscreenenter"",""1"",""2665""
","
","","","-1","","","15","9928","4673","&#9826;","elianto","#f73b6a7A","-1","-1","1","0","[]","0","0","3","","","","","","","",""
"pit-trial","65","646185","0.0-2.0-14.1-1.1","battery-v0.2","","""event"",""trial"",""time""
""fullscreenenter"",""1"",""2665""
","
","
","""event"",""trial"",""time""
""fullscreenenter"",""1"",""2665""
","
","","","-1","","","15","9928","4673","&#9826;","elianto","#f73b6a7A","-1","-1","1","0","[]","0","0","3","","","","","","","",""
"pit-trial","66","651054","0.0-2.0-14.1-2.1","battery-v0.2","","""event"",""trial"",""time""
""fullscreenenter"",""1"",""2665""
","
","
","""event"",""trial"",""time""
""fullscreenenter"",""1"",""2665""
","
","","","-1","","","15","9928","4673","&#9826;","elianto","#f73b6a7A","-1","-1","1","0","[]","0","0","3","","","","","","","",""
"pit-trial","67","655918","0.0-2.0-14.1-3.1","battery-v0.2","","""event"",""trial"",""time""
""fullscreenenter"",""1"",""2665""
","
","
","""event"",""trial"",""time""
""fullscreenenter"",""1"",""2665""
","
","","","-1","","","15","9928","4673","&#9826;","elianto","#f73b6a7A","-1","-1","1","-10","[]","0","0","3","","","","","","","",""
"pit-trial","68","660788","0.0-2.0-14.1-4.1","battery-v0.2","","""event"",""trial"",""time""
""fullscreenenter"",""1"",""2665""
","
","
","""event"",""trial"",""time""
""fullscreenenter"",""1"",""2665""
","
","","","-1","","","15","9928","4673","&#9826;","elianto","#f73b6a7A","-1","-1","1","0","[]","0","0","3","","","","","","","",""
"pit-trial","69","665648","0.0-2.0-14.2-0.2","battery-v0.2","","""event"",""trial"",""time""
""fullscreenenter"",""1"",""2665""
","
","
","""event"",""trial"",""time""
""fullscreenenter"",""1"",""2665""
","
","","","-1","","","15","9928","4673","&#9826;","elianto","#f73b6a7A","-1","-1","1","0","[]","0","0","3","","","","","","","",""
"pit-trial","70","670512","0.0-2.0-14.2-1.2","battery-v0.2","","""event"",""trial"",""time""
""fullscreenenter"",""1"",""2665""
","
","
","""event"",""trial"",""time""
""fullscreenenter"",""1"",""2665""
","
","","","-1","","","15","9928","4673","&#9826;","elianto","#f73b6a7A","-1","-1","1","0","[]","0","0","3","","","","","","","",""
"pit-trial","71","675372","0.0-2.0-14.2-2.2","battery-v0.2","","""event"",""trial"",""time""
""fullscreenenter"",""1"",""2665""
","
","
","""event"",""trial"",""time""
""fullscreenenter"",""1"",""2665""
","
","","","-1","","","15","9928","4673","&#9826;","elianto","#f73b6a7A","-1","-1","1","0","[]","0","0","3","","","","","","","",""
"pit-trial","72","680237","0.0-2.0-14.2-3.2","battery-v0.2","","""event"",""trial"",""time""
""fullscreenenter"",""1"",""2665""
","
","
","""event"",""trial"",""time""
""fullscreenenter"",""1"",""2665""
","
","","","-1","","","15","9928","4673","&#9826;","elianto","#f73b6a7A","-1","-1","1","-10","[]","0","0","3","","","","","","","",""
"pit-trial","73","685097","0.0-2.0-14.2-4.2","battery-v0.2","","""event"",""trial"",""time""
""fullscreenenter"",""1"",""2665""
","
","
","""event"",""trial"",""time""
""fullscreenenter"",""1"",""2665""
","
","","","-1","","","15","9928","4673","&#9826;","elianto","#f73b6a7A","-1","-1","1","0","[]","0","0","3","","","","","","","",""
"pit-trial","74","689957","0.0-2.0-14.3-0.3","battery-v0.2","","""event"",""trial"",""time""
""fullscreenenter"",""1"",""2665""
","
","
","""event"",""trial"",""time""
""fullscreenenter"",""1"",""2665""
","
","","","-1","","","15","9928","4673","&#9826;","elianto","#f73b6a7A","-1","-1","1","0","[]","0","0","3","","","","","","","",""
"pit-trial","75","694811","0.0-2.0-14.3-1.3","battery-v0.2","","""event"",""trial"",""time""
""fullscreenenter"",""1"",""2665""
","
","
","""event"",""trial"",""time""
""fullscreenenter"",""1"",""2665""
","
","","","-1","","","15","9928","4673","&#9826;","elianto","#f73b6a7A","-1","-1","1","0","[]","0","0","3","","","","","","","",""
"pit-trial","76","699671","0.0-2.0-14.3-2.3","battery-v0.2","","""event"",""trial"",""time""
""fullscreenenter"",""1"",""2665""
","
","
","""event"",""trial"",""time""
""fullscreenenter"",""1"",""2665""
","
","","","-1","","","15","9928","4673","&#9826;","elianto","#f73b6a7A","-1","-1","1","0","[]","0","0","3","","","","","","","",""
"pit-trial","77","704546","0.0-2.0-14.3-3.3","battery-v0.2","","""event"",""trial"",""time""
""fullscreenenter"",""1"",""2665""
","
","
","""event"",""trial"",""time""
""fullscreenenter"",""1"",""2665""
","
","","","-1","","","15","9928","4673","&#9826;","elianto","#f73b6a7A","-1","-1","1","-10","[]","0","0","3","","","","","","","",""
"pit-trial","78","709402","0.0-2.0-14.3-4.3","battery-v0.2","","""event"",""trial"",""time""
""fullscreenenter"",""1"",""2665""
","
","
","""event"",""trial"",""time""
""fullscreenenter"",""1"",""2665""
","
","","","-1","","","15","9928","4673","&#9826;","elianto","#f73b6a7A","-1","-1","1","0","[]","0","0","3","","","","","","","",""
"call-function","79","709406","0.0-2.0-15.0","battery-v0.2","","""event"",""trial"",""time""
""fullscreenenter"",""1"",""2665""
","
","
","""event"",""trial"",""time""
""fullscreenenter"",""1"",""2665""
","
","","","","","","","","","","","","","","","","","","","","","","","","","","",""
"pit-instructions","80","745516","0.0-2.0-16.0","battery-v0.2","","""event"",""trial"",""time""
""fullscreenenter"",""1"",""2665""
","
","
","""event"",""trial"",""time""
""fullscreenenter"",""1"",""2665""
","
","","[{""page_index"":0,""viewing_time"":8765},{""page_index"":1,""viewing_time"":11568.199999809265},{""page_index"":2,""viewing_time"":8428.200000286102},{""page_index"":3,""viewing_time"":7345.199999809265}]","36106.90000009537","","","","","","","","","","","","","","","","","","","","","","","",""
"pit-trial","81","748900","0.0-2.0-17.0-0.0","battery-v0.2","","""event"",""trial"",""time""
""fullscreenenter"",""1"",""2665""
","
","
","""event"",""trial"",""time""
""fullscreenenter"",""1"",""2665""
","
","","","530.3000001907349","","","15","9928","4673","&#9789;","elianto","#f73b6a7A"," "," ","1","0","[1381]","1","0","4","","","","","","","",""
"pit-trial","82","752445","0.0-2.0-17.0-1.0","battery-v0.2","","""event"",""trial"",""time""
""fullscreenenter"",""1"",""2665""
","
","
","""event"",""trial"",""time""
""fullscreenenter"",""1"",""2665""
","
","","","681.5999999046326","","","15","9928","4673","&#9789;","elianto","#f73b6a7A"," "," ","1","0","[1532.0999999046326]","1","0","4","","","","","","","",""
"pit-trial","83","755875","0.0-2.0-17.0-2.0","battery-v0.2","","""event"",""trial"",""time""
""fullscreenenter"",""1"",""2665""
","
","
","""event"",""trial"",""time""
""fullscreenenter"",""1"",""2665""
","
","","","570.5999999046326","","","15","9928","4673","&#9789;","elianto","#f73b6a7A"," "," ","1","0","[1425.4000000953674]","1","0","4","","","","","","","",""
"pit-trial","84","759619","0.0-2.0-17.0-3.0","battery-v0.2","","""event"",""trial"",""time""
""fullscreenenter"",""1"",""2665""
","
","
","""event"",""trial"",""time""
""fullscreenenter"",""1"",""2665""
","
","","","875.4000000953674","","","15","9928","4673","&#9789;","elianto","#f73b6a7A"," "," ","1","-10","[1728.8000001907349]","1","0","4","","","","","","","",""
"pit-trial","85","763131","0.0-2.0-17.0-4.0","battery-v0.2","","""event"",""trial"",""time""
""fullscreenenter"",""1"",""2665""
","
","
","""event"",""trial"",""time""
""fullscreenenter"",""1"",""2665""
","
","","","640.6999998092651","","","15","9928","4673","&#9789;","elianto","#f73b6a7A"," "," ","1","0","[1495.1999998092651]","1","0","4","","","","","","","",""
"pit-trial","86","766355","0.0-2.0-17.1-0.1","battery-v0.2","","""event"",""trial"",""time""
""fullscreenenter"",""1"",""2665""
","
","
","""event"",""trial"",""time""
""fullscreenenter"",""1"",""2665""
","
","","","357.2999997138977","","","15","9928","4673","&#9789;","elianto","#f73b6a7A"," "," ","1","0","[1207.7999997138977]","1","0","4","","","","","","","",""
"pit-trial","87","769751","0.0-2.0-17.1-1.1","battery-v0.2","","""event"",""trial"",""time""
""fullscreenenter"",""1"",""2665""
","
","
","""event"",""trial"",""time""
""fullscreenenter"",""1"",""2665""
","
","","","526.5","","","15","9928","4673","&#9789;","elianto","#f73b6a7A"," "," ","1","0","[1379.9000000953674]","1","0","4","","","","","","","",""
"pit-trial","88","772988","0.0-2.0-17.1-2.1","battery-v0.2","","""event"",""trial"",""time""
""fullscreenenter"",""1"",""2665""
","
","
","""event"",""trial"",""time""
""fullscreenenter"",""1"",""2665""
","
","","","361.80000019073486","","","15","9928","4673","&#9789;","elianto","#f73b6a7A"," "," ","1","0","[1222.9000000953674]","1","0","4","","","","","","","",""
"pit-trial","89","776286","0.0-2.0-17.1-3.1","battery-v0.2","","""event"",""trial"",""time""
""fullscreenenter"",""1"",""2665""
","
","
","""event"",""trial"",""time""
""fullscreenenter"",""1"",""2665""
","
","","","436.7999997138977","","","15","9928","4673","&#9789;","elianto","#f73b6a7A"," "," ","1","-10","[1290.0999999046326]","1","0","4","","","","","","","",""
"pit-trial","90","779747","0.0-2.0-17.1-4.1","battery-v0.2","","""event"",""trial"",""time""
""fullscreenenter"",""1"",""2665""
","
","
","""event"",""trial"",""time""
""fullscreenenter"",""1"",""2665""
","
","","","591.5999999046326","","","15","9928","4673","&#9789;","elianto","#f73b6a7A"," "," ","1","0","[1449]","1","0","4","","","","","","","",""
"pit-trial","91","783245","0.0-2.0-17.2-0.2","battery-v0.2","","""event"",""trial"",""time""
""fullscreenenter"",""1"",""2665""
","
","
","""event"",""trial"",""time""
""fullscreenenter"",""1"",""2665""
","
","","","640","","","15","9928","4673","&#9789;","elianto","#f73b6a7A"," "," ","1","0","[1491.0999999046326]","1","0","4","","","","","","","",""
"pit-trial","92","786970","0.0-2.0-17.2-1.2","battery-v0.2","","""event"",""trial"",""time""
""fullscreenenter"",""1"",""2665""
","
","
","""event"",""trial"",""time""
""fullscreenenter"",""1"",""2665""
","
","","","863.8999996185303","","","15","9928","4673","&#9789;","elianto","#f73b6a7A"," "," ","1","0","[1714.3999996185303]","1","0","4","","","","","","","",""
"pit-trial","93","790296","0.0-2.0-17.2-2.2","battery-v0.2","","""event"",""trial"",""time""
""fullscreenenter"",""1"",""2665""
","
","
","""event"",""trial"",""time""
""fullscreenenter"",""1"",""2665""
","
","","","459.59999990463257","","","15","9928","4673","&#9789;","elianto","#f73b6a7A"," "," ","1","0","[1316]","1","0","4","","","","","","","",""
"pit-trial","94","793581","0.0-2.0-17.2-3.2","battery-v0.2","","""event"",""trial"",""time""
""fullscreenenter"",""1"",""2665""
","
","
","""event"",""trial"",""time""
""fullscreenenter"",""1"",""2665""
","
","","","424.69999980926514","","","15","9928","4673","&#9789;","elianto","#f73b6a7A"," "," ","1","-10","[1277.8000001907349]","1","0","4","","","","","","","",""
"pit-trial","95","796871","0.0-2.0-17.2-4.2","battery-v0.2","","""event"",""trial"",""time""
""fullscreenenter"",""1"",""2665""
","
","
","""event"",""trial"",""time""
""fullscreenenter"",""1"",""2665""
","
","","","426.80000019073486","","","15","9928","4673","&#9789;","elianto","#f73b6a7A"," "," ","1","0","[1278.8000001907349]","1","0","4","","","","","","","",""
"pit-trial","96","800193","0.0-2.0-17.3-0.3","battery-v0.2","","""event"",""trial"",""time""
""fullscreenenter"",""1"",""2665""
","
","
","""event"",""trial"",""time""
""fullscreenenter"",""1"",""2665""
","
","","","457.40000009536743","","","15","9928","4673","&#9789;","elianto","#f73b6a7A"," "," ","1","0","[1313.7000002861023]","1","0","4","","","","","","","",""
"pit-trial","97","804723","0.0-2.0-17.3-1.3","battery-v0.2","","""event"",""trial"",""time""
""fullscreenenter"",""1"",""2665""
","
","
","""event"",""trial"",""time""
""fullscreenenter"",""1"",""2665""
","
","","","1670.9000000953674","","","15","9928","4673","&#9789;","elianto","#f73b6a7A"," "," ","1","0","[2524.1000003814697]","1","0","4","","","","","","","",""
"pit-trial","98","808676","0.0-2.0-17.3-2.3","battery-v0.2","","""event"",""trial"",""time""
""fullscreenenter"",""1"",""2665""
","
","
","""event"",""trial"",""time""
""fullscreenenter"",""1"",""2665""
","
","","","1093.8000001907349","","","15","9928","4673","&#9789;","elianto","#f73b6a7A"," "," ","1","0","[1949.6000003814697]","1","0","4","","","","","","","",""
"pit-trial","99","812238","0.0-2.0-17.3-3.3","battery-v0.2","","""event"",""trial"",""time""
""fullscreenenter"",""1"",""2665""
","
","
","""event"",""trial"",""time""
""fullscreenenter"",""1"",""2665""
","
","","","700.2999997138977","","","15","9928","4673","&#9789;","elianto","#f73b6a7A"," "," ","1","-10","[1553.3999996185303]","1","0","4","","","","","","","",""
"pit-trial","100","815544","0.0-2.0-17.3-4.3","battery-v0.2","","""event"",""trial"",""time""
""fullscreenenter"",""1"",""2665""
","
","
","""event"",""trial"",""time""
""fullscreenenter"",""1"",""2665""
","
","","","447","","","15","9928","4673","&#9789;","elianto","#f73b6a7A"," "," ","1","0","[1298.9000000953674]","1","0","4","","","","","","","",""
"call-function","101","815548","0.0-2.0-18.0","battery-v0.2","","""event"",""trial"",""time""
""fullscreenenter"",""1"",""2665""
","
","
","""event"",""trial"",""time""
""fullscreenenter"",""1"",""2665""
","
","","","","","","","","","","","","","","","","","","","","","","","","","","",""
"pit-instructions","102","901660","0.0-2.0-19.0","battery-v0.2","","""event"",""trial"",""time""
""fullscreenenter"",""1"",""2665""
","
","
","""event"",""trial"",""time""
""fullscreenenter"",""1"",""2665""
","
","","[{""page_index"":0,""viewing_time"":8345.599999904633},{""page_index"":1,""viewing_time"":8166.900000095367},{""page_index"":2,""viewing_time"":16990.099999904633},{""page_index"":3,""viewing_time"":10383.599999904633},{""page_index"":4,""viewing_time"":11120.400000095367},{""page_index"":5,""viewing_time"":8336.299999713898},{""page_index"":6,""viewing_time"":9987.5},{""page_index"":7,""viewing_time"":6973.10000038147},{""page_index"":8,""viewing_time"":5807.799999713898}]","86112.09999990463","","","","","","","","","","","","","","","","","","","","","","","",""
"pit-comprehension","103","908957","0.0-2.0-20.0-0.0","battery-v0.2","","""event"",""trial"",""time""
""fullscreenenter"",""1"",""2665""
","
","
","""event"",""trial"",""time""
""fullscreenenter"",""1"",""2665""
","
","","","7287.599999904633","[""SPACE""]","0","15","9928","4673","","","","","","","","","","","","","","","","","","",""
"pit-instructions","104","912994","0.0-2.0-20.0-1.0","battery-v0.2","","""event"",""trial"",""time""
""fullscreenenter"",""1"",""2665""
","
","
","""event"",""trial"",""time""
""fullscreenenter"",""1"",""2665""
","
","","[{""page_index"":0,""viewing_time"":4001.800000190735}]","4002.7000002861023","","","","","","","","","","","","","","","","","","","","","","","",""
"pit-comprehension","105","921722","0.0-2.0-21.0-0.0","battery-v0.2","","""event"",""trial"",""time""
""fullscreenenter"",""1"",""2665""
","
","
","""event"",""trial"",""time""
""fullscreenenter"",""1"",""2665""
","
","","","8719.200000286102","[""10""]","0","15","9928","4673","","","","","","","","","","","","","","","","","","",""
"pit-instructions","106","927009","0.0-2.0-21.0-1.0","battery-v0.2","","""event"",""trial"",""time""
""fullscreenenter"",""1"",""2665""
","
","
","""event"",""trial"",""time""
""fullscreenenter"",""1"",""2665""
","
","","[{""page_index"":0,""viewing_time"":5253.200000286102}]","5254","","","","","","","","","","","","","","","","","","","","","","","",""
"pit-comprehension","107","936502","0.0-2.0-22.0-0.0","battery-v0.2","","""event"",""trial"",""time""
""fullscreenenter"",""1"",""2665""
","
","
","""event"",""trial"",""time""
""fullscreenenter"",""1"",""2665""
","
","","","9483.699999809265","[""0""]","0","15","9928","4673","","","","","","","","","","","","","","","","","","",""
"pit-instructions","108","939680","0.0-2.0-22.0-1.0","battery-v0.2","","""event"",""trial"",""time""
""fullscreenenter"",""1"",""2665""
","
","
","""event"",""trial"",""time""
""fullscreenenter"",""1"",""2665""
","
","","[{""page_index"":0,""viewing_time"":3139.5}]","3140.1000003814697","","","","","","","","","","","","","","","","","","","","","","","",""
"pit-comprehension","109","949922","0.0-2.0-23.0-0.0","battery-v0.2","","""event"",""trial"",""time""
""fullscreenenter"",""1"",""2665""
","
","
","""event"",""trial"",""time""
""fullscreenenter"",""1"",""2665""
","
","","","10235.799999713898","[""False""]","1","15","9928","4673","","","","","","","","","","","","","","","","","","",""
"pit-instructions","110","954643","0.0-2.0-23.0-1.0","battery-v0.2","","""event"",""trial"",""time""
""fullscreenenter"",""1"",""2665""
","
","
","""event"",""trial"",""time""
""fullscreenenter"",""1"",""2665""
","
","","[{""page_index"":0,""viewing_time"":4686.800000190735}]","4687.5","","","","","","","","","","","","","","","","","","","","","","","",""
"pit-instructions","111","956773","0.0-2.0-23.0-2.0-0.0","battery-v0.2","","""event"",""trial"",""time""
""fullscreenenter"",""1"",""2665""
","
","
","""event"",""trial"",""time""
""fullscreenenter"",""1"",""2665""
","
","","[{""page_index"":0,""viewing_time"":2125.5999999046326}]","2125.8999996185303","","","","","","","","","","","","","","","","","","","","","","","",""
"pit-comprehension","112","966489","0.0-2.0-23.1-0.1","battery-v0.2","","""event"",""trial"",""time""
""fullscreenenter"",""1"",""2665""
","
","
","""event"",""trial"",""time""
""fullscreenenter"",""1"",""2665""
","
","","","9712.299999713898","[""True""]","0","15","9928","4673","","","","","","","","","","","","","","","","","","",""
"pit-instructions","113","968442","0.0-2.0-23.1-1.1","battery-v0.2","","""event"",""trial"",""time""
""fullscreenenter"",""1"",""2665""
","
","
","""event"",""trial"",""time""
""fullscreenenter"",""1"",""2665""
","
","","[{""page_index"":0,""viewing_time"":1918.2999997138977}]","1919","","","","","","","","","","","","","","","","","","","","","","","",""
"pit-comprehension","114","977649","0.0-2.0-24.0-0.0","battery-v0.2","","""event"",""trial"",""time""
""fullscreenenter"",""1"",""2665""
","
","
","""event"",""trial"",""time""
""fullscreenenter"",""1"",""2665""
","
","","","9196.900000095367","[""True""]","0","15","9928","4673","","","","","","","","","","","","","","","","","","",""
"pit-instructions","115","979320","0.0-2.0-24.0-1.0","battery-v0.2","","""event"",""trial"",""time""
""fullscreenenter"",""1"",""2665""
","
","
","""event"",""trial"",""time""
""fullscreenenter"",""1"",""2665""
","
","","[{""page_index"":0,""viewing_time"":1639}]","1639.5999999046326","","","","","","","","","","","","","","","","","","","","","","","",""
"pit-comprehension","116","988592","0.0-2.0-25.0-0.0","battery-v0.2","","""event"",""trial"",""time""
""fullscreenenter"",""1"",""2665""
","
","
","""event"",""trial"",""time""
""fullscreenenter"",""1"",""2665""
","
","","","9266.699999809265","[""True""]","0","15","9928","4673","","","","","","","","","","","","","","","","","","",""
"pit-instructions","117","991793","0.0-2.0-25.0-1.0","battery-v0.2","","""event"",""trial"",""time""
""fullscreenenter"",""1"",""2665""
","
","
","""event"",""trial"",""time""
""fullscreenenter"",""1"",""2665""
","
","","[{""page_index"":0,""viewing_time"":3163.5}]","3164.199999809265","","","","","","","","","","","","","","","","","","","","","","","",""
"pit-comprehension","118","996732","0.0-2.0-26.0-0.0","battery-v0.2","","""event"",""trial"",""time""
""fullscreenenter"",""1"",""2665""
","
","
","""event"",""trial"",""time""
""fullscreenenter"",""1"",""2665""
","
","","","4930.400000095367","[""False""]","0","15","9928","4673","","","","","","","","","","","","","","","","","","",""
"pit-instructions","119","1001810","0.0-2.0-26.0-1.0","battery-v0.2","","""event"",""trial"",""time""
""fullscreenenter"",""1"",""2665""
","
","
","""event"",""trial"",""time""
""fullscreenenter"",""1"",""2665""
","
","","[{""page_index"":0,""viewing_time"":5043.099999904633}]","5043.799999713898","","","","","","","","","","","","","","","","","","","","","","","",""
"pit-instructions","120","1021005","0.0-3.0","battery-v0.2","","""event"",""trial"",""time""
""fullscreenenter"",""1"",""2665""
","
","
","""event"",""trial"",""time""
""fullscreenenter"",""1"",""2665""
","
","","[{""page_index"":0,""viewing_time"":4672.199999809265},{""page_index"":1,""viewing_time"":6350.599999904633},{""page_index"":2,""viewing_time"":8160.900000095367}]","19184.400000095367","","","","","","","","","","","","","","","","","","","","","","","",""
"pit-trial","121","1024899","0.0-4.0","battery-v0.2","","""event"",""trial"",""time""
""fullscreenenter"",""1"",""2665""
","
","
","""event"",""trial"",""time""
""fullscreenenter"",""1"",""2665""
","
","","","1011.6999998092651","","","15","9928","4673","&#9733;","elianto","#3366ff99","-1"," ","0","0","[1864.2999997138977]","1","1","","","9928","1","2","2","win","no-go","0"
"pit-trial","122","1029763","0.0-5.0","battery-v0.2","","""event"",""trial"",""time""
""fullscreenenter"",""1"",""2665""
","
","
","""event"",""trial"",""time""
""fullscreenenter"",""1"",""2665""
","
","","","-1","","","15","9928","4673","&#9752;","elianto","#f73b6a7A"," ","-1","0","-10","[]","0","1","","","9928","2","3","3","lose","go","0"
"pit-trial","123","1033749","0.0-6.0","battery-v0.2","","""event"",""trial"",""time""
""fullscreenenter"",""1"",""2665""
","
","
","""event"",""trial"",""time""
""fullscreenenter"",""1"",""2665""
","
","","","1116.2000002861023","","","15","9928","4673","&#9728;","elianto","#f73b6a7A","-1"," ","0","-10","[1969.8999996185303]","1","1","","","9928","3","0","4","lose","no-go","0"
"pit-trial","124","1037512","0.0-7.0","battery-v0.2","","""event"",""trial"",""time""
""fullscreenenter"",""1"",""2665""
","
","
","""event"",""trial"",""time""
""fullscreenenter"",""1"",""2665""
","
","","","897.0999999046326","","","15","9928","4673","&#9730;","elianto","#3366ff99"," "," ","1","+10","[1748.1999998092651]","1","1","","","9928","4","1","1","win","go","0"
"pit-trial","125","1041291","0.0-8.0","battery-v0.2","","""event"",""trial"",""time""
""fullscreenenter"",""1"",""2665""
","
","
","""event"",""trial"",""time""
""fullscreenenter"",""1"",""2665""
","
","","","914.6000003814697","","","15","9928","4673","&#9730;","elianto","#3366ff99"," "," ","1","+10","[1770.3000001907349]","1","1","","","9928","5","1","1","win","go","0"
"pit-trial","126","1045094","0.0-9.0","battery-v0.2","","""event"",""trial"",""time""
""fullscreenenter"",""1"",""2665""
","
","
","""event"",""trial"",""time""
""fullscreenenter"",""1"",""2665""
","
","","","941.8000001907349","","","15","9928","4673","&#9733;","elianto","#3366ff99","-1"," ","0","+10","[1794.5]","1","1","","","9928","6","2","2","win","no-go","1"
"pit-trial","127","1049242","0.0-10.0","battery-v0.2","","""event"",""trial"",""time""
""fullscreenenter"",""1"",""2665""
","
","
","""event"",""trial"",""time""
""fullscreenenter"",""1"",""2665""
","
","","","1288.1999998092651","","","15","9928","4673","&#9752;","elianto","#f73b6a7A"," "," ","1","0","[2140]","1","1","","","9928","7","3","3","lose","go","0"
"pit-trial","128","1053648","0.0-11.0","battery-v0.2","","""event"",""trial"",""time""
""fullscreenenter"",""1"",""2665""
","
","
","""event"",""trial"",""time""
""fullscreenenter"",""1"",""2665""
","
","","","1548.8999996185303","","","15","9928","4673","&#9728;","elianto","#f73b6a7A","-1"," ","0","-10","[2399.2999997138977]","1","1","","","9928","8","0","4","lose","no-go","0"
"pit-trial","129","1058506","0.0-12.0","battery-v0.2","","""event"",""trial"",""time""
""fullscreenenter"",""1"",""2665""
","
","
","""event"",""trial"",""time""
""fullscreenenter"",""1"",""2665""
","
","","","-1","","","15","9928","4673","&#9728;","elianto","#f73b6a7A","-1","-1","1","-10","[]","0","1","","","9928","9","0","4","lose","no-go","1"
"pit-trial","130","1062166","0.0-13.0","battery-v0.2","","""event"",""trial"",""time""
""fullscreenenter"",""1"",""2665""
","
","
","""event"",""trial"",""time""
""fullscreenenter"",""1"",""2665""
","
","","","794.3000001907349","","","15","9928","4673","&#9733;","elianto","#3366ff99","-1"," ","0","0","[1649.0999999046326]","1","1","","","9928","10","2","2","win","no-go","0"
"pit-trial","131","1066089","0.0-14.0","battery-v0.2","","""event"",""trial"",""time""
""fullscreenenter"",""1"",""2665""
","
","
","""event"",""trial"",""time""
""fullscreenenter"",""1"",""2665""
","
","","","1063.1999998092651","","","15","9928","4673","&#9752;","elianto","#f73b6a7A"," "," ","1","0","[1914.0999999046326]","1","1","","","9928","11","3","3","lose","go","0"
"pit-trial","132","1069679","0.0-15.0","battery-v0.2","","""event"",""trial"",""time""
""fullscreenenter"",""1"",""2665""
","
","
","""event"",""trial"",""time""
""fullscreenenter"",""1"",""2665""
","
","","","722.2999997138977","","","15","9928","4673","&#9730;","elianto","#3366ff99"," "," ","1","+10","[1577.5999999046326]","1","1","","","9928","12","1","1","win","go","0"
"pit-trial","133","1073544","0.0-16.0","battery-v0.2","","""event"",""trial"",""time""
""fullscreenenter"",""1"",""2665""
","
","
","""event"",""trial"",""time""
""fullscreenenter"",""1"",""2665""
","
","","","1002.9000000953674","","","15","9928","4673","&#9752;","elianto","#f73b6a7A"," "," ","1","0","[1857.4000000953674]","1","1","","","9928","13","3","3","lose","go","0"
"pit-trial","134","1077140","0.0-17.0","battery-v0.2","","""event"",""trial"",""time""
""fullscreenenter"",""1"",""2665""
","
","
","""event"",""trial"",""time""
""fullscreenenter"",""1"",""2665""
","
","","","733","","","15","9928","4673","&#9733;","elianto","#3366ff99","-1"," ","0","0","[1584.9000000953674]","1","1","","","9928","14","2","2","win","no-go","0"
"pit-trial","135","1082002","0.0-18.0","battery-v0.2","","""event"",""trial"",""time""
""fullscreenenter"",""1"",""2665""
","
","
","""event"",""trial"",""time""
""fullscreenenter"",""1"",""2665""
","
","","","-1","","","15","9928","4673","&#9728;","elianto","#f73b6a7A","-1","-1","1","0","[]","0","1","","","9928","15","0","4","lose","no-go","0"
"pit-trial","136","1085923","0.0-19.0","battery-v0.2","","""event"",""trial"",""time""
""fullscreenenter"",""1"",""2665""
","
","
","""event"",""trial"",""time""
""fullscreenenter"",""1"",""2665""
","
","","","1057.5999999046326","","","15","9928","4673","&#9730;","elianto","#3366ff99"," "," ","1","+10","[1909.1999998092651]","1","1","","","9928","16","1","1","win","go","0"
"pit-trial","137","1089398","0.0-20.0","battery-v0.2","","""event"",""trial"",""time""
""fullscreenenter"",""1"",""2665""
","
","
","""event"",""trial"",""time""
""fullscreenenter"",""1"",""2665""
","
","","","607.5","","","15","9928","4673","&#9752;","elianto","#f73b6a7A"," "," ","1","-10","[1464.1000003814697]","1","1","","","9928","17","3","3","lose","go","1"
"pit-trial","138","1094262","0.0-21.0","battery-v0.2","","""event"",""trial"",""time""
""fullscreenenter"",""1"",""2665""
","
","
","""event"",""trial"",""time""
""fullscreenenter"",""1"",""2665""
","
","","","-1","","","15","9928","4673","&#9733;","elianto","#3366ff99","-1","-1","1","+10","[]","0","1","","","9928","18","2","2","win","no-go","0"
"pit-trial","139","1098022","0.0-22.0","battery-v0.2","","""event"",""trial"",""time""
""fullscreenenter"",""1"",""2665""
","
","
","""event"",""trial"",""time""
""fullscreenenter"",""1"",""2665""
","
","","","898.0999999046326","","","15","9928","4673","&#9730;","elianto","#3366ff99"," "," ","1","0","[1752.6999998092651]","1","1","","","9928","19","1","1","win","go","1"
"pit-trial","140","1102890","0.0-23.0","battery-v0.2","","""event"",""trial"",""time""
""fullscreenenter"",""1"",""2665""
","
","
","""event"",""trial"",""time""
""fullscreenenter"",""1"",""2665""
","
","","","-1","","","15","9928","4673","&#9728;","elianto","#f73b6a7A","-1","-1","1","0","[]","0","1","","","9928","20","0","4","lose","no-go","0"
"pit-instructions","141","1119719","0.0-24.0","battery-v0.2","","""event"",""trial"",""time""
""fullscreenenter"",""1"",""2665""
","
","
","""event"",""trial"",""time""
""fullscreenenter"",""1"",""2665""
","
","","[{""page_index"":0,""viewing_time"":8503.5},{""page_index"":1,""viewing_time"":8322.599999904633}]","16826.900000095367","","","","","","","","","","","","","","","","","","","","","","","",""
"pit-trial","142","1124587","0.0-25.0","battery-v0.2","","""event"",""trial"",""time""
""fullscreenenter"",""1"",""2665""
","
","
","""event"",""trial"",""time""
""fullscreenenter"",""1"",""2665""
","
","","","-1","","","15","9928","4673","b","elianto","#f73b6a7A"," ","-1","0","-10","[]","0","2","","","9928","21","3","3","lose","go","0"
"pit-trial","143","1128687","0.0-26.0","battery-v0.2","","""event"",""trial"",""time""
""fullscreenenter"",""1"",""2665""
","
","
","""event"",""trial"",""time""
""fullscreenenter"",""1"",""2665""
","
","","","1222.0999999046326","","","15","9928","4673","t","elianto","#f73b6a7A","-1"," ","0","-10","[2080.9000000953674]","1","2","","","9928","22","2","4","lose","no-go","0"
"pit-trial","144","1133555","0.0-27.0","battery-v0.2","","""event"",""trial"",""time""
""fullscreenenter"",""1"",""2665""
","
","
","""event"",""trial"",""time""
""fullscreenenter"",""1"",""2665""
","
","","","-1","","","15","9928","4673","f","elianto","#3366ff99"," ","-1","0","0","[]","0","2","","","9928","23","1","1","win","go","0"
"pit-trial","145","1137651","0.0-28.0","battery-v0.2","","""event"",""trial"",""time""
""fullscreenenter"",""1"",""2665""
","
","
","""event"",""trial"",""time""
""fullscreenenter"",""1"",""2665""
","
","","","1223.5999999046326","","","15","9928","4673","n","elianto","#f73b6a7A","-1"," ","0","-10","[2079.5]","1","2","","","9928","24","0","4","lose","no-go","0"
"pit-trial","146","1142520","0.0-29.0","battery-v0.2","","""event"",""trial"",""time""
""fullscreenenter"",""1"",""2665""
","
","
","""event"",""trial"",""time""
""fullscreenenter"",""1"",""2665""
","
","","","-1","","","15","9928","4673","b","elianto","#f73b6a7A"," ","-1","0","-10","[]","0","2","","","9928","25","3","3","lose","go","0"
"pit-trial","147","1146299","0.0-30.0","battery-v0.2","","""event"",""trial"",""time""
""fullscreenenter"",""1"",""2665""
","
","
","""event"",""trial"",""time""
""fullscreenenter"",""1"",""2665""
","
","","","903","","","15","9928","4673","f","elianto","#3366ff99"," "," ","1","0","[1760.5999999046326]","1","2","","","9928","26","1","1","win","go","1"
"pit-trial","148","1151165","0.0-31.0","battery-v0.2","","""event"",""trial"",""time""
""fullscreenenter"",""1"",""2665""
","
","
","""event"",""trial"",""time""
""fullscreenenter"",""1"",""2665""
","
","","","-1","","","15","9928","4673","t","elianto","#f73b6a7A","-1","-1","1","0","[]","0","2","","","9928","27","2","4","lose","no-go","0"
"pit-trial","149","1155195","0.0-32.0","battery-v0.2","","""event"",""trial"",""time""
""fullscreenenter"",""1"",""2665""
","
","
","""event"",""trial"",""time""
""fullscreenenter"",""1"",""2665""
","
","","","1173.1999998092651","","","15","9928","4673","n","elianto","#f73b6a7A","-1"," ","0","-10","[2026.2999997138977]","1","2","","","9928","28","0","4","lose","no-go","0"
"pit-trial","150","1159572","0.0-33.0","battery-v0.2","","""event"",""trial"",""time""
""fullscreenenter"",""1"",""2665""
","
","
","""event"",""trial"",""time""
""fullscreenenter"",""1"",""2665""
","
","","","1513.5","","","15","9928","4673","f","elianto","#3366ff99"," "," ","1","+10","[2364.800000190735]","1","2","","","9928","29","1","1","win","go","0"
"pit-trial","151","1164435","0.0-34.0","battery-v0.2","","""event"",""trial"",""time""
""fullscreenenter"",""1"",""2665""
","
","
","""event"",""trial"",""time""
""fullscreenenter"",""1"",""2665""
","
","","","-1","","","15","9928","4673","n","elianto","#f73b6a7A","-1","-1","1","0","[]","0","2","","","9928","30","0","4","lose","no-go","0"
"pit-trial","152","1169291","0.0-35.0","battery-v0.2","","""event"",""trial"",""time""
""fullscreenenter"",""1"",""2665""
","
","
","""event"",""trial"",""time""
""fullscreenenter"",""1"",""2665""
","
","","","-1","","","15","9928","4673","b","elianto","#f73b6a7A"," ","-1","0","0","[]","0","2","","","9928","31","3","3","lose","go","1"
"pit-trial","153","1174161","0.0-36.0","battery-v0.2","","""event"",""trial"",""time""
""fullscreenenter"",""1"",""2665""
","
","
","""event"",""trial"",""time""
""fullscreenenter"",""1"",""2665""
","
","","","-1","","","15","9928","4673","t","elianto","#f73b6a7A","-1","-1","1","0","[]","0","2","","","9928","32","2","4","lose","no-go","0"
"pit-trial","154","1179031","0.0-37.0","battery-v0.2","","""event"",""trial"",""time""
""fullscreenenter"",""1"",""2665""
","
","
","""event"",""trial"",""time""
""fullscreenenter"",""1"",""2665""
","
","","","-1","","","15","9928","4673","n","elianto","#f73b6a7A","-1","-1","1","0","[]","0","2","","","9928","33","0","4","lose","no-go","0"
"pit-trial","155","1183320","0.0-38.0","battery-v0.2","","""event"",""trial"",""time""
""fullscreenenter"",""1"",""2665""
","
","
","""event"",""trial"",""time""
""fullscreenenter"",""1"",""2665""
","
","","","1424.0999999046326","","","15","9928","4673","t","elianto","#f73b6a7A","-1"," ","0","-10","[2279.2000002861023]","1","2","","","9928","34","2","4","lose","no-go","0"
"pit-trial","156","1187217","0.0-39.0","battery-v0.2","","""event"",""trial"",""time""
""fullscreenenter"",""1"",""2665""
","
","
","""event"",""trial"",""time""
""fullscreenenter"",""1"",""2665""
","
","","","1032.5","","","15","9928","4673","f","elianto","#3366ff99"," "," ","1","+10","[1890.0999999046326]","1","2","","","9928","35","1","1","win","go","0"
"pit-trial","157","1192080","0.0-40.0","battery-v0.2","","""event"",""trial"",""time""
""fullscreenenter"",""1"",""2665""
","
","
","""event"",""trial"",""time""
""fullscreenenter"",""1"",""2665""
","
","","","-1","","","15","9928","4673","b","elianto","#f73b6a7A"," ","-1","0","-10","[]","0","2","","","9928","36","3","3","lose","go","0"
"pit-trial","158","1196947","0.0-41.0","battery-v0.2","","""event"",""trial"",""time""
""fullscreenenter"",""1"",""2665""
","
","
","""event"",""trial"",""time""
""fullscreenenter"",""1"",""2665""
","
","","","-1","","","15","9928","4673","n","elianto","#f73b6a7A","-1","-1","1","0","[]","0","2","","","9928","37","0","4","lose","no-go","0"
"pit-trial","159","1201206","0.0-42.0","battery-v0.2","","""event"",""trial"",""time""
""fullscreenenter"",""1"",""2665""
","
","
","""event"",""trial"",""time""
""fullscreenenter"",""1"",""2665""
","
","","","1404.7000002861023","","","15","9928","4673","b","elianto","#f73b6a7A"," "," ","1","0","[2258.2999997138977]","1","2","","","9928","38","3","3","lose","go","0"
"pit-trial","160","1206068","0.0-43.0","battery-v0.2","","""event"",""trial"",""time""
""fullscreenenter"",""1"",""2665""
","
","
","""event"",""trial"",""time""
""fullscreenenter"",""1"",""2665""
","
","","","-1","","","15","9928","4673","t","elianto","#f73b6a7A","-1","-1","1","0","[]","0","2","","","9928","39","2","4","lose","no-go","0"
"pit-trial","161","1209851","0.0-44.0","battery-v0.2","","""event"",""trial"",""time""
""fullscreenenter"",""1"",""2665""
","
","
","""event"",""trial"",""time""
""fullscreenenter"",""1"",""2665""
","
","","","919.6000003814697","","","15","9928","4673","f","elianto","#3366ff99"," "," ","1","+10","[1774.1999998092651]","1","2","","","9928","40","1","1","win","go","0"
"pit-trial","162","1214711","0.0-45.0","battery-v0.2","","""event"",""trial"",""time""
""fullscreenenter"",""1"",""2665""
","
","
","""event"",""trial"",""time""
""fullscreenenter"",""1"",""2665""
","
","","","-1","","","15","9928","4673","n","elianto","#f73b6a7A","-1","-1","1","0","[]","0","2","","","9928","41","0","4","lose","no-go","0"
"pit-trial","163","1218768","0.0-46.0","battery-v0.2","","""event"",""trial"",""time""
""fullscreenenter"",""1"",""2665""
","
","
","""event"",""trial"",""time""
""fullscreenenter"",""1"",""2665""
","
","","","1194.1999998092651","","","15","9928","4673","b","elianto","#f73b6a7A"," "," ","1","0","[2044.4000000953674]","1","2","","","9928","42","3","3","lose","go","0"
"pit-trial","164","1222387","0.0-47.0","battery-v0.2","","""event"",""trial"",""time""
""fullscreenenter"",""1"",""2665""
","
","
","""event"",""trial"",""time""
""fullscreenenter"",""1"",""2665""
","
","","","761.3999996185303","","","15","9928","4673","f","elianto","#3366ff99"," "," ","1","+10","[1613.0999999046326]","1","2","","","9928","43","1","1","win","go","0"
"pit-trial","165","1227241","0.0-48.0","battery-v0.2","","""event"",""trial"",""time""
""fullscreenenter"",""1"",""2665""
","
","
","""event"",""trial"",""time""
""fullscreenenter"",""1"",""2665""
","
","","","-1","","","15","9928","4673","t","elianto","#f73b6a7A","-1","-1","1","0","[]","0","2","","","9928","44","2","4","lose","no-go","0"
"pit-trial","166","1231209","0.0-49.0","battery-v0.2","","""event"",""trial"",""time""
""fullscreenenter"",""1"",""2665""
","
","
","""event"",""trial"",""time""
""fullscreenenter"",""1"",""2665""
","
","","","1109.3000001907349","","","15","9928","4673","n","elianto","#f73b6a7A","-1"," ","0","-10","[1962.9000000953674]","1","2","","","9928","45","0","4","lose","no-go","0"
"pit-trial","167","1235552","0.0-50.0","battery-v0.2","","""event"",""trial"",""time""
""fullscreenenter"",""1"",""2665""
","
","
","""event"",""trial"",""time""
""fullscreenenter"",""1"",""2665""
","
","","","1484.5999999046326","","","15","9928","4673","c","elianto","#3366ff99","-1"," ","0","0","[2336.800000190735]","1","2","","","9928","46","4","2","win","no-go","0"
"pit-trial","168","1240410","0.0-51.0","battery-v0.2","","""event"",""trial"",""time""
""fullscreenenter"",""1"",""2665""
","
","
","""event"",""trial"",""time""
""fullscreenenter"",""1"",""2665""
","
","","","-1","","","15","9928","4673","b","elianto","#f73b6a7A"," ","-1","0","-10","[]","0","2","","","9928","47","3","3","lose","go","0"
"pit-trial","169","1245272","0.0-52.0","battery-v0.2","","""event"",""trial"",""time""
""fullscreenenter"",""1"",""2665""
","
","
","""event"",""trial"",""time""
""fullscreenenter"",""1"",""2665""
","
","","","-1","","","15","9928","4673","t","elianto","#f73b6a7A","-1","-1","1","0","[]","0","2","","","9928","48","2","4","lose","no-go","0"
"pit-trial","170","1250130","0.0-53.0","battery-v0.2","","""event"",""trial"",""time""
""fullscreenenter"",""1"",""2665""
","
","
","""event"",""trial"",""time""
""fullscreenenter"",""1"",""2665""
","
","","","-1","","","15","9928","4673","n","elianto","#f73b6a7A","-1","-1","1","-10","[]","0","2","","","9928","49","0","4","lose","no-go","1"
"pit-trial","171","1253809","0.0-54.0","battery-v0.2","","""event"",""trial"",""time""
""fullscreenenter"",""1"",""2665""
","
","
","""event"",""trial"",""time""
""fullscreenenter"",""1"",""2665""
","
","","","816.5999999046326","","","15","9928","4673","c","elianto","#3366ff99","-1"," ","0","0","[1666.6000003814697]","1","2","","","9928","50","4","2","win","no-go","0"
"pit-trial","172","1258014","0.0-55.0","battery-v0.2","","""event"",""trial"",""time""
""fullscreenenter"",""1"",""2665""
","
","
","""event"",""trial"",""time""
""fullscreenenter"",""1"",""2665""
","
","","","1341.5999999046326","","","15","9928","4673","b","elianto","#f73b6a7A"," "," ","1","-10","[2193.4000000953674]","1","2","","","9928","51","3","3","lose","go","1"
"pit-trial","173","1262021","0.0-56.0","battery-v0.2","","""event"",""trial"",""time""
""fullscreenenter"",""1"",""2665""
","
","
","""event"",""trial"",""time""
""fullscreenenter"",""1"",""2665""
","
","","","1149.5999999046326","","","15","9928","4673","f","elianto","#3366ff99"," "," ","1","+10","[2002]","1","2","","","9928","52","1","1","win","go","0"
"pit-trial","174","1266882","0.0-57.0","battery-v0.2","","""event"",""trial"",""time""
""fullscreenenter"",""1"",""2665""
","
","
","""event"",""trial"",""time""
""fullscreenenter"",""1"",""2665""
","
","","","-1","","","15","9928","4673","t","elianto","#f73b6a7A","-1","-1","1","0","[]","0","2","","","9928","53","2","4","lose","no-go","0"
"pit-trial","175","1271746","0.0-58.0","battery-v0.2","","""event"",""trial"",""time""
""fullscreenenter"",""1"",""2665""
","
","
","""event"",""trial"",""time""
""fullscreenenter"",""1"",""2665""
","
","","","-1","","","15","9928","4673","n","elianto","#f73b6a7A","-1","-1","1","0","[]","0","2","","","9928","54","0","4","lose","no-go","0"
"pit-trial","176","1276608","0.0-59.0","battery-v0.2","","""event"",""trial"",""time""
""fullscreenenter"",""1"",""2665""
","
","
","""event"",""trial"",""time""
""fullscreenenter"",""1"",""2665""
","
","","","-1","","","15","9928","4673","c","elianto","#3366ff99","-1","-1","1","+10","[]","0","2","","","9928","55","4","2","win","no-go","0"
"pit-trial","177","1280263","0.0-60.0","battery-v0.2","","""event"",""trial"",""time""
""fullscreenenter"",""1"",""2665""
","
","
","""event"",""trial"",""time""
""fullscreenenter"",""1"",""2665""
","
","","","793.4000000953674","","","15","9928","4673","f","elianto","#3366ff99"," "," ","1","+10","[1648.4000000953674]","1","2","","","9928","56","1","1","win","go","0"
"pit-trial","178","1285120","0.0-61.0","battery-v0.2","","""event"",""trial"",""time""
""fullscreenenter"",""1"",""2665""
","
","
","""event"",""trial"",""time""
""fullscreenenter"",""1"",""2665""
","
","","","-1","","","15","9928","4673","c","elianto","#3366ff99","-1","-1","1","0","[]","0","2","","","9928","57","4","2","win","no-go","1"
"pit-trial","179","1289455","0.0-62.0","battery-v0.2","","""event"",""trial"",""time""
""fullscreenenter"",""1"",""2665""
","
","
","""event"",""trial"",""time""
""fullscreenenter"",""1"",""2665""
","
","","","1469.1000003814697","","","15","9928","4673","n","elianto","#f73b6a7A","-1"," ","0","-10","[2326.199999809265]","1","2","","","9928","58","0","4","lose","no-go","0"
"pit-trial","180","1293334","0.0-63.0","battery-v0.2","","""event"",""trial"",""time""
""fullscreenenter"",""1"",""2665""
","
","
","""event"",""trial"",""time""
""fullscreenenter"",""1"",""2665""
","
","","","1017.6999998092651","","","15","9928","4673","f","elianto","#3366ff99"," "," ","1","+10","[1874]","1","2","","","9928","59","1","1","win","go","0"
"pit-trial","181","1298194","0.0-64.0","battery-v0.2","","""event"",""trial"",""time""
""fullscreenenter"",""1"",""2665""
","
","
","""event"",""trial"",""time""
""fullscreenenter"",""1"",""2665""
","
","","","-1","","","15","9928","4673","b","elianto","#f73b6a7A"," ","-1","0","0","[]","0","2","","","9928","60","3","3","lose","go","1"
"pit-trial","182","1301837","0.0-65.0","battery-v0.2","","""event"",""trial"",""time""
""fullscreenenter"",""1"",""2665""
","
","
","""event"",""trial"",""time""
""fullscreenenter"",""1"",""2665""
","
","","","782.4000000953674","","","15","9928","4673","f","elianto","#3366ff99"," "," ","1","+10","[1632.6000003814697]","1","2","","","9928","61","1","1","win","go","0"
"pit-trial","183","1306698","0.0-66.0","battery-v0.2","","""event"",""trial"",""time""
""fullscreenenter"",""1"",""2665""
","
","
","""event"",""trial"",""time""
""fullscreenenter"",""1"",""2665""
","
","","","-1","","","15","9928","4673","b","elianto","#f73b6a7A"," ","-1","0","-10","[]","0","2","","","9928","62","3","3","lose","go","0"
"pit-trial","184","1311563","0.0-67.0","battery-v0.2","","""event"",""trial"",""time""
""fullscreenenter"",""1"",""2665""
","
","
","""event"",""trial"",""time""
""fullscreenenter"",""1"",""2665""
","
","","","-1","","","15","9928","4673","c","elianto","#3366ff99","-1","-1","1","+10","[]","0","2","","","9928","63","4","2","win","no-go","0"
"pit-trial","185","1316429","0.0-68.0","battery-v0.2","","""event"",""trial"",""time""
""fullscreenenter"",""1"",""2665""
","
","
","""event"",""trial"",""time""
""fullscreenenter"",""1"",""2665""
","
","","","-1","","","15","9928","4673","t","elianto","#f73b6a7A","-1","-1","1","0","[]","0","2","","","9928","64","2","4","lose","no-go","0"
"pit-trial","186","1320223","0.0-69.0","battery-v0.2","","""event"",""trial"",""time""
""fullscreenenter"",""1"",""2665""
","
","
","""event"",""trial"",""time""
""fullscreenenter"",""1"",""2665""
","
","","","930.6999998092651","","","15","9928","4673","f","elianto","#3366ff99"," "," ","1","+10","[1784.7999997138977]","1","2","","","9928","65","1","1","win","go","0"
"pit-trial","187","1324799","0.0-70.0","battery-v0.2","","""event"",""trial"",""time""
""fullscreenenter"",""1"",""2665""
","
","
","""event"",""trial"",""time""
""fullscreenenter"",""1"",""2665""
","
","","","1711.0999999046326","","","15","9928","4673","b","elianto","#f73b6a7A"," "," ","1","0","[2564.9000000953674]","1","2","","","9928","66","3","3","lose","go","0"
"pit-trial","188","1329658","0.0-71.0","battery-v0.2","","""event"",""trial"",""time""
""fullscreenenter"",""1"",""2665""
","
","
","""event"",""trial"",""time""
""fullscreenenter"",""1"",""2665""
","
","","","-1","","","15","9928","4673","t","elianto","#f73b6a7A","-1","-1","1","0","[]","0","2","","","9928","67","2","4","lose","no-go","0"
"pit-trial","189","1333578","0.0-72.0","battery-v0.2","","""event"",""trial"",""time""
""fullscreenenter"",""1"",""2665""
","
","
","""event"",""trial"",""time""
""fullscreenenter"",""1"",""2665""
","
","","","1063.1000003814697","","","15","9928","4673","c","elianto","#3366ff99","-1"," ","0","+10","[1916.2999997138977]","1","2","","","9928","68","4","2","win","no-go","1"
"pit-trial","190","1338445","0.0-73.0","battery-v0.2","","""event"",""trial"",""time""
""fullscreenenter"",""1"",""2665""
","
","
","""event"",""trial"",""time""
""fullscreenenter"",""1"",""2665""
","
","","","-1","","","15","9928","4673","z","elianto","#3366ff99"," ","-1","0","0","[]","0","2","","","9928","69","5","1","win","go","0"
"pit-trial","191","1342267","0.0-74.0","battery-v0.2","","""event"",""trial"",""time""
""fullscreenenter"",""1"",""2665""
","
","
","""event"",""trial"",""time""
""fullscreenenter"",""1"",""2665""
","
","","","963.7999997138977","","","15","9928","4673","b","elianto","#f73b6a7A"," "," ","1","0","[1814.0999999046326]","1","2","","","9928","70","3","3","lose","go","0"
"pit-trial","192","1347129","0.0-75.0","battery-v0.2","","""event"",""trial"",""time""
""fullscreenenter"",""1"",""2665""
","
","
","""event"",""trial"",""time""
""fullscreenenter"",""1"",""2665""
","
","","","-1","","","15","9928","4673","c","elianto","#3366ff99","-1","-1","1","0","[]","0","2","","","9928","71","4","2","win","no-go","1"
"pit-trial","193","1350772","0.0-76.0","battery-v0.2","","""event"",""trial"",""time""
""fullscreenenter"",""1"",""2665""
","
","
","""event"",""trial"",""time""
""fullscreenenter"",""1"",""2665""
","
","","","782","","","15","9928","4673","f","elianto","#3366ff99"," "," ","1","+10","[1636.0999999046326]","1","2","","","9928","72","1","1","win","go","0"
"pit-trial","194","1355016","0.0-77.0","battery-v0.2","","""event"",""trial"",""time""
""fullscreenenter"",""1"",""2665""
","
","
","""event"",""trial"",""time""
""fullscreenenter"",""1"",""2665""
","
","","","1384.5999999046326","","","15","9928","4673","z","elianto","#3366ff99"," "," ","1","0","[2239.199999809265]","1","2","","","9928","73","5","1","win","go","1"
"pit-trial","195","1359877","0.0-78.0","battery-v0.2","","""event"",""trial"",""time""
""fullscreenenter"",""1"",""2665""
","
","
","""event"",""trial"",""time""
""fullscreenenter"",""1"",""2665""
","
","","","-1","","","15","9928","4673","c","elianto","#3366ff99","-1","-1","1","+10","[]","0","2","","","9928","74","4","2","win","no-go","0"
"pit-trial","196","1363756","0.0-79.0","battery-v0.2","","""event"",""trial"",""time""
""fullscreenenter"",""1"",""2665""
","
","
","""event"",""trial"",""time""
""fullscreenenter"",""1"",""2665""
","
","","","1010.4000000953674","","","15","9928","4673","f","elianto","#3366ff99"," "," ","1","+10","[1867.2999997138977]","1","2","","","9928","75","1","1","win","go","0"
"pit-trial","197","1367624","0.0-80.0","battery-v0.2","","""event"",""trial"",""time""
""fullscreenenter"",""1"",""2665""
","
","
","""event"",""trial"",""time""
""fullscreenenter"",""1"",""2665""
","
","","","1002.5999999046326","","","15","9928","4673","b","elianto","#f73b6a7A"," "," ","1","-10","[1858.5]","1","2","","","9928","76","3","3","lose","go","1"
"pit-trial","198","1372492","0.0-81.0","battery-v0.2","","""event"",""trial"",""time""
""fullscreenenter"",""1"",""2665""
","
","
","""event"",""trial"",""time""
""fullscreenenter"",""1"",""2665""
","
","","","-1","","","15","9928","4673","h","elianto","#f73b6a7A","-1","-1","1","0","[]","0","2","","","9928","77","6","4","lose","no-go","0"
"pit-trial","199","1377278","0.0-82.0","battery-v0.2","","""event"",""trial"",""time""
""fullscreenenter"",""1"",""2665""
","
","
","""event"",""trial"",""time""
""fullscreenenter"",""1"",""2665""
","
","","","1932","","","15","9928","4673","z","elianto","#3366ff99"," "," ","1","0","[2782.9000000953674]","1","2","","","9928","78","5","1","win","go","1"
"pit-trial","200","1382140","0.0-83.0","battery-v0.2","","""event"",""trial"",""time""
""fullscreenenter"",""1"",""2665""
","
","
","""event"",""trial"",""time""
""fullscreenenter"",""1"",""2665""
","
","","","-1","","","15","9928","4673","c","elianto","#3366ff99","-1","-1","1","+10","[]","0","2","","","9928","79","4","2","win","no-go","0"
"pit-trial","201","1386037","0.0-84.0","battery-v0.2","","""event"",""trial"",""time""
""fullscreenenter"",""1"",""2665""
","
","
","""event"",""trial"",""time""
""fullscreenenter"",""1"",""2665""
","
","","","1038.0999999046326","","","15","9928","4673","b","elianto","#f73b6a7A"," "," ","1","0","[1891.9000000953674]","1","2","","","9928","80","3","3","lose","go","0"
"pit-trial","202","1390897","0.0-85.0","battery-v0.2","","""event"",""trial"",""time""
""fullscreenenter"",""1"",""2665""
","
","
","""event"",""trial"",""time""
""fullscreenenter"",""1"",""2665""
","
","","","-1","","","15","9928","4673","y","elianto","#f73b6a7A"," ","-1","0","0","[]","0","2","","","9928","81","7","3","lose","go","1"
"pit-trial","203","1395760","0.0-86.0","battery-v0.2","","""event"",""trial"",""time""
""fullscreenenter"",""1"",""2665""
","
","
","""event"",""trial"",""time""
""fullscreenenter"",""1"",""2665""
","
","","","-1","","","15","9928","4673","c","elianto","#3366ff99","-1","-1","1","+10","[]","0","2","","","9928","82","4","2","win","no-go","0"
"pit-trial","204","1399839","0.0-87.0","battery-v0.2","","""event"",""trial"",""time""
""fullscreenenter"",""1"",""2665""
","
","
","""event"",""trial"",""time""
""fullscreenenter"",""1"",""2665""
","
","","","1216.7999997138977","","","15","9928","4673","z","elianto","#3366ff99"," "," ","1","+10","[2071.3999996185303]","1","2","","","9928","83","5","1","win","go","0"
"pit-trial","205","1404698","0.0-88.0","battery-v0.2","","""event"",""trial"",""time""
""fullscreenenter"",""1"",""2665""
","
","
","""event"",""trial"",""time""
""fullscreenenter"",""1"",""2665""
","
","","","-1","","","15","9928","4673","h","elianto","#f73b6a7A","-1","-1","1","0","[]","0","2","","","9928","84","6","4","lose","no-go","0"
"pit-trial","206","1409093","0.0-89.0","battery-v0.2","","""event"",""trial"",""time""
""fullscreenenter"",""1"",""2665""
","
","
","""event"",""trial"",""time""
""fullscreenenter"",""1"",""2665""
","
","","","1536.5","","","15","9928","4673","y","elianto","#f73b6a7A"," "," ","1","-10","[2387.300000190735]","1","2","","","9928","85","7","3","lose","go","1"
"pit-trial","207","1413952","0.0-90.0","battery-v0.2","","""event"",""trial"",""time""
""fullscreenenter"",""1"",""2665""
","
","
","""event"",""trial"",""time""
""fullscreenenter"",""1"",""2665""
","
","","","-1","","","15","9928","4673","z","elianto","#3366ff99"," ","-1","0","+10","[]","0","2","","","9928","86","5","1","win","go","1"
"pit-trial","208","1418816","0.0-91.0","battery-v0.2","","""event"",""trial"",""time""
""fullscreenenter"",""1"",""2665""
","
","
","""event"",""trial"",""time""
""fullscreenenter"",""1"",""2665""
","
","","","-1","","","15","9928","4673","h","elianto","#f73b6a7A","-1","-1","1","0","[]","0","2","","","9928","87","6","4","lose","no-go","0"
"pit-trial","209","1423677","0.0-92.0","battery-v0.2","","""event"",""trial"",""time""
""fullscreenenter"",""1"",""2665""
","
","
","""event"",""trial"",""time""
""fullscreenenter"",""1"",""2665""
","
","","","-1","","","15","9928","4673","c","elianto","#3366ff99","-1","-1","1","+10","[]","0","2","","","9928","88","4","2","win","no-go","0"
"pit-trial","210","1428095","0.0-93.0","battery-v0.2","","""event"",""trial"",""time""
""fullscreenenter"",""1"",""2665""
","
","
","""event"",""trial"",""time""
""fullscreenenter"",""1"",""2665""
","
","","","1560.6999998092651","","","15","9928","4673","z","elianto","#3366ff99"," "," ","1","+10","[2412]","1","2","","","9928","89","5","1","win","go","0"
"pit-trial","211","1432952","0.0-94.0","battery-v0.2","","""event"",""trial"",""time""
""fullscreenenter"",""1"",""2665""
","
","
","""event"",""trial"",""time""
""fullscreenenter"",""1"",""2665""
","
","","","-1","","","15","9928","4673","y","elianto","#f73b6a7A"," ","-1","0","-10","[]","0","2","","","9928","90","7","3","lose","go","0"
"pit-trial","212","1437814","0.0-95.0","battery-v0.2","","""event"",""trial"",""time""
""fullscreenenter"",""1"",""2665""
","
","
","""event"",""trial"",""time""
""fullscreenenter"",""1"",""2665""
","
","","","-1","","","15","9928","4673","c","elianto","#3366ff99","-1","-1","1","+10","[]","0","2","","","9928","91","4","2","win","no-go","0"
"pit-trial","213","1442670","0.0-96.0","battery-v0.2","","""event"",""trial"",""time""
""fullscreenenter"",""1"",""2665""
","
","
","""event"",""trial"",""time""
""fullscreenenter"",""1"",""2665""
","
","","","-1","","","15","9928","4673","h","elianto","#f73b6a7A","-1","-1","1","0","[]","0","2","","","9928","92","6","4","lose","no-go","0"
"pit-trial","214","1446970","0.0-97.0","battery-v0.2","","""event"",""trial"",""time""
""fullscreenenter"",""1"",""2665""
","
","
","""event"",""trial"",""time""
""fullscreenenter"",""1"",""2665""
","
","","","1442.1999998092651","","","15","9928","4673","z","elianto","#3366ff99"," "," ","1","0","[2296.7999997138977]","1","2","","","9928","93","5","1","win","go","1"
"pit-trial","215","1451332","0.0-98.0","battery-v0.2","","""event"",""trial"",""time""
""fullscreenenter"",""1"",""2665""
","
","
","""event"",""trial"",""time""
""fullscreenenter"",""1"",""2665""
","
","","","1500.1000003814697","","","15","9928","4673","r","elianto","#3366ff99","-1"," ","0","0","[2354.6000003814697]","1","2","","","9928","94","8","2","win","no-go","0"
"pit-trial","216","1456194","0.0-99.0","battery-v0.2","","""event"",""trial"",""time""
""fullscreenenter"",""1"",""2665""
","
","
","""event"",""trial"",""time""
""fullscreenenter"",""1"",""2665""
","
","","","-1","","","15","9928","4673","y","elianto","#f73b6a7A"," ","-1","0","-10","[]","0","2","","","9928","95","7","3","lose","go","0"
"pit-trial","217","1461053","0.0-100.0","battery-v0.2","","""event"",""trial"",""time""
""fullscreenenter"",""1"",""2665""
","
","
","""event"",""trial"",""time""
""fullscreenenter"",""1"",""2665""
","
","","","-1","","","15","9928","4673","h","elianto","#f73b6a7A","-1","-1","1","-10","[]","0","2","","","9928","96","6","4","lose","no-go","1"
"pit-trial","218","1464849","0.0-101.0","battery-v0.2","","""event"",""trial"",""time""
""fullscreenenter"",""1"",""2665""
","
","
","""event"",""trial"",""time""
""fullscreenenter"",""1"",""2665""
","
","","","930.9000000953674","","","15","9928","4673","y","elianto","#f73b6a7A"," "," ","1","0","[1786]","1","2","","","9928","97","7","3","lose","go","0"
"pit-trial","219","1469103","0.0-102.0","battery-v0.2","","""event"",""trial"",""time""
""fullscreenenter"",""1"",""2665""
","
","
","""event"",""trial"",""time""
""fullscreenenter"",""1"",""2665""
","
","","","1390.4000000953674","","","15","9928","4673","r","elianto","#3366ff99","-1"," ","0","0","[2241.4000000953674]","1","2","","","9928","98","8","2","win","no-go","0"
"pit-trial","220","1473255","0.0-103.0","battery-v0.2","","""event"",""trial"",""time""
""fullscreenenter"",""1"",""2665""
","
","
","""event"",""trial"",""time""
""fullscreenenter"",""1"",""2665""
","
","","","1287.9000000953674","","","15","9928","4673","z","elianto","#3366ff99"," "," ","1","+10","[2143.5]","1","2","","","9928","99","5","1","win","go","0"
"pit-trial","221","1478118","0.0-104.0","battery-v0.2","","""event"",""trial"",""time""
""fullscreenenter"",""1"",""2665""
","
","
","""event"",""trial"",""time""
""fullscreenenter"",""1"",""2665""
","
","","","-1","","","15","9928","4673","h","elianto","#f73b6a7A","-1","-1","1","0","[]","0","2","","","9928","100","6","4","lose","no-go","0"
"pit-trial","222","1482979","0.0-105.0","battery-v0.2","","""event"",""trial"",""time""
""fullscreenenter"",""1"",""2665""
","
","
","""event"",""trial"",""time""
""fullscreenenter"",""1"",""2665""
","
","","","-1","","","15","9928","4673","h","elianto","#f73b6a7A","-1","-1","1","0","[]","0","2","","","9928","101","6","4","lose","no-go","0"
"pit-trial","223","1487839","0.0-106.0","battery-v0.2","","""event"",""trial"",""time""
""fullscreenenter"",""1"",""2665""
","
","
","""event"",""trial"",""time""
""fullscreenenter"",""1"",""2665""
","
","","","-1","","","15","9928","4673","r","elianto","#3366ff99","-1","-1","1","0","[]","0","2","","","9928","102","8","2","win","no-go","1"
"pit-trial","224","1491707","0.0-107.0","battery-v0.2","","""event"",""trial"",""time""
""fullscreenenter"",""1"",""2665""
","
","
","""event"",""trial"",""time""
""fullscreenenter"",""1"",""2665""
","
","","","1011.7999997138977","","","15","9928","4673","m","elianto","#3366ff99","-1"," ","0","0","[1864.5]","1","2","","","9928","103","9","2","win","no-go","0"
"pit-trial","225","1496567","0.0-108.0","battery-v0.2","","""event"",""trial"",""time""
""fullscreenenter"",""1"",""2665""
","
","
","""event"",""trial"",""time""
""fullscreenenter"",""1"",""2665""
","
","","","-1","","","15","9928","4673","z","elianto","#3366ff99"," ","-1","0","0","[3187.0999999046326]","1","2","","","9928","104","5","1","win","go","0"
"pit-trial","226","1500441","0.0-109.0","battery-v0.2","","""event"",""trial"",""time""
""fullscreenenter"",""1"",""2665""
","
","
","""event"",""trial"",""time""
""fullscreenenter"",""1"",""2665""
","
","","","1015.5","","","15","9928","4673","m","elianto","#3366ff99","-1"," ","0","0","[1866.6999998092651]","1","2","","","9928","105","9","2","win","no-go","0"
"pit-trial","227","1504348","0.0-110.0","battery-v0.2","","""event"",""trial"",""time""
""fullscreenenter"",""1"",""2665""
","
","
","""event"",""trial"",""time""
""fullscreenenter"",""1"",""2665""
","
","","","1044.3999996185303","","","15","9928","4673","r","elianto","#3366ff99","-1"," ","0","0","[1898.5]","1","2","","","9928","106","8","2","win","no-go","0"
"pit-trial","228","1508508","0.0-111.0","battery-v0.2","","""event"",""trial"",""time""
""fullscreenenter"",""1"",""2665""
","
","
","""event"",""trial"",""time""
""fullscreenenter"",""1"",""2665""
","
","","","1301.6999998092651","","","15","9928","4673","z","elianto","#3366ff99"," "," ","1","+10","[2155.2999997138977]","1","2","","","9928","107","5","1","win","go","0"
"pit-trial","229","1513366","0.0-112.0","battery-v0.2","","""event"",""trial"",""time""
""fullscreenenter"",""1"",""2665""
","
","
","""event"",""trial"",""time""
""fullscreenenter"",""1"",""2665""
","
","","","-1","","","15","9928","4673","h","elianto","#f73b6a7A","-1","-1","1","0","[]","0","2","","","9928","108","6","4","lose","no-go","0"
"pit-trial","230","1517106","0.0-113.0","battery-v0.2","","""event"",""trial"",""time""
""fullscreenenter"",""1"",""2665""
","
","
","""event"",""trial"",""time""
""fullscreenenter"",""1"",""2665""
","
","","","884.0999999046326","","","15","9928","4673","z","elianto","#3366ff99"," "," ","1","+10","[1736.3000001907349]","1","2","","","9928","109","5","1","win","go","0"
"pit-trial","231","1521971","0.0-114.0","battery-v0.2","","""event"",""trial"",""time""
""fullscreenenter"",""1"",""2665""
","
","
","""event"",""trial"",""time""
""fullscreenenter"",""1"",""2665""
","
","","","-1","","","15","9928","4673","r","elianto","#3366ff99","-1","-1","1","+10","[]","0","2","","","9928","110","8","2","win","no-go","0"
"pit-trial","232","1526009","0.0-115.0","battery-v0.2","","""event"",""trial"",""time""
""fullscreenenter"",""1"",""2665""
","
","
","""event"",""trial"",""time""
""fullscreenenter"",""1"",""2665""
","
","","","1173.1999998092651","","","15","9928","4673","m","elianto","#3366ff99","-1"," ","0","0","[2030.9000000953674]","1","2","","","9928","111","9","2","win","no-go","0"
"pit-trial","233","1530872","0.0-116.0","battery-v0.2","","""event"",""trial"",""time""
""fullscreenenter"",""1"",""2665""
","
","
","""event"",""trial"",""time""
""fullscreenenter"",""1"",""2665""
","
","","","-1","","","15","9928","4673","h","elianto","#f73b6a7A","-1","-1","1","0","[]","0","2","","","9928","112","6","4","lose","no-go","0"
"pit-trial","234","1534747","0.0-117.0","battery-v0.2","","""event"",""trial"",""time""
""fullscreenenter"",""1"",""2665""
","
","
","""event"",""trial"",""time""
""fullscreenenter"",""1"",""2665""
","
","","","1012","","","15","9928","4673","r","elianto","#3366ff99","-1"," ","0","+10","[1867]","1","2","","","9928","113","8","2","win","no-go","1"
"pit-trial","235","1539607","0.0-118.0","battery-v0.2","","""event"",""trial"",""time""
""fullscreenenter"",""1"",""2665""
","
","
","""event"",""trial"",""time""
""fullscreenenter"",""1"",""2665""
","
","","","-1","","","15","9928","4673","m","elianto","#3366ff99","-1","-1","1","+10","[]","0","2","","","9928","114","9","2","win","no-go","0"
"pit-trial","236","1543934","0.0-119.0","battery-v0.2","","""event"",""trial"",""time""
""fullscreenenter"",""1"",""2665""
","
","
","""event"",""trial"",""time""
""fullscreenenter"",""1"",""2665""
","
","","","1463.4000000953674","","","15","9928","4673","y","elianto","#f73b6a7A"," "," ","1","0","[2315.2000002861023]","1","2","","","9928","115","7","3","lose","go","0"
"pit-trial","237","1548461","0.0-120.0","battery-v0.2","","""event"",""trial"",""time""
""fullscreenenter"",""1"",""2665""
","
","
","""event"",""trial"",""time""
""fullscreenenter"",""1"",""2665""
","
","","","1667.5999999046326","","","15","9928","4673","z","elianto","#3366ff99"," "," ","1","+10","[2518.4000000953674]","1","2","","","9928","116","5","1","win","go","0"
"pit-trial","238","1553339","0.0-121.0","battery-v0.2","","""event"",""trial"",""time""
""fullscreenenter"",""1"",""2665""
","
","
","""event"",""trial"",""time""
""fullscreenenter"",""1"",""2665""
","
","","","-1","","","15","9928","4673","m","elianto","#3366ff99","-1","-1","1","+10","[]","0","2","","","9928","117","9","2","win","no-go","0"
"pit-trial","239","1558201","0.0-122.0","battery-v0.2","","""event"",""trial"",""time""
""fullscreenenter"",""1"",""2665""
","
","
","""event"",""trial"",""time""
""fullscreenenter"",""1"",""2665""
","
","","","-1","","","15","9928","4673","h","elianto","#f73b6a7A","-1","-1","1","0","[]","0","2","","","9928","118","6","4","lose","no-go","0"
"pit-trial","240","1562585","0.0-123.0","battery-v0.2","","""event"",""trial"",""time""
""fullscreenenter"",""1"",""2665""
","
","
","""event"",""trial"",""time""
""fullscreenenter"",""1"",""2665""
","
","","","1526.6999998092651","","","15","9928","4673","r","elianto","#3366ff99","-1"," ","0","0","[2377.0999999046326]","1","2","","","9928","119","8","2","win","no-go","0"
"pit-trial","241","1567422","0.0-124.0","battery-v0.2","","""event"",""trial"",""time""
""fullscreenenter"",""1"",""2665""
","
","
","""event"",""trial"",""time""
""fullscreenenter"",""1"",""2665""
","
","","","1971.6999998092651","","","15","9928","4673","z","elianto","#3366ff99"," "," ","1","+10","[2828.2000002861023]","1","2","","","9928","120","5","1","win","go","0"
"pit-trial","242","1572049","0.0-125.0","battery-v0.2","","""event"",""trial"",""time""
""fullscreenenter"",""1"",""2665""
","
","
","""event"",""trial"",""time""
""fullscreenenter"",""1"",""2665""
","
","","","1767.7000002861023","","","15","9928","4673","y","elianto","#f73b6a7A"," "," ","1","0","[2619.5]","1","2","","","9928","121","7","3","lose","go","0"
"pit-trial","243","1576199","0.0-126.0","battery-v0.2","","""event"",""trial"",""time""
""fullscreenenter"",""1"",""2665""
","
","
","""event"",""trial"",""time""
""fullscreenenter"",""1"",""2665""
","
","","","1288.5","","","15","9928","4673","m","elianto","#3366ff99","-1"," ","0","0","[2142.4000000953674]","1","2","","","9928","122","9","2","win","no-go","0"
"pit-trial","244","1580230","0.0-127.0","battery-v0.2","","""event"",""trial"",""time""
""fullscreenenter"",""1"",""2665""
","
","
","""event"",""trial"",""time""
""fullscreenenter"",""1"",""2665""
","
","","","1167.8000001907349","","","15","9928","4673","r","elianto","#3366ff99","-1"," ","0","0","[2023.0999999046326]","1","2","","","9928","123","8","2","win","no-go","0"
"pit-trial","245","1584035","0.0-128.0","battery-v0.2","","""event"",""trial"",""time""
""fullscreenenter"",""1"",""2665""
","
","
","""event"",""trial"",""time""
""fullscreenenter"",""1"",""2665""
","
","","","943.7999997138977","","","15","9928","4673","z","elianto","#3366ff99"," "," ","1","+10","[1794.3999996185303]","1","2","","","9928","124","5","1","win","go","0"
"pit-trial","246","1588898","0.0-129.0","battery-v0.2","","""event"",""trial"",""time""
""fullscreenenter"",""1"",""2665""
","
","
","""event"",""trial"",""time""
""fullscreenenter"",""1"",""2665""
","
","","","-1","","","15","9928","4673","m","elianto","#3366ff99","-1","-1","1","+10","[]","0","2","","","9928","125","9","2","win","no-go","0"
"pit-trial","247","1592936","0.0-130.0","battery-v0.2","","""event"",""trial"",""time""
""fullscreenenter"",""1"",""2665""
","
","
","""event"",""trial"",""time""
""fullscreenenter"",""1"",""2665""
","
","","","1173.4000000953674","","","15","9928","4673","y","elianto","#f73b6a7A"," "," ","1","-10","[2030.6999998092651]","1","2","","","9928","126","7","3","lose","go","1"
"pit-trial","248","1597801","0.0-131.0","battery-v0.2","","""event"",""trial"",""time""
""fullscreenenter"",""1"",""2665""
","
","
","""event"",""trial"",""time""
""fullscreenenter"",""1"",""2665""
","
","","","-1","","","15","9928","4673","r","elianto","#3366ff99","-1","-1","1","+10","[]","0","2","","","9928","127","8","2","win","no-go","0"
"pit-trial","249","1602660","0.0-132.0","battery-v0.2","","""event"",""trial"",""time""
""fullscreenenter"",""1"",""2665""
","
","
","""event"",""trial"",""time""
""fullscreenenter"",""1"",""2665""
","
","","","-1","","","15","9928","4673","h","elianto","#f73b6a7A","-1","-1","1","0","[]","0","2","","","9928","128","6","4","lose","no-go","0"
"pit-trial","250","1606652","0.0-133.0","battery-v0.2","","""event"",""trial"",""time""
""fullscreenenter"",""1"",""2665""
","
","
","""event"",""trial"",""time""
""fullscreenenter"",""1"",""2665""
","
","","","1130.1000003814697","","","15","9928","4673","m","elianto","#3366ff99","-1"," ","0","+10","[1982.8000001907349]","1","2","","","9928","129","9","2","win","no-go","1"
"pit-trial","251","1611513","0.0-134.0","battery-v0.2","","""event"",""trial"",""time""
""fullscreenenter"",""1"",""2665""
","
","
","""event"",""trial"",""time""
""fullscreenenter"",""1"",""2665""
","
","","","-1","","","15","9928","4673","r","elianto","#3366ff99","-1","-1","1","+10","[]","0","2","","","9928","130","8","2","win","no-go","0"
"pit-trial","252","1615461","0.0-135.0","battery-v0.2","","""event"",""trial"",""time""
""fullscreenenter"",""1"",""2665""
","
","
","""event"",""trial"",""time""
""fullscreenenter"",""1"",""2665""
","
","","","1085.5","","","15","9928","4673","y","elianto","#f73b6a7A"," "," ","1","0","[1936.2000002861023]","1","2","","","9928","131","7","3","lose","go","0"
"pit-trial","253","1620333","0.0-136.0","battery-v0.2","","""event"",""trial"",""time""
""fullscreenenter"",""1"",""2665""
","
","
","""event"",""trial"",""time""
""fullscreenenter"",""1"",""2665""
","
","","","-1","","","15","9928","4673","h","elianto","#f73b6a7A","-1","-1","1","0","[]","0","2","","","9928","132","6","4","lose","no-go","0"
"pit-trial","254","1624263","0.0-137.0","battery-v0.2","","""event"",""trial"",""time""
""fullscreenenter"",""1"",""2665""
","
","
","""event"",""trial"",""time""
""fullscreenenter"",""1"",""2665""
","
","","","1065.7000002861023","","","15","9928","4673","y","elianto","#f73b6a7A"," "," ","1","0","[1918.0999999046326]","1","2","","","9928","133","7","3","lose","go","0"
"pit-trial","255","1629127","0.0-138.0","battery-v0.2","","""event"",""trial"",""time""
""fullscreenenter"",""1"",""2665""
","
","
","""event"",""trial"",""time""
""fullscreenenter"",""1"",""2665""
","
","","","-1","","","15","9928","4673","r","elianto","#3366ff99","-1","-1","1","+10","[]","0","2","","","9928","134","8","2","win","no-go","0"
"pit-trial","256","1633990","0.0-139.0","battery-v0.2","","""event"",""trial"",""time""
""fullscreenenter"",""1"",""2665""
","
","
","""event"",""trial"",""time""
""fullscreenenter"",""1"",""2665""
","
","","","-1","","","15","9928","4673","h","elianto","#f73b6a7A","-1","-1","1","0","[]","0","2","","","9928","135","6","4","lose","no-go","0"
"pit-trial","257","1638148","0.0-140.0","battery-v0.2","","""event"",""trial"",""time""
""fullscreenenter"",""1"",""2665""
","
","
","""event"",""trial"",""time""
""fullscreenenter"",""1"",""2665""
","
","","","1295.8000001907349","","","15","9928","4673","m","elianto","#3366ff99","-1"," ","0","0","[2150.300000190735,2983.300000190735]","2","2","","","9928","136","9","2","win","no-go","0"
"pit-trial","258","1643013","0.0-141.0","battery-v0.2","","""event"",""trial"",""time""
""fullscreenenter"",""1"",""2665""
","
","
","""event"",""trial"",""time""
""fullscreenenter"",""1"",""2665""
","
","","","-1","","","15","9928","4673","r","elianto","#3366ff99","-1","-1","1","+10","[]","0","2","","","9928","137","8","2","win","no-go","0"
"pit-trial","259","1647868","0.0-142.0","battery-v0.2","","""event"",""trial"",""time""
""fullscreenenter"",""1"",""2665""
","
","
","""event"",""trial"",""time""
""fullscreenenter"",""1"",""2665""
","
","","","-1","","","15","9928","4673","y","elianto","#f73b6a7A"," ","-1","0","-10","[]","0","2","","","9928","138","7","3","lose","go","0"
"pit-trial","260","1652731","0.0-143.0","battery-v0.2","","""event"",""trial"",""time""
""fullscreenenter"",""1"",""2665""
","
","
","""event"",""trial"",""time""
""fullscreenenter"",""1"",""2665""
","
","","","-1","","","15","9928","4673","m","elianto","#3366ff99","-1","-1","1","+10","[]","0","2","","","9928","139","9","2","win","no-go","0"
"pit-trial","261","1657595","0.0-144.0","battery-v0.2","","""event"",""trial"",""time""
""fullscreenenter"",""1"",""2665""
","
","
","""event"",""trial"",""time""
""fullscreenenter"",""1"",""2665""
","
","","","-1","","","15","9928","4673","h","elianto","#f73b6a7A","-1","-1","1","0","[]","0","2","","","9928","140","6","4","lose","no-go","0"
"pit-instructions","262","1718497","0.0-145.0","battery-v0.2","","""event"",""trial"",""time""
""fullscreenenter"",""1"",""2665""
","
","
","""event"",""trial"",""time""
""fullscreenenter"",""1"",""2665""
","
","","[{""page_index"":0,""viewing_time"":43119.300000190735},{""page_index"":1,""viewing_time"":17772.099999904633}]","60892.800000190735","","","","","","","","","","","","","","","","","","","","","","","",""
"pit-trial","263","1723384","0.0-146.0","battery-v0.2","","""event"",""trial"",""time""
""fullscreenenter"",""1"",""2665""
","
","
","""event"",""trial"",""time""
""fullscreenenter"",""1"",""2665""
","
","","","-1","","","15","9928","4673","j","elianto","#f73b6a7A"," ","-1","0","-10","[]","0","3","","","9928","141","0","3","lose","go","0"
"pit-trial","264","1728250","0.0-147.0","battery-v0.2","","""event"",""trial"",""time""
""fullscreenenter"",""1"",""2665""
","
","
","""event"",""trial"",""time""
""fullscreenenter"",""1"",""2665""
","
","","","-1","","","15","9928","4673","e","elianto","#f73b6a7A"," ","-1","0","-10","[]","0","3","","","9928","142","2","3","lose","go","0"
"pit-trial","265","1733119","0.0-148.0","battery-v0.2","","""event"",""trial"",""time""
""fullscreenenter"",""1"",""2665""
","
","
","""event"",""trial"",""time""
""fullscreenenter"",""1"",""2665""
","
","","","-1","","","15","9928","4673","w","elianto","#f73b6a7A","-1","-1","1","0","[]","0","3","","","9928","143","3","4","lose","no-go","0"
"pit-trial","266","1737992","0.0-149.0","battery-v0.2","","""event"",""trial"",""time""
""fullscreenenter"",""1"",""2665""
","
","
","""event"",""trial"",""time""
""fullscreenenter"",""1"",""2665""
","
","","","-1","","","15","9928","4673","d","elianto","#3366ff99","-1","-1","1","+10","[]","0","3","","","9928","144","1","2","win","no-go","0"
"pit-trial","267","1742859","0.0-150.0","battery-v0.2","","""event"",""trial"",""time""
""fullscreenenter"",""1"",""2665""
","
","
","""event"",""trial"",""time""
""fullscreenenter"",""1"",""2665""
","
","","","-1","","","15","9928","4673","e","elianto","#f73b6a7A"," ","-1","0","-10","[2878.5999999046326]","1","3","","","9928","145","2","3","lose","go","0"
"pit-trial","268","1747721","0.0-151.0","battery-v0.2","","""event"",""trial"",""time""
""fullscreenenter"",""1"",""2665""
","
","
","""event"",""trial"",""time""
