"trial_type","trial_index","time_elapsed","internal_node_id","task_version","subject_id","interactions","blur_events","focus_events","fullscreenenter_events","fullscreenexit_events","success","view_history","rt","responses","num_errors","age","subject","participantId","rune","rune_set","hex","correct","choice","accuracy","outcome","keys","total_keys","block","practice","value","sub","trial","stimulus","robot","valence","action","sham"
"pavlovia","0","16","0.0-0.0","battery-v0.2","","""event"",""trial"",""time""
""fullscreenenter"",""1"",""2548""
","
","
","""event"",""trial"",""time""
""fullscreenenter"",""1"",""2548""
","
","","","","","","","","","","","","","","","","","","","","","","","","","","",""
"fullscreen","1","3534","0.0-1.0","battery-v0.2","","""event"",""trial"",""time""
""fullscreenenter"",""1"",""2548""
","
","
","""event"",""trial"",""time""
""fullscreenenter"",""1"",""2548""
","
","true","","","","","","","","","","","","","","","","","","","","","","","","","",""
"pit-instructions","2","13490","0.0-2.0-0.0","battery-v0.2","","""event"",""trial"",""time""
""fullscreenenter"",""1"",""2548""
","
","
","""event"",""trial"",""time""
""fullscreenenter"",""1"",""2548""
","
","","[{""page_index"":0,""viewing_time"":9953}]","9953.5","","","","","","","","","","","","","","","","","","","","","","","",""
"pit-comprehension","3","19160","0.0-2.0-1.0-0.0","battery-v0.2","","""event"",""trial"",""time""
""fullscreenenter"",""1"",""2548""
","
","
","""event"",""trial"",""time""
""fullscreenenter"",""1"",""2548""
","
","","","5667","[""shark""]","0","12","16917","5140","","","","","","","","","","","","","","","","","","",""
"pit-instructions","4","21646","0.0-2.0-1.0-1.0","battery-v0.2","","""event"",""trial"",""time""
""fullscreenenter"",""1"",""2548""
","
","
","""event"",""trial"",""time""
""fullscreenenter"",""1"",""2548""
","
","","[{""page_index"":0,""viewing_time"":2476.3999999910593}]","2476.7999999970198","","","","","","","","","","","","","","","","","","","","","","","",""
"pit-comprehension","5","25292","0.0-2.0-2.0-0.0","battery-v0.2","","""event"",""trial"",""time""
""fullscreenenter"",""1"",""2548""
","
","
","""event"",""trial"",""time""
""fullscreenenter"",""1"",""2548""
","
","","","3644","[""tiger""]","0","12","16917","5140","","","","","","","","","","","","","","","","","","",""
"pit-instructions","6","28695","0.0-2.0-2.0-1.0","battery-v0.2","","""event"",""trial"",""time""
""fullscreenenter"",""1"",""2548""
","
","
","""event"",""trial"",""time""
""fullscreenenter"",""1"",""2548""
","
","","[{""page_index"":0,""viewing_time"":3400.7000000029802}]","3401.0999999940395","","","","","","","","","","","","","","","","","","","","","","","",""
"pit-instructions","7","154737","0.0-2.0-3.0","battery-v0.2","","""event"",""trial"",""time""
""fullscreenenter"",""1"",""2548""
","
","
","""event"",""trial"",""time""
""fullscreenenter"",""1"",""2548""
","
","","[{""page_index"":0,""viewing_time"":10665.70000000298},{""page_index"":1,""viewing_time"":8015.79999999702},{""page_index"":2,""viewing_time"":11279.20000000298},{""page_index"":3,""viewing_time"":5371.899999991059},{""page_index"":4,""viewing_time"":13916.70000000298},{""page_index"":5,""viewing_time"":6114},{""page_index"":6,""viewing_time"":12937.59999999404},{""page_index"":7,""viewing_time"":6744.20000000298},{""page_index"":8,""viewing_time"":9963.70000000298},{""page_index"":9,""viewing_time"":10354.40000000596},{""page_index"":10,""viewing_time"":7916.899999991059},{""page_index"":11,""viewing_time"":11312.79999999702},{""page_index"":12,""viewing_time"":6487.5},{""page_index"":13,""viewing_time"":4959.300000011921}]","126040","","","","","","","","","","","","","","","","","","","","","","","",""
"pit-trial","8","158652","0.0-2.0-4.0-0.0","battery-v0.2","","""event"",""trial"",""time""
""fullscreenenter"",""1"",""2548""
","
","
","""event"",""trial"",""time""
""fullscreenenter"",""1"",""2548""
","
","","","1047.2000000029802","","","12","16917","5140","&#9784;","elianto","#FFFFF080"," "," ","1","&#10004","[1898.5]","1","0","0","","","","","","","",""
"pit-trial","9","162008","0.0-2.0-4.1-0.1","battery-v0.2","","""event"",""trial"",""time""
""fullscreenenter"",""1"",""2548""
","
","
","""event"",""trial"",""time""
""fullscreenenter"",""1"",""2548""
","
","","","497.59999999403954","","","12","16917","5140","&#9784;","elianto","#FFFFF080"," "," ","1","&#10004","[1348]","1","0","0","","","","","","","",""
"pit-trial","10","165304","0.0-2.0-4.2-0.2","battery-v0.2","","""event"",""trial"",""time""
""fullscreenenter"",""1"",""2548""
","
","
","""event"",""trial"",""time""
""fullscreenenter"",""1"",""2548""
","
","","","428.69999998807907","","","12","16917","5140","&#9784;","elianto","#FFFFF080"," "," ","1","&#10004","[1285.199999988079]","1","0","0","","","","","","","",""
"pit-trial","11","168683","0.0-2.0-4.3-0.3","battery-v0.2","","""event"",""trial"",""time""
""fullscreenenter"",""1"",""2548""
","
","
","""event"",""trial"",""time""
""fullscreenenter"",""1"",""2548""
","
","","","522.3999999910593","","","12","16917","5140","&#9784;","elianto","#FFFFF080"," "," ","1","&#10004","[1375.2999999970198]","1","0","0","","","","","","","",""
"pit-trial","12","172178","0.0-2.0-4.4-0.4","battery-v0.2","","""event"",""trial"",""time""
""fullscreenenter"",""1"",""2548""
","
","
","""event"",""trial"",""time""
""fullscreenenter"",""1"",""2548""
","
","","","624.7999999970198","","","12","16917","5140","&#9784;","elianto","#FFFFF080"," "," ","1","&#10004","[1478.8999999910593]","1","0","0","","","","","","","",""
"pit-instructions","13","196020","0.0-2.0-5.0","battery-v0.2","","""event"",""trial"",""time""
""fullscreenenter"",""1"",""2548""
","
","
","""event"",""trial"",""time""
""fullscreenenter"",""1"",""2548""
","
","","[{""page_index"":0,""viewing_time"":4849.5},{""page_index"":1,""viewing_time"":6640.199999988079},{""page_index"":2,""viewing_time"":5763.5},{""page_index"":3,""viewing_time"":6589.5}]","23843.09999999404","","","","","","","","","","","","","","","","","","","","","","","",""
"pit-trial","14","200886","0.0-2.0-6.0-0.0","battery-v0.2","","""event"",""trial"",""time""
""fullscreenenter"",""1"",""2548""
","
","
","""event"",""trial"",""time""
""fullscreenenter"",""1"",""2548""
","
","","","-1","","","12","16917","5140","&#9854;","elianto","#FFFFF080","-1","-1","1","&#10004","[]","0","0","1","","","","","","","",""
"pit-trial","15","205755","0.0-2.0-6.1-0.1","battery-v0.2","","""event"",""trial"",""time""
""fullscreenenter"",""1"",""2548""
","
","
","""event"",""trial"",""time""
""fullscreenenter"",""1"",""2548""
","
","","","-1","","","12","16917","5140","&#9854;","elianto","#FFFFF080","-1","-1","1","&#10004","[]","0","0","1","","","","","","","",""
"pit-trial","16","210616","0.0-2.0-6.2-0.2","battery-v0.2","","""event"",""trial"",""time""
""fullscreenenter"",""1"",""2548""
","
","
","""event"",""trial"",""time""
""fullscreenenter"",""1"",""2548""
","
","","","-1","","","12","16917","5140","&#9854;","elianto","#FFFFF080","-1","-1","1","&#10004","[]","0","0","1","","","","","","","",""
"pit-trial","17","215492","0.0-2.0-6.3-0.3","battery-v0.2","","""event"",""trial"",""time""
""fullscreenenter"",""1"",""2548""
","
","
","""event"",""trial"",""time""
""fullscreenenter"",""1"",""2548""
","
","","","-1","","","12","16917","5140","&#9854;","elianto","#FFFFF080","-1","-1","1","&#10004","[]","0","0","1","","","","","","","",""
"pit-trial","18","220359","0.0-2.0-6.4-0.4","battery-v0.2","","""event"",""trial"",""time""
""fullscreenenter"",""1"",""2548""
","
","
","""event"",""trial"",""time""
""fullscreenenter"",""1"",""2548""
","
","","","-1","","","12","16917","5140","&#9854;","elianto","#FFFFF080","-1","-1","1","&#10004","[]","0","0","1","","","","","","","",""
"pit-instructions","19","386129","0.0-2.0-7.0","battery-v0.2","","""event"",""trial"",""time""
""fullscreenenter"",""1"",""2548""
","
","
","""event"",""trial"",""time""
""fullscreenenter"",""1"",""2548""
","
","","[{""page_index"":0,""viewing_time"":6211.9000000059605},{""page_index"":1,""viewing_time"":11424.5},{""page_index"":2,""viewing_time"":5754.70000000298},{""page_index"":3,""viewing_time"":9231},{""page_index"":4,""viewing_time"":6847},{""page_index"":5,""viewing_time"":18854.5},{""page_index"":6,""viewing_time"":4574.5999999940395},{""page_index"":7,""viewing_time"":10766.20000000298},{""page_index"":8,""viewing_time"":6958.20000000298},{""page_index"":9,""viewing_time"":8774.699999988079},{""page_index"":10,""viewing_time"":7649.20000000298},{""page_index"":11,""viewing_time"":8000.29999999702},{""page_index"":12,""viewing_time"":9820.10000000894},{""page_index"":13,""viewing_time"":10309.70000000298},{""page_index"":14,""viewing_time"":11481.199999988079},{""page_index"":15,""viewing_time"":10352.40000000596},{""page_index"":16,""viewing_time"":11261.59999999404},{""page_index"":17,""viewing_time"":7490}]","165762.29999999702","","","","","","","","","","","","","","","","","","","","","","","",""
"pit-trial","20","391011","0.0-2.0-8.0-0.0","battery-v0.2","","""event"",""trial"",""time""
""fullscreenenter"",""1"",""2548""
","
","
","""event"",""trial"",""time""
""fullscreenenter"",""1"",""2548""
","
","","","-1","","","12","16917","5140","&#9776;","elianto","#3366ff99"," ","-1","0","0","[]","0","0","1","","","","","","","",""
"pit-trial","21","394430","0.0-2.0-8.0-1.0","battery-v0.2","","""event"",""trial"",""time""
""fullscreenenter"",""1"",""2548""
","
","
","""event"",""trial"",""time""
""fullscreenenter"",""1"",""2548""
","
","","","547","","","12","16917","5140","&#9776;","elianto","#3366ff99"," "," ","1","+10","[1405.5999999940395]","1","0","1","","","","","","","",""
"pit-trial","22","398016","0.0-2.0-8.0-2.0","battery-v0.2","","""event"",""trial"",""time""
""fullscreenenter"",""1"",""2548""
","
","
","""event"",""trial"",""time""
""fullscreenenter"",""1"",""2548""
","
","","","725","","","12","16917","5140","&#9776;","elianto","#3366ff99"," "," ","1","+10","[1579.2000000029802]","1","0","1","","","","","","","",""
"pit-trial","23","401845","0.0-2.0-8.0-3.0","battery-v0.2","","""event"",""trial"",""time""
""fullscreenenter"",""1"",""2548""
","
","
","""event"",""trial"",""time""
""fullscreenenter"",""1"",""2548""
","
","","","963.2000000029802","","","12","16917","5140","&#9776;","elianto","#3366ff99"," "," ","1","0","[1813.8999999910593]","1","0","1","","","","","","","",""
"pit-trial","24","405205","0.0-2.0-8.0-4.0","battery-v0.2","","""event"",""trial"",""time""
""fullscreenenter"",""1"",""2548""
","
","
","""event"",""trial"",""time""
""fullscreenenter"",""1"",""2548""
","
","","","505.8999999910593","","","12","16917","5140","&#9776;","elianto","#3366ff99"," "," ","1","+10","[1356.3999999910593]","1","0","1","","","","","","","",""
"pit-trial","25","408271","0.0-2.0-8.1-0.1","battery-v0.2","","""event"",""trial"",""time""
""fullscreenenter"",""1"",""2548""
","
","
","""event"",""trial"",""time""
""fullscreenenter"",""1"",""2548""
","
","","","211.29999999701977","","","12","16917","5140","&#9776;","elianto","#3366ff99"," "," ","1","+10","[1062]","1","0","1","","","","","","","",""
"pit-trial","26","412533","0.0-2.0-8.1-1.1","battery-v0.2","","""event"",""trial"",""time""
""fullscreenenter"",""1"",""2548""
","
","
","""event"",""trial"",""time""
""fullscreenenter"",""1"",""2548""
","
","","","1392.7999999970198","","","12","16917","5140","&#9776;","elianto","#3366ff99"," "," ","1","+10","[2246.4000000059605]","1","0","1","","","","","","","",""
"pit-trial","27","415772","0.0-2.0-8.1-2.1","battery-v0.2","","""event"",""trial"",""time""
""fullscreenenter"",""1"",""2548""
","
","
","""event"",""trial"",""time""
""fullscreenenter"",""1"",""2548""
","
","","","381.5","","","12","16917","5140","&#9776;","elianto","#3366ff99"," "," ","1","+10","[1237.2999999970198]","1","0","1","","","","","","","",""
"pit-trial","28","420161","0.0-2.0-8.1-3.1","battery-v0.2","","""event"",""trial"",""time""
""fullscreenenter"",""1"",""2548""
","
","
","""event"",""trial"",""time""
""fullscreenenter"",""1"",""2548""
","
","","","1537","","","12","16917","5140","&#9776;","elianto","#3366ff99"," "," ","1","0","[2387.2999999970198]","1","0","1","","","","","","","",""
"pit-trial","29","423948","0.0-2.0-8.1-4.1","battery-v0.2","","""event"",""trial"",""time""
""fullscreenenter"",""1"",""2548""
","
","
","""event"",""trial"",""time""
""fullscreenenter"",""1"",""2548""
","
","","","934.8999999910593","","","12","16917","5140","&#9776;","elianto","#3366ff99"," "," ","1","+10","[1785.5]","1","0","1","","","","","","","",""
"pit-trial","30","428802","0.0-2.0-8.2-0.2","battery-v0.2","","""event"",""trial"",""time""
""fullscreenenter"",""1"",""2548""
","
","
","""event"",""trial"",""time""
""fullscreenenter"",""1"",""2548""
","
","","","-1","","","12","16917","5140","&#9776;","elianto","#3366ff99"," ","-1","0","0","[2933.9000000059605]","1","0","1","","","","","","","",""
"pit-trial","31","432282","0.0-2.0-8.2-1.2","battery-v0.2","","""event"",""trial"",""time""
""fullscreenenter"",""1"",""2548""
","
","
","""event"",""trial"",""time""
""fullscreenenter"",""1"",""2548""
","
","","","626.9000000059605","","","12","16917","5140","&#9776;","elianto","#3366ff99"," "," ","1","+10","[1477.4000000059605]","1","0","1","","","","","","","",""
"pit-trial","32","436236","0.0-2.0-8.2-2.2","battery-v0.2","","""event"",""trial"",""time""
""fullscreenenter"",""1"",""2548""
","
","
","""event"",""trial"",""time""
""fullscreenenter"",""1"",""2548""
","
","","","1101.5","","","12","16917","5140","&#9776;","elianto","#3366ff99"," "," ","1","+10","[1952]","1","0","1","","","","","","","",""
"pit-trial","33","440710","0.0-2.0-8.2-3.2","battery-v0.2","","""event"",""trial"",""time""
""fullscreenenter"",""1"",""2548""
","
","
","""event"",""trial"",""time""
""fullscreenenter"",""1"",""2548""
","
","","","1620.9000000059605","","","12","16917","5140","&#9776;","elianto","#3366ff99"," "," ","1","0","[2471.4000000059605]","1","0","1","","","","","","","",""
"pit-trial","34","445193","0.0-2.0-8.2-4.2","battery-v0.2","","""event"",""trial"",""time""
""fullscreenenter"",""1"",""2548""
","
","
","""event"",""trial"",""time""
""fullscreenenter"",""1"",""2548""
","
","","","1630.5999999940395","","","12","16917","5140","&#9776;","elianto","#3366ff99"," "," ","1","+10","[2481]","1","0","1","","","","","","","",""
"call-function","35","445195","0.0-2.0-9.0","battery-v0.2","","""event"",""trial"",""time""
""fullscreenenter"",""1"",""2548""
","
","
","""event"",""trial"",""time""
""fullscreenenter"",""1"",""2548""
","
","","","","","","","","","","","","","","","","","","","","","","","","","","",""
"pit-instructions","36","494628","0.0-2.0-10.0","battery-v0.2","","""event"",""trial"",""time""
""fullscreenenter"",""1"",""2548""
","
","
","""event"",""trial"",""time""
""fullscreenenter"",""1"",""2548""
","
","","[{""page_index"":0,""viewing_time"":12113.20000000298},{""page_index"":1,""viewing_time"":9116.40000000596},{""page_index"":2,""viewing_time"":10449.70000000298},{""page_index"":3,""viewing_time"":10366.699999988079},{""page_index"":4,""viewing_time"":7386}]","49432.40000000596","","","","","","","","","","","","","","","","","","","","","","","",""
"pit-trial","37","499492","0.0-2.0-11.0-0.0","battery-v0.2","","""event"",""trial"",""time""
""fullscreenenter"",""1"",""2548""
","
","
","""event"",""trial"",""time""
""fullscreenenter"",""1"",""2548""
","
","","","-1","","","12","16917","5140","&#9761;","elianto","#3366ff99","-1","-1","1","+10","[]","0","0","2","","","","","","","",""
"pit-trial","38","504364","0.0-2.0-11.0-1.0","battery-v0.2","","""event"",""trial"",""time""
""fullscreenenter"",""1"",""2548""
","
","
","""event"",""trial"",""time""
""fullscreenenter"",""1"",""2548""
","
","","","-1","","","12","16917","5140","&#9761;","elianto","#3366ff99","-1","-1","1","+10","[]","0","0","2","","","","","","","",""
"pit-trial","39","509233","0.0-2.0-11.0-2.0","battery-v0.2","","""event"",""trial"",""time""
""fullscreenenter"",""1"",""2548""
","
","
","""event"",""trial"",""time""
""fullscreenenter"",""1"",""2548""
","
","","","-1","","","12","16917","5140","&#9761;","elianto","#3366ff99","-1","-1","1","+10","[]","0","0","2","","","","","","","",""
"pit-trial","40","514103","0.0-2.0-11.0-3.0","battery-v0.2","","""event"",""trial"",""time""
""fullscreenenter"",""1"",""2548""
","
","
","""event"",""trial"",""time""
""fullscreenenter"",""1"",""2548""
","
","","","-1","","","12","16917","5140","&#9761;","elianto","#3366ff99","-1","-1","1","0","[]","0","0","2","","","","","","","",""
"pit-trial","41","518968","0.0-2.0-11.0-4.0","battery-v0.2","","""event"",""trial"",""time""
""fullscreenenter"",""1"",""2548""
","
","
","""event"",""trial"",""time""
""fullscreenenter"",""1"",""2548""
","
","","","-1","","","12","16917","5140","&#9761;","elianto","#3366ff99","-1","-1","1","+10","[]","0","0","2","","","","","","","",""
"pit-trial","42","523836","0.0-2.0-11.1-0.1","battery-v0.2","","""event"",""trial"",""time""
""fullscreenenter"",""1"",""2548""
","
","
","""event"",""trial"",""time""
""fullscreenenter"",""1"",""2548""
","
","","","-1","","","12","16917","5140","&#9761;","elianto","#3366ff99","-1","-1","1","+10","[]","0","0","2","","","","","","","",""
"pit-trial","43","528690","0.0-2.0-11.1-1.1","battery-v0.2","","""event"",""trial"",""time""
""fullscreenenter"",""1"",""2548""
","
","
","""event"",""trial"",""time""
""fullscreenenter"",""1"",""2548""
","
","","","-1","","","12","16917","5140","&#9761;","elianto","#3366ff99","-1","-1","1","+10","[]","0","0","2","","","","","","","",""
"pit-trial","44","533542","0.0-2.0-11.1-2.1","battery-v0.2","","""event"",""trial"",""time""
""fullscreenenter"",""1"",""2548""
","
","
","""event"",""trial"",""time""
""fullscreenenter"",""1"",""2548""
","
","","","-1","","","12","16917","5140","&#9761;","elianto","#3366ff99","-1","-1","1","+10","[]","0","0","2","","","","","","","",""
"pit-trial","45","538396","0.0-2.0-11.1-3.1","battery-v0.2","","""event"",""trial"",""time""
""fullscreenenter"",""1"",""2548""
","
","
","""event"",""trial"",""time""
""fullscreenenter"",""1"",""2548""
","
","","","-1","","","12","16917","5140","&#9761;","elianto","#3366ff99","-1","-1","1","0","[]","0","0","2","","","","","","","",""
"pit-trial","46","543250","0.0-2.0-11.1-4.1","battery-v0.2","","""event"",""trial"",""time""
""fullscreenenter"",""1"",""2548""
","
","
","""event"",""trial"",""time""
""fullscreenenter"",""1"",""2548""
","
","","","-1","","","12","16917","5140","&#9761;","elianto","#3366ff99","-1","-1","1","+10","[]","0","0","2","","","","","","","",""
"pit-trial","47","548104","0.0-2.0-11.2-0.2","battery-v0.2","","""event"",""trial"",""time""
""fullscreenenter"",""1"",""2548""
","
","
","""event"",""trial"",""time""
""fullscreenenter"",""1"",""2548""
","
","","","-1","","","12","16917","5140","&#9761;","elianto","#3366ff99","-1","-1","1","+10","[]","0","0","2","","","","","","","",""
"pit-trial","48","552958","0.0-2.0-11.2-1.2","battery-v0.2","","""event"",""trial"",""time""
""fullscreenenter"",""1"",""2548""
","
","
","""event"",""trial"",""time""
""fullscreenenter"",""1"",""2548""
","
","","","-1","","","12","16917","5140","&#9761;","elianto","#3366ff99","-1","-1","1","+10","[]","0","0","2","","","","","","","",""
"pit-trial","49","557811","0.0-2.0-11.2-2.2","battery-v0.2","","""event"",""trial"",""time""
""fullscreenenter"",""1"",""2548""
","
","
","""event"",""trial"",""time""
""fullscreenenter"",""1"",""2548""
","
","","","-1","","","12","16917","5140","&#9761;","elianto","#3366ff99","-1","-1","1","+10","[]","0","0","2","","","","","","","",""
"pit-trial","50","562663","0.0-2.0-11.2-3.2","battery-v0.2","","""event"",""trial"",""time""
""fullscreenenter"",""1"",""2548""
","
","
","""event"",""trial"",""time""
""fullscreenenter"",""1"",""2548""
","
","","","-1","","","12","16917","5140","&#9761;","elianto","#3366ff99","-1","-1","1","0","[]","0","0","2","","","","","","","",""
"pit-trial","51","567516","0.0-2.0-11.2-4.2","battery-v0.2","","""event"",""trial"",""time""
""fullscreenenter"",""1"",""2548""
","
","
","""event"",""trial"",""time""
""fullscreenenter"",""1"",""2548""
","
","","","-1","","","12","16917","5140","&#9761;","elianto","#3366ff99","-1","-1","1","+10","[]","0","0","2","","","","","","","",""
"pit-trial","52","572369","0.0-2.0-11.3-0.3","battery-v0.2","","""event"",""trial"",""time""
""fullscreenenter"",""1"",""2548""
","
","
","""event"",""trial"",""time""
""fullscreenenter"",""1"",""2548""
","
","","","-1","","","12","16917","5140","&#9761;","elianto","#3366ff99","-1","-1","1","+10","[]","0","0","2","","","","","","","",""
"pit-trial","53","577222","0.0-2.0-11.3-1.3","battery-v0.2","","""event"",""trial"",""time""
""fullscreenenter"",""1"",""2548""
","
","
","""event"",""trial"",""time""
""fullscreenenter"",""1"",""2548""
","
","","","-1","","","12","16917","5140","&#9761;","elianto","#3366ff99","-1","-1","1","+10","[]","0","0","2","","","","","","","",""
"pit-trial","54","582076","0.0-2.0-11.3-2.3","battery-v0.2","","""event"",""trial"",""time""
""fullscreenenter"",""1"",""2548""
","
","
","""event"",""trial"",""time""
""fullscreenenter"",""1"",""2548""
","
","","","-1","","","12","16917","5140","&#9761;","elianto","#3366ff99","-1","-1","1","+10","[]","0","0","2","","","","","","","",""
"pit-trial","55","586929","0.0-2.0-11.3-3.3","battery-v0.2","","""event"",""trial"",""time""
""fullscreenenter"",""1"",""2548""
","
","
","""event"",""trial"",""time""
""fullscreenenter"",""1"",""2548""
","
","","","-1","","","12","16917","5140","&#9761;","elianto","#3366ff99","-1","-1","1","0","[]","0","0","2","","","","","","","",""
"pit-trial","56","591782","0.0-2.0-11.3-4.3","battery-v0.2","","""event"",""trial"",""time""
""fullscreenenter"",""1"",""2548""
","
","
","""event"",""trial"",""time""
""fullscreenenter"",""1"",""2548""
","
","","","-1","","","12","16917","5140","&#9761;","elianto","#3366ff99","-1","-1","1","+10","[]","0","0","2","","","","","","","",""
"call-function","57","591784","0.0-2.0-12.0","battery-v0.2","","""event"",""trial"",""time""
""fullscreenenter"",""1"",""2548""
","
","
","""event"",""trial"",""time""
""fullscreenenter"",""1"",""2548""
","
","","","","","","","","","","","","","","","","","","","","","","","","","","",""
"pit-instructions","58","630883","0.0-2.0-13.0","battery-v0.2","","""event"",""trial"",""time""
""fullscreenenter"",""1"",""2548""
","
","
","""event"",""trial"",""time""
""fullscreenenter"",""1"",""2548""
","
","","[{""page_index"":0,""viewing_time"":8273.90000000596},{""page_index"":1,""viewing_time"":7069.899999991059},{""page_index"":2,""viewing_time"":3719.2000000029802},{""page_index"":3,""viewing_time"":13179.29999999702},{""page_index"":4,""viewing_time"":6855.800000011921}]","39098.5","","","","","","","","","","","","","","","","","","","","","","","",""
"pit-trial","59","634281","0.0-2.0-14.0-0.0","battery-v0.2","","""event"",""trial"",""time""
""fullscreenenter"",""1"",""2548""
","
","
","""event"",""trial"",""time""
""fullscreenenter"",""1"",""2548""
","
","","","534.5","","","12","16917","5140","&#9826;","elianto","#f73b6a7A","-1"," ","0","-10","[1385]","1","0","3","","","","","","","",""
"pit-trial","60","639153","0.0-2.0-14.0-1.0","battery-v0.2","","""event"",""trial"",""time""
""fullscreenenter"",""1"",""2548""
","
","
","""event"",""trial"",""time""
""fullscreenenter"",""1"",""2548""
","
","","","-1","","","12","16917","5140","&#9826;","elianto","#f73b6a7A","-1","-1","1","0","[]","0","0","3","","","","","","","",""
"pit-trial","61","644027","0.0-2.0-14.0-2.0","battery-v0.2","","""event"",""trial"",""time""
""fullscreenenter"",""1"",""2548""
","
","
","""event"",""trial"",""time""
""fullscreenenter"",""1"",""2548""
","
","","","-1","","","12","16917","5140","&#9826;","elianto","#f73b6a7A","-1","-1","1","0","[]","0","0","3","","","","","","","",""
"pit-trial","62","648906","0.0-2.0-14.0-3.0","battery-v0.2","","""event"",""trial"",""time""
""fullscreenenter"",""1"",""2548""
","
","
","""event"",""trial"",""time""
""fullscreenenter"",""1"",""2548""
","
","","","-1","","","12","16917","5140","&#9826;","elianto","#f73b6a7A","-1","-1","1","-10","[]","0","0","3","","","","","","","",""
"pit-trial","63","653767","0.0-2.0-14.0-4.0","battery-v0.2","","""event"",""trial"",""time""
""fullscreenenter"",""1"",""2548""
","
","
","""event"",""trial"",""time""
""fullscreenenter"",""1"",""2548""
","
","","","-1","","","12","16917","5140","&#9826;","elianto","#f73b6a7A","-1","-1","1","0","[]","0","0","3","","","","","","","",""
"pit-trial","64","658635","0.0-2.0-14.1-0.1","battery-v0.2","","""event"",""trial"",""time""
""fullscreenenter"",""1"",""2548""
","
","
","""event"",""trial"",""time""
""fullscreenenter"",""1"",""2548""
","
","","","-1","","","12","16917","5140","&#9826;","elianto","#f73b6a7A","-1","-1","1","0","[]","0","0","3","","","","","","","",""
"pit-trial","65","663489","0.0-2.0-14.1-1.1","battery-v0.2","","""event"",""trial"",""time""
""fullscreenenter"",""1"",""2548""
","
","
","""event"",""trial"",""time""
""fullscreenenter"",""1"",""2548""
","
","","","-1","","","12","16917","5140","&#9826;","elianto","#f73b6a7A","-1","-1","1","0","[]","0","0","3","","","","","","","",""
"pit-trial","66","668342","0.0-2.0-14.1-2.1","battery-v0.2","","""event"",""trial"",""time""
""fullscreenenter"",""1"",""2548""
","
","
","""event"",""trial"",""time""
""fullscreenenter"",""1"",""2548""
","
","","","-1","","","12","16917","5140","&#9826;","elianto","#f73b6a7A","-1","-1","1","0","[]","0","0","3","","","","","","","",""
"pit-trial","67","673195","0.0-2.0-14.1-3.1","battery-v0.2","","""event"",""trial"",""time""
""fullscreenenter"",""1"",""2548""
","
","
","""event"",""trial"",""time""
""fullscreenenter"",""1"",""2548""
","
","","","-1","","","12","16917","5140","&#9826;","elianto","#f73b6a7A","-1","-1","1","-10","[]","0","0","3","","","","","","","",""
"pit-trial","68","678049","0.0-2.0-14.1-4.1","battery-v0.2","","""event"",""trial"",""time""
""fullscreenenter"",""1"",""2548""
","
","
","""event"",""trial"",""time""
""fullscreenenter"",""1"",""2548""
","
","","","-1","","","12","16917","5140","&#9826;","elianto","#f73b6a7A","-1","-1","1","0","[]","0","0","3","","","","","","","",""
"pit-trial","69","682902","0.0-2.0-14.2-0.2","battery-v0.2","","""event"",""trial"",""time""
""fullscreenenter"",""1"",""2548""
","
","
","""event"",""trial"",""time""
""fullscreenenter"",""1"",""2548""
","
","","","-1","","","12","16917","5140","&#9826;","elianto","#f73b6a7A","-1","-1","1","0","[]","0","0","3","","","","","","","",""
"pit-trial","70","687754","0.0-2.0-14.2-1.2","battery-v0.2","","""event"",""trial"",""time""
""fullscreenenter"",""1"",""2548""
","
","
","""event"",""trial"",""time""
""fullscreenenter"",""1"",""2548""
","
","","","-1","","","12","16917","5140","&#9826;","elianto","#f73b6a7A","-1","-1","1","0","[]","0","0","3","","","","","","","",""
"pit-trial","71","692608","0.0-2.0-14.2-2.2","battery-v0.2","","""event"",""trial"",""time""
""fullscreenenter"",""1"",""2548""
","
","
","""event"",""trial"",""time""
""fullscreenenter"",""1"",""2548""
","
","","","-1","","","12","16917","5140","&#9826;","elianto","#f73b6a7A","-1","-1","1","0","[]","0","0","3","","","","","","","",""
"pit-trial","72","697461","0.0-2.0-14.2-3.2","battery-v0.2","","""event"",""trial"",""time""
""fullscreenenter"",""1"",""2548""
","
","
","""event"",""trial"",""time""
""fullscreenenter"",""1"",""2548""
","
","","","-1","","","12","16917","5140","&#9826;","elianto","#f73b6a7A","-1","-1","1","-10","[]","0","0","3","","","","","","","",""
"pit-trial","73","702320","0.0-2.0-14.2-4.2","battery-v0.2","","""event"",""trial"",""time""
""fullscreenenter"",""1"",""2548""
","
","
","""event"",""trial"",""time""
""fullscreenenter"",""1"",""2548""
","
","","","-1","","","12","16917","5140","&#9826;","elianto","#f73b6a7A","-1","-1","1","0","[]","0","0","3","","","","","","","",""
"pit-trial","74","707173","0.0-2.0-14.3-0.3","battery-v0.2","","""event"",""trial"",""time""
""fullscreenenter"",""1"",""2548""
","
","
","""event"",""trial"",""time""
""fullscreenenter"",""1"",""2548""
","
","","","-1","","","12","16917","5140","&#9826;","elianto","#f73b6a7A","-1","-1","1","0","[]","0","0","3","","","","","","","",""
"pit-trial","75","712026","0.0-2.0-14.3-1.3","battery-v0.2","","""event"",""trial"",""time""
""fullscreenenter"",""1"",""2548""
","
","
","""event"",""trial"",""time""
""fullscreenenter"",""1"",""2548""
","
","","","-1","","","12","16917","5140","&#9826;","elianto","#f73b6a7A","-1","-1","1","0","[]","0","0","3","","","","","","","",""
"pit-trial","76","716880","0.0-2.0-14.3-2.3","battery-v0.2","","""event"",""trial"",""time""
""fullscreenenter"",""1"",""2548""
","
","
","""event"",""trial"",""time""
""fullscreenenter"",""1"",""2548""
","
","","","-1","","","12","16917","5140","&#9826;","elianto","#f73b6a7A","-1","-1","1","0","[]","0","0","3","","","","","","","",""
"pit-trial","77","721732","0.0-2.0-14.3-3.3","battery-v0.2","","""event"",""trial"",""time""
""fullscreenenter"",""1"",""2548""
","
","
","""event"",""trial"",""time""
""fullscreenenter"",""1"",""2548""
","
","","","-1","","","12","16917","5140","&#9826;","elianto","#f73b6a7A","-1","-1","1","-10","[]","0","0","3","","","","","","","",""
"pit-trial","78","726587","0.0-2.0-14.3-4.3","battery-v0.2","","""event"",""trial"",""time""
""fullscreenenter"",""1"",""2548""
","
","
","""event"",""trial"",""time""
""fullscreenenter"",""1"",""2548""
","
","","","-1","","","12","16917","5140","&#9826;","elianto","#f73b6a7A","-1","-1","1","0","[]","0","0","3","","","","","","","",""
"call-function","79","726588","0.0-2.0-15.0","battery-v0.2","","""event"",""trial"",""time""
""fullscreenenter"",""1"",""2548""
","
","
","""event"",""trial"",""time""
""fullscreenenter"",""1"",""2548""
","
","","","","","","","","","","","","","","","","","","","","","","","","","","",""
"pit-instructions","80","759047","0.0-2.0-16.0","battery-v0.2","","""event"",""trial"",""time""
""fullscreenenter"",""1"",""2548""
","
","
","""event"",""trial"",""time""
""fullscreenenter"",""1"",""2548""
","
","","[{""page_index"":0,""viewing_time"":8484.79999999702},{""page_index"":1,""viewing_time"":11280.29999999702},{""page_index"":2,""viewing_time"":6792.5999999940395},{""page_index"":3,""viewing_time"":5898.800000011921}]","32456.89999999106","","","","","","","","","","","","","","","","","","","","","","","",""
"pit-trial","81","762824","0.0-2.0-17.0-0.0","battery-v0.2","","""event"",""trial"",""time""
""fullscreenenter"",""1"",""2548""
","
","
","""event"",""trial"",""time""
""fullscreenenter"",""1"",""2548""
","
","","","905.5","","","12","16917","5140","&#9789;","elianto","#f73b6a7A"," "," ","1","0","[1759.7000000029802]","1","0","4","","","","","","","",""
"pit-trial","82","766184","0.0-2.0-17.0-1.0","battery-v0.2","","""event"",""trial"",""time""
""fullscreenenter"",""1"",""2548""
","
","
","""event"",""trial"",""time""
""fullscreenenter"",""1"",""2548""
","
","","","486.80000001192093","","","12","16917","5140","&#9789;","elianto","#f73b6a7A"," "," ","1","0","[1344.9000000059605]","1","0","4","","","","","","","",""
"pit-trial","83","769435","0.0-2.0-17.0-2.0","battery-v0.2","","""event"",""trial"",""time""
""fullscreenenter"",""1"",""2548""
","
","
","""event"",""trial"",""time""
""fullscreenenter"",""1"",""2548""
","
","","","387.5","","","12","16917","5140","&#9789;","elianto","#f73b6a7A"," "," ","1","0","[1238.2999999970198]","1","0","4","","","","","","","",""
"pit-trial","84","772694","0.0-2.0-17.0-3.0","battery-v0.2","","""event"",""trial"",""time""
""fullscreenenter"",""1"",""2548""
","
","
","""event"",""trial"",""time""
""fullscreenenter"",""1"",""2548""
","
","","","403.79999999701977","","","12","16917","5140","&#9789;","elianto","#f73b6a7A"," "," ","1","-10","[1254.0999999940395]","1","0","4","","","","","","","",""
"pit-trial","85","775922","0.0-2.0-17.0-4.0","battery-v0.2","","""event"",""trial"",""time""
""fullscreenenter"",""1"",""2548""
","
","
","""event"",""trial"",""time""
""fullscreenenter"",""1"",""2548""
","
","","","365.5","","","12","16917","5140","&#9789;","elianto","#f73b6a7A"," "," ","1","0","[1215.5999999940395]","1","0","4","","","","","","","",""
"pit-trial","86","779193","0.0-2.0-17.1-0.1","battery-v0.2","","""event"",""trial"",""time""
""fullscreenenter"",""1"",""2548""
","
","
","""event"",""trial"",""time""
""fullscreenenter"",""1"",""2548""
","
","","","411.09999999403954","","","12","16917","5140","&#9789;","elianto","#f73b6a7A"," "," ","1","0","[1261.5999999940395]","1","0","4","","","","","","","",""
"pit-trial","87","782277","0.0-2.0-17.1-1.1","battery-v0.2","","""event"",""trial"",""time""
""fullscreenenter"",""1"",""2548""
","
","
","""event"",""trial"",""time""
""fullscreenenter"",""1"",""2548""
","
","","","226.30000001192093","","","12","16917","5140","&#9789;","elianto","#f73b6a7A"," "," ","1","0","[1078.3999999910593]","1","0","4","","","","","","","",""
"pit-trial","88","785552","0.0-2.0-17.1-2.1","battery-v0.2","","""event"",""trial"",""time""
""fullscreenenter"",""1"",""2548""
","
","
","""event"",""trial"",""time""
""fullscreenenter"",""1"",""2548""
","
","","","412.09999999403954","","","12","16917","5140","&#9789;","elianto","#f73b6a7A"," "," ","1","0","[1271.5999999940395]","1","0","4","","","","","","","",""
"pit-trial","89","788921","0.0-2.0-17.1-3.1","battery-v0.2","","""event"",""trial"",""time""
""fullscreenenter"",""1"",""2548""
","
","
","""event"",""trial"",""time""
""fullscreenenter"",""1"",""2548""
","
","","","501.09999999403954","","","12","16917","5140","&#9789;","elianto","#f73b6a7A"," "," ","1","-10","[1365.5999999940395]","1","0","4","","","","","","","",""
"pit-trial","90","792123","0.0-2.0-17.1-4.1","battery-v0.2","","""event"",""trial"",""time""
""fullscreenenter"",""1"",""2548""
","
","
","""event"",""trial"",""time""
""fullscreenenter"",""1"",""2548""
","
","","","350.29999999701977","","","12","16917","5140","&#9789;","elianto","#f73b6a7A"," "," ","1","0","[1200.5]","1","0","4","","","","","","","",""
"pit-trial","91","795421","0.0-2.0-17.2-0.2","battery-v0.2","","""event"",""trial"",""time""
""fullscreenenter"",""1"",""2548""
","
","
","""event"",""trial"",""time""
""fullscreenenter"",""1"",""2548""
","
","","","435.5","","","12","16917","5140","&#9789;","elianto","#f73b6a7A"," "," ","1","0","[1286.5999999940395]","1","0","4","","","","","","","",""
"pit-trial","92","798931","0.0-2.0-17.2-1.2","battery-v0.2","","""event"",""trial"",""time""
""fullscreenenter"",""1"",""2548""
","
","
","""event"",""trial"",""time""
""fullscreenenter"",""1"",""2548""
","
","","","657.2999999970198","","","12","16917","5140","&#9789;","elianto","#f73b6a7A"," "," ","1","0","[1508.2000000029802]","1","0","4","","","","","","","",""
"pit-trial","93","802284","0.0-2.0-17.2-2.2","battery-v0.2","","""event"",""trial"",""time""
""fullscreenenter"",""1"",""2548""
","
","
","""event"",""trial"",""time""
""fullscreenenter"",""1"",""2548""
","
","","","500.30000001192093","","","12","16917","5140","&#9789;","elianto","#f73b6a7A"," "," ","1","0","[1351.300000011921]","1","0","4","","","","","","","",""
"pit-trial","94","805874","0.0-2.0-17.2-3.2","battery-v0.2","","""event"",""trial"",""time""
""fullscreenenter"",""1"",""2548""
","
","
","""event"",""trial"",""time""
""fullscreenenter"",""1"",""2548""
","
","","","737","","","12","16917","5140","&#9789;","elianto","#f73b6a7A"," "," ","1","-10","[1587.0999999940395]","1","0","4","","","","","","","",""
"pit-trial","95","809281","0.0-2.0-17.2-4.2","battery-v0.2","","""event"",""trial"",""time""
""fullscreenenter"",""1"",""2548""
","
","
","""event"",""trial"",""time""
""fullscreenenter"",""1"",""2548""
","
","","","555.3999999910593","","","12","16917","5140","&#9789;","elianto","#f73b6a7A"," "," ","1","0","[1406]","1","0","4","","","","","","","",""
"pit-trial","96","812712","0.0-2.0-17.3-0.3","battery-v0.2","","""event"",""trial"",""time""
""fullscreenenter"",""1"",""2548""
","
","
","""event"",""trial"",""time""
""fullscreenenter"",""1"",""2548""
","
","","","577.5","","","12","16917","5140","&#9789;","elianto","#f73b6a7A"," "," ","1","0","[1427.7000000029802]","1","0","4","","","","","","","",""
"pit-trial","97","816228","0.0-2.0-17.3-1.3","battery-v0.2","","""event"",""trial"",""time""
""fullscreenenter"",""1"",""2548""
","
","
","""event"",""trial"",""time""
""fullscreenenter"",""1"",""2548""
","
","","","662.9000000059605","","","12","16917","5140","&#9789;","elianto","#f73b6a7A"," "," ","1","0","[1513.7999999970198]","1","0","4","","","","","","","",""
"pit-trial","98","820324","0.0-2.0-17.3-2.3","battery-v0.2","","""event"",""trial"",""time""
""fullscreenenter"",""1"",""2548""
","
","
","""event"",""trial"",""time""
""fullscreenenter"",""1"",""2548""
","
","","","1243.800000011921","","","12","16917","5140","&#9789;","elianto","#f73b6a7A"," "," ","1","0","[2094.4000000059605]","1","0","4","","","","","","","",""
"pit-trial","99","823742","0.0-2.0-17.3-3.3","battery-v0.2","","""event"",""trial"",""time""
""fullscreenenter"",""1"",""2548""
","
","
","""event"",""trial"",""time""
""fullscreenenter"",""1"",""2548""
","
","","","565.2000000029802","","","12","16917","5140","&#9789;","elianto","#f73b6a7A"," "," ","1","-10","[1416.0999999940395]","1","0","4","","","","","","","",""
"pit-trial","100","827803","0.0-2.0-17.3-4.3","battery-v0.2","","""event"",""trial"",""time""
""fullscreenenter"",""1"",""2548""
","
","
","""event"",""trial"",""time""
""fullscreenenter"",""1"",""2548""
","
","","","1208.9000000059605","","","12","16917","5140","&#9789;","elianto","#f73b6a7A"," "," ","1","0","[2059.300000011921]","1","0","4","","","","","","","",""
"call-function","101","827804","0.0-2.0-18.0","battery-v0.2","","""event"",""trial"",""time""
""fullscreenenter"",""1"",""2548""
","
","
","""event"",""trial"",""time""
""fullscreenenter"",""1"",""2548""
","
","","","","","","","","","","","","","","","","","","","","","","","","","","",""
"pit-instructions","102","904170","0.0-2.0-19.0","battery-v0.2","","""event"",""trial"",""time""
""fullscreenenter"",""1"",""2548""
","
","
","""event"",""trial"",""time""
""fullscreenenter"",""1"",""2548""
","
","","[{""page_index"":0,""viewing_time"":7650},{""page_index"":1,""viewing_time"":10226.800000011921},{""page_index"":2,""viewing_time"":10807.699999988079},{""page_index"":3,""viewing_time"":9069.90000000596},{""page_index"":4,""viewing_time"":9444.5},{""page_index"":5,""viewing_time"":8130.20000000298},{""page_index"":6,""viewing_time"":5483.20000000298},{""page_index"":7,""viewing_time"":7275.5999999940395},{""page_index"":8,""viewing_time"":8275.59999999404}]","76364","","","","","","","","","","","","","","","","","","","","","","","",""
"pit-comprehension","103","909929","0.0-2.0-20.0-0.0","battery-v0.2","","""event"",""trial"",""time""
""fullscreenenter"",""1"",""2548""
","
","
","""event"",""trial"",""time""
""fullscreenenter"",""1"",""2548""
","
","","","5753.70000000298","[""SPACE""]","0","12","16917","5140","","","","","","","","","","","","","","","","","","",""
"pit-instructions","104","914385","0.0-2.0-20.0-1.0","battery-v0.2","","""event"",""trial"",""time""
""fullscreenenter"",""1"",""2548""
","
","
","""event"",""trial"",""time""
""fullscreenenter"",""1"",""2548""
","
","","[{""page_index"":0,""viewing_time"":4432.9000000059605}]","4433.4000000059605","","","","","","","","","","","","","","","","","","","","","","","",""
"pit-comprehension","105","920311","0.0-2.0-21.0-0.0","battery-v0.2","","""event"",""trial"",""time""
""fullscreenenter"",""1"",""2548""
","
","
","""event"",""trial"",""time""
""fullscreenenter"",""1"",""2548""
","
","","","5921.800000011921","[""10""]","0","12","16917","5140","","","","","","","","","","","","","","","","","","",""
"pit-instructions","106","924390","0.0-2.0-21.0-1.0","battery-v0.2","","""event"",""trial"",""time""
""fullscreenenter"",""1"",""2548""
","
","
","""event"",""trial"",""time""
""fullscreenenter"",""1"",""2548""
","
","","[{""page_index"":0,""viewing_time"":4056.6000000089407}]","4056.9000000059605","","","","","","","","","","","","","","","","","","","","","","","",""
"pit-comprehension","107","931100","0.0-2.0-22.0-0.0","battery-v0.2","","""event"",""trial"",""time""
""fullscreenenter"",""1"",""2548""
","
","
","""event"",""trial"",""time""
""fullscreenenter"",""1"",""2548""
","
","","","6706.4000000059605","[""-10""]","1","12","16917","5140","","","","","","","","","","","","","","","","","","",""
"pit-instructions","108","939956","0.0-2.0-22.0-1.0","battery-v0.2","","""event"",""trial"",""time""
""fullscreenenter"",""1"",""2548""
","
","
","""event"",""trial"",""time""
""fullscreenenter"",""1"",""2548""
","
","","[{""page_index"":0,""viewing_time"":8829.5}]","8829.70000000298","","","","","","","","","","","","","","","","","","","","","","","",""
"pit-instructions","109","942983","0.0-2.0-22.0-2.0-0.0","battery-v0.2","","""event"",""trial"",""time""
""fullscreenenter"",""1"",""2548""
","
","
","""event"",""trial"",""time""
""fullscreenenter"",""1"",""2548""
","
","","[{""page_index"":0,""viewing_time"":3025.9000000059605}]","3026.2999999970198","","","","","","","","","","","","","","","","","","","","","","","",""
"pit-comprehension","110","953957","0.0-2.0-22.1-0.1","battery-v0.2","","""event"",""trial"",""time""
""fullscreenenter"",""1"",""2548""
","
","
","""event"",""trial"",""time""
""fullscreenenter"",""1"",""2548""
","
","","","10971.20000000298","[""0""]","0","12","16917","5140","","","","","","","","","","","","","","","","","","",""
"pit-instructions","111","960015","0.0-2.0-22.1-1.1","battery-v0.2","","""event"",""trial"",""time""
""fullscreenenter"",""1"",""2548""
","
","
","""event"",""trial"",""time""
""fullscreenenter"",""1"",""2548""
","
","","[{""page_index"":0,""viewing_time"":6036.5999999940395}]","6036.79999999702","","","","","","","","","","","","","","","","","","","","","","","",""
"pit-comprehension","112","974682","0.0-2.0-23.0-0.0","battery-v0.2","","""event"",""trial"",""time""
""fullscreenenter"",""1"",""2548""
","
","
","""event"",""trial"",""time""
""fullscreenenter"",""1"",""2548""
","
","","","14663.90000000596","[""True""]","0","12","16917","5140","","","","","","","","","","","","","","","","","","",""
"pit-instructions","113","980992","0.0-2.0-23.0-1.0","battery-v0.2","","""event"",""trial"",""time""
""fullscreenenter"",""1"",""2548""
","
","
","""event"",""trial"",""time""
""fullscreenenter"",""1"",""2548""
","
","","[{""page_index"":0,""viewing_time"":6284.79999999702}]","6285.20000000298","","","","","","","","","","","","","","","","","","","","","","","",""
"pit-comprehension","114","990661","0.0-2.0-24.0-0.0","battery-v0.2","","""event"",""trial"",""time""
""fullscreenenter"",""1"",""2548""
","
","
","""event"",""trial"",""time""
""fullscreenenter"",""1"",""2548""
","
","","","9667.300000011921","[""True""]","0","12","16917","5140","","","","","","","","","","","","","","","","","","",""
"pit-instructions","115","993585","0.0-2.0-24.0-1.0","battery-v0.2","","""event"",""trial"",""time""
""fullscreenenter"",""1"",""2548""
","
","
","""event"",""trial"",""time""
""fullscreenenter"",""1"",""2548""
","
","","[{""page_index"":0,""viewing_time"":2902}]","2902.2999999970198","","","","","","","","","","","","","","","","","","","","","","","",""
"pit-comprehension","116","1002871","0.0-2.0-25.0-0.0","battery-v0.2","","""event"",""trial"",""time""
""fullscreenenter"",""1"",""2548""
","
","
","""event"",""trial"",""time""
""fullscreenenter"",""1"",""2548""
","
","","","9284.29999999702","[""True""]","0","12","16917","5140","","","","","","","","","","","","","","","","","","",""
"pit-instructions","117","1004908","0.0-2.0-25.0-1.0","battery-v0.2","","""event"",""trial"",""time""
""fullscreenenter"",""1"",""2548""
","
","
","""event"",""trial"",""time""
""fullscreenenter"",""1"",""2548""
","
","","[{""page_index"":0,""viewing_time"":2015}]","2015.4000000059605","","","","","","","","","","","","","","","","","","","","","","","",""
"pit-comprehension","118","1011029","0.0-2.0-26.0-0.0","battery-v0.2","","""event"",""trial"",""time""
""fullscreenenter"",""1"",""2548""
","
","
","""event"",""trial"",""time""
""fullscreenenter"",""1"",""2548""
","
","","","6116.5","[""False""]","0","12","16917","5140","","","","","","","","","","","","","","","","","","",""
"pit-instructions","119","1016241","0.0-2.0-26.0-1.0","battery-v0.2","","""event"",""trial"",""time""
""fullscreenenter"",""1"",""2548""
","
","
","""event"",""trial"",""time""
""fullscreenenter"",""1"",""2548""
","
","","[{""page_index"":0,""viewing_time"":5182.899999991059}]","5183.29999999702","","","","","","","","","","","","","","","","","","","","","","","",""
"pit-instructions","120","1032504","0.0-3.0","battery-v0.2","","""event"",""trial"",""time""
""fullscreenenter"",""1"",""2548""
","
","
","""event"",""trial"",""time""
""fullscreenenter"",""1"",""2548""
","
","","[{""page_index"":0,""viewing_time"":3838.5999999940395},{""page_index"":1,""viewing_time"":5889.79999999702},{""page_index"":2,""viewing_time"":6533.100000008941}]","16261.89999999106","","","","","","","","","","","","","","","","","","","","","","","",""
"pit-trial","121","1036953","0.0-4.0","battery-v0.2","","""event"",""trial"",""time""
""fullscreenenter"",""1"",""2548""
","
","
","""event"",""trial"",""time""
""fullscreenenter"",""1"",""2548""
","
","","","1575.7999999970198","","","12","16917","5140","&#9730;","elianto","#3366ff99"," "," ","1","+10","[2428]","1","1","","","16917","1","1","1","win","go","0"
"pit-trial","122","1041827","0.0-5.0","battery-v0.2","","""event"",""trial"",""time""
""fullscreenenter"",""1"",""2548""
","
","
","""event"",""trial"",""time""
""fullscreenenter"",""1"",""2548""
","
","","","-1","","","12","16917","5140","&#9752;","elianto","#f73b6a7A"," ","-1","0","0","[]","0","1","","","16917","2","3","3","lose","go","1"
"pit-trial","123","1045457","0.0-6.0","battery-v0.2","","""event"",""trial"",""time""
""fullscreenenter"",""1"",""2548""
","
","
","""event"",""trial"",""time""
""fullscreenenter"",""1"",""2548""
","
","","","758.1000000089407","","","12","16917","5140","&#9733;","elianto","#3366ff99","-1"," ","0","0","[1617.7999999970198]","1","1","","","16917","3","2","2","win","no-go","0"
"pit-trial","124","1049167","0.0-7.0","battery-v0.2","","""event"",""trial"",""time""
""fullscreenenter"",""1"",""2548""
","
","
","""event"",""trial"",""time""
""fullscreenenter"",""1"",""2548""
","
","","","833.5","","","12","16917","5140","&#9728;","elianto","#f73b6a7A","-1"," ","0","-10","[1694.199999988079]","1","1","","","16917","4","0","4","lose","no-go","0"
"pit-trial","125","1054033","0.0-8.0","battery-v0.2","","""event"",""trial"",""time""
""fullscreenenter"",""1"",""2548""
","
","
","""event"",""trial"",""time""
""fullscreenenter"",""1"",""2548""
","
","","","-1","","","12","16917","5140","&#9728;","elianto","#f73b6a7A","-1","-1","1","-10","[]","0","1","","","16917","5","0","4","lose","no-go","1"
"pit-trial","126","1057561","0.0-9.0","battery-v0.2","","""event"",""trial"",""time""
""fullscreenenter"",""1"",""2548""
","
","
","""event"",""trial"",""time""
""fullscreenenter"",""1"",""2548""
","
","","","661.2999999970198","","","12","16917","5140","&#9730;","elianto","#3366ff99"," "," ","1","+10","[1513.699999988079]","1","1","","","16917","6","1","1","win","go","0"
"pit-trial","127","1062434","0.0-10.0","battery-v0.2","","""event"",""trial"",""time""
""fullscreenenter"",""1"",""2548""
","
","
","""event"",""trial"",""time""
""fullscreenenter"",""1"",""2548""
","
","","","-1","","","12","16917","5140","&#9733;","elianto","#3366ff99","-1","-1","1","+10","[]","0","1","","","16917","7","2","2","win","no-go","0"
"pit-trial","128","1067287","0.0-11.0","battery-v0.2","","""event"",""trial"",""time""
""fullscreenenter"",""1"",""2548""
","
","
","""event"",""trial"",""time""
""fullscreenenter"",""1"",""2548""
","
","","","-1","","","12","16917","5140","&#9752;","elianto","#f73b6a7A"," ","-1","0","0","[]","0","1","","","16917","8","3","3","lose","go","1"
"pit-trial","129","1070823","0.0-12.0","battery-v0.2","","""event"",""trial"",""time""
""fullscreenenter"",""1"",""2548""
","
","
","""event"",""trial"",""time""
""fullscreenenter"",""1"",""2548""
","
","","","683.4000000059605","","","12","16917","5140","&#9728;","elianto","#f73b6a7A","-1"," ","0","0","[1534.2999999970198]","1","1","","","16917","9","0","4","lose","no-go","1"
"pit-trial","130","1075676","0.0-13.0","battery-v0.2","","""event"",""trial"",""time""
""fullscreenenter"",""1"",""2548""
","
","
","""event"",""trial"",""time""
""fullscreenenter"",""1"",""2548""
","
","","","-1","","","12","16917","5140","&#9752;","elianto","#f73b6a7A"," ","-1","0","-10","[]","0","1","","","16917","10","3","3","lose","go","0"
"pit-trial","131","1080529","0.0-14.0","battery-v0.2","","""event"",""trial"",""time""
""fullscreenenter"",""1"",""2548""
","
","
","""event"",""trial"",""time""
""fullscreenenter"",""1"",""2548""
","
","","","-1","","","12","16917","5140","&#9733;","elianto","#3366ff99","-1","-1","1","+10","[]","0","1","","","16917","11","2","2","win","no-go","0"
"pit-trial","132","1084141","0.0-15.0","battery-v0.2","","""event"",""trial"",""time""
""fullscreenenter"",""1"",""2548""
","
","
","""event"",""trial"",""time""
""fullscreenenter"",""1"",""2548""
","
","","","758.2999999970198","","","12","16917","5140","&#9730;","elianto","#3366ff99"," "," ","1","+10","[1609.2999999970198]","1","1","","","16917","12","1","1","win","go","0"
"pit-trial","133","1088993","0.0-16.0","battery-v0.2","","""event"",""trial"",""time""
""fullscreenenter"",""1"",""2548""
","
","
","""event"",""trial"",""time""
""fullscreenenter"",""1"",""2548""
","
","","","-1","","","12","16917","5140","&#9733;","elianto","#3366ff99","-1","-1","1","+10","[]","0","1","","","16917","13","2","2","win","no-go","0"
"pit-trial","134","1092614","0.0-17.0","battery-v0.2","","""event"",""trial"",""time""
""fullscreenenter"",""1"",""2548""
","
","
","""event"",""trial"",""time""
""fullscreenenter"",""1"",""2548""
","
","","","767.5","","","12","16917","5140","&#9730;","elianto","#3366ff99"," "," ","1","+10","[1618.8999999910593]","1","1","","","16917","14","1","1","win","go","0"
"pit-trial","135","1097467","0.0-18.0","battery-v0.2","","""event"",""trial"",""time""
""fullscreenenter"",""1"",""2548""
","
","
","""event"",""trial"",""time""
""fullscreenenter"",""1"",""2548""
","
","","","-1","","","12","16917","5140","&#9752;","elianto","#f73b6a7A"," ","-1","0","-10","[]","0","1","","","16917","15","3","3","lose","go","0"
"pit-trial","136","1101434","0.0-19.0","battery-v0.2","","""event"",""trial"",""time""
""fullscreenenter"",""1"",""2548""
","
","
","""event"",""trial"",""time""
""fullscreenenter"",""1"",""2548""
","
","","","1114.3999999910593","","","12","16917","5140","&#9728;","elianto","#f73b6a7A","-1"," ","0","-10","[1965.5999999940395]","1","1","","","16917","16","0","4","lose","no-go","0"
"pit-trial","137","1105388","0.0-20.0","battery-v0.2","","""event"",""trial"",""time""
""fullscreenenter"",""1"",""2548""
","
","
","""event"",""trial"",""time""
""fullscreenenter"",""1"",""2548""
","
","","","1100","","","12","16917","5140","&#9733;","elianto","#3366ff99","-1"," ","0","+10","[1951.0999999940395]","1","1","","","16917","17","2","2","win","no-go","1"
"pit-trial","138","1109612","0.0-21.0","battery-v0.2","","""event"",""trial"",""time""
""fullscreenenter"",""1"",""2548""
","
","
","""event"",""trial"",""time""
""fullscreenenter"",""1"",""2548""
","
","","","1371.4000000059605","","","12","16917","5140","&#9728;","elianto","#f73b6a7A","-1"," ","0","-10","[2222.2000000029802]","1","1","","","16917","18","0","4","lose","no-go","0"
"pit-trial","139","1113566","0.0-22.0","battery-v0.2","","""event"",""trial"",""time""
""fullscreenenter"",""1"",""2548""
","
","
","""event"",""trial"",""time""
""fullscreenenter"",""1"",""2548""
","
","","","1101.800000011921","","","12","16917","5140","&#9730;","elianto","#3366ff99"," "," ","1","+10","[1952.0999999940395]","1","1","","","16917","19","1","1","win","go","0"
"pit-trial","140","1117811","0.0-23.0","battery-v0.2","","""event"",""trial"",""time""
""fullscreenenter"",""1"",""2548""
","
","
","""event"",""trial"",""time""
""fullscreenenter"",""1"",""2548""
","
","","","1390.699999988079","","","12","16917","5140","&#9752;","elianto","#f73b6a7A"," "," ","1","0","[2241.5999999940395]","1","1","","","16917","20","3","3","lose","go","0"
"pit-instructions","141","1136402","0.0-24.0","battery-v0.2","","""event"",""trial"",""time""
""fullscreenenter"",""1"",""2548""
","
","
","""event"",""trial"",""time""
""fullscreenenter"",""1"",""2548""
","
","","[{""page_index"":0,""viewing_time"":12371},{""page_index"":1,""viewing_time"":6219.4000000059605}]","18590.80000001192","","","","","","","","","","","","","","","","","","","","","","","",""
"pit-trial","142","1140637","0.0-25.0","battery-v0.2","","""event"",""trial"",""time""
""fullscreenenter"",""1"",""2548""
","
","
","""event"",""trial"",""time""
""fullscreenenter"",""1"",""2548""
","
","","","1369","","","12","16917","5140","r","elianto","#3366ff99","-1"," ","0","+10","[2225.7000000029802]","1","2","","","16917","21","1","2","win","no-go","1"
"pit-trial","143","1145517","0.0-26.0","battery-v0.2","","""event"",""trial"",""time""
""fullscreenenter"",""1"",""2548""
","
","
","""event"",""trial"",""time""
""fullscreenenter"",""1"",""2548""
","
","","","-1","","","12","16917","5140","y","elianto","#f73b6a7A"," ","-1","0","-10","[]","0","2","","","16917","22","2","3","lose","go","0"
"pit-trial","144","1150392","0.0-27.0","battery-v0.2","","""event"",""trial"",""time""
""fullscreenenter"",""1"",""2548""
","
","
","""event"",""trial"",""time""
""fullscreenenter"",""1"",""2548""
","
","","","-1","","","12","16917","5140","h","elianto","#f73b6a7A","-1","-1","1","0","[]","0","2","","","16917","23","3","4","lose","no-go","0"
"pit-trial","145","1155035","0.0-28.0","battery-v0.2","","""event"",""trial"",""time""
""fullscreenenter"",""1"",""2548""
","
","
","""event"",""trial"",""time""
""fullscreenenter"",""1"",""2548""
","
","","","1781.4000000059605","","","12","16917","5140","m","elianto","#f73b6a7A"," "," ","1","0","[2640.2000000029802]","1","2","","","16917","24","0","3","lose","go","0"
"pit-trial","146","1159890","0.0-29.0","battery-v0.2","","""event"",""trial"",""time""
""fullscreenenter"",""1"",""2548""
","
","
","""event"",""trial"",""time""
""fullscreenenter"",""1"",""2548""
","
","","","-1","","","12","16917","5140","h","elianto","#f73b6a7A","-1","-1","1","0","[]","0","2","","","16917","25","3","4","lose","no-go","0"
"pit-trial","147","1164633","0.0-30.0","battery-v0.2","","""event"",""trial"",""time""
""fullscreenenter"",""1"",""2548""
","
","
","""event"",""trial"",""time""
""fullscreenenter"",""1"",""2548""
","
","","","1878","","","12","16917","5140","m","elianto","#f73b6a7A"," "," ","1","0","[2732.7000000029802]","1","2","","","16917","26","0","3","lose","go","0"
"pit-trial","148","1168371","0.0-31.0","battery-v0.2","","""event"",""trial"",""time""
""fullscreenenter"",""1"",""2548""
","
","
","""event"",""trial"",""time""
""fullscreenenter"",""1"",""2548""
","
","","","877.2999999970198","","","12","16917","5140","r","elianto","#3366ff99","-1"," ","0","0","[1736]","1","2","","","16917","27","1","2","win","no-go","0"
"pit-trial","149","1173225","0.0-32.0","battery-v0.2","","""event"",""trial"",""time""
""fullscreenenter"",""1"",""2548""
","
","
","""event"",""trial"",""time""
""fullscreenenter"",""1"",""2548""
","
","","","-1","","","12","16917","5140","y","elianto","#f73b6a7A"," ","-1","0","-10","[]","0","2","","","16917","28","2","3","lose","go","0"
"pit-trial","150","1177092","0.0-33.0","battery-v0.2","","""event"",""trial"",""time""
""fullscreenenter"",""1"",""2548""
","
","
","""event"",""trial"",""time""
""fullscreenenter"",""1"",""2548""
","
","","","1012.2000000029802","","","12","16917","5140","r","elianto","#3366ff99","-1"," ","0","0","[1864.0999999940395]","1","2","","","16917","29","1","2","win","no-go","0"
"pit-trial","151","1181946","0.0-34.0","battery-v0.2","","""event"",""trial"",""time""
""fullscreenenter"",""1"",""2548""
","
","
","""event"",""trial"",""time""
""fullscreenenter"",""1"",""2548""
","
","","","-1","","","12","16917","5140","m","elianto","#f73b6a7A"," ","-1","0","-10","[]","0","2","","","16917","30","0","3","lose","go","0"
"pit-trial","152","1186799","0.0-35.0","battery-v0.2","","""event"",""trial"",""time""
""fullscreenenter"",""1"",""2548""
","
","
","""event"",""trial"",""time""
""fullscreenenter"",""1"",""2548""
","
","","","-1","","","12","16917","5140","y","elianto","#f73b6a7A"," ","-1","0","-10","[]","0","2","","","16917","31","2","3","lose","go","0"
"pit-trial","153","1191651","0.0-36.0","battery-v0.2","","""event"",""trial"",""time""
""fullscreenenter"",""1"",""2548""
","
","
","""event"",""trial"",""time""
""fullscreenenter"",""1"",""2548""
","
","","","-1","","","12","16917","5140","h","elianto","#f73b6a7A","-1","-1","1","0","[]","0","2","","","16917","32","3","4","lose","no-go","0"
"pit-trial","154","1196505","0.0-37.0","battery-v0.2","","""event"",""trial"",""time""
""fullscreenenter"",""1"",""2548""
","
","
","""event"",""trial"",""time""
""fullscreenenter"",""1"",""2548""
","
","","","-1","","","12","16917","5140","h","elianto","#f73b6a7A","-1","-1","1","0","[]","0","2","","","16917","33","3","4","lose","no-go","0"
"pit-trial","155","1201231","0.0-38.0","battery-v0.2","","""event"",""trial"",""time""
""fullscreenenter"",""1"",""2548""
","
","
","""event"",""trial"",""time""
""fullscreenenter"",""1"",""2548""
","
","","","1871.5","","","12","16917","5140","y","elianto","#f73b6a7A"," "," ","1","0","[2722.300000011921]","1","2","","","16917","34","2","3","lose","go","0"
"pit-trial","156","1205224","0.0-39.0","battery-v0.2","","""event"",""trial"",""time""
""fullscreenenter"",""1"",""2548""
","
","
","""event"",""trial"",""time""
""fullscreenenter"",""1"",""2548""
","
","","","1139.2000000029802","","","12","16917","5140","m","elianto","#f73b6a7A"," "," ","1","0","[1990.1000000089407]","1","2","","","16917","35","0","3","lose","go","0"
"pit-trial","157","1208871","0.0-40.0","battery-v0.2","","""event"",""trial"",""time""
""fullscreenenter"",""1"",""2548""
","
","
","""event"",""trial"",""time""
""fullscreenenter"",""1"",""2548""
","
","","","793","","","12","16917","5140","r","elianto","#3366ff99","-1"," ","0","0","[1643.5]","1","2","","","16917","36","1","2","win","no-go","0"
"pit-trial","158","1213250","0.0-41.0","battery-v0.2","","""event"",""trial"",""time""
""fullscreenenter"",""1"",""2548""
","
","
","""event"",""trial"",""time""
""fullscreenenter"",""1"",""2548""
","
","","","1525.699999988079","","","12","16917","5140","y","elianto","#f73b6a7A"," "," ","1","0","[2377]","1","2","","","16917","37","2","3","lose","go","0"
"pit-trial","159","1216920","0.0-42.0","battery-v0.2","","""event"",""trial"",""time""
""fullscreenenter"",""1"",""2548""
","
","
","""event"",""trial"",""time""
""fullscreenenter"",""1"",""2548""
","
","","","816.9000000059605","","","12","16917","5140","r","elianto","#3366ff99","-1"," ","0","+10","[1667.199999988079]","1","2","","","16917","38","1","2","win","no-go","1"
"pit-trial","160","1220795","0.0-43.0","battery-v0.2","","""event"",""trial"",""time""
""fullscreenenter"",""1"",""2548""
","
","
","""event"",""trial"",""time""
""fullscreenenter"",""1"",""2548""
","
","","","1021.4000000059605","","","12","16917","5140","m","elianto","#f73b6a7A"," "," ","1","0","[1871.7999999970198]","1","2","","","16917","39","0","3","lose","go","0"
"pit-trial","161","1225647","0.0-44.0","battery-v0.2","","""event"",""trial"",""time""
""fullscreenenter"",""1"",""2548""
","
","
","""event"",""trial"",""time""
""fullscreenenter"",""1"",""2548""
","
","","","-1","","","12","16917","5140","h","elianto","#f73b6a7A","-1","-1","1","0","[]","0","2","","","16917","40","3","4","lose","no-go","0"
"pit-trial","162","1229435","0.0-45.0","battery-v0.2","","""event"",""trial"",""time""
""fullscreenenter"",""1"",""2548""
","
","
","""event"",""trial"",""time""
""fullscreenenter"",""1"",""2548""
","
","","","934","","","12","16917","5140","r","elianto","#3366ff99","-1"," ","0","+10","[1784.2000000029802]","1","2","","","16917","41","1","2","win","no-go","1"
"pit-trial","163","1234288","0.0-46.0","battery-v0.2","","""event"",""trial"",""time""
""fullscreenenter"",""1"",""2548""
","
","
","""event"",""trial"",""time""
""fullscreenenter"",""1"",""2548""
","
","","","-1","","","12","16917","5140","h","elianto","#f73b6a7A","-1","-1","1","0","[]","0","2","","","16917","42","3","4","lose","no-go","0"
"pit-trial","164","1238479","0.0-47.0","battery-v0.2","","""event"",""trial"",""time""
""fullscreenenter"",""1"",""2548""
","
","
","""event"",""trial"",""time""
""fullscreenenter"",""1"",""2548""
","
","","","1338.3999999910593","","","12","16917","5140","m","elianto","#f73b6a7A"," "," ","1","-10","[2188.5999999940395]","1","2","","","16917","43","0","3","lose","go","1"
"pit-trial","165","1243080","0.0-48.0","battery-v0.2","","""event"",""trial"",""time""
""fullscreenenter"",""1"",""2548""
","
","
","""event"",""trial"",""time""
""fullscreenenter"",""1"",""2548""
","
","","","1748.7999999970198","","","12","16917","5140","y","elianto","#f73b6a7A"," "," ","1","0","[2599]","1","2","","","16917","44","2","3","lose","go","0"
"pit-trial","166","1246995","0.0-49.0","battery-v0.2","","""event"",""trial"",""time""
""fullscreenenter"",""1"",""2548""
","
","
","""event"",""trial"",""time""
""fullscreenenter"",""1"",""2548""
","
","","","1061.5","","","12","16917","5140","m","elianto","#f73b6a7A"," "," ","1","0","[1912.4000000059605]","1","2","","","16917","45","0","3","lose","go","0"
"pit-trial","167","1251848","0.0-50.0","battery-v0.2","","""event"",""trial"",""time""
""fullscreenenter"",""1"",""2548""
","
","
","""event"",""trial"",""time""
""fullscreenenter"",""1"",""2548""
","
","","","-1","","","12","16917","5140","h","elianto","#f73b6a7A","-1","-1","1","-10","[]","0","2","","","16917","46","3","4","lose","no-go","1"
"pit-trial","168","1256175","0.0-51.0","battery-v0.2","","""event"",""trial"",""time""
""fullscreenenter"",""1"",""2548""
","
","
","""event"",""trial"",""time""
""fullscreenenter"",""1"",""2548""
","
","","","1473.6000000089407","","","12","16917","5140","y","elianto","#f73b6a7A"," "," ","1","-10","[2324.2000000029802]","1","2","","","16917","47","2","3","lose","go","1"
"pit-trial","169","1259906","0.0-52.0","battery-v0.2","","""event"",""trial"",""time""
""fullscreenenter"",""1"",""2548""
","
","
","""event"",""trial"",""time""
""fullscreenenter"",""1"",""2548""
","
","","","877.0999999940395","","","12","16917","5140","r","elianto","#3366ff99","-1"," ","0","0","[1728.2000000029802]","1","2","","","16917","48","1","2","win","no-go","0"
"pit-trial","170","1264090","0.0-53.0","battery-v0.2","","""event"",""trial"",""time""
""fullscreenenter"",""1"",""2548""
","
","
","""event"",""trial"",""time""
""fullscreenenter"",""1"",""2548""
","
","","","1331.4000000059605","","","12","16917","5140","y","elianto","#f73b6a7A"," "," ","1","0","[2181.5]","1","2","","","16917","49","2","3","lose","go","0"
"pit-trial","171","1267852","0.0-54.0","battery-v0.2","","""event"",""trial"",""time""
""fullscreenenter"",""1"",""2548""
","
","
","""event"",""trial"",""time""
""fullscreenenter"",""1"",""2548""
","
","","","909.5999999940395","","","12","16917","5140","r","elianto","#3366ff99","-1"," ","0","0","[1760.0999999940395]","1","2","","","16917","50","1","2","win","no-go","0"
"pit-trial","172","1271778","0.0-55.0","battery-v0.2","","""event"",""trial"",""time""
""fullscreenenter"",""1"",""2548""
","
","
","""event"",""trial"",""time""
""fullscreenenter"",""1"",""2548""
","
","","","1074.5999999940395","","","12","16917","5140","m","elianto","#f73b6a7A"," "," ","1","0","[1924.7000000029802,3515]","2","2","","","16917","51","0","3","lose","go","0"
"pit-trial","173","1276631","0.0-56.0","battery-v0.2","","""event"",""trial"",""time""
""fullscreenenter"",""1"",""2548""
","
","
","""event"",""trial"",""time""
""fullscreenenter"",""1"",""2548""
","
","","","-1","","","12","16917","5140","h","elianto","#f73b6a7A","-1","-1","1","0","[4641.29999999702]","1","2","","","16917","52","3","4","lose","no-go","0"
"pit-trial","174","1280393","0.0-57.0","battery-v0.2","","""event"",""trial"",""time""
""fullscreenenter"",""1"",""2548""
","
","
","""event"",""trial"",""time""
""fullscreenenter"",""1"",""2548""
","
","","","909","","","12","16917","5140","m","elianto","#f73b6a7A"," "," ","1","0","[1759.4000000059605]","1","2","","","16917","53","0","3","lose","go","0"
"pit-trial","175","1283853","0.0-58.0","battery-v0.2","","""event"",""trial"",""time""
""fullscreenenter"",""1"",""2548""
","
","
","""event"",""trial"",""time""
""fullscreenenter"",""1"",""2548""
","
","","","606.7999999970198","","","12","16917","5140","r","elianto","#3366ff99","-1"," ","0","+10","[1457.7000000029802]","1","2","","","16917","54","1","2","win","no-go","1"
"pit-trial","176","1288706","0.0-59.0","battery-v0.2","","""event"",""trial"",""time""
""fullscreenenter"",""1"",""2548""
","
","
","""event"",""trial"",""time""
""fullscreenenter"",""1"",""2548""
","
","","","-1","","","12","16917","5140","h","elianto","#f73b6a7A","-1","-1","1","-10","[]","0","2","","","16917","55","3","4","lose","no-go","1"
"pit-trial","177","1293047","0.0-60.0","battery-v0.2","","""event"",""trial"",""time""
""fullscreenenter"",""1"",""2548""
","
","
","""event"",""trial"",""time""
""fullscreenenter"",""1"",""2548""
","
","","","1488.199999988079","","","12","16917","5140","y","elianto","#f73b6a7A"," "," ","1","0","[2338.3999999910593]","1","2","","","16917","56","2","3","lose","go","0"
"pit-trial","178","1297901","0.0-61.0","battery-v0.2","","""event"",""trial"",""time""
""fullscreenenter"",""1"",""2548""
","
","
","""event"",""trial"",""time""
""fullscreenenter"",""1"",""2548""
","
","","","-1","","","12","16917","5140","m","elianto","#f73b6a7A"," ","-1","0","-10","[3413.2000000029802]","1","2","","","16917","57","0","3","lose","go","0"
"pit-trial","179","1302754","0.0-62.0","battery-v0.2","","""event"",""trial"",""time""
""fullscreenenter"",""1"",""2548""
","
","
","""event"",""trial"",""time""
""fullscreenenter"",""1"",""2548""
","
","","","-1","","","12","16917","5140","h","elianto","#f73b6a7A","-1","-1","1","0","[]","0","2","","","16917","58","3","4","lose","no-go","0"
"pit-trial","180","1307557","0.0-63.0","battery-v0.2","","""event"",""trial"",""time""
""fullscreenenter"",""1"",""2548""
","
","
","""event"",""trial"",""time""
""fullscreenenter"",""1"",""2548""
","
","","","1949.6000000089407","","","12","16917","5140","z","elianto","#3366ff99"," "," ","1","+10","[2800.7000000029802]","1","2","","","16917","59","4","1","win","go","0"
"pit-trial","181","1312410","0.0-64.0","battery-v0.2","","""event"",""trial"",""time""
""fullscreenenter"",""1"",""2548""
","
","
","""event"",""trial"",""time""
""fullscreenenter"",""1"",""2548""
","
","","","-1","","","12","16917","5140","y","elianto","#f73b6a7A"," ","-1","0","0","[]","0","2","","","16917","60","2","3","lose","go","1"
"pit-trial","182","1316116","0.0-65.0","battery-v0.2","","""event"",""trial"",""time""
""fullscreenenter"",""1"",""2548""
","
","
","""event"",""trial"",""time""
""fullscreenenter"",""1"",""2548""
","
","","","852.9000000059605","","","12","16917","5140","r","elianto","#3366ff99","-1"," ","0","+10","[1703.9000000059605]","1","2","","","16917","61","1","2","win","no-go","1"
"pit-trial","183","1319542","0.0-66.0","battery-v0.2","","""event"",""trial"",""time""
""fullscreenenter"",""1"",""2548""
","
","
","""event"",""trial"",""time""
""fullscreenenter"",""1"",""2548""
","
","","","572.9000000059605","","","12","16917","5140","z","elianto","#3366ff99"," "," ","1","+10","[1423.7999999970198]","1","2","","","16917","62","4","1","win","go","0"
"pit-trial","184","1323470","0.0-67.0","battery-v0.2","","""event"",""trial"",""time""
""fullscreenenter"",""1"",""2548""
","
","
","""event"",""trial"",""time""
""fullscreenenter"",""1"",""2548""
","
","","","1075.9000000059605","","","12","16917","5140","y","elianto","#f73b6a7A"," "," ","1","-10","[1926.4000000059605]","1","2","","","16917","63","2","3","lose","go","1"
"pit-trial","185","1328323","0.0-68.0","battery-v0.2","","""event"",""trial"",""time""
""fullscreenenter"",""1"",""2548""
","
","
","""event"",""trial"",""time""
""fullscreenenter"",""1"",""2548""
","
","","","-1","","","12","16917","5140","h","elianto","#f73b6a7A","-1","-1","1","0","[]","0","2","","","16917","64","3","4","lose","no-go","0"
"pit-trial","186","1332229","0.0-69.0","battery-v0.2","","""event"",""trial"",""time""
""fullscreenenter"",""1"",""2548""
","
","
","""event"",""trial"",""time""
""fullscreenenter"",""1"",""2548""
","
","","","1052.4000000059605","","","12","16917","5140","c","elianto","#3366ff99","-1"," ","0","0","[1903.4000000059605]","1","2","","","16917","65","5","2","win","no-go","0"
"pit-trial","187","1335973","0.0-70.0","battery-v0.2","","""event"",""trial"",""time""
""fullscreenenter"",""1"",""2548""
","
","
","""event"",""trial"",""time""
""fullscreenenter"",""1"",""2548""
","
","","","890.5","","","12","16917","5140","r","elianto","#3366ff99","-1"," ","0","+10","[1741.300000011921]","1","2","","","16917","66","1","2","win","no-go","1"
"pit-trial","188","1340827","0.0-71.0","battery-v0.2","","""event"",""trial"",""time""
""fullscreenenter"",""1"",""2548""
","
","
","""event"",""trial"",""time""
""fullscreenenter"",""1"",""2548""
","
","","","-1","","","12","16917","5140","h","elianto","#f73b6a7A","-1","-1","1","0","[]","0","2","","","16917","67","3","4","lose","no-go","0"
"pit-trial","189","1344550","0.0-72.0","battery-v0.2","","""event"",""trial"",""time""
""fullscreenenter"",""1"",""2548""
","
","
","""event"",""trial"",""time""
""fullscreenenter"",""1"",""2548""
","
","","","870.5","","","12","16917","5140","z","elianto","#3366ff99"," "," ","1","+10","[1720.7000000029802]","1","2","","","16917","68","4","1","win","go","0"
"pit-trial","190","1348102","0.0-73.0","battery-v0.2","","""event"",""trial"",""time""
""fullscreenenter"",""1"",""2548""
","
","
","""event"",""trial"",""time""
""fullscreenenter"",""1"",""2548""
","
","","","699.6999999880791","","","12","16917","5140","z","elianto","#3366ff99"," "," ","1","+10","[1550]","1","2","","","16917","69","4","1","win","go","0"
"pit-trial","191","1352955","0.0-74.0","battery-v0.2","","""event"",""trial"",""time""
""fullscreenenter"",""1"",""2548""
","
","
","""event"",""trial"",""time""
""fullscreenenter"",""1"",""2548""
","
","","","-1","","","12","16917","5140","c","elianto","#3366ff99","-1","-1","1","+10","[]","0","2","","","16917","70","5","2","win","no-go","0"
"pit-trial","192","1357802","0.0-75.0","battery-v0.2","","""event"",""trial"",""time""
""fullscreenenter"",""1"",""2548""
","
","
","""event"",""trial"",""time""
""fullscreenenter"",""1"",""2548""
","
","","","1994.7999999970198","","","12","16917","5140","y","elianto","#f73b6a7A"," "," ","1","0","[2845]","1","2","","","16917","71","2","3","lose","go","0"
"pit-trial","193","1361811","0.0-76.0","battery-v0.2","","""event"",""trial"",""time""
""fullscreenenter"",""1"",""2548""
","
","
","""event"",""trial"",""time""
""fullscreenenter"",""1"",""2548""
","
","","","1156.2000000029802","","","12","16917","5140","r","elianto","#3366ff99","-1"," ","0","0","[2007.0999999940395]","1","2","","","16917","72","1","2","win","no-go","0"
"pit-trial","194","1365518","0.0-77.0","battery-v0.2","","""event"",""trial"",""time""
""fullscreenenter"",""1"",""2548""
","
","
","""event"",""trial"",""time""
""fullscreenenter"",""1"",""2548""
","
","","","853.2000000029802","","","12","16917","5140","r","elianto","#3366ff99","-1"," ","0","0","[1703.7000000029802]","1","2","","","16917","73","1","2","win","no-go","0"
"pit-trial","195","1370370","0.0-78.0","battery-v0.2","","""event"",""trial"",""time""
""fullscreenenter"",""1"",""2548""
","
","
","""event"",""trial"",""time""
""fullscreenenter"",""1"",""2548""
","
","","","-1","","","12","16917","5140","c","elianto","#3366ff99","-1","-1","1","+10","[]","0","2","","","16917","74","5","2","win","no-go","0"
"pit-trial","196","1373864","0.0-79.0","battery-v0.2","","""event"",""trial"",""time""
""fullscreenenter"",""1"",""2548""
","
","
","""event"",""trial"",""time""
""fullscreenenter"",""1"",""2548""
","
","","","639.5999999940395","","","12","16917","5140","z","elianto","#3366ff99"," "," ","1","+10","[1491.2999999970198]","1","2","","","16917","75","4","1","win","go","0"
"pit-trial","197","1378717","0.0-80.0","battery-v0.2","","""event"",""trial"",""time""
""fullscreenenter"",""1"",""2548""
","
","
","""event"",""trial"",""time""
""fullscreenenter"",""1"",""2548""
","
","","","-1","","","12","16917","5140","h","elianto","#f73b6a7A","-1","-1","1","0","[]","0","2","","","16917","76","3","4","lose","no-go","0"
"pit-trial","198","1382305","0.0-81.0","battery-v0.2","","""event"",""trial"",""time""
""fullscreenenter"",""1"",""2548""
","
","
","""event"",""trial"",""time""
""fullscreenenter"",""1"",""2548""
","
","","","735.2000000029802","","","12","16917","5140","z","elianto","#3366ff99"," "," ","1","+10","[1586]","1","2","","","16917","77","4","1","win","go","0"
"pit-trial","199","1386166","0.0-82.0","battery-v0.2","","""event"",""trial"",""time""
""fullscreenenter"",""1"",""2548""
","
","
","""event"",""trial"",""time""
""fullscreenenter"",""1"",""2548""
","
","","","1007.5","","","12","16917","5140","z","elianto","#3366ff99"," "," ","1","+10","[1857.9000000059605]","1","2","","","16917","78","4","1","win","go","0"
"pit-trial","200","1391019","0.0-83.0","battery-v0.2","","""event"",""trial"",""time""
""fullscreenenter"",""1"",""2548""
","
","
","""event"",""trial"",""time""
""fullscreenenter"",""1"",""2548""
","
","","","-1","","","12","16917","5140","c","elianto","#3366ff99","-1","-1","1","+10","[]","0","2","","","16917","79","5","2","win","no-go","0"
"pit-trial","201","1395871","0.0-84.0","battery-v0.2","","""event"",""trial"",""time""
""fullscreenenter"",""1"",""2548""
","
","
","""event"",""trial"",""time""
""fullscreenenter"",""1"",""2548""
","
","","","-1","","","12","16917","5140","h","elianto","#f73b6a7A","-1","-1","1","0","[]","0","2","","","16917","80","3","4","lose","no-go","0"
"pit-trial","202","1399737","0.0-85.0","battery-v0.2","","""event"",""trial"",""time""
""fullscreenenter"",""1"",""2548""
","
","
","""event"",""trial"",""time""
""fullscreenenter"",""1"",""2548""
","
","","","1012.7999999970198","","","12","16917","5140","z","elianto","#3366ff99"," "," ","1","+10","[1863.8999999910593]","1","2","","","16917","81","4","1","win","go","0"
"pit-trial","203","1404589","0.0-86.0","battery-v0.2","","""event"",""trial"",""time""
""fullscreenenter"",""1"",""2548""
","
","
","""event"",""trial"",""time""
""fullscreenenter"",""1"",""2548""
","
","","","-1","","","12","16917","5140","h","elianto","#f73b6a7A","-1","-1","1","0","[]","0","2","","","16917","82","3","4","lose","no-go","0"
"pit-trial","204","1409426","0.0-87.0","battery-v0.2","","""event"",""trial"",""time""
""fullscreenenter"",""1"",""2548""
","
","
","""event"",""trial"",""time""
""fullscreenenter"",""1"",""2548""
","
","","","1984.1000000089407","","","12","16917","5140","t","elianto","#f73b6a7A","-1"," ","0","-10","[2834.3999999910593]","1","2","","","16917","83","7","4","lose","no-go","0"
"pit-trial","205","1414278","0.0-88.0","battery-v0.2","","""event"",""trial"",""time""
""fullscreenenter"",""1"",""2548""
","
","
","""event"",""trial"",""time""
""fullscreenenter"",""1"",""2548""
","
","","","-1","","","12","16917","5140","c","elianto","#3366ff99","-1","-1","1","0","[]","0","2","","","16917","84","5","2","win","no-go","1"
"pit-trial","206","1419131","0.0-89.0","battery-v0.2","","""event"",""trial"",""time""
""fullscreenenter"",""1"",""2548""
","
","
","""event"",""trial"",""time""
""fullscreenenter"",""1"",""2548""
","
","","","-1","","","12","16917","5140","t","elianto","#f73b6a7A","-1","-1","1","0","[]","0","2","","","16917","85","7","4","lose","no-go","0"
"pit-trial","207","1422807","0.0-90.0","battery-v0.2","","""event"",""trial"",""time""
""fullscreenenter"",""1"",""2548""
","
","
","""event"",""trial"",""time""
""fullscreenenter"",""1"",""2548""
","
","","","824","","","12","16917","5140","z","elianto","#3366ff99"," "," ","1","+10","[1674.1000000089407]","1","2","","","16917","86","4","1","win","go","0"
"pit-trial","208","1427660","0.0-91.0","battery-v0.2","","""event"",""trial"",""time""
""fullscreenenter"",""1"",""2548""
","
","
","""event"",""trial"",""time""
""fullscreenenter"",""1"",""2548""
","
","","","-1","","","12","16917","5140","c","elianto","#3366ff99","-1","-1","1","+10","[]","0","2","","","16917","87","5","2","win","no-go","0"
"pit-trial","209","1431549","0.0-92.0","battery-v0.2","","""event"",""trial"",""time""
""fullscreenenter"",""1"",""2548""
","
","
","""event"",""trial"",""time""
""fullscreenenter"",""1"",""2548""
","
","","","1035.5","","","12","16917","5140","b","elianto","#f73b6a7A"," "," ","1","0","[1887.2000000029802]","1","2","","","16917","88","6","3","lose","go","0"
"pit-trial","210","1435445","0.0-93.0","battery-v0.2","","""event"",""trial"",""time""
""fullscreenenter"",""1"",""2548""
","
","
","""event"",""trial"",""time""
""fullscreenenter"",""1"",""2548""
","
","","","1041.7000000029802","","","12","16917","5140","b","elianto","#f73b6a7A"," "," ","1","0","[1892.3999999910593]","1","2","","","16917","89","6","3","lose","go","0"
"pit-trial","211","1440297","0.0-94.0","battery-v0.2","","""event"",""trial"",""time""
""fullscreenenter"",""1"",""2548""
","
","
","""event"",""trial"",""time""
""fullscreenenter"",""1"",""2548""
","
","","","-1","","","12","16917","5140","t","elianto","#f73b6a7A","-1","-1","1","0","[]","0","2","","","16917","90","7","4","lose","no-go","0"
"pit-trial","212","1445149","0.0-95.0","battery-v0.2","","""event"",""trial"",""time""
""fullscreenenter"",""1"",""2548""
","
","
","""event"",""trial"",""time""
""fullscreenenter"",""1"",""2548""
","
","","","-1","","","12","16917","5140","c","elianto","#3366ff99","-1","-1","1","0","[]","0","2","","","16917","91","5","2","win","no-go","1"
"pit-trial","213","1449061","0.0-96.0","battery-v0.2","","""event"",""trial"",""time""
""fullscreenenter"",""1"",""2548""
","
","
","""event"",""trial"",""time""
""fullscreenenter"",""1"",""2548""
","
","","","1059","","","12","16917","5140","z","elianto","#3366ff99"," "," ","1","+10","[1909.3999999910593]","1","2","","","16917","92","4","1","win","go","0"
"pit-trial","214","1453914","0.0-97.0","battery-v0.2","","""event"",""trial"",""time""
""fullscreenenter"",""1"",""2548""
","
","
","""event"",""trial"",""time""
""fullscreenenter"",""1"",""2548""
","
","","","-1","","","12","16917","5140","t","elianto","#f73b6a7A","-1","-1","1","0","[]","0","2","","","16917","93","7","4","lose","no-go","0"
"pit-trial","215","1458766","0.0-98.0","battery-v0.2","","""event"",""trial"",""time""
""fullscreenenter"",""1"",""2548""
","
","
","""event"",""trial"",""time""
""fullscreenenter"",""1"",""2548""
","
","","","-1","","","12","16917","5140","c","elianto","#3366ff99","-1","-1","1","+10","[]","0","2","","","16917","94","5","2","win","no-go","0"
"pit-trial","216","1463021","0.0-99.0","battery-v0.2","","""event"",""trial"",""time""
""fullscreenenter"",""1"",""2548""
","
","
","""event"",""trial"",""time""
""fullscreenenter"",""1"",""2548""
","
","","","1400.9000000059605","","","12","16917","5140","b","elianto","#f73b6a7A"," "," ","1","-10","[2251.699999988079]","1","2","","","16917","95","6","3","lose","go","1"
"pit-trial","217","1467115","0.0-100.0","battery-v0.2","","""event"",""trial"",""time""
""fullscreenenter"",""1"",""2548""
","
","
","""event"",""trial"",""time""
""fullscreenenter"",""1"",""2548""
","
","","","1241.7000000029802","","","12","16917","5140","f","elianto","#3366ff99"," "," ","1","+10","[2092.0999999940395]","1","2","","","16917","96","8","1","win","go","0"
"pit-trial","218","1471968","0.0-101.0","battery-v0.2","","""event"",""trial"",""time""
""fullscreenenter"",""1"",""2548""
","
","
","""event"",""trial"",""time""
""fullscreenenter"",""1"",""2548""
","
","","","-1","","","12","16917","5140","c","elianto","#3366ff99","-1","-1","1","+10","[]","0","2","","","16917","97","5","2","win","no-go","0"
"pit-trial","219","1476822","0.0-102.0","battery-v0.2","","""event"",""trial"",""time""
""fullscreenenter"",""1"",""2548""
","
","
","""event"",""trial"",""time""
""fullscreenenter"",""1"",""2548""
","
","","","-1","","","12","16917","5140","t","elianto","#f73b6a7A","-1","-1","1","0","[]","0","2","","","16917","98","7","4","lose","no-go","0"
"pit-trial","220","1481548","0.0-103.0","battery-v0.2","","""event"",""trial"",""time""
""fullscreenenter"",""1"",""2548""
","
","
","""event"",""trial"",""time""
""fullscreenenter"",""1"",""2548""
","
","","","1873.2999999970198","","","12","16917","5140","b","elianto","#f73b6a7A"," "," ","1","-10","[2724.2999999970198]","1","2","","","16917","99","6","3","lose","go","1"
"pit-trial","221","1485452","0.0-104.0","battery-v0.2","","""event"",""trial"",""time""
""fullscreenenter"",""1"",""2548""
","
","
","""event"",""trial"",""time""
""fullscreenenter"",""1"",""2548""
","
","","","1050.1000000089407","","","12","16917","5140","f","elianto","#3366ff99"," "," ","1","0","[1901.0999999940395]","1","2","","","16917","100","8","1","win","go","1"
"pit-trial","222","1489292","0.0-105.0","battery-v0.2","","""event"",""trial"",""time""
""fullscreenenter"",""1"",""2548""
","
","
","""event"",""trial"",""time""
""fullscreenenter"",""1"",""2548""
","
","","","987.6000000089407","","","12","16917","5140","n","elianto","#3366ff99"," "," ","1","0","[1838.5999999940395]","1","2","","","16917","101","9","1","win","go","1"
"pit-trial","223","1494145","0.0-106.0","battery-v0.2","","""event"",""trial"",""time""
""fullscreenenter"",""1"",""2548""
","
","
","""event"",""trial"",""time""
""fullscreenenter"",""1"",""2548""
","
","","","-1","","","12","16917","5140","c","elianto","#3366ff99","-1","-1","1","+10","[]","0","2","","","16917","102","5","2","win","no-go","0"
"pit-trial","224","1498578","0.0-107.0","battery-v0.2","","""event"",""trial"",""time""
""fullscreenenter"",""1"",""2548""
","
","
","""event"",""trial"",""time""
""fullscreenenter"",""1"",""2548""
","
","","","1579.7000000029802","","","12","16917","5140","t","elianto","#f73b6a7A","-1"," ","0","-10","[2430]","1","2","","","16917","103","7","4","lose","no-go","0"
"pit-trial","225","1503441","0.0-108.0","battery-v0.2","","""event"",""trial"",""time""
""fullscreenenter"",""1"",""2548""
","
","
","""event"",""trial"",""time""
""fullscreenenter"",""1"",""2548""
","
","","","-1","","","12","16917","5140","f","elianto","#3366ff99"," ","-1","0","0","[]","0","2","","","16917","104","8","1","win","go","0"
"pit-trial","226","1508295","0.0-109.0","battery-v0.2","","""event"",""trial"",""time""
""fullscreenenter"",""1"",""2548""
","
","
","""event"",""trial"",""time""
""fullscreenenter"",""1"",""2548""
","
","","","-1","","","12","16917","5140","n","elianto","#3366ff99"," ","-1","0","+10","[]","0","2","","","16917","105","9","1","win","go","1"
"pit-trial","227","1512635","0.0-110.0","battery-v0.2","","""event"",""trial"",""time""
""fullscreenenter"",""1"",""2548""
","
","
","""event"",""trial"",""time""
""fullscreenenter"",""1"",""2548""
","
","","","1487.7999999970198","","","12","16917","5140","z","elianto","#3366ff99"," "," ","1","+10","[2338.4000000059605]","1","2","","","16917","106","4","1","win","go","0"
"pit-trial","228","1517488","0.0-111.0","battery-v0.2","","""event"",""trial"",""time""
""fullscreenenter"",""1"",""2548""
","
","
","""event"",""trial"",""time""
""fullscreenenter"",""1"",""2548""
","
","","","-1","","","12","16917","5140","f","elianto","#3366ff99"," ","-1","0","0","[]","0","2","","","16917","107","8","1","win","go","0"
"pit-trial","229","1522341","0.0-112.0","battery-v0.2","","""event"",""trial"",""time""
""fullscreenenter"",""1"",""2548""
","
","
","""event"",""trial"",""time""
""fullscreenenter"",""1"",""2548""
","
","","","-1","","","12","16917","5140","b","elianto","#f73b6a7A"," ","-1","0","-10","[]","0","2","","","16917","108","6","3","lose","go","0"
"pit-trial","230","1527195","0.0-113.0","battery-v0.2","","""event"",""trial"",""time""
""fullscreenenter"",""1"",""2548""
","
","
","""event"",""trial"",""time""
""fullscreenenter"",""1"",""2548""
","
","","","-1","","","12","16917","5140","f","elianto","#3366ff99"," ","-1","0","+10","[]","0","2","","","16917","109","8","1","win","go","1"
"pit-trial","231","1532049","0.0-114.0","battery-v0.2","","""event"",""trial"",""time""
""fullscreenenter"",""1"",""2548""
","
","
","""event"",""trial"",""time""
""fullscreenenter"",""1"",""2548""
","
","","","-1","","","12","16917","5140","n","elianto","#3366ff99"," ","-1","0","0","[]","0","2","","","16917","110","9","1","win","go","0"
"pit-trial","232","1536141","0.0-115.0","battery-v0.2","","""event"",""trial"",""time""
""fullscreenenter"",""1"",""2548""
","
","
","""event"",""trial"",""time""
""fullscreenenter"",""1"",""2548""
","
","","","1240.0999999940395","","","12","16917","5140","b","elianto","#f73b6a7A"," "," ","1","-10","[2090.2000000029802]","1","2","","","16917","111","6","3","lose","go","1"
"pit-trial","233","1540995","0.0-116.0","battery-v0.2","","""event"",""trial"",""time""
""fullscreenenter"",""1"",""2548""
","
","
","""event"",""trial"",""time""
""fullscreenenter"",""1"",""2548""
","
","","","-1","","","12","16917","5140","c","elianto","#3366ff99","-1","-1","1","+10","[]","0","2","","","16917","112","5","2","win","no-go","0"
"pit-trial","234","1544921","0.0-117.0","battery-v0.2","","""event"",""trial"",""time""
""fullscreenenter"",""1"",""2548""
","
","
","""event"",""trial"",""time""
""fullscreenenter"",""1"",""2548""
","
","","","1073.8999999910593","","","12","16917","5140","b","elianto","#f73b6a7A"," "," ","1","0","[1923.9000000059605]","1","2","","","16917","113","6","3","lose","go","0"
"pit-trial","235","1549455","0.0-118.0","battery-v0.2","","""event"",""trial"",""time""
""fullscreenenter"",""1"",""2548""
","
","
","""event"",""trial"",""time""
""fullscreenenter"",""1"",""2548""
","
","","","1679.9000000059605","","","12","16917","5140","n","elianto","#3366ff99"," "," ","1","+10","[2530.7999999970198]","1","2","","","16917","114","9","1","win","go","0"
"pit-trial","236","1554308","0.0-119.0","battery-v0.2","","""event"",""trial"",""time""
""fullscreenenter"",""1"",""2548""
","
","
","""event"",""trial"",""time""
""fullscreenenter"",""1"",""2548""
","
","","","-1","","","12","16917","5140","c","elianto","#3366ff99","-1","-1","1","+10","[]","0","2","","","16917","115","5","2","win","no-go","0"
"pit-trial","237","1558529","0.0-120.0","battery-v0.2","","""event"",""trial"",""time""
""fullscreenenter"",""1"",""2548""
","
","
","""event"",""trial"",""time""
""fullscreenenter"",""1"",""2548""
","
","","","1367.3999999910593","","","12","16917","5140","f","elianto","#3366ff99"," "," ","1","+10","[2218.199999988079]","1","2","","","16917","116","8","1","win","go","0"
"pit-trial","238","1563380","0.0-121.0","battery-v0.2","","""event"",""trial"",""time""
""fullscreenenter"",""1"",""2548""
","
","
","""event"",""trial"",""time""
""fullscreenenter"",""1"",""2548""
","
","","","-1","","","12","16917","5140","c","elianto","#3366ff99","-1","-1","1","+10","[]","0","2","","","16917","117","5","2","win","no-go","0"
"pit-trial","239","1568235","0.0-122.0","battery-v0.2","","""event"",""trial"",""time""
""fullscreenenter"",""1"",""2548""
","
","
","""event"",""trial"",""time""
""fullscreenenter"",""1"",""2548""
","
","","","-1","","","12","16917","5140","n","elianto","#3366ff99"," ","-1","0","0","[]","0","2","","","16917","118","9","1","win","go","0"
"pit-trial","240","1572202","0.0-123.0","battery-v0.2","","""event"",""trial"",""time""
""fullscreenenter"",""1"",""2548""
","
","
","""event"",""trial"",""time""
""fullscreenenter"",""1"",""2548""
","
","","","1113.7999999970198","","","12","16917","5140","f","elianto","#3366ff99"," "," ","1","+10","[1964.9000000059605]","1","2","","","16917","119","8","1","win","go","0"
"pit-trial","241","1576584","0.0-124.0","battery-v0.2","","""event"",""trial"",""time""
""fullscreenenter"",""1"",""2548""
","
","
","""event"",""trial"",""time""
""fullscreenenter"",""1"",""2548""
","
","","","1529.0999999940395","","","12","16917","5140","b","elianto","#f73b6a7A"," "," ","1","-10","[2379.699999988079]","1","2","","","16917","120","6","3","lose","go","1"
"pit-trial","242","1581132","0.0-125.0","battery-v0.2","","""event"",""trial"",""time""
""fullscreenenter"",""1"",""2548""
","
","
","""event"",""trial"",""time""
""fullscreenenter"",""1"",""2548""
","
","","","1694.2999999970198","","","12","16917","5140","f","elianto","#3366ff99"," "," ","1","+10","[2545.0999999940395]","1","2","","","16917","121","8","1","win","go","0"
"pit-trial","243","1585588","0.0-126.0","battery-v0.2","","""event"",""trial"",""time""
""fullscreenenter"",""1"",""2548""
","
","
","""event"",""trial"",""time""
""fullscreenenter"",""1"",""2548""
","
","","","1603.199999988079","","","12","16917","5140","b","elianto","#f73b6a7A"," "," ","1","0","[2454.0999999940395]","1","2","","","16917","122","6","3","lose","go","0"
"pit-trial","244","1590441","0.0-127.0","battery-v0.2","","""event"",""trial"",""time""
""fullscreenenter"",""1"",""2548""
","
","
","""event"",""trial"",""time""
""fullscreenenter"",""1"",""2548""
","
","","","-1","","","12","16917","5140","n","elianto","#3366ff99"," ","-1","0","0","[]","0","2","","","16917","123","9","1","win","go","0"
"pit-trial","245","1595296","0.0-128.0","battery-v0.2","","""event"",""trial"",""time""
""fullscreenenter"",""1"",""2548""
","
","
","""event"",""trial"",""time""
""fullscreenenter"",""1"",""2548""
","
","","","-1","","","12","16917","5140","t","elianto","#f73b6a7A","-1","-1","1","-10","[]","0","2","","","16917","124","7","4","lose","no-go","1"
"pit-trial","246","1599125","0.0-129.0","battery-v0.2","","""event"",""trial"",""time""
""fullscreenenter"",""1"",""2548""
","
","
","""event"",""trial"",""time""
""fullscreenenter"",""1"",""2548""
","
","","","976.4000000059605","","","12","16917","5140","t","elianto","#f73b6a7A","-1"," ","0","-10","[1826.4000000059605]","1","2","","","16917","125","7","4","lose","no-go","0"
"pit-trial","247","1603978","0.0-130.0","battery-v0.2","","""event"",""trial"",""time""
""fullscreenenter"",""1"",""2548""
","
","
","""event"",""trial"",""time""
""fullscreenenter"",""1"",""2548""
","
","","","-1","","","12","16917","5140","n","elianto","#3366ff99"," ","-1","0","+10","[]","0","2","","","16917","126","9","1","win","go","1"
"pit-trial","248","1607997","0.0-131.0","battery-v0.2","","""event"",""trial"",""time""
""fullscreenenter"",""1"",""2548""
","
","
","""event"",""trial"",""time""
""fullscreenenter"",""1"",""2548""
","
","","","1165.2000000029802","","","12","16917","5140","b","elianto","#f73b6a7A"," "," ","1","0","[2016.5,2347.199999988079]","2","2","","","16917","127","6","3","lose","go","0"
"pit-trial","249","1612162","0.0-132.0","battery-v0.2","","""event"",""trial"",""time""
""fullscreenenter"",""1"",""2548""
","
","
","""event"",""trial"",""time""
""fullscreenenter"",""1"",""2548""
","
","","","1311.5999999940395","","","12","16917","5140","f","elianto","#3366ff99"," "," ","1","0","[2162.0999999940395]","1","2","","","16917","128","8","1","win","go","1"
"pit-trial","250","1616395","0.0-133.0","battery-v0.2","","""event"",""trial"",""time""
""fullscreenenter"",""1"",""2548""
","
","
","""event"",""trial"",""time""
""fullscreenenter"",""1"",""2548""
","
","","","1380.0999999940395","","","12","16917","5140","t","elianto","#f73b6a7A","-1"," ","0","-10","[2231.2000000029802]","1","2","","","16917","129","7","4","lose","no-go","0"
"pit-trial","251","1620430","0.0-134.0","battery-v0.2","","""event"",""trial"",""time""
""fullscreenenter"",""1"",""2548""
","
","
","""event"",""trial"",""time""
""fullscreenenter"",""1"",""2548""
","
","","","1182.5999999940395","","","12","16917","5140","b","elianto","#f73b6a7A"," "," ","1","0","[2032.5999999940395]","1","2","","","16917","130","6","3","lose","go","0"
"pit-trial","252","1625285","0.0-135.0","battery-v0.2","","""event"",""trial"",""time""
""fullscreenenter"",""1"",""2548""
","
","
","""event"",""trial"",""time""
""fullscreenenter"",""1"",""2548""
","
","","","-1","","","12","16917","5140","n","elianto","#3366ff99"," ","-1","0","0","[]","0","2","","","16917","131","9","1","win","go","0"
"pit-trial","253","1629329","0.0-136.0","battery-v0.2","","""event"",""trial"",""time""
""fullscreenenter"",""1"",""2548""
","
","
","""event"",""trial"",""time""
""fullscreenenter"",""1"",""2548""
","
","","","1182","","","12","16917","5140","f","elianto","#3366ff99"," "," ","1","+10","[2033.5]","1","2","","","16917","132","8","1","win","go","0"
"pit-trial","254","1634181","0.0-137.0","battery-v0.2","","""event"",""trial"",""time""
""fullscreenenter"",""1"",""2548""
","
","
","""event"",""trial"",""time""
""fullscreenenter"",""1"",""2548""
","
","","","-1","","","12","16917","5140","t","elianto","#f73b6a7A","-1","-1","1","0","[]","0","2","","","16917","133","7","4","lose","no-go","0"
"pit-trial","255","1639035","0.0-138.0","battery-v0.2","","""event"",""trial"",""time""
""fullscreenenter"",""1"",""2548""
","
","
","""event"",""trial"",""time""
""fullscreenenter"",""1"",""2548""
","
","","","-1","","","12","16917","5140","n","elianto","#3366ff99"," ","-1","0","0","[]","0","2","","","16917","134","9","1","win","go","0"
"pit-trial","256","1643019","0.0-139.0","battery-v0.2","","""event"",""trial"",""time""
""fullscreenenter"",""1"",""2548""
","
","
","""event"",""trial"",""time""
""fullscreenenter"",""1"",""2548""
","
","","","1130.5999999940395","","","12","16917","5140","f","elianto","#3366ff99"," "," ","1","+10","[1981.5]","1","2","","","16917","135","8","1","win","go","0"
"pit-trial","257","1647550","0.0-140.0","battery-v0.2","","""event"",""trial"",""time""
""fullscreenenter"",""1"",""2548""
","
","
","""event"",""trial"",""time""
""fullscreenenter"",""1"",""2548""
","
","","","1678.2999999970198","","","12","16917","5140","b","elianto","#f73b6a7A"," "," ","1","0","[2529]","1","2","","","16917","136","6","3","lose","go","0"
"pit-trial","258","1651770","0.0-141.0","battery-v0.2","","""event"",""trial"",""time""
""fullscreenenter"",""1"",""2548""
","
","
","""event"",""trial"",""time""
""fullscreenenter"",""1"",""2548""
","
","","","1367.0999999940395","","","12","16917","5140","f","elianto","#3366ff99"," "," ","1","+10","[2218]","1","2","","","16917","137","8","1","win","go","0"
"pit-trial","259","1656623","0.0-142.0","battery-v0.2","","""event"",""trial"",""time""
""fullscreenenter"",""1"",""2548""
","
","
","""event"",""trial"",""time""
""fullscreenenter"",""1"",""2548""
","
","","","-1","","","12","16917","5140","t","elianto","#f73b6a7A","-1","-1","1","-10","[]","0","2","","","16917","138","7","4","lose","no-go","1"
"pit-trial","260","1661475","0.0-143.0","battery-v0.2","","""event"",""trial"",""time""
""fullscreenenter"",""1"",""2548""
","
","
","""event"",""trial"",""time""
""fullscreenenter"",""1"",""2548""
","
","","","-1","","","12","16917","5140","n","elianto","#3366ff99"," ","-1","0","+10","[]","0","2","","","16917","139","9","1","win","go","1"
"pit-trial","261","1665571","0.0-144.0","battery-v0.2","","""event"",""trial"",""time""
""fullscreenenter"",""1"",""2548""
","
","
","""event"",""trial"",""time""
""fullscreenenter"",""1"",""2548""
","
","","","1242.7999999970198","","","12","16917","5140","b","elianto","#f73b6a7A"," "," ","1","-10","[2093.2000000029802]","1","2","","","16917","140","6","3","lose","go","1"
"pit-instructions","262","1692829","0.0-145.0","battery-v0.2","","""event"",""trial"",""time""
""fullscreenenter"",""1"",""2548""
","
","
","""event"",""trial"",""time""
""fullscreenenter"",""1"",""2548""
","
","","[{""page_index"":0,""viewing_time"":18608.90000000596},{""page_index"":1,""viewing_time"":8647}]","27256.29999999702","","","","","","","","","","","","","","","","","","","","","","","",""
"pit-trial","263","1696336","0.0-146.0","battery-v0.2","","""event"",""trial"",""time""
""fullscreenenter"",""1"",""2548""
","
","
","""event"",""trial"",""time""
""fullscreenenter"",""1"",""2548""
","
","","","644.1000000089407","","","12","16917","5140","l","elianto","#3366ff99"," "," ","1","+10","[1499.2999999970198]","1","3","","","16917","141","1","1","win","go","0"
"pit-trial","264","1701201","0.0-147.0","battery-v0.2","","""event"",""trial"",""time""
""fullscreenenter"",""1"",""2548""
","
","
","""event"",""trial"",""time""
""fullscreenenter"",""1"",""2548""
","
","","","-1","","","12","16917","5140","a","elianto","#f73b6a7A","-1","-1","1","-10","[]","0","3","","","16917","142","2","4","lose","no-go","1"
"pit-trial","265","1705449","0.0-148.0","battery-v0.2","","""event"",""trial"",""time""
""fullscreenenter"",""1"",""2548""
","
","
","""event"",""trial"",""time""
""fullscreenenter"",""1"",""2548""
","
","","","1380.4000000059605","","","12","16917","5140","u","elianto","#f73b6a7A","-1"," ","0","-10","[2230.7000000029802]","1","3","","","16917","143","0","4","lose","no-go","0"
"pit-trial","266","1710311","0.0-149.0","battery-v0.2","","""event"",""trial"",""time""
""fullscreenenter"",""1"",""2548""
","
","
","""event"",""trial"",""time""
""fullscreenenter"",""1"",""2548""
","
","","","-1","","","12","16917","5140","g","elianto","#f73b6a7A"," ","-1","0","-10","[]","0","3","","","16917","144","3","3","lose","go","0"
"pit-trial","267","1713182","0.0-150.0","battery-v0.2","","""event"",""trial"",""time""
""fullscreenenter"",""1"",""2548""
","
","
