"trial_type","trial_index","time_elapsed","internal_node_id","task_version","subject_id","interactions","blur_events","focus_events","fullscreenenter_events","fullscreenexit_events","success","view_history","rt","responses","num_errors","age","subject","participantId","rune","rune_set","hex","correct","choice","accuracy","outcome","keys","total_keys","block","practice","value","sub","trial","stimulus","robot","valence","action","sham"
"pavlovia","0","78","0.0-0.0","battery-v0.2","","""event"",""trial"",""time""
""fullscreenenter"",""1"",""3210""
","
","
","""event"",""trial"",""time""
""fullscreenenter"",""1"",""3210""
","
","","","","","","","","","","","","","","","","","","","","","","","","","","",""
"fullscreen","1","4185","0.0-1.0","battery-v0.2","","""event"",""trial"",""time""
""fullscreenenter"",""1"",""3210""
","
","
","""event"",""trial"",""time""
""fullscreenenter"",""1"",""3210""
","
","true","","","","","","","","","","","","","","","","","","","","","","","","","",""
"pit-instructions","2","24230","0.0-2.0-0.0","battery-v0.2","","""event"",""trial"",""time""
""fullscreenenter"",""1"",""3210""
","
","
","""event"",""trial"",""time""
""fullscreenenter"",""1"",""3210""
","
","","[{""page_index"":0,""viewing_time"":20027.79999999999}]","20030.399999999965","","","","","","","","","","","","","","","","","","","","","","","",""
"pit-comprehension","3","27941","0.0-2.0-1.0-0.0","battery-v0.2","","""event"",""trial"",""time""
""fullscreenenter"",""1"",""3210""
","
","
","""event"",""trial"",""time""
""fullscreenenter"",""1"",""3210""
","
","","","3687.7999999999884","[""shark""]","0","18","12567","5177","","","","","","","","","","","","","","","","","","",""
"pit-instructions","4","32177","0.0-2.0-1.0-1.0","battery-v0.2","","""event"",""trial"",""time""
""fullscreenenter"",""1"",""3210""
","
","
","""event"",""trial"",""time""
""fullscreenenter"",""1"",""3210""
","
","","[{""page_index"":0,""viewing_time"":4170.400000000023}]","4172.400000000023","","","","","","","","","","","","","","","","","","","","","","","",""
"pit-comprehension","5","38276","0.0-2.0-2.0-0.0","battery-v0.2","","""event"",""trial"",""time""
""fullscreenenter"",""1"",""3210""
","
","
","""event"",""trial"",""time""
""fullscreenenter"",""1"",""3210""
","
","","","6072.5","[""tiger""]","0","18","12567","5177","","","","","","","","","","","","","","","","","","",""
"pit-instructions","6","39879","0.0-2.0-2.0-1.0","battery-v0.2","","""event"",""trial"",""time""
""fullscreenenter"",""1"",""3210""
","
","
","""event"",""trial"",""time""
""fullscreenenter"",""1"",""3210""
","
","","[{""page_index"":0,""viewing_time"":1590.899999999965}]","1592","","","","","","","","","","","","","","","","","","","","","","","",""
"pit-instructions","7","169336","0.0-2.0-3.0","battery-v0.2","","""event"",""trial"",""time""
""fullscreenenter"",""1"",""3210""
","
","
","""event"",""trial"",""time""
""fullscreenenter"",""1"",""3210""
","
","","[{""page_index"":0,""viewing_time"":12412.200000000012},{""page_index"":1,""viewing_time"":9258.599999999977},{""page_index"":2,""viewing_time"":7416.799999999988},{""page_index"":3,""viewing_time"":6536.600000000035},{""page_index"":4,""viewing_time"":8012},{""page_index"":5,""viewing_time"":7506.5},{""page_index"":6,""viewing_time"":9774.399999999965},{""page_index"":7,""viewing_time"":8911.5},{""page_index"":8,""viewing_time"":7957.700000000012},{""page_index"":9,""viewing_time"":19447.099999999977},{""page_index"":10,""viewing_time"":7336.100000000035},{""page_index"":11,""viewing_time"":11002.200000000012},{""page_index"":12,""viewing_time"":7304.299999999988},{""page_index"":13,""viewing_time"":6565.099999999977}]","129444.79999999999","","","","","","","","","","","","","","","","","","","","","","","",""
"pit-trial","8","174201","0.0-2.0-4.0-0.0","battery-v0.2","","""event"",""trial"",""time""
""fullscreenenter"",""1"",""3210""
","
","
","""event"",""trial"",""time""
""fullscreenenter"",""1"",""3210""
","
","","","-1","","","18","12567","5177","&#9784;","elianto","#FFFFF080"," ","-1","0","&#10060","[2917.7999999999884]","1","0","0","","","","","","","",""
"pit-trial","9","178153","0.0-2.0-4.1-0.1","battery-v0.2","","""event"",""trial"",""time""
""fullscreenenter"",""1"",""3210""
","
","
","""event"",""trial"",""time""
""fullscreenenter"",""1"",""3210""
","
","","","1089.2999999999884","","","18","12567","5177","&#9784;","elianto","#FFFFF080"," "," ","1","&#10004","[1939.7999999999884]","1","0","0","","","","","","","",""
"pit-trial","10","182904","0.0-2.0-4.2-0.2","battery-v0.2","","""event"",""trial"",""time""
""fullscreenenter"",""1"",""3210""
","
","
","""event"",""trial"",""time""
""fullscreenenter"",""1"",""3210""
","
","","","1880.2999999999884","","","18","12567","5177","&#9784;","elianto","#FFFFF080"," "," ","1","&#10004","[2735.4000000000233]","1","0","0","","","","","","","",""
"pit-trial","11","187770","0.0-2.0-4.3-0.3","battery-v0.2","","""event"",""trial"",""time""
""fullscreenenter"",""1"",""3210""
","
","
","""event"",""trial"",""time""
""fullscreenenter"",""1"",""3210""
","
","","","-1","","","18","12567","5177","&#9784;","elianto","#FFFFF080"," ","-1","0","&#10060","[]","0","0","0","","","","","","","",""
"pit-trial","12","191744","0.0-2.0-4.4-0.4","battery-v0.2","","""event"",""trial"",""time""
""fullscreenenter"",""1"",""3210""
","
","
","""event"",""trial"",""time""
""fullscreenenter"",""1"",""3210""
","
","","","1103.0999999999767","","","18","12567","5177","&#9784;","elianto","#FFFFF080"," "," ","1","&#10004","[1955.5]","1","0","0","","","","","","","",""
"pit-trial","13","196569","0.0-2.0-4.5-0.5","battery-v0.2","","""event"",""trial"",""time""
""fullscreenenter"",""1"",""3210""
","
","
","""event"",""trial"",""time""
""fullscreenenter"",""1"",""3210""
","
","","","1959.5999999999767","","","18","12567","5177","&#9784;","elianto","#FFFFF080"," "," ","1","&#10004","[2809.7999999999884]","1","0","0","","","","","","","",""
"pit-trial","14","201346","0.0-2.0-4.6-0.6","battery-v0.2","","""event"",""trial"",""time""
""fullscreenenter"",""1"",""3210""
","
","
","""event"",""trial"",""time""
""fullscreenenter"",""1"",""3210""
","
","","","1912.899999999965","","","18","12567","5177","&#9784;","elianto","#FFFFF080"," "," ","1","&#10004","[2763.4000000000233]","1","0","0","","","","","","","",""
"pit-instructions","15","271966","0.0-2.0-4.6-1.6-0.6","battery-v0.2","","""event"",""trial"",""time""
""fullscreenenter"",""1"",""3210""
","
","
","""event"",""trial"",""time""
""fullscreenenter"",""1"",""3210""
","
","","[{""page_index"":0,""viewing_time"":42942.20000000007},{""page_index"":1,""viewing_time"":27666.599999999977}]","70611.80000000005","","","","","","","","","","","","","","","","","","","","","","","",""
"pit-instructions","16","311714","0.0-2.0-5.0","battery-v0.2","","""event"",""trial"",""time""
""fullscreenenter"",""1"",""3210""
","
","
","""event"",""trial"",""time""
""fullscreenenter"",""1"",""3210""
","
","","[{""page_index"":0,""viewing_time"":12216.400000000023},{""page_index"":1,""viewing_time"":14009.199999999953},{""page_index"":2,""viewing_time"":6095.699999999953},{""page_index"":3,""viewing_time"":7412.70000000007}]","39735.79999999993","","","","","","","","","","","","","","","","","","","","","","","",""
"pit-trial","17","316580","0.0-2.0-6.0-0.0","battery-v0.2","","""event"",""trial"",""time""
""fullscreenenter"",""1"",""3210""
","
","
","""event"",""trial"",""time""
""fullscreenenter"",""1"",""3210""
","
","","","-1","","","18","12567","5177","&#9854;","elianto","#FFFFF080","-1","-1","1","&#10004","[]","0","0","1","","","","","","","",""
"pit-trial","18","321450","0.0-2.0-6.1-0.1","battery-v0.2","","""event"",""trial"",""time""
""fullscreenenter"",""1"",""3210""
","
","
","""event"",""trial"",""time""
""fullscreenenter"",""1"",""3210""
","
","","","-1","","","18","12567","5177","&#9854;","elianto","#FFFFF080","-1","-1","1","&#10004","[]","0","0","1","","","","","","","",""
"pit-trial","19","326321","0.0-2.0-6.2-0.2","battery-v0.2","","""event"",""trial"",""time""
""fullscreenenter"",""1"",""3210""
","
","
","""event"",""trial"",""time""
""fullscreenenter"",""1"",""3210""
","
","","","-1","","","18","12567","5177","&#9854;","elianto","#FFFFF080","-1","-1","1","&#10004","[]","0","0","1","","","","","","","",""
"pit-trial","20","331186","0.0-2.0-6.3-0.3","battery-v0.2","","""event"",""trial"",""time""
""fullscreenenter"",""1"",""3210""
","
","
","""event"",""trial"",""time""
""fullscreenenter"",""1"",""3210""
","
","","","-1","","","18","12567","5177","&#9854;","elianto","#FFFFF080","-1","-1","1","&#10004","[]","0","0","1","","","","","","","",""
"pit-trial","21","336050","0.0-2.0-6.4-0.4","battery-v0.2","","""event"",""trial"",""time""
""fullscreenenter"",""1"",""3210""
","
","
","""event"",""trial"",""time""
""fullscreenenter"",""1"",""3210""
","
","","","-1","","","18","12567","5177","&#9854;","elianto","#FFFFF080","-1","-1","1","&#10004","[]","0","0","1","","","","","","","",""
"pit-instructions","22","479749","0.0-2.0-7.0","battery-v0.2","","""event"",""trial"",""time""
""fullscreenenter"",""1"",""3210""
","
","
","""event"",""trial"",""time""
""fullscreenenter"",""1"",""3210""
","
","","[{""page_index"":0,""viewing_time"":7987.900000000023},{""page_index"":1,""viewing_time"":8895.800000000047},{""page_index"":2,""viewing_time"":7049.199999999953},{""page_index"":3,""viewing_time"":8221.099999999977},{""page_index"":4,""viewing_time"":6441.70000000007},{""page_index"":5,""viewing_time"":8160.29999999993},{""page_index"":6,""viewing_time"":5895.400000000023},{""page_index"":7,""viewing_time"":9948},{""page_index"":8,""viewing_time"":7714.5},{""page_index"":9,""viewing_time"":6776.800000000047},{""page_index"":10,""viewing_time"":8026.79999999993},{""page_index"":11,""viewing_time"":5132.599999999977},{""page_index"":12,""viewing_time"":8405.900000000023},{""page_index"":13,""viewing_time"":9757.70000000007},{""page_index"":14,""viewing_time"":8575.699999999953},{""page_index"":15,""viewing_time"":8745.5},{""page_index"":16,""viewing_time"":8715.900000000023},{""page_index"":17,""viewing_time"":9230.699999999953}]","143682.80000000005","","","","","","","","","","","","","","","","","","","","","","","",""
"pit-trial","23","483621","0.0-2.0-8.0-0.0","battery-v0.2","","""event"",""trial"",""time""
""fullscreenenter"",""1"",""3210""
","
","
","""event"",""trial"",""time""
""fullscreenenter"",""1"",""3210""
","
","","","1009.8000000000466","","","18","12567","5177","&#9776;","elianto","#3366ff99"," "," ","1","+10","[1859.6999999999534]","1","0","1","","","","","","","",""
"pit-trial","24","487482","0.0-2.0-8.0-1.0","battery-v0.2","","""event"",""trial"",""time""
""fullscreenenter"",""1"",""3210""
","
","
","""event"",""trial"",""time""
""fullscreenenter"",""1"",""3210""
","
","","","998.0999999999767","","","18","12567","5177","&#9776;","elianto","#3366ff99"," "," ","1","+10","[1848.3000000000466]","1","0","1","","","","","","","",""
"pit-trial","25","491136","0.0-2.0-8.0-2.0","battery-v0.2","","""event"",""trial"",""time""
""fullscreenenter"",""1"",""3210""
","
","
","""event"",""trial"",""time""
""fullscreenenter"",""1"",""3210""
","
","","","787.6000000000931","","","18","12567","5177","&#9776;","elianto","#3366ff99"," "," ","1","+10","[1637.5999999999767]","1","0","1","","","","","","","",""
"pit-trial","26","494859","0.0-2.0-8.0-3.0","battery-v0.2","","""event"",""trial"",""time""
""fullscreenenter"",""1"",""3210""
","
","
","""event"",""trial"",""time""
""fullscreenenter"",""1"",""3210""
","
","","","863.9000000000233","","","18","12567","5177","&#9776;","elianto","#3366ff99"," "," ","1","0","[1714.1999999999534]","1","0","1","","","","","","","",""
"pit-trial","27","498490","0.0-2.0-8.0-4.0","battery-v0.2","","""event"",""trial"",""time""
""fullscreenenter"",""1"",""3210""
","
","
","""event"",""trial"",""time""
""fullscreenenter"",""1"",""3210""
","
","","","765.5999999999767","","","18","12567","5177","&#9776;","elianto","#3366ff99"," "," ","1","+10","[1620.5]","1","0","1","","","","","","","",""
"pit-trial","28","502267","0.0-2.0-8.1-0.1","battery-v0.2","","""event"",""trial"",""time""
""fullscreenenter"",""1"",""3210""
","
","
","""event"",""trial"",""time""
""fullscreenenter"",""1"",""3210""
","
","","","911.0999999999767","","","18","12567","5177","&#9776;","elianto","#3366ff99"," "," ","1","+10","[1761.1000000000931]","1","0","1","","","","","","","",""
"pit-trial","29","506134","0.0-2.0-8.1-1.1","battery-v0.2","","""event"",""trial"",""time""
""fullscreenenter"",""1"",""3210""
","
","
","""event"",""trial"",""time""
""fullscreenenter"",""1"",""3210""
","
","","","1005.5","","","18","12567","5177","&#9776;","elianto","#3366ff99"," "," ","1","+10","[1855.4000000000233]","1","0","1","","","","","","","",""
"pit-trial","30","509757","0.0-2.0-8.1-2.1","battery-v0.2","","""event"",""trial"",""time""
""fullscreenenter"",""1"",""3210""
","
","
","""event"",""trial"",""time""
""fullscreenenter"",""1"",""3210""
","
","","","761.1999999999534","","","18","12567","5177","&#9776;","elianto","#3366ff99"," "," ","1","+10","[1611.1000000000931]","1","0","1","","","","","","","",""
"pit-trial","31","513388","0.0-2.0-8.1-3.1","battery-v0.2","","""event"",""trial"",""time""
""fullscreenenter"",""1"",""3210""
","
","
","""event"",""trial"",""time""
""fullscreenenter"",""1"",""3210""
","
","","","763.1000000000931","","","18","12567","5177","&#9776;","elianto","#3366ff99"," "," ","1","0","[1613.7999999999302]","1","0","1","","","","","","","",""
"pit-trial","32","517062","0.0-2.0-8.1-4.1","battery-v0.2","","""event"",""trial"",""time""
""fullscreenenter"",""1"",""3210""
","
","
","""event"",""trial"",""time""
""fullscreenenter"",""1"",""3210""
","
","","","804.2000000000698","","","18","12567","5177","&#9776;","elianto","#3366ff99"," "," ","1","+10","[1657.6999999999534]","1","0","1","","","","","","","",""
"pit-trial","33","520742","0.0-2.0-8.2-0.2","battery-v0.2","","""event"",""trial"",""time""
""fullscreenenter"",""1"",""3210""
","
","
","""event"",""trial"",""time""
""fullscreenenter"",""1"",""3210""
","
","","","816.9000000000233","","","18","12567","5177","&#9776;","elianto","#3366ff99"," "," ","1","+10","[1666.9000000000233]","1","0","1","","","","","","","",""
"pit-trial","34","524541","0.0-2.0-8.2-1.2","battery-v0.2","","""event"",""trial"",""time""
""fullscreenenter"",""1"",""3210""
","
","
","""event"",""trial"",""time""
""fullscreenenter"",""1"",""3210""
","
","","","932.1999999999534","","","18","12567","5177","&#9776;","elianto","#3366ff99"," "," ","1","+10","[1787.5999999999767]","1","0","1","","","","","","","",""
"pit-trial","35","528173","0.0-2.0-8.2-2.2","battery-v0.2","","""event"",""trial"",""time""
""fullscreenenter"",""1"",""3210""
","
","
","""event"",""trial"",""time""
""fullscreenenter"",""1"",""3210""
","
","","","763.4000000000233","","","18","12567","5177","&#9776;","elianto","#3366ff99"," "," ","1","+10","[1616.3000000000466]","1","0","1","","","","","","","",""
"pit-trial","36","531655","0.0-2.0-8.2-3.2","battery-v0.2","","""event"",""trial"",""time""
""fullscreenenter"",""1"",""3210""
","
","
","""event"",""trial"",""time""
""fullscreenenter"",""1"",""3210""
","
","","","614.7999999999302","","","18","12567","5177","&#9776;","elianto","#3366ff99"," "," ","1","0","[1467.6999999999534]","1","0","1","","","","","","","",""
"pit-trial","37","535209","0.0-2.0-8.2-4.2","battery-v0.2","","""event"",""trial"",""time""
""fullscreenenter"",""1"",""3210""
","
","
","""event"",""trial"",""time""
""fullscreenenter"",""1"",""3210""
","
","","","685.3000000000466","","","18","12567","5177","&#9776;","elianto","#3366ff99"," "," ","1","+10","[1538.1000000000931]","1","0","1","","","","","","","",""
"call-function","38","535219","0.0-2.0-9.0","battery-v0.2","","""event"",""trial"",""time""
""fullscreenenter"",""1"",""3210""
","
","
","""event"",""trial"",""time""
""fullscreenenter"",""1"",""3210""
","
","","","","","","","","","","","","","","","","","","","","","","","","","","",""
"pit-instructions","39","586020","0.0-2.0-10.0","battery-v0.2","","""event"",""trial"",""time""
""fullscreenenter"",""1"",""3210""
","
","
","""event"",""trial"",""time""
""fullscreenenter"",""1"",""3210""
","
","","[{""page_index"":0,""viewing_time"":7743.099999999977},{""page_index"":1,""viewing_time"":9056.099999999977},{""page_index"":2,""viewing_time"":10794.300000000047},{""page_index"":3,""viewing_time"":11679.400000000023},{""page_index"":4,""viewing_time"":11523.79999999993}]","50798.69999999995","","","","","","","","","","","","","","","","","","","","","","","",""
"pit-trial","40","589719","0.0-2.0-11.0-0.0","battery-v0.2","","""event"",""trial"",""time""
""fullscreenenter"",""1"",""3210""
","
","
","""event"",""trial"",""time""
""fullscreenenter"",""1"",""3210""
","
","","","838.1999999999534","","","18","12567","5177","&#9761;","elianto","#3366ff99","-1"," ","0","0","[1688.3000000000466]","1","0","2","","","","","","","",""
"pit-trial","41","593283","0.0-2.0-11.0-1.0","battery-v0.2","","""event"",""trial"",""time""
""fullscreenenter"",""1"",""3210""
","
","
","""event"",""trial"",""time""
""fullscreenenter"",""1"",""3210""
","
","","","698.6999999999534","","","18","12567","5177","&#9761;","elianto","#3366ff99","-1"," ","0","0","[1552.9000000000233]","1","0","2","","","","","","","",""
"pit-trial","42","598144","0.0-2.0-11.0-2.0","battery-v0.2","","""event"",""trial"",""time""
""fullscreenenter"",""1"",""3210""
","
","
","""event"",""trial"",""time""
""fullscreenenter"",""1"",""3210""
","
","","","-1","","","18","12567","5177","&#9761;","elianto","#3366ff99","-1","-1","1","+10","[]","0","0","2","","","","","","","",""
"pit-trial","43","601669","0.0-2.0-11.0-3.0","battery-v0.2","","""event"",""trial"",""time""
""fullscreenenter"",""1"",""3210""
","
","
","""event"",""trial"",""time""
""fullscreenenter"",""1"",""3210""
","
","","","659.3000000000466","","","18","12567","5177","&#9761;","elianto","#3366ff99","-1"," ","0","+10","[1509.7000000000698]","1","0","2","","","","","","","",""
"pit-trial","44","605425","0.0-2.0-11.0-4.0","battery-v0.2","","""event"",""trial"",""time""
""fullscreenenter"",""1"",""3210""
","
","
","""event"",""trial"",""time""
""fullscreenenter"",""1"",""3210""
","
","","","885.4000000000233","","","18","12567","5177","&#9761;","elianto","#3366ff99","-1"," ","0","0","[1742.5999999999767]","1","0","2","","","","","","","",""
"pit-trial","45","610145","0.0-2.0-11.1-0.1","battery-v0.2","","""event"",""trial"",""time""
""fullscreenenter"",""1"",""3210""
","
","
","""event"",""trial"",""time""
""fullscreenenter"",""1"",""3210""
","
","","","1856.4000000000233","","","18","12567","5177","&#9761;","elianto","#3366ff99","-1"," ","0","0","[2707]","1","0","2","","","","","","","",""
"pit-trial","46","614132","0.0-2.0-11.1-1.1","battery-v0.2","","""event"",""trial"",""time""
""fullscreenenter"",""1"",""3210""
","
","
","""event"",""trial"",""time""
""fullscreenenter"",""1"",""3210""
","
","","","1123.5","","","18","12567","5177","&#9761;","elianto","#3366ff99","-1"," ","0","0","[1973.4000000000233]","1","0","2","","","","","","","",""
"pit-trial","47","617932","0.0-2.0-11.1-2.1","battery-v0.2","","""event"",""trial"",""time""
""fullscreenenter"",""1"",""3210""
","
","
","""event"",""trial"",""time""
""fullscreenenter"",""1"",""3210""
","
","","","940.5","","","18","12567","5177","&#9761;","elianto","#3366ff99","-1"," ","0","0","[1790.3999999999069]","1","0","2","","","","","","","",""
"pit-trial","48","622027","0.0-2.0-11.1-3.1","battery-v0.2","","""event"",""trial"",""time""
""fullscreenenter"",""1"",""3210""
","
","
","""event"",""trial"",""time""
""fullscreenenter"",""1"",""3210""
","
","","","1233.6999999999534","","","18","12567","5177","&#9761;","elianto","#3366ff99","-1"," ","0","+10","[2084.4000000000233]","1","0","2","","","","","","","",""
"pit-trial","49","626892","0.0-2.0-11.1-4.1","battery-v0.2","","""event"",""trial"",""time""
""fullscreenenter"",""1"",""3210""
","
","
","""event"",""trial"",""time""
""fullscreenenter"",""1"",""3210""
","
","","","-1","","","18","12567","5177","&#9761;","elianto","#3366ff99","-1","-1","1","+10","[]","0","0","2","","","","","","","",""
"pit-trial","50","631757","0.0-2.0-11.2-0.2","battery-v0.2","","""event"",""trial"",""time""
""fullscreenenter"",""1"",""3210""
","
","
","""event"",""trial"",""time""
""fullscreenenter"",""1"",""3210""
","
","","","-1","","","18","12567","5177","&#9761;","elianto","#3366ff99","-1","-1","1","+10","[]","0","0","2","","","","","","","",""
"pit-trial","51","635495","0.0-2.0-11.2-1.2","battery-v0.2","","""event"",""trial"",""time""
""fullscreenenter"",""1"",""3210""
","
","
","""event"",""trial"",""time""
""fullscreenenter"",""1"",""3210""
","
","","","874.0999999999767","","","18","12567","5177","&#9761;","elianto","#3366ff99","-1"," ","0","0","[1725]","1","0","2","","","","","","","",""
"pit-trial","52","639228","0.0-2.0-11.2-2.2","battery-v0.2","","""event"",""trial"",""time""
""fullscreenenter"",""1"",""3210""
","
","
","""event"",""trial"",""time""
""fullscreenenter"",""1"",""3210""
","
","","","868.9000000000233","","","18","12567","5177","&#9761;","elianto","#3366ff99","-1"," ","0","0","[1718.8000000000466]","1","0","2","","","","","","","",""
"pit-trial","53","642867","0.0-2.0-11.2-3.2","battery-v0.2","","""event"",""trial"",""time""
""fullscreenenter"",""1"",""3210""
","
","
","""event"",""trial"",""time""
""fullscreenenter"",""1"",""3210""
","
","","","774","","","18","12567","5177","&#9761;","elianto","#3366ff99","-1"," ","0","+10","[1625]","1","0","2","","","","","","","",""
"pit-trial","54","646290","0.0-2.0-11.2-4.2","battery-v0.2","","""event"",""trial"",""time""
""fullscreenenter"",""1"",""3210""
","
","
","""event"",""trial"",""time""
""fullscreenenter"",""1"",""3210""
","
","","","555.8000000000466","","","18","12567","5177","&#9761;","elianto","#3366ff99","-1"," ","0","0","[1409.0999999999767]","1","0","2","","","","","","","",""
"pit-trial","55","649686","0.0-2.0-11.3-0.3","battery-v0.2","","""event"",""trial"",""time""
""fullscreenenter"",""1"",""3210""
","
","
","""event"",""trial"",""time""
""fullscreenenter"",""1"",""3210""
","
","","","529.1000000000931","","","18","12567","5177","&#9761;","elianto","#3366ff99","-1"," ","0","0","[1379.5]","1","0","2","","","","","","","",""
"pit-trial","56","653210","0.0-2.0-11.3-1.3","battery-v0.2","","""event"",""trial"",""time""
""fullscreenenter"",""1"",""3210""
","
","
","""event"",""trial"",""time""
""fullscreenenter"",""1"",""3210""
","
","","","658.2000000000698","","","18","12567","5177","&#9761;","elianto","#3366ff99","-1"," ","0","0","[1508,1687.5999999999767]","2","0","2","","","","","","","",""
"pit-trial","57","657109","0.0-2.0-11.3-2.3","battery-v0.2","","""event"",""trial"",""time""
""fullscreenenter"",""1"",""3210""
","
","
","""event"",""trial"",""time""
""fullscreenenter"",""1"",""3210""
","
","","","1034.5999999999767","","","18","12567","5177","&#9761;","elianto","#3366ff99","-1"," ","0","0","[1885.0999999999767]","1","0","2","","","","","","","",""
"pit-trial","58","661007","0.0-2.0-11.3-3.3","battery-v0.2","","""event"",""trial"",""time""
""fullscreenenter"",""1"",""3210""
","
","
","""event"",""trial"",""time""
""fullscreenenter"",""1"",""3210""
","
","","","1037.9000000000233","","","18","12567","5177","&#9761;","elianto","#3366ff99","-1"," ","0","+10","[1888]","1","0","2","","","","","","","",""
"pit-trial","59","664730","0.0-2.0-11.3-4.3","battery-v0.2","","""event"",""trial"",""time""
""fullscreenenter"",""1"",""3210""
","
","
","""event"",""trial"",""time""
""fullscreenenter"",""1"",""3210""
","
","","","859.8000000000466","","","18","12567","5177","&#9761;","elianto","#3366ff99","-1"," ","0","0","[1709.7999999999302]","1","0","2","","","","","","","",""
"call-function","60","664742","0.0-2.0-12.0","battery-v0.2","","""event"",""trial"",""time""
""fullscreenenter"",""1"",""3210""
","
","
","""event"",""trial"",""time""
""fullscreenenter"",""1"",""3210""
","
","","","","","","","","","","","","","","","","","","","","","","","","","","",""
"pit-instructions","61","708348","0.0-2.0-13.0","battery-v0.2","","""event"",""trial"",""time""
""fullscreenenter"",""1"",""3210""
","
","
","""event"",""trial"",""time""
""fullscreenenter"",""1"",""3210""
","
","","[{""page_index"":0,""viewing_time"":7793.199999999953},{""page_index"":1,""viewing_time"":10850.400000000023},{""page_index"":2,""viewing_time"":5710.699999999953},{""page_index"":3,""viewing_time"":13255.400000000023},{""page_index"":4,""viewing_time"":5992.70000000007}]","43604.40000000002","","","","","","","","","","","","","","","","","","","","","","","",""
"pit-trial","62","712085","0.0-2.0-14.0-0.0","battery-v0.2","","""event"",""trial"",""time""
""fullscreenenter"",""1"",""3210""
","
","
","""event"",""trial"",""time""
""fullscreenenter"",""1"",""3210""
","
","","","867.9000000000233","","","18","12567","5177","&#9826;","elianto","#f73b6a7A","-1"," ","0","-10","[1722.6999999999534]","1","0","3","","","","","","","",""
"pit-trial","63","716947","0.0-2.0-14.0-1.0","battery-v0.2","","""event"",""trial"",""time""
""fullscreenenter"",""1"",""3210""
","
","
","""event"",""trial"",""time""
""fullscreenenter"",""1"",""3210""
","
","","","-1","","","18","12567","5177","&#9826;","elianto","#f73b6a7A","-1","-1","1","0","[]","0","0","3","","","","","","","",""
"pit-trial","64","721810","0.0-2.0-14.0-2.0","battery-v0.2","","""event"",""trial"",""time""
""fullscreenenter"",""1"",""3210""
","
","
","""event"",""trial"",""time""
""fullscreenenter"",""1"",""3210""
","
","","","-1","","","18","12567","5177","&#9826;","elianto","#f73b6a7A","-1","-1","1","0","[]","0","0","3","","","","","","","",""
"pit-trial","65","726669","0.0-2.0-14.0-3.0","battery-v0.2","","""event"",""trial"",""time""
""fullscreenenter"",""1"",""3210""
","
","
","""event"",""trial"",""time""
""fullscreenenter"",""1"",""3210""
","
","","","-1","","","18","12567","5177","&#9826;","elianto","#f73b6a7A","-1","-1","1","-10","[]","0","0","3","","","","","","","",""
"pit-trial","66","731529","0.0-2.0-14.0-4.0","battery-v0.2","","""event"",""trial"",""time""
""fullscreenenter"",""1"",""3210""
","
","
","""event"",""trial"",""time""
""fullscreenenter"",""1"",""3210""
","
","","","-1","","","18","12567","5177","&#9826;","elianto","#f73b6a7A","-1","-1","1","0","[]","0","0","3","","","","","","","",""
"pit-trial","67","736392","0.0-2.0-14.1-0.1","battery-v0.2","","""event"",""trial"",""time""
""fullscreenenter"",""1"",""3210""
","
","
","""event"",""trial"",""time""
""fullscreenenter"",""1"",""3210""
","
","","","-1","","","18","12567","5177","&#9826;","elianto","#f73b6a7A","-1","-1","1","0","[]","0","0","3","","","","","","","",""
"pit-trial","68","739791","0.0-2.0-14.1-1.1","battery-v0.2","","""event"",""trial"",""time""
""fullscreenenter"",""1"",""3210""
","
","
","""event"",""trial"",""time""
""fullscreenenter"",""1"",""3210""
","
","","","535.8000000000466","","","18","12567","5177","&#9826;","elianto","#f73b6a7A","-1"," ","0","-10","[1386]","1","0","3","","","","","","","",""
"pit-trial","69","744654","0.0-2.0-14.1-2.1","battery-v0.2","","""event"",""trial"",""time""
""fullscreenenter"",""1"",""3210""
","
","
","""event"",""trial"",""time""
""fullscreenenter"",""1"",""3210""
","
","","","-1","","","18","12567","5177","&#9826;","elianto","#f73b6a7A","-1","-1","1","0","[]","0","0","3","","","","","","","",""
"pit-trial","70","749518","0.0-2.0-14.1-3.1","battery-v0.2","","""event"",""trial"",""time""
""fullscreenenter"",""1"",""3210""
","
","
","""event"",""trial"",""time""
""fullscreenenter"",""1"",""3210""
","
","","","-1","","","18","12567","5177","&#9826;","elianto","#f73b6a7A","-1","-1","1","-10","[]","0","0","3","","","","","","","",""
"pit-trial","71","754383","0.0-2.0-14.1-4.1","battery-v0.2","","""event"",""trial"",""time""
""fullscreenenter"",""1"",""3210""
","
","
","""event"",""trial"",""time""
""fullscreenenter"",""1"",""3210""
","
","","","-1","","","18","12567","5177","&#9826;","elianto","#f73b6a7A","-1","-1","1","0","[]","0","0","3","","","","","","","",""
"pit-trial","72","759256","0.0-2.0-14.2-0.2","battery-v0.2","","""event"",""trial"",""time""
""fullscreenenter"",""1"",""3210""
","
","
","""event"",""trial"",""time""
""fullscreenenter"",""1"",""3210""
","
","","","-1","","","18","12567","5177","&#9826;","elianto","#f73b6a7A","-1","-1","1","0","[]","0","0","3","","","","","","","",""
"pit-trial","73","764120","0.0-2.0-14.2-1.2","battery-v0.2","","""event"",""trial"",""time""
""fullscreenenter"",""1"",""3210""
","
","
","""event"",""trial"",""time""
""fullscreenenter"",""1"",""3210""
","
","","","-1","","","18","12567","5177","&#9826;","elianto","#f73b6a7A","-1","-1","1","0","[]","0","0","3","","","","","","","",""
"pit-trial","74","768986","0.0-2.0-14.2-2.2","battery-v0.2","","""event"",""trial"",""time""
""fullscreenenter"",""1"",""3210""
","
","
","""event"",""trial"",""time""
""fullscreenenter"",""1"",""3210""
","
","","","-1","","","18","12567","5177","&#9826;","elianto","#f73b6a7A","-1","-1","1","0","[]","0","0","3","","","","","","","",""
"pit-trial","75","773848","0.0-2.0-14.2-3.2","battery-v0.2","","""event"",""trial"",""time""
""fullscreenenter"",""1"",""3210""
","
","
","""event"",""trial"",""time""
""fullscreenenter"",""1"",""3210""
","
","","","-1","","","18","12567","5177","&#9826;","elianto","#f73b6a7A","-1","-1","1","-10","[]","0","0","3","","","","","","","",""
"pit-trial","76","778711","0.0-2.0-14.2-4.2","battery-v0.2","","""event"",""trial"",""time""
""fullscreenenter"",""1"",""3210""
","
","
","""event"",""trial"",""time""
""fullscreenenter"",""1"",""3210""
","
","","","-1","","","18","12567","5177","&#9826;","elianto","#f73b6a7A","-1","-1","1","0","[]","0","0","3","","","","","","","",""
"pit-trial","77","783581","0.0-2.0-14.3-0.3","battery-v0.2","","""event"",""trial"",""time""
""fullscreenenter"",""1"",""3210""
","
","
","""event"",""trial"",""time""
""fullscreenenter"",""1"",""3210""
","
","","","-1","","","18","12567","5177","&#9826;","elianto","#f73b6a7A","-1","-1","1","0","[]","0","0","3","","","","","","","",""
"pit-trial","78","788446","0.0-2.0-14.3-1.3","battery-v0.2","","""event"",""trial"",""time""
""fullscreenenter"",""1"",""3210""
","
","
","""event"",""trial"",""time""
""fullscreenenter"",""1"",""3210""
","
","","","-1","","","18","12567","5177","&#9826;","elianto","#f73b6a7A","-1","-1","1","0","[]","0","0","3","","","","","","","",""
"pit-trial","79","793312","0.0-2.0-14.3-2.3","battery-v0.2","","""event"",""trial"",""time""
""fullscreenenter"",""1"",""3210""
","
","
","""event"",""trial"",""time""
""fullscreenenter"",""1"",""3210""
","
","","","-1","","","18","12567","5177","&#9826;","elianto","#f73b6a7A","-1","-1","1","0","[]","0","0","3","","","","","","","",""
"pit-trial","80","798175","0.0-2.0-14.3-3.3","battery-v0.2","","""event"",""trial"",""time""
""fullscreenenter"",""1"",""3210""
","
","
","""event"",""trial"",""time""
""fullscreenenter"",""1"",""3210""
","
","","","-1","","","18","12567","5177","&#9826;","elianto","#f73b6a7A","-1","-1","1","-10","[]","0","0","3","","","","","","","",""
"pit-trial","81","803038","0.0-2.0-14.3-4.3","battery-v0.2","","""event"",""trial"",""time""
""fullscreenenter"",""1"",""3210""
","
","
","""event"",""trial"",""time""
""fullscreenenter"",""1"",""3210""
","
","","","-1","","","18","12567","5177","&#9826;","elianto","#f73b6a7A","-1","-1","1","0","[]","0","0","3","","","","","","","",""
"call-function","82","803046","0.0-2.0-15.0","battery-v0.2","","""event"",""trial"",""time""
""fullscreenenter"",""1"",""3210""
","
","
","""event"",""trial"",""time""
""fullscreenenter"",""1"",""3210""
","
","","","","","","","","","","","","","","","","","","","","","","","","","","",""
"pit-instructions","83","860190","0.0-2.0-16.0","battery-v0.2","","""event"",""trial"",""time""
""fullscreenenter"",""1"",""3210""
","
","
","""event"",""trial"",""time""
""fullscreenenter"",""1"",""3210""
","
","","[{""page_index"":0,""viewing_time"":32231.399999999907},{""page_index"":1,""viewing_time"":11147.699999999953},{""page_index"":2,""viewing_time"":5947.700000000186},{""page_index"":3,""viewing_time"":7811.399999999907}]","57140.89999999991","","","","","","","","","","","","","","","","","","","","","","","",""
"pit-trial","84","863755","0.0-2.0-17.0-0.0","battery-v0.2","","""event"",""trial"",""time""
""fullscreenenter"",""1"",""3210""
","
","
","""event"",""trial"",""time""
""fullscreenenter"",""1"",""3210""
","
","","","707.3000000000466","","","18","12567","5177","&#9789;","elianto","#f73b6a7A"," "," ","1","0","[1557.5]","1","0","4","","","","","","","",""
"pit-trial","85","867219","0.0-2.0-17.0-1.0","battery-v0.2","","""event"",""trial"",""time""
""fullscreenenter"",""1"",""3210""
","
","
","""event"",""trial"",""time""
""fullscreenenter"",""1"",""3210""
","
","","","602","","","18","12567","5177","&#9789;","elianto","#f73b6a7A"," "," ","1","0","[1452.1000000000931]","1","0","4","","","","","","","",""
"pit-trial","86","870766","0.0-2.0-17.0-2.0","battery-v0.2","","""event"",""trial"",""time""
""fullscreenenter"",""1"",""3210""
","
","
","""event"",""trial"",""time""
""fullscreenenter"",""1"",""3210""
","
","","","680","","","18","12567","5177","&#9789;","elianto","#f73b6a7A"," "," ","1","0","[1531.5]","1","0","4","","","","","","","",""
"pit-trial","87","874309","0.0-2.0-17.0-3.0","battery-v0.2","","""event"",""trial"",""time""
""fullscreenenter"",""1"",""3210""
","
","
","""event"",""trial"",""time""
""fullscreenenter"",""1"",""3210""
","
","","","682.8999999999069","","","18","12567","5177","&#9789;","elianto","#f73b6a7A"," "," ","1","-10","[1533.8000000000466]","1","0","4","","","","","","","",""
"pit-trial","88","877700","0.0-2.0-17.0-4.0","battery-v0.2","","""event"",""trial"",""time""
""fullscreenenter"",""1"",""3210""
","
","
","""event"",""trial"",""time""
""fullscreenenter"",""1"",""3210""
","
","","","526.1000000000931","","","18","12567","5177","&#9789;","elianto","#f73b6a7A"," "," ","1","0","[1376.1000000000931]","1","0","4","","","","","","","",""
"pit-trial","89","881087","0.0-2.0-17.1-0.1","battery-v0.2","","""event"",""trial"",""time""
""fullscreenenter"",""1"",""3210""
","
","
","""event"",""trial"",""time""
""fullscreenenter"",""1"",""3210""
","
","","","523.3999999999069","","","18","12567","5177","&#9789;","elianto","#f73b6a7A"," "," ","1","0","[1373.3999999999069]","1","0","4","","","","","","","",""
"pit-trial","90","884531","0.0-2.0-17.1-1.1","battery-v0.2","","""event"",""trial"",""time""
""fullscreenenter"",""1"",""3210""
","
","
","""event"",""trial"",""time""
""fullscreenenter"",""1"",""3210""
","
","","","579.0999999998603","","","18","12567","5177","&#9789;","elianto","#f73b6a7A"," "," ","1","0","[1429.7999999998137]","1","0","4","","","","","","","",""
"pit-trial","91","888238","0.0-2.0-17.1-2.1","battery-v0.2","","""event"",""trial"",""time""
""fullscreenenter"",""1"",""3210""
","
","
","""event"",""trial"",""time""
""fullscreenenter"",""1"",""3210""
","
","","","841.3000000000466","","","18","12567","5177","&#9789;","elianto","#f73b6a7A"," "," ","1","0","[1691]","1","0","4","","","","","","","",""
"pit-trial","92","891654","0.0-2.0-17.1-3.1","battery-v0.2","","""event"",""trial"",""time""
""fullscreenenter"",""1"",""3210""
","
","
","""event"",""trial"",""time""
""fullscreenenter"",""1"",""3210""
","
","","","551.3000000000466","","","18","12567","5177","&#9789;","elianto","#f73b6a7A"," "," ","1","-10","[1401.3999999999069]","1","0","4","","","","","","","",""
"pit-trial","93","895082","0.0-2.0-17.1-4.1","battery-v0.2","","""event"",""trial"",""time""
""fullscreenenter"",""1"",""3210""
","
","
","""event"",""trial"",""time""
""fullscreenenter"",""1"",""3210""
","
","","","567.2999999998137","","","18","12567","5177","&#9789;","elianto","#f73b6a7A"," "," ","1","0","[1417.5]","1","0","4","","","","","","","",""
"pit-trial","94","898502","0.0-2.0-17.2-0.2","battery-v0.2","","""event"",""trial"",""time""
""fullscreenenter"",""1"",""3210""
","
","
","""event"",""trial"",""time""
""fullscreenenter"",""1"",""3210""
","
","","","552.5","","","18","12567","5177","&#9789;","elianto","#f73b6a7A"," "," ","1","0","[1403.5]","1","0","4","","","","","","","",""
"pit-trial","95","901845","0.0-2.0-17.2-1.2","battery-v0.2","","""event"",""trial"",""time""
""fullscreenenter"",""1"",""3210""
","
","
","""event"",""trial"",""time""
""fullscreenenter"",""1"",""3210""
","
","","","485.4000000001397","","","18","12567","5177","&#9789;","elianto","#f73b6a7A"," "," ","1","0","[1336.1999999999534]","1","0","4","","","","","","","",""
"pit-trial","96","905144","0.0-2.0-17.2-2.2","battery-v0.2","","""event"",""trial"",""time""
""fullscreenenter"",""1"",""3210""
","
","
","""event"",""trial"",""time""
""fullscreenenter"",""1"",""3210""
","
","","","434.5","","","18","12567","5177","&#9789;","elianto","#f73b6a7A"," "," ","1","0","[1284.6000000000931]","1","0","4","","","","","","","",""
"pit-trial","97","909129","0.0-2.0-17.2-3.2","battery-v0.2","","""event"",""trial"",""time""
""fullscreenenter"",""1"",""3210""
","
","
","""event"",""trial"",""time""
""fullscreenenter"",""1"",""3210""
","
","","","1123.1000000000931","","","18","12567","5177","&#9789;","elianto","#f73b6a7A"," "," ","1","-10","[1973.0999999998603]","1","0","4","","","","","","","",""
"pit-trial","98","912838","0.0-2.0-17.2-4.2","battery-v0.2","","""event"",""trial"",""time""
""fullscreenenter"",""1"",""3210""
","
","
","""event"",""trial"",""time""
""fullscreenenter"",""1"",""3210""
","
","","","845.2000000001863","","","18","12567","5177","&#9789;","elianto","#f73b6a7A"," "," ","1","0","[1695.5]","1","0","4","","","","","","","",""
"pit-trial","99","916453","0.0-2.0-17.3-0.3","battery-v0.2","","""event"",""trial"",""time""
""fullscreenenter"",""1"",""3210""
","
","
","""event"",""trial"",""time""
""fullscreenenter"",""1"",""3210""
","
","","","749.3999999999069","","","18","12567","5177","&#9789;","elianto","#f73b6a7A"," "," ","1","0","[1599.8000000000466]","1","0","4","","","","","","","",""
"pit-trial","100","919891","0.0-2.0-17.3-1.3","battery-v0.2","","""event"",""trial"",""time""
""fullscreenenter"",""1"",""3210""
","
","
","""event"",""trial"",""time""
""fullscreenenter"",""1"",""3210""
","
","","","577.1999999999534","","","18","12567","5177","&#9789;","elianto","#f73b6a7A"," "," ","1","0","[1427.4000000001397]","1","0","4","","","","","","","",""
"pit-trial","101","923319","0.0-2.0-17.3-2.3","battery-v0.2","","""event"",""trial"",""time""
""fullscreenenter"",""1"",""3210""
","
","
","""event"",""trial"",""time""
""fullscreenenter"",""1"",""3210""
","
","","","563.3999999999069","","","18","12567","5177","&#9789;","elianto","#f73b6a7A"," "," ","1","0","[1413.5]","1","0","4","","","","","","","",""
"pit-trial","102","926993","0.0-2.0-17.3-3.3","battery-v0.2","","""event"",""trial"",""time""
""fullscreenenter"",""1"",""3210""
","
","
","""event"",""trial"",""time""
""fullscreenenter"",""1"",""3210""
","
","","","803","","","18","12567","5177","&#9789;","elianto","#f73b6a7A"," "," ","1","-10","[1657]","1","0","4","","","","","","","",""
"pit-trial","103","930344","0.0-2.0-17.3-4.3","battery-v0.2","","""event"",""trial"",""time""
""fullscreenenter"",""1"",""3210""
","
","
","""event"",""trial"",""time""
""fullscreenenter"",""1"",""3210""
","
","","","488.9000000001397","","","18","12567","5177","&#9789;","elianto","#f73b6a7A"," "," ","1","0","[1340.0999999998603]","1","0","4","","","","","","","",""
"call-function","104","930355","0.0-2.0-18.0","battery-v0.2","","""event"",""trial"",""time""
""fullscreenenter"",""1"",""3210""
","
","
","""event"",""trial"",""time""
""fullscreenenter"",""1"",""3210""
","
","","","","","","","","","","","","","","","","","","","","","","","","","","",""
"pit-instructions","105","1012496","0.0-2.0-19.0","battery-v0.2","","""event"",""trial"",""time""
""fullscreenenter"",""1"",""3210""
","
","
","""event"",""trial"",""time""
""fullscreenenter"",""1"",""3210""
","
","","[{""page_index"":0,""viewing_time"":7970.40000000014},{""page_index"":1,""viewing_time"":8067.899999999907},{""page_index"":2,""viewing_time"":16956.5},{""page_index"":3,""viewing_time"":9187.100000000093},{""page_index"":4,""viewing_time"":9326.09999999986},{""page_index"":5,""viewing_time"":8270.40000000014},{""page_index"":6,""viewing_time"":9458.299999999814},{""page_index"":7,""viewing_time"":7711.700000000186},{""page_index"":8,""viewing_time"":5187.799999999814}]","82139","","","","","","","","","","","","","","","","","","","","","","","",""
"pit-comprehension","106","1018318","0.0-2.0-20.0-0.0","battery-v0.2","","""event"",""trial"",""time""
""fullscreenenter"",""1"",""3210""
","
","
","""event"",""trial"",""time""
""fullscreenenter"",""1"",""3210""
","
","","","5803.300000000047","[""SPACE""]","0","18","12567","5177","","","","","","","","","","","","","","","","","","",""
"pit-instructions","107","1022047","0.0-2.0-20.0-1.0","battery-v0.2","","""event"",""trial"",""time""
""fullscreenenter"",""1"",""3210""
","
","
","""event"",""trial"",""time""
""fullscreenenter"",""1"",""3210""
","
","","[{""page_index"":0,""viewing_time"":3622.1999999999534}]","3623.6999999999534","","","","","","","","","","","","","","","","","","","","","","","",""
"pit-comprehension","108","1029371","0.0-2.0-21.0-0.0","battery-v0.2","","""event"",""trial"",""time""
""fullscreenenter"",""1"",""3210""
","
","
","""event"",""trial"",""time""
""fullscreenenter"",""1"",""3210""
","
","","","7308.5","[""10""]","0","18","12567","5177","","","","","","","","","","","","","","","","","","",""
"pit-instructions","109","1032286","0.0-2.0-21.0-1.0","battery-v0.2","","""event"",""trial"",""time""
""fullscreenenter"",""1"",""3210""
","
","
","""event"",""trial"",""time""
""fullscreenenter"",""1"",""3210""
","
","","[{""page_index"":0,""viewing_time"":2806.8000000000466}]","2808","","","","","","","","","","","","","","","","","","","","","","","",""
"pit-comprehension","110","1041021","0.0-2.0-22.0-0.0","battery-v0.2","","""event"",""trial"",""time""
""fullscreenenter"",""1"",""3210""
","
","
","""event"",""trial"",""time""
""fullscreenenter"",""1"",""3210""
","
","","","8719.100000000093","[""0""]","0","18","12567","5177","","","","","","","","","","","","","","","","","","",""
"pit-instructions","111","1043867","0.0-2.0-22.0-1.0","battery-v0.2","","""event"",""trial"",""time""
""fullscreenenter"",""1"",""3210""
","
","
","""event"",""trial"",""time""
""fullscreenenter"",""1"",""3210""
","
","","[{""page_index"":0,""viewing_time"":2715.0999999998603}]","2716.5","","","","","","","","","","","","","","","","","","","","","","","",""
"pit-comprehension","112","1059748","0.0-2.0-23.0-0.0","battery-v0.2","","""event"",""trial"",""time""
""fullscreenenter"",""1"",""3210""
","
","
","""event"",""trial"",""time""
""fullscreenenter"",""1"",""3210""
","
","","","15867.300000000047","[""False""]","1","18","12567","5177","","","","","","","","","","","","","","","","","","",""
"pit-instructions","113","1064737","0.0-2.0-23.0-1.0","battery-v0.2","","""event"",""trial"",""time""
""fullscreenenter"",""1"",""3210""
","
","
","""event"",""trial"",""time""
""fullscreenenter"",""1"",""3210""
","
","","[{""page_index"":0,""viewing_time"":4886.199999999953}]","4890.59999999986","","","","","","","","","","","","","","","","","","","","","","","",""
"pit-instructions","114","1065895","0.0-2.0-23.0-2.0-0.0","battery-v0.2","","""event"",""trial"",""time""
""fullscreenenter"",""1"",""3210""
","
","
","""event"",""trial"",""time""
""fullscreenenter"",""1"",""3210""
","
","","[{""page_index"":0,""viewing_time"":1147.5}]","1150.6000000000931","","","","","","","","","","","","","","","","","","","","","","","",""
"pit-comprehension","115","1074790","0.0-2.0-23.1-0.1","battery-v0.2","","""event"",""trial"",""time""
""fullscreenenter"",""1"",""3210""
","
","
","""event"",""trial"",""time""
""fullscreenenter"",""1"",""3210""
","
","","","8878.399999999907","[""True""]","0","18","12567","5177","","","","","","","","","","","","","","","","","","",""
"pit-instructions","116","1077338","0.0-2.0-23.1-1.1","battery-v0.2","","""event"",""trial"",""time""
""fullscreenenter"",""1"",""3210""
","
","
","""event"",""trial"",""time""
""fullscreenenter"",""1"",""3210""
","
","","[{""page_index"":0,""viewing_time"":2436.2999999998137}]","2437.899999999907","","","","","","","","","","","","","","","","","","","","","","","",""
"pit-comprehension","117","1086584","0.0-2.0-24.0-0.0","battery-v0.2","","""event"",""trial"",""time""
""fullscreenenter"",""1"",""3210""
","
","
","""event"",""trial"",""time""
""fullscreenenter"",""1"",""3210""
","
","","","9233.59999999986","[""True""]","0","18","12567","5177","","","","","","","","","","","","","","","","","","",""
"pit-instructions","118","1088622","0.0-2.0-24.0-1.0","battery-v0.2","","""event"",""trial"",""time""
""fullscreenenter"",""1"",""3210""
","
","
","""event"",""trial"",""time""
""fullscreenenter"",""1"",""3210""
","
","","[{""page_index"":0,""viewing_time"":1935.9000000001397}]","1937.2000000001863","","","","","","","","","","","","","","","","","","","","","","","",""
"pit-comprehension","119","1096410","0.0-2.0-25.0-0.0","battery-v0.2","","""event"",""trial"",""time""
""fullscreenenter"",""1"",""3210""
","
","
","""event"",""trial"",""time""
""fullscreenenter"",""1"",""3210""
","
","","","7775.5","[""True""]","0","18","12567","5177","","","","","","","","","","","","","","","","","","",""
"pit-instructions","120","1103155","0.0-2.0-25.0-1.0","battery-v0.2","","""event"",""trial"",""time""
""fullscreenenter"",""1"",""3210""
","
","
","""event"",""trial"",""time""
""fullscreenenter"",""1"",""3210""
","
","","[{""page_index"":0,""viewing_time"":6614.799999999814}]","6619.899999999907","","","","","","","","","","","","","","","","","","","","","","","",""
"pit-comprehension","121","1110108","0.0-2.0-26.0-0.0","battery-v0.2","","""event"",""trial"",""time""
""fullscreenenter"",""1"",""3210""
","
","
","""event"",""trial"",""time""
""fullscreenenter"",""1"",""3210""
","
","","","6939.699999999953","[""False""]","0","18","12567","5177","","","","","","","","","","","","","","","","","","",""
"pit-instructions","122","1117436","0.0-2.0-26.0-1.0","battery-v0.2","","""event"",""trial"",""time""
""fullscreenenter"",""1"",""3210""
","
","
","""event"",""trial"",""time""
""fullscreenenter"",""1"",""3210""
","
","","[{""page_index"":0,""viewing_time"":7171}]","7174.5","","","","","","","","","","","","","","","","","","","","","","","",""
"pit-instructions","123","1176769","0.0-3.0","battery-v0.2","","""event"",""trial"",""time""
""fullscreenenter"",""1"",""3210""
","
","
","""event"",""trial"",""time""
""fullscreenenter"",""1"",""3210""
","
","","[{""page_index"":0,""viewing_time"":4675},{""page_index"":1,""viewing_time"":5542.100000000093},{""page_index"":2,""viewing_time"":49105}]","59323.40000000014","","","","","","","","","","","","","","","","","","","","","","","",""
"pit-trial","124","1180874","0.0-4.0","battery-v0.2","","""event"",""trial"",""time""
""fullscreenenter"",""1"",""3210""
","
","
","""event"",""trial"",""time""
""fullscreenenter"",""1"",""3210""
","
","","","1229.7000000001863","","","18","12567","5177","&#9733;","elianto","#3366ff99","-1"," ","0","0","[2087.5]","1","1","","","12567","1","2","2","win","no-go","0"
"pit-trial","125","1184662","0.0-5.0","battery-v0.2","","""event"",""trial"",""time""
""fullscreenenter"",""1"",""3210""
","
","
","""event"",""trial"",""time""
""fullscreenenter"",""1"",""3210""
","
","","","918.1999999999534","","","18","12567","5177","&#9730;","elianto","#3366ff99"," "," ","1","+10","[1775.8000000000466]","1","1","","","12567","2","1","1","win","go","0"
"pit-trial","126","1189527","0.0-6.0","battery-v0.2","","""event"",""trial"",""time""
""fullscreenenter"",""1"",""3210""
","
","
","""event"",""trial"",""time""
""fullscreenenter"",""1"",""3210""
","
","","","-1","","","18","12567","5177","&#9728;","elianto","#f73b6a7A","-1","-1","1","0","[]","0","1","","","12567","3","0","4","lose","no-go","0"
"pit-trial","127","1194394","0.0-7.0","battery-v0.2","","""event"",""trial"",""time""
""fullscreenenter"",""1"",""3210""
","
","
","""event"",""trial"",""time""
""fullscreenenter"",""1"",""3210""
","
","","","-1","","","18","12567","5177","&#9752;","elianto","#f73b6a7A"," ","-1","0","-10","[]","0","1","","","12567","4","3","3","lose","go","0"
"pit-trial","128","1199257","0.0-8.0","battery-v0.2","","""event"",""trial"",""time""
""fullscreenenter"",""1"",""3210""
","
","
","""event"",""trial"",""time""
""fullscreenenter"",""1"",""3210""
","
","","","-1","","","18","12567","5177","&#9733;","elianto","#3366ff99","-1","-1","1","+10","[]","0","1","","","12567","5","2","2","win","no-go","0"
"pit-trial","129","1203421","0.0-9.0","battery-v0.2","","""event"",""trial"",""time""
""fullscreenenter"",""1"",""3210""
","
","
","""event"",""trial"",""time""
""fullscreenenter"",""1"",""3210""
","
","","","1296.6999999999534","","","18","12567","5177","&#9752;","elianto","#f73b6a7A"," "," ","1","0","[2150.899999999907]","1","1","","","12567","6","3","3","lose","go","0"
"pit-trial","130","1207658","0.0-10.0","battery-v0.2","","""event"",""trial"",""time""
""fullscreenenter"",""1"",""3210""
","
","
","""event"",""trial"",""time""
""fullscreenenter"",""1"",""3210""
","
","","","1362.5999999998603","","","18","12567","5177","&#9730;","elianto","#3366ff99"," "," ","1","0","[2216]","1","1","","","12567","7","1","1","win","go","1"
"pit-trial","131","1212520","0.0-11.0","battery-v0.2","","""event"",""trial"",""time""
""fullscreenenter"",""1"",""3210""
","
","
","""event"",""trial"",""time""
""fullscreenenter"",""1"",""3210""
","
","","","-1","","","18","12567","5177","&#9728;","elianto","#f73b6a7A","-1","-1","1","0","[]","0","1","","","12567","8","0","4","lose","no-go","0"
"pit-trial","132","1216268","0.0-12.0","battery-v0.2","","""event"",""trial"",""time""
""fullscreenenter"",""1"",""3210""
","
","
","""event"",""trial"",""time""
""fullscreenenter"",""1"",""3210""
","
","","","882.6000000000931","","","18","12567","5177","&#9733;","elianto","#3366ff99","-1"," ","0","0","[1732.6999999999534]","1","1","","","12567","9","2","2","win","no-go","0"
"pit-trial","133","1220606","0.0-13.0","battery-v0.2","","""event"",""trial"",""time""
""fullscreenenter"",""1"",""3210""
","
","
","""event"",""trial"",""time""
""fullscreenenter"",""1"",""3210""
","
","","","1473.3999999999069","","","18","12567","5177","&#9730;","elianto","#3366ff99"," "," ","1","+10","[2323.6999999999534]","1","1","","","12567","10","1","1","win","go","0"
"pit-trial","134","1225473","0.0-14.0","battery-v0.2","","""event"",""trial"",""time""
""fullscreenenter"",""1"",""3210""
","
","
","""event"",""trial"",""time""
""fullscreenenter"",""1"",""3210""
","
","","","-1","","","18","12567","5177","&#9728;","elianto","#f73b6a7A","-1","-1","1","-10","[]","0","1","","","12567","11","0","4","lose","no-go","1"
"pit-trial","135","1229568","0.0-15.0","battery-v0.2","","""event"",""trial"",""time""
""fullscreenenter"",""1"",""3210""
","
","
","""event"",""trial"",""time""
""fullscreenenter"",""1"",""3210""
","
","","","1229.8000000000466","","","18","12567","5177","&#9752;","elianto","#f73b6a7A"," "," ","1","0","[2079.8000000000466]","1","1","","","12567","12","3","3","lose","go","0"
"pit-trial","136","1233393","0.0-16.0","battery-v0.2","","""event"",""trial"",""time""
""fullscreenenter"",""1"",""3210""
","
","
","""event"",""trial"",""time""
""fullscreenenter"",""1"",""3210""
","
","","","960.6000000000931","","","18","12567","5177","&#9733;","elianto","#3366ff99","-1"," ","0","+10","[1811.1000000000931]","1","1","","","12567","13","2","2","win","no-go","1"
"pit-trial","137","1237425","0.0-17.0","battery-v0.2","","""event"",""trial"",""time""
""fullscreenenter"",""1"",""3210""
","
","
","""event"",""trial"",""time""
""fullscreenenter"",""1"",""3210""
","
","","","1165.5","","","18","12567","5177","&#9728;","elianto","#f73b6a7A","-1"," ","0","-10","[2015.3000000000466]","1","1","","","12567","14","0","4","lose","no-go","0"
"pit-trial","138","1241305","0.0-18.0","battery-v0.2","","""event"",""trial"",""time""
""fullscreenenter"",""1"",""3210""
","
","
","""event"",""trial"",""time""
""fullscreenenter"",""1"",""3210""
","
","","","1015.2000000001863","","","18","12567","5177","&#9752;","elianto","#f73b6a7A"," "," ","1","0","[1866.3999999999069]","1","1","","","12567","15","3","3","lose","go","0"
"pit-trial","139","1245310","0.0-19.0","battery-v0.2","","""event"",""trial"",""time""
""fullscreenenter"",""1"",""3210""
","
","
","""event"",""trial"",""time""
""fullscreenenter"",""1"",""3210""
","
","","","1135.1000000000931","","","18","12567","5177","&#9730;","elianto","#3366ff99"," "," ","1","+10","[1985.8999999999069]","1","1","","","12567","16","1","1","win","go","0"
"pit-trial","140","1249299","0.0-20.0","battery-v0.2","","""event"",""trial"",""time""
""fullscreenenter"",""1"",""3210""
","
","
","""event"",""trial"",""time""
""fullscreenenter"",""1"",""3210""
","
","","","1127.4000000001397","","","18","12567","5177","&#9752;","elianto","#f73b6a7A"," "," ","1","0","[1977.4000000001397]","1","1","","","12567","17","3","3","lose","go","0"
"pit-trial","141","1254161","0.0-21.0","battery-v0.2","","""event"",""trial"",""time""
""fullscreenenter"",""1"",""3210""
","
","
","""event"",""trial"",""time""
""fullscreenenter"",""1"",""3210""
","
","","","-1","","","18","12567","5177","&#9728;","elianto","#f73b6a7A","-1","-1","1","0","[]","0","1","","","12567","18","0","4","lose","no-go","0"
"pit-trial","142","1257875","0.0-22.0","battery-v0.2","","""event"",""trial"",""time""
""fullscreenenter"",""1"",""3210""
","
","
","""event"",""trial"",""time""
""fullscreenenter"",""1"",""3210""
","
","","","851.1999999999534","","","18","12567","5177","&#9733;","elianto","#3366ff99","-1"," ","0","0","[1701.1000000000931]","1","1","","","12567","19","2","2","win","no-go","0"
"pit-trial","143","1261606","0.0-23.0","battery-v0.2","","""event"",""trial"",""time""
""fullscreenenter"",""1"",""3210""
","
","
","""event"",""trial"",""time""
""fullscreenenter"",""1"",""3210""
","
","","","866.8999999999069","","","18","12567","5177","&#9730;","elianto","#3366ff99"," "," ","1","+10","[1718.3999999999069]","1","1","","","12567","20","1","1","win","go","0"
"pit-instructions","144","1284431","0.0-24.0","battery-v0.2","","""event"",""trial"",""time""
""fullscreenenter"",""1"",""3210""
","
","
","""event"",""trial"",""time""
""fullscreenenter"",""1"",""3210""
","
","","[{""page_index"":0,""viewing_time"":12206.100000000093},{""page_index"":1,""viewing_time"":10611.100000000093}]","22818.40000000014","","","","","","","","","","","","","","","","","","","","","","","",""
"pit-trial","145","1288477","0.0-25.0","battery-v0.2","","""event"",""trial"",""time""
""fullscreenenter"",""1"",""3210""
","
","
","""event"",""trial"",""time""
""fullscreenenter"",""1"",""3210""
","
","","","1180.8999999999069","","","18","12567","5177","d","elianto","#3366ff99"," "," ","1","+10","[2031.0999999998603]","1","2","","","12567","21","1","1","win","go","0"
"pit-trial","146","1293343","0.0-26.0","battery-v0.2","","""event"",""trial"",""time""
""fullscreenenter"",""1"",""3210""
","
","
","""event"",""trial"",""time""
""fullscreenenter"",""1"",""3210""
","
","","","-1","","","18","12567","5177","w","elianto","#f73b6a7A"," ","-1","0","-10","[]","0","2","","","12567","22","3","3","lose","go","0"
"pit-trial","147","1298202","0.0-27.0","battery-v0.2","","""event"",""trial"",""time""
""fullscreenenter"",""1"",""3210""
","
","
","""event"",""trial"",""time""
""fullscreenenter"",""1"",""3210""
","
","","","-1","","","18","12567","5177","j","elianto","#f73b6a7A","-1","-1","1","0","[]","0","2","","","12567","23","0","4","lose","no-go","0"
"pit-trial","148","1302837","0.0-28.0","battery-v0.2","","""event"",""trial"",""time""
""fullscreenenter"",""1"",""3210""
","
","
","""event"",""trial"",""time""
""fullscreenenter"",""1"",""3210""
","
","","","1775.6000000000931","","","18","12567","5177","e","elianto","#f73b6a7A","-1"," ","0","-10","[2626]","1","2","","","12567","24","2","4","lose","no-go","0"
"pit-trial","149","1307698","0.0-29.0","battery-v0.2","","""event"",""trial"",""time""
""fullscreenenter"",""1"",""3210""
","
","
","""event"",""trial"",""time""
""fullscreenenter"",""1"",""3210""
","
","","","-1","","","18","12567","5177","w","elianto","#f73b6a7A"," ","-1","0","-10","[]","0","2","","","12567","25","3","3","lose","go","0"
"pit-trial","150","1312013","0.0-30.0","battery-v0.2","","""event"",""trial"",""time""
""fullscreenenter"",""1"",""3210""
","
","
","""event"",""trial"",""time""
""fullscreenenter"",""1"",""3210""
","
","","","1447.6999999999534","","","18","12567","5177","j","elianto","#f73b6a7A","-1"," ","0","0","[2297.6999999999534]","1","2","","","12567","26","0","4","lose","no-go","1"
"pit-trial","151","1316879","0.0-31.0","battery-v0.2","","""event"",""trial"",""time""
""fullscreenenter"",""1"",""3210""
","
","
","""event"",""trial"",""time""
""fullscreenenter"",""1"",""3210""
","
","","","-1","","","18","12567","5177","e","elianto","#f73b6a7A","-1","-1","1","0","[]","0","2","","","12567","27","2","4","lose","no-go","0"
"pit-trial","152","1320711","0.0-32.0","battery-v0.2","","""event"",""trial"",""time""
""fullscreenenter"",""1"",""3210""
","
","
","""event"",""trial"",""time""
""fullscreenenter"",""1"",""3210""
","
","","","970","","","18","12567","5177","d","elianto","#3366ff99"," "," ","1","+10","[1820.1000000000931]","1","2","","","12567","28","1","1","win","go","0"
"pit-trial","153","1325574","0.0-33.0","battery-v0.2","","""event"",""trial"",""time""
""fullscreenenter"",""1"",""3210""
","
","
","""event"",""trial"",""time""
""fullscreenenter"",""1"",""3210""
","
","","","-1","","","18","12567","5177","w","elianto","#f73b6a7A"," ","-1","0","-10","[]","0","2","","","12567","29","3","3","lose","go","0"
"pit-trial","154","1330441","0.0-34.0","battery-v0.2","","""event"",""trial"",""time""
""fullscreenenter"",""1"",""3210""
","
","
","""event"",""trial"",""time""
""fullscreenenter"",""1"",""3210""
","
","","","-1","","","18","12567","5177","j","elianto","#f73b6a7A","-1","-1","1","-10","[]","0","2","","","12567","30","0","4","lose","no-go","1"
"pit-trial","155","1335309","0.0-35.0","battery-v0.2","","""event"",""trial"",""time""
""fullscreenenter"",""1"",""3210""
","
","
","""event"",""trial"",""time""
""fullscreenenter"",""1"",""3210""
","
","","","-1","","","18","12567","5177","e","elianto","#f73b6a7A","-1","-1","1","0","[]","0","2","","","12567","31","2","4","lose","no-go","0"
"pit-trial","156","1338888","0.0-36.0","battery-v0.2","","""event"",""trial"",""time""
""fullscreenenter"",""1"",""3210""
","
","
","""event"",""trial"",""time""
""fullscreenenter"",""1"",""3210""
","
","","","718.1999999999534","","","18","12567","5177","d","elianto","#3366ff99"," "," ","1","+10","[1568.0999999998603]","1","2","","","12567","32","1","1","win","go","0"
"pit-trial","157","1342554","0.0-37.0","battery-v0.2","","""event"",""trial"",""time""
""fullscreenenter"",""1"",""3210""
","
","
","""event"",""trial"",""time""
""fullscreenenter"",""1"",""3210""
","
","","","803.6999999999534","","","18","12567","5177","d","elianto","#3366ff99"," "," ","1","+10","[1654.0999999998603]","1","2","","","12567","33","1","1","win","go","0"
"pit-trial","158","1347092","0.0-38.0","battery-v0.2","","""event"",""trial"",""time""
""fullscreenenter"",""1"",""3210""
","
","
","""event"",""trial"",""time""
""fullscreenenter"",""1"",""3210""
","
","","","1672.0999999998603","","","18","12567","5177","j","elianto","#f73b6a7A","-1"," ","0","-10","[2526.4000000001397]","1","2","","","12567","34","0","4","lose","no-go","0"
"pit-trial","159","1350704","0.0-39.0","battery-v0.2","","""event"",""trial"",""time""
""fullscreenenter"",""1"",""3210""
","
","
","""event"",""trial"",""time""
""fullscreenenter"",""1"",""3210""
","
","","","748.6000000000931","","","18","12567","5177","e","elianto","#f73b6a7A","-1"," ","0","-10","[1599.3000000000466]","1","2","","","12567","35","2","4","lose","no-go","0"
"pit-trial","160","1355570","0.0-40.0","battery-v0.2","","""event"",""trial"",""time""
""fullscreenenter"",""1"",""3210""
","
","
","""event"",""trial"",""time""
""fullscreenenter"",""1"",""3210""
","
","","","-1","","","18","12567","5177","w","elianto","#f73b6a7A"," ","-1","0","-10","[]","0","2","","","12567","36","3","3","lose","go","0"
"pit-trial","161","1359634","0.0-41.0","battery-v0.2","","""event"",""trial"",""time""
""fullscreenenter"",""1"",""3210""
","
","
","""event"",""trial"",""time""
""fullscreenenter"",""1"",""3210""
","
","","","1197.3000000000466","","","18","12567","5177","w","elianto","#f73b6a7A"," "," ","1","0","[2051.3000000000466]","1","2","","","12567","37","3","3","lose","go","0"
"pit-trial","162","1363265","0.0-42.0","battery-v0.2","","""event"",""trial"",""time""
""fullscreenenter"",""1"",""3210""
","
","
","""event"",""trial"",""time""
""fullscreenenter"",""1"",""3210""
","
","","","761.0999999998603","","","18","12567","5177","d","elianto","#3366ff99"," "," ","1","+10","[1620.3000000000466]","1","2","","","12567","38","1","1","win","go","0"
"pit-trial","163","1367412","0.0-43.0","battery-v0.2","","""event"",""trial"",""time""
""fullscreenenter"",""1"",""3210""
","
","
","""event"",""trial"",""time""
""fullscreenenter"",""1"",""3210""
","
","","","1285.6999999999534","","","18","12567","5177","j","elianto","#f73b6a7A","-1"," ","0","-10","[2136]","1","2","","","12567","39","0","4","lose","no-go","0"
"pit-trial","164","1371323","0.0-44.0","battery-v0.2","","""event"",""trial"",""time""
""fullscreenenter"",""1"",""3210""
","
","
","""event"",""trial"",""time""
""fullscreenenter"",""1"",""3210""
","
","","","1042","","","18","12567","5177","e","elianto","#f73b6a7A","-1"," ","0","-10","[1892.1000000000931]","1","2","","","12567","40","2","4","lose","no-go","0"
"pit-trial","165","1374995","0.0-45.0","battery-v0.2","","""event"",""trial"",""time""
""fullscreenenter"",""1"",""3210""
","
","
","""event"",""trial"",""time""
""fullscreenenter"",""1"",""3210""
","
","","","809.6999999999534","","","18","12567","5177","d","elianto","#3366ff99"," "," ","1","+10","[1660.8000000000466]","1","2","","","12567","41","1","1","win","go","0"
"pit-trial","166","1379858","0.0-46.0","battery-v0.2","","""event"",""trial"",""time""
""fullscreenenter"",""1"",""3210""
","
","
","""event"",""trial"",""time""
""fullscreenenter"",""1"",""3210""
","
","","","-1","","","18","12567","5177","w","elianto","#f73b6a7A"," ","-1","0","-10","[]","0","2","","","12567","42","3","3","lose","go","0"
"pit-trial","167","1384718","0.0-47.0","battery-v0.2","","""event"",""trial"",""time""
""fullscreenenter"",""1"",""3210""
","
","
","""event"",""trial"",""time""
""fullscreenenter"",""1"",""3210""
","
","","","-1","","","18","12567","5177","e","elianto","#f73b6a7A","-1","-1","1","-10","[]","0","2","","","12567","43","2","4","lose","no-go","1"
"pit-trial","168","1389427","0.0-48.0","battery-v0.2","","""event"",""trial"",""time""
""fullscreenenter"",""1"",""3210""
","
","
","""event"",""trial"",""time""
""fullscreenenter"",""1"",""3210""
","
","","","1835.6999999999534","","","18","12567","5177","j","elianto","#f73b6a7A","-1"," ","0","-10","[2694.5]","1","2","","","12567","44","0","4","lose","no-go","0"
"pit-trial","169","1394292","0.0-49.0","battery-v0.2","","""event"",""trial"",""time""
""fullscreenenter"",""1"",""3210""
","
","
","""event"",""trial"",""time""
""fullscreenenter"",""1"",""3210""
","
","","","-1","","","18","12567","5177","j","elianto","#f73b6a7A","-1","-1","1","-10","[]","0","2","","","12567","45","0","4","lose","no-go","1"
"pit-trial","170","1398516","0.0-50.0","battery-v0.2","","""event"",""trial"",""time""
""fullscreenenter"",""1"",""3210""
","
","
","""event"",""trial"",""time""
""fullscreenenter"",""1"",""3210""
","
","","","1344.6999999999534","","","18","12567","5177","w","elianto","#f73b6a7A"," "," ","1","0","[2202.5]","1","2","","","12567","46","3","3","lose","go","0"
"pit-trial","171","1402231","0.0-51.0","battery-v0.2","","""event"",""trial"",""time""
""fullscreenenter"",""1"",""3210""
","
","
","""event"",""trial"",""time""
""fullscreenenter"",""1"",""3210""
","
","","","850.5","","","18","12567","5177","s","elianto","#3366ff99","-1"," ","0","+10","[1704.6999999999534]","1","2","","","12567","47","4","2","win","no-go","1"
"pit-trial","172","1406421","0.0-52.0","battery-v0.2","","""event"",""trial"",""time""
""fullscreenenter"",""1"",""3210""
","
","
","""event"",""trial"",""time""
""fullscreenenter"",""1"",""3210""
","
","","","1320.0999999998603","","","18","12567","5177","e","elianto","#f73b6a7A","-1"," ","0","-10","[2177.899999999907]","1","2","","","12567","48","2","4","lose","no-go","0"
"pit-trial","173","1410522","0.0-53.0","battery-v0.2","","""event"",""trial"",""time""
""fullscreenenter"",""1"",""3210""
","
","
","""event"",""trial"",""time""
""fullscreenenter"",""1"",""3210""
","
","","","1233.5","","","18","12567","5177","j","elianto","#f73b6a7A","-1"," ","0","-10","[2087.6999999999534]","1","2","","","12567","49","0","4","lose","no-go","0"
"pit-trial","174","1414255","0.0-54.0","battery-v0.2","","""event"",""trial"",""time""
""fullscreenenter"",""1"",""3210""
","
","
","""event"",""trial"",""time""
""fullscreenenter"",""1"",""3210""
","
","","","867.5","","","18","12567","5177","d","elianto","#3366ff99"," "," ","1","0","[1717.5999999998603]","1","2","","","12567","50","1","1","win","go","1"
"pit-trial","175","1417985","0.0-55.0","battery-v0.2","","""event"",""trial"",""time""
""fullscreenenter"",""1"",""3210""
","
","
","""event"",""trial"",""time""
""fullscreenenter"",""1"",""3210""
","
","","","865.5","","","18","12567","5177","s","elianto","#3366ff99","-1"," ","0","0","[1715.6999999999534]","1","2","","","12567","51","4","2","win","no-go","0"
"pit-trial","176","1422167","0.0-56.0","battery-v0.2","","""event"",""trial"",""time""
""fullscreenenter"",""1"",""3210""
","
","
","""event"",""trial"",""time""
""fullscreenenter"",""1"",""3210""
","
","","","1315.5","","","18","12567","5177","w","elianto","#f73b6a7A"," "," ","1","0","[2165.899999999907]","1","2","","","12567","52","3","3","lose","go","0"
"pit-trial","177","1426170","0.0-57.0","battery-v0.2","","""event"",""trial"",""time""
""fullscreenenter"",""1"",""3210""
","
","
","""event"",""trial"",""time""
""fullscreenenter"",""1"",""3210""
","
","","","1135.3000000000466","","","18","12567","5177","j","elianto","#f73b6a7A","-1"," ","0","-10","[1990.4000000001397]","1","2","","","12567","53","0","4","lose","no-go","0"
"pit-trial","178","1429938","0.0-58.0","battery-v0.2","","""event"",""trial"",""time""
""fullscreenenter"",""1"",""3210""
","
","
","""event"",""trial"",""time""
""fullscreenenter"",""1"",""3210""
","
","","","904.5","","","18","12567","5177","s","elianto","#3366ff99","-1"," ","0","0","[1756.3000000000466]","1","2","","","12567","54","4","2","win","no-go","0"
"pit-trial","179","1433467","0.0-59.0","battery-v0.2","","""event"",""trial"",""time""
""fullscreenenter"",""1"",""3210""
","
","
","""event"",""trial"",""time""
""fullscreenenter"",""1"",""3210""
","
","","","664.8999999999069","","","18","12567","5177","d","elianto","#3366ff99"," "," ","1","+10","[1514.1000000000931]","1","2","","","12567","55","1","1","win","go","0"
"pit-trial","180","1437983","0.0-60.0","battery-v0.2","","""event"",""trial"",""time""
""fullscreenenter"",""1"",""3210""
","
","
","""event"",""trial"",""time""
""fullscreenenter"",""1"",""3210""
","
","","","1648.1000000000931","","","18","12567","5177","e","elianto","#f73b6a7A","-1"," ","0","-10","[2498.5]","1","2","","","12567","56","2","4","lose","no-go","0"
"pit-trial","181","1442846","0.0-61.0","battery-v0.2","","""event"",""trial"",""time""
""fullscreenenter"",""1"",""3210""
","
","
","""event"",""trial"",""time""
""fullscreenenter"",""1"",""3210""
","
","","","-1","","","18","12567","5177","w","elianto","#f73b6a7A"," ","-1","0","-10","[]","0","2","","","12567","57","3","3","lose","go","0"
"pit-trial","182","1446425","0.0-62.0","battery-v0.2","","""event"",""trial"",""time""
""fullscreenenter"",""1"",""3210""
","
","
","""event"",""trial"",""time""
""fullscreenenter"",""1"",""3210""
","
","","","716","","","18","12567","5177","s","elianto","#3366ff99","-1"," ","0","0","[1566.8000000000466]","1","2","","","12567","58","4","2","win","no-go","0"
"pit-trial","183","1451287","0.0-63.0","battery-v0.2","","""event"",""trial"",""time""
""fullscreenenter"",""1"",""3210""
","
","
","""event"",""trial"",""time""
""fullscreenenter"",""1"",""3210""
","
","","","-1","","","18","12567","5177","j","elianto","#f73b6a7A","-1","-1","1","-10","[]","0","2","","","12567","59","0","4","lose","no-go","1"
"pit-trial","184","1455405","0.0-64.0","battery-v0.2","","""event"",""trial"",""time""
""fullscreenenter"",""1"",""3210""
","
","
","""event"",""trial"",""time""
""fullscreenenter"",""1"",""3210""
","
","","","1253.8000000000466","","","18","12567","5177","d","elianto","#3366ff99"," "," ","1","0","[2104.100000000093]","1","2","","","12567","60","1","1","win","go","1"
"pit-trial","185","1459351","0.0-65.0","battery-v0.2","","""event"",""trial"",""time""
""fullscreenenter"",""1"",""3210""
","
","
","""event"",""trial"",""time""
""fullscreenenter"",""1"",""3210""
","
","","","1083.3000000000466","","","18","12567","5177","d","elianto","#3366ff99"," "," ","1","+10","[1934.5]","1","2","","","12567","61","1","1","win","go","0"
"pit-trial","186","1464215","0.0-66.0","battery-v0.2","","""event"",""trial"",""time""
""fullscreenenter"",""1"",""3210""
","
","
","""event"",""trial"",""time""
""fullscreenenter"",""1"",""3210""
","
","","","-1","","","18","12567","5177","w","elianto","#f73b6a7A"," ","-1","0","0","[]","0","2","","","12567","62","3","3","lose","go","1"
"pit-trial","187","1468360","0.0-67.0","battery-v0.2","","""event"",""trial"",""time""
""fullscreenenter"",""1"",""3210""
","
","
","""event"",""trial"",""time""
""fullscreenenter"",""1"",""3210""
","
","","","1278.3000000000466","","","18","12567","5177","e","elianto","#f73b6a7A","-1"," ","0","-10","[2130]","1","2","","","12567","63","2","4","lose","no-go","0"
"pit-trial","188","1472016","0.0-68.0","battery-v0.2","","""event"",""trial"",""time""
""fullscreenenter"",""1"",""3210""
","
","
","""event"",""trial"",""time""
""fullscreenenter"",""1"",""3210""
","
","","","786.0999999998603","","","18","12567","5177","s","elianto","#3366ff99","-1"," ","0","0","[1638.3000000000466]","1","2","","","12567","64","4","2","win","no-go","0"
"pit-trial","189","1476002","0.0-69.0","battery-v0.2","","""event"",""trial"",""time""
""fullscreenenter"",""1"",""3210""
","
","
","""event"",""trial"",""time""
""fullscreenenter"",""1"",""3210""
","
","","","1118.8000000000466","","","18","12567","5177","d","elianto","#3366ff99"," "," ","1","+10","[1971.8999999999069]","1","2","","","12567","65","1","1","win","go","0"
"pit-trial","190","1480866","0.0-70.0","battery-v0.2","","""event"",""trial"",""time""
""fullscreenenter"",""1"",""3210""
","
","
","""event"",""trial"",""time""
""fullscreenenter"",""1"",""3210""
","
","","","-1","","","18","12567","5177","e","elianto","#f73b6a7A","-1","-1","1","0","[]","0","2","","","12567","66","2","4","lose","no-go","0"
"pit-trial","191","1484803","0.0-71.0","battery-v0.2","","""event"",""trial"",""time""
""fullscreenenter"",""1"",""3210""
","
","
","""event"",""trial"",""time""
""fullscreenenter"",""1"",""3210""
","
","","","1073.3000000000466","","","18","12567","5177","w","elianto","#f73b6a7A"," "," ","1","0","[1923.9000000001397]","1","2","","","12567","67","3","3","lose","go","0"
"pit-trial","192","1489665","0.0-72.0","battery-v0.2","","""event"",""trial"",""time""
""fullscreenenter"",""1"",""3210""
","
","
","""event"",""trial"",""time""
""fullscreenenter"",""1"",""3210""
","
","","","-1","","","18","12567","5177","s","elianto","#3366ff99","-1","-1","1","+10","[]","0","2","","","12567","68","4","2","win","no-go","0"
"pit-trial","193","1493830","0.0-73.0","battery-v0.2","","""event"",""trial"",""time""
""fullscreenenter"",""1"",""3210""
","
","
","""event"",""trial"",""time""
""fullscreenenter"",""1"",""3210""
","
","","","1295.6999999999534","","","18","12567","5177","p","elianto","#3366ff99"," "," ","1","+10","[2145.9000000001397]","1","2","","","12567","69","5","1","win","go","0"
"pit-trial","194","1497904","0.0-74.0","battery-v0.2","","""event"",""trial"",""time""
""fullscreenenter"",""1"",""3210""
","
","
","""event"",""trial"",""time""
""fullscreenenter"",""1"",""3210""
","
","","","1205.6999999999534","","","18","12567","5177","d","elianto","#3366ff99"," "," ","1","+10","[2059.1999999999534]","1","2","","","12567","70","1","1","win","go","0"
"pit-trial","195","1502767","0.0-75.0","battery-v0.2","","""event"",""trial"",""time""
""fullscreenenter"",""1"",""3210""
","
","
","""event"",""trial"",""time""
""fullscreenenter"",""1"",""3210""
","
","","","-1","","","18","12567","5177","s","elianto","#3366ff99","-1","-1","1","+10","[]","0","2","","","12567","71","4","2","win","no-go","0"
"pit-trial","196","1507124","0.0-76.0","battery-v0.2","","""event"",""trial"",""time""
""fullscreenenter"",""1"",""3210""
","
","
","""event"",""trial"",""time""
""fullscreenenter"",""1"",""3210""
","
","","","1491.3000000000466","","","18","12567","5177","w","elianto","#f73b6a7A"," "," ","1","-10","[2341.1999999999534]","1","2","","","12567","72","3","3","lose","go","1"
"pit-trial","197","1511986","0.0-77.0","battery-v0.2","","""event"",""trial"",""time""
""fullscreenenter"",""1"",""3210""
","
","
","""event"",""trial"",""time""
""fullscreenenter"",""1"",""3210""
","
","","","-1","","","18","12567","5177","s","elianto","#3366ff99","-1","-1","1","+10","[]","0","2","","","12567","73","4","2","win","no-go","0"
"pit-trial","198","1516846","0.0-78.0","battery-v0.2","","""event"",""trial"",""time""
""fullscreenenter"",""1"",""3210""
","
","
","""event"",""trial"",""time""
""fullscreenenter"",""1"",""3210""
","
","","","-1","","","18","12567","5177","w","elianto","#f73b6a7A"," ","-1","0","-10","[]","0","2","","","12567","74","3","3","lose","go","0"
"pit-trial","199","1520789","0.0-79.0","battery-v0.2","","""event"",""trial"",""time""
""fullscreenenter"",""1"",""3210""
","
","
","""event"",""trial"",""time""
""fullscreenenter"",""1"",""3210""
","
","","","1082.6999999999534","","","18","12567","5177","p","elianto","#3366ff99"," "," ","1","+10","[1932.6999999999534]","1","2","","","12567","75","5","1","win","go","0"
"pit-trial","200","1524819","0.0-80.0","battery-v0.2","","""event"",""trial"",""time""
""fullscreenenter"",""1"",""3210""
","
","
","""event"",""trial"",""time""
""fullscreenenter"",""1"",""3210""
","
","","","1168","","","18","12567","5177","d","elianto","#3366ff99"," "," ","1","+10","[2018.1999999999534]","1","2","","","12567","76","1","1","win","go","0"
"pit-trial","201","1529682","0.0-81.0","battery-v0.2","","""event"",""trial"",""time""
""fullscreenenter"",""1"",""3210""
","
","
","""event"",""trial"",""time""
""fullscreenenter"",""1"",""3210""
","
","","","-1","","","18","12567","5177","s","elianto","#3366ff99","-1","-1","1","+10","[]","0","2","","","12567","77","4","2","win","no-go","0"
"pit-trial","202","1534068","0.0-82.0","battery-v0.2","","""event"",""trial"",""time""
""fullscreenenter"",""1"",""3210""
","
","
","""event"",""trial"",""time""
""fullscreenenter"",""1"",""3210""
","
","","","1518.3000000000466","","","18","12567","5177","g","elianto","#f73b6a7A","-1"," ","0","-10","[2368.5]","1","2","","","12567","78","6","4","lose","no-go","0"
"pit-trial","203","1538933","0.0-83.0","battery-v0.2","","""event"",""trial"",""time""
""fullscreenenter"",""1"",""3210""
","
","
","""event"",""trial"",""time""
""fullscreenenter"",""1"",""3210""
","
","","","-1","","","18","12567","5177","p","elianto","#3366ff99"," ","-1","0","0","[]","0","2","","","12567","79","5","1","win","go","0"
"pit-trial","204","1543799","0.0-84.0","battery-v0.2","","""event"",""trial"",""time""
""fullscreenenter"",""1"",""3210""
","
","
","""event"",""trial"",""time""
""fullscreenenter"",""1"",""3210""
","
","","","-1","","","18","12567","5177","w","elianto","#f73b6a7A"," ","-1","0","-10","[]","0","2","","","12567","80","3","3","lose","go","0"
"pit-trial","205","1547593","0.0-85.0","battery-v0.2","","""event"",""trial"",""time""
""fullscreenenter"",""1"",""3210""
","
","
","""event"",""trial"",""time""
""fullscreenenter"",""1"",""3210""
","
","","","929.8000000000466","","","18","12567","5177","p","elianto","#3366ff99"," "," ","1","+10","[1780.3000000000466]","1","2","","","12567","81","5","1","win","go","0"
"pit-trial","206","1552457","0.0-86.0","battery-v0.2","","""event"",""trial"",""time""
""fullscreenenter"",""1"",""3210""
","
","
","""event"",""trial"",""time""
""fullscreenenter"",""1"",""3210""
","
","","","-1","","","18","12567","5177","s","elianto","#3366ff99","-1","-1","1","+10","[]","0","2","","","12567","82","4","2","win","no-go","0"
"pit-trial","207","1557255","0.0-87.0","battery-v0.2","","""event"",""trial"",""time""
""fullscreenenter"",""1"",""3210""
","
","
","""event"",""trial"",""time""
""fullscreenenter"",""1"",""3210""
","
","","","1927.5","","","18","12567","5177","a","elianto","#f73b6a7A"," "," ","1","0","[2783.5999999998603]","1","2","","","12567","83","7","3","lose","go","0"
"pit-trial","208","1562117","0.0-88.0","battery-v0.2","","""event"",""trial"",""time""
""fullscreenenter"",""1"",""3210""
","
","
","""event"",""trial"",""time""
""fullscreenenter"",""1"",""3210""
","
","","","-1","","","18","12567","5177","g","elianto","#f73b6a7A","-1","-1","1","0","[]","0","2","","","12567","84","6","4","lose","no-go","0"
"pit-trial","209","1566072","0.0-89.0","battery-v0.2","","""event"",""trial"",""time""
""fullscreenenter"",""1"",""3210""
","
","
","""event"",""trial"",""time""
""fullscreenenter"",""1"",""3210""
","
","","","1093.5","","","18","12567","5177","p","elianto","#3366ff99"," "," ","1","+10","[1943.7999999998137]","1","2","","","12567","85","5","1","win","go","0"
"pit-trial","210","1570366","0.0-90.0","battery-v0.2","","""event"",""trial"",""time""
""fullscreenenter"",""1"",""3210""
","
","
","""event"",""trial"",""time""
""fullscreenenter"",""1"",""3210""
","
","","","1435.6000000000931","","","18","12567","5177","a","elianto","#f73b6a7A"," "," ","1","0","[2285.6999999999534]","1","2","","","12567","86","7","3","lose","go","0"
"pit-trial","211","1575228","0.0-91.0","battery-v0.2","","""event"",""trial"",""time""
""fullscreenenter"",""1"",""3210""
","
","
","""event"",""trial"",""time""
""fullscreenenter"",""1"",""3210""
","
","","","-1","","","18","12567","5177","s","elianto","#3366ff99","-1","-1","1","+10","[]","0","2","","","12567","87","4","2","win","no-go","0"
"pit-trial","212","1580090","0.0-92.0","battery-v0.2","","""event"",""trial"",""time""
""fullscreenenter"",""1"",""3210""
","
","
","""event"",""trial"",""time""
""fullscreenenter"",""1"",""3210""
","
","","","-1","","","18","12567","5177","g","elianto","#f73b6a7A","-1","-1","1","0","[]","0","2","","","12567","88","6","4","lose","no-go","0"
"pit-trial","213","1584954","0.0-93.0","battery-v0.2","","""event"",""trial"",""time""
""fullscreenenter"",""1"",""3210""
","
","
","""event"",""trial"",""time""
""fullscreenenter"",""1"",""3210""
","
","","","-1","","","18","12567","5177","g","elianto","#f73b6a7A","-1","-1","1","0","[]","0","2","","","12567","89","6","4","lose","no-go","0"
"pit-trial","214","1589820","0.0-94.0","battery-v0.2","","""event"",""trial"",""time""
""fullscreenenter"",""1"",""3210""
","
","
","""event"",""trial"",""time""
""fullscreenenter"",""1"",""3210""
","
","","","-1","","","18","12567","5177","s","elianto","#3366ff99","-1","-1","1","+10","[]","0","2","","","12567","90","4","2","win","no-go","0"
"pit-trial","215","1593470","0.0-95.0","battery-v0.2","","""event"",""trial"",""time""
""fullscreenenter"",""1"",""3210""
","
","
","""event"",""trial"",""time""
""fullscreenenter"",""1"",""3210""
","
","","","783.3000000000466","","","18","12567","5177","p","elianto","#3366ff99"," "," ","1","+10","[1632.8000000000466]","1","2","","","12567","91","5","1","win","go","0"
"pit-trial","216","1598038","0.0-96.0","battery-v0.2","","""event"",""trial"",""time""
""fullscreenenter"",""1"",""3210""
","
","
","""event"",""trial"",""time""
""fullscreenenter"",""1"",""3210""
","
","","","1705.6000000000931","","","18","12567","5177","a","elianto","#f73b6a7A"," "," ","1","0","[2555.6999999999534]","1","2","","","12567","92","7","3","lose","go","0"
"pit-trial","217","1602904","0.0-97.0","battery-v0.2","","""event"",""trial"",""time""
""fullscreenenter"",""1"",""3210""
","
","
","""event"",""trial"",""time""
""fullscreenenter"",""1"",""3210""
","
","","","-1","","","18","12567","5177","g","elianto","#f73b6a7A","-1","-1","1","0","[]","0","2","","","12567","93","6","4","lose","no-go","0"
"pit-trial","218","1606502","0.0-98.0","battery-v0.2","","""event"",""trial"",""time""
""fullscreenenter"",""1"",""3210""
","
","
","""event"",""trial"",""time""
""fullscreenenter"",""1"",""3210""
","
","","","731.1999999999534","","","18","12567","5177","p","elianto","#3366ff99"," "," ","1","+10","[1586.0999999998603]","1","2","","","12567","94","5","1","win","go","0"
"pit-trial","219","1610430","0.0-99.0","battery-v0.2","","""event"",""trial"",""time""
""fullscreenenter"",""1"",""3210""
","
","
","""event"",""trial"",""time""
""fullscreenenter"",""1"",""3210""
","
","","","1057.8999999999069","","","18","12567","5177","a","elianto","#f73b6a7A"," "," ","1","0","[1912.3000000000466]","1","2","","","12567","95","7","3","lose","go","0"
"pit-trial","220","1614498","0.0-100.0","battery-v0.2","","""event"",""trial"",""time""
""fullscreenenter"",""1"",""3210""
","
","
","""event"",""trial"",""time""
""fullscreenenter"",""1"",""3210""
","
","","","1205","","","18","12567","5177","l","elianto","#3366ff99","-1"," ","0","0","[2055]","1","2","","","12567","96","8","2","win","no-go","0"
"pit-trial","221","1619363","0.0-101.0","battery-v0.2","","""event"",""trial"",""time""
""fullscreenenter"",""1"",""3210""
","
","
","""event"",""trial"",""time""
""fullscreenenter"",""1"",""3210""
","
","","","-1","","","18","12567","5177","l","elianto","#3366ff99","-1","-1","1","+10","[]","0","2","","","12567","97","8","2","win","no-go","0"
"pit-trial","222","1623020","0.0-102.0","battery-v0.2","","""event"",""trial"",""time""
""fullscreenenter"",""1"",""3210""
","
","
","""event"",""trial"",""time""
""fullscreenenter"",""1"",""3210""
","
","","","793.5","","","18","12567","5177","p","elianto","#3366ff99"," "," ","1","0","[1643.6000000000931]","1","2","","","12567","98","5","1","win","go","1"
"pit-trial","223","1627336","0.0-103.0","battery-v0.2","","""event"",""trial"",""time""
""fullscreenenter"",""1"",""3210""
","
","
","""event"",""trial"",""time""
""fullscreenenter"",""1"",""3210""
","
","","","1448.2000000001863","","","18","12567","5177","g","elianto","#f73b6a7A","-1"," ","0","0","[2303.8000000000466]","1","2","","","12567","99","6","4","lose","no-go","1"
"pit-trial","224","1632203","0.0-104.0","battery-v0.2","","""event"",""trial"",""time""
""fullscreenenter"",""1"",""3210""
","
","
","""event"",""trial"",""time""
""fullscreenenter"",""1"",""3210""
","
","","","-1","","","18","12567","5177","a","elianto","#f73b6a7A"," ","-1","0","-10","[]","0","2","","","12567","100","7","3","lose","go","0"
"pit-trial","225","1635989","0.0-105.0","battery-v0.2","","""event"",""trial"",""time""
""fullscreenenter"",""1"",""3210""
","
","
","""event"",""trial"",""time""
""fullscreenenter"",""1"",""3210""
","
","","","916.4000000001397","","","18","12567","5177","u","elianto","#3366ff99","-1"," ","0","0","[1770.5]","1","2","","","12567","101","9","2","win","no-go","0"
"pit-trial","226","1640849","0.0-106.0","battery-v0.2","","""event"",""trial"",""time""
""fullscreenenter"",""1"",""3210""
","
","
","""event"",""trial"",""time""
""fullscreenenter"",""1"",""3210""
","
","","","-1","","","18","12567","5177","l","elianto","#3366ff99","-1","-1","1","0","[]","0","2","","","12567","102","8","2","win","no-go","1"
"pit-trial","227","1644664","0.0-107.0","battery-v0.2","","""event"",""trial"",""time""
""fullscreenenter"",""1"",""3210""
","
","
","""event"",""trial"",""time""
""fullscreenenter"",""1"",""3210""
","
","","","954.5","","","18","12567","5177","p","elianto","#3366ff99"," "," ","1","+10","[1804.5999999998603]","1","2","","","12567","103","5","1","win","go","0"
"pit-trial","228","1649527","0.0-108.0","battery-v0.2","","""event"",""trial"",""time""
""fullscreenenter"",""1"",""3210""
","
","
","""event"",""trial"",""time""
""fullscreenenter"",""1"",""3210""
","
","","","-1","","","18","12567","5177","g","elianto","#f73b6a7A","-1","-1","1","0","[]","0","2","","","12567","104","6","4","lose","no-go","0"
"pit-trial","229","1654388","0.0-109.0","battery-v0.2","","""event"",""trial"",""time""
""fullscreenenter"",""1"",""3210""
","
","
","""event"",""trial"",""time""
""fullscreenenter"",""1"",""3210""
","
","","","-1","","","18","12567","5177","g","elianto","#f73b6a7A","-1","-1","1","0","[]","0","2","","","12567","105","6","4","lose","no-go","0"
"pit-trial","230","1657977","0.0-110.0","battery-v0.2","","""event"",""trial"",""time""
""fullscreenenter"",""1"",""3210""
","
","
","""event"",""trial"",""time""
""fullscreenenter"",""1"",""3210""
","
","","","727","","","18","12567","5177","p","elianto","#3366ff99"," "," ","1","+10","[1577.1999999999534]","1","2","","","12567","106","5","1","win","go","0"
"pit-trial","231","1661451","0.0-111.0","battery-v0.2","","""event"",""trial"",""time""
""fullscreenenter"",""1"",""3210""
","
","
","""event"",""trial"",""time""
""fullscreenenter"",""1"",""3210""
","
","","","610.6000000000931","","","18","12567","5177","l","elianto","#3366ff99","-1"," ","0","0","[1460.8999999999069]","1","2","","","12567","107","8","2","win","no-go","0"
"pit-trial","232","1665597","0.0-112.0","battery-v0.2","","""event"",""trial"",""time""
""fullscreenenter"",""1"",""3210""
","
","
","""event"",""trial"",""time""
""fullscreenenter"",""1"",""3210""
","
","","","1276.3999999999069","","","18","12567","5177","u","elianto","#3366ff99","-1"," ","0","0","[2130.3000000000466]","1","2","","","12567","108","9","2","win","no-go","0"
"pit-trial","233","1670465","0.0-113.0","battery-v0.2","","""event"",""trial"",""time""
""fullscreenenter"",""1"",""3210""
","
","
","""event"",""trial"",""time""
""fullscreenenter"",""1"",""3210""
","
","","","-1","","","18","12567","5177","u","elianto","#3366ff99","-1","-1","1","+10","[]","0","2","","","12567","109","9","2","win","no-go","0"
"pit-trial","234","1675332","0.0-114.0","battery-v0.2","","""event"",""trial"",""time""
""fullscreenenter"",""1"",""3210""
","
","
","""event"",""trial"",""time""
""fullscreenenter"",""1"",""3210""
","
","","","-1","","","18","12567","5177","g","elianto","#f73b6a7A","-1","-1","1","0","[]","0","2","","","12567","110","6","4","lose","no-go","0"
"pit-trial","235","1678956","0.0-115.0","battery-v0.2","","""event"",""trial"",""time""
""fullscreenenter"",""1"",""3210""
","
","
","""event"",""trial"",""time""
""fullscreenenter"",""1"",""3210""
","
","","","761.8999999999069","","","18","12567","5177","p","elianto","#3366ff99"," "," ","1","+10","[1612.1999999999534]","1","2","","","12567","111","5","1","win","go","0"
"pit-trial","236","1683685","0.0-116.0","battery-v0.2","","""event"",""trial"",""time""
""fullscreenenter"",""1"",""3210""
","
","
","""event"",""trial"",""time""
""fullscreenenter"",""1"",""3210""
","
","","","1862.4000000001397","","","18","12567","5177","l","elianto","#3366ff99","-1"," ","0","0","[2713.6999999999534]","1","2","","","12567","112","8","2","win","no-go","0"
"pit-trial","237","1688548","0.0-117.0","battery-v0.2","","""event"",""trial"",""time""
""fullscreenenter"",""1"",""3210""
","
","
","""event"",""trial"",""time""
""fullscreenenter"",""1"",""3210""
","
","","","-1","","","18","12567","5177","u","elianto","#3366ff99","-1","-1","1","+10","[]","0","2","","","12567","113","9","2","win","no-go","0"
"pit-trial","238","1693412","0.0-118.0","battery-v0.2","","""event"",""trial"",""time""
""fullscreenenter"",""1"",""3210""
","
","
","""event"",""trial"",""time""
""fullscreenenter"",""1"",""3210""
","
","","","-1","","","18","12567","5177","l","elianto","#3366ff99","-1","-1","1","+10","[]","0","2","","","12567","114","8","2","win","no-go","0"
"pit-trial","239","1697575","0.0-119.0","battery-v0.2","","""event"",""trial"",""time""
""fullscreenenter"",""1"",""3210""
","
","
","""event"",""trial"",""time""
""fullscreenenter"",""1"",""3210""
","
","","","1299.6000000000931","","","18","12567","5177","a","elianto","#f73b6a7A"," "," ","1","0","[2152.4000000001397]","1","2","","","12567","115","7","3","lose","go","0"
"pit-trial","240","1701487","0.0-120.0","battery-v0.2","","""event"",""trial"",""time""
""fullscreenenter"",""1"",""3210""
","
","
","""event"",""trial"",""time""
""fullscreenenter"",""1"",""3210""
","
","","","1054.5","","","18","12567","5177","p","elianto","#3366ff99"," "," ","1","0","[1905.1000000000931]","1","2","","","12567","116","5","1","win","go","1"
"pit-trial","241","1706347","0.0-121.0","battery-v0.2","","""event"",""trial"",""time""
""fullscreenenter"",""1"",""3210""
","
","
","""event"",""trial"",""time""
""fullscreenenter"",""1"",""3210""
","
","","","-1","","","18","12567","5177","l","elianto","#3366ff99","-1","-1","1","+10","[]","0","2","","","12567","117","8","2","win","no-go","0"
"pit-trial","242","1711209","0.0-122.0","battery-v0.2","","""event"",""trial"",""time""
""fullscreenenter"",""1"",""3210""
","
","
","""event"",""trial"",""time""
""fullscreenenter"",""1"",""3210""
","
","","","-1","","","18","12567","5177","u","elianto","#3366ff99","-1","-1","1","+10","[]","0","2","","","12567","118","9","2","win","no-go","0"
"pit-trial","243","1716075","0.0-123.0","battery-v0.2","","""event"",""trial"",""time""
""fullscreenenter"",""1"",""3210""
","
","
","""event"",""trial"",""time""
""fullscreenenter"",""1"",""3210""
","
","","","-1","","","18","12567","5177","g","elianto","#f73b6a7A","-1","-1","1","0","[]","0","2","","","12567","119","6","4","lose","no-go","0"
"pit-trial","244","1719920","0.0-124.0","battery-v0.2","","""event"",""trial"",""time""
""fullscreenenter"",""1"",""3210""
","
","
","""event"",""trial"",""time""
""fullscreenenter"",""1"",""3210""
","
","","","982.1999999999534","","","18","12567","5177","p","elianto","#3366ff99"," "," ","1","0","[1832.5]","1","2","","","12567","120","5","1","win","go","1"
"pit-trial","245","1724780","0.0-125.0","battery-v0.2","","""event"",""trial"",""time""
""fullscreenenter"",""1"",""3210""
","
","
","""event"",""trial"",""time""
""fullscreenenter"",""1"",""3210""
","
","","","-1","","","18","12567","5177","u","elianto","#3366ff99","-1","-1","1","+10","[]","0","2","","","12567","121","9","2","win","no-go","0"
"pit-trial","246","1729644","0.0-126.0","battery-v0.2","","""event"",""trial"",""time""
""fullscreenenter"",""1"",""3210""
","
","
","""event"",""trial"",""time""
""fullscreenenter"",""1"",""3210""
","
","","","-1","","","18","12567","5177","l","elianto","#3366ff99","-1","-1","1","+10","[]","0","2","","","12567","122","8","2","win","no-go","0"
"pit-trial","247","1733592","0.0-127.0","battery-v0.2","","""event"",""trial"",""time""
""fullscreenenter"",""1"",""3210""
","
","
","""event"",""trial"",""time""
""fullscreenenter"",""1"",""3210""
","
","","","1085.5","","","18","12567","5177","p","elianto","#3366ff99"," "," ","1","+10","[1935.3000000000466]","1","2","","","12567","123","5","1","win","go","0"
"pit-trial","248","1737429","0.0-128.0","battery-v0.2","","""event"",""trial"",""time""
""fullscreenenter"",""1"",""3210""
","
","
","""event"",""trial"",""time""
""fullscreenenter"",""1"",""3210""
","
","","","976.1000000000931","","","18","12567","5177","a","elianto","#f73b6a7A"," "," ","1","0","[1826.2000000001863]","1","2","","","12567","124","7","3","lose","go","0"
"pit-trial","249","1742293","0.0-129.0","battery-v0.2","","""event"",""trial"",""time""
""fullscreenenter"",""1"",""3210""
","
","
","""event"",""trial"",""time""
""fullscreenenter"",""1"",""3210""
","
","","","-1","","","18","12567","5177","u","elianto","#3366ff99","-1","-1","1","+10","[]","0","2","","","12567","125","9","2","win","no-go","0"
"pit-trial","250","1747157","0.0-130.0","battery-v0.2","","""event"",""trial"",""time""
""fullscreenenter"",""1"",""3210""
","
","
","""event"",""trial"",""time""
""fullscreenenter"",""1"",""3210""
","
","","","-1","","","18","12567","5177","l","elianto","#3366ff99","-1","-1","1","+10","[]","0","2","","","12567","126","8","2","win","no-go","0"
"pit-trial","251","1750825","0.0-131.0","battery-v0.2","","""event"",""trial"",""time""
""fullscreenenter"",""1"",""3210""
","
","
","""event"",""trial"",""time""
""fullscreenenter"",""1"",""3210""
","
","","","802.8000000000466","","","18","12567","5177","a","elianto","#f73b6a7A"," "," ","1","0","[1653.6999999999534]","1","2","","","12567","127","7","3","lose","go","0"
"pit-trial","252","1755691","0.0-132.0","battery-v0.2","","""event"",""trial"",""time""
""fullscreenenter"",""1"",""3210""
","
","
","""event"",""trial"",""time""
""fullscreenenter"",""1"",""3210""
","
","","","-1","","","18","12567","5177","g","elianto","#f73b6a7A","-1","-1","1","-10","[]","0","2","","","12567","128","6","4","lose","no-go","1"
"pit-trial","253","1760561","0.0-133.0","battery-v0.2","","""event"",""trial"",""time""
""fullscreenenter"",""1"",""3210""
","
","
","""event"",""trial"",""time""
""fullscreenenter"",""1"",""3210""
","
","","","-1","","","18","12567","5177","g","elianto","#f73b6a7A","-1","-1","1","0","[]","0","2","","","12567","129","6","4","lose","no-go","0"
"pit-trial","254","1765423","0.0-134.0","battery-v0.2","","""event"",""trial"",""time""
""fullscreenenter"",""1"",""3210""
","
","
","""event"",""trial"",""time""
""fullscreenenter"",""1"",""3210""
","
","","","-1","","","18","12567","5177","l","elianto","#3366ff99","-1","-1","1","+10","[]","0","2","","","12567","130","8","2","win","no-go","0"
"pit-trial","255","1770289","0.0-135.0","battery-v0.2","","""event"",""trial"",""time""
""fullscreenenter"",""1"",""3210""
","
","
","""event"",""trial"",""time""
""fullscreenenter"",""1"",""3210""
","
","","","-1","","","18","12567","5177","u","elianto","#3366ff99","-1","-1","1","+10","[]","0","2","","","12567","131","9","2","win","no-go","0"
"pit-trial","256","1774289","0.0-136.0","battery-v0.2","","""event"",""trial"",""time""
""fullscreenenter"",""1"",""3210""
","
","
","""event"",""trial"",""time""
""fullscreenenter"",""1"",""3210""
","
","","","1135.5999999998603","","","18","12567","5177","a","elianto","#f73b6a7A"," "," ","1","-10","[1987.8000000000466]","1","2","","","12567","132","7","3","lose","go","1"
"pit-trial","257","1779153","0.0-137.0","battery-v0.2","","""event"",""trial"",""time""
""fullscreenenter"",""1"",""3210""
","
","
","""event"",""trial"",""time""
""fullscreenenter"",""1"",""3210""
","
","","","-1","","","18","12567","5177","l","elianto","#3366ff99","-1","-1","1","0","[]","0","2","","","12567","133","8","2","win","no-go","1"
"pit-trial","258","1784016","0.0-138.0","battery-v0.2","","""event"",""trial"",""time""
""fullscreenenter"",""1"",""3210""
","
","
","""event"",""trial"",""time""
""fullscreenenter"",""1"",""3210""
","
","","","-1","","","18","12567","5177","g","elianto","#f73b6a7A","-1","-1","1","0","[]","0","2","","","12567","134","6","4","lose","no-go","0"
"pit-trial","259","1788105","0.0-139.0","battery-v0.2","","""event"",""trial"",""time""
""fullscreenenter"",""1"",""3210""
","
","
","""event"",""trial"",""time""
""fullscreenenter"",""1"",""3210""
","
","","","1221.6000000000931","","","18","12567","5177","a","elianto","#f73b6a7A"," "," ","1","0","[2074.5999999998603]","1","2","","","12567","135","7","3","lose","go","0"
"pit-trial","260","1792974","0.0-140.0","battery-v0.2","","""event"",""trial"",""time""
""fullscreenenter"",""1"",""3210""
","
","
","""event"",""trial"",""time""
""fullscreenenter"",""1"",""3210""
","
","","","-1","","","18","12567","5177","u","elianto","#3366ff99","-1","-1","1","+10","[]","0","2","","","12567","136","9","2","win","no-go","0"
"pit-trial","261","1797836","0.0-141.0","battery-v0.2","","""event"",""trial"",""time""
""fullscreenenter"",""1"",""3210""
","
","
","""event"",""trial"",""time""
""fullscreenenter"",""1"",""3210""
","
","","","-1","","","18","12567","5177","l","elianto","#3366ff99","-1","-1","1","0","[]","0","2","","","12567","137","8","2","win","no-go","1"
"pit-trial","262","1802701","0.0-142.0","battery-v0.2","","""event"",""trial"",""time""
""fullscreenenter"",""1"",""3210""
","
","
","""event"",""trial"",""time""
""fullscreenenter"",""1"",""3210""
","
","","","-1","","","18","12567","5177","u","elianto","#3366ff99","-1","-1","1","0","[]","0","2","","","12567","138","9","2","win","no-go","1"
"pit-trial","263","1807566","0.0-143.0","battery-v0.2","","""event"",""trial"",""time""
""fullscreenenter"",""1"",""3210""
","
","
","""event"",""trial"",""time""
""fullscreenenter"",""1"",""3210""
","
","","","-1","","","18","12567","5177","g","elianto","#f73b6a7A","-1","-1","1","0","[]","0","2","","","12567","139","6","4","lose","no-go","0"
"pit-trial","264","1811288","0.0-144.0","battery-v0.2","","""event"",""trial"",""time""
""fullscreenenter"",""1"",""3210""
","
","
","""event"",""trial"",""time""
""fullscreenenter"",""1"",""3210""
","
","","","860.5","","","18","12567","5177","a","elianto","#f73b6a7A"," "," ","1","0","[1711.3000000002794]","1","2","","","12567","140","7","3","lose","go","0"
"pit-instructions","265","2031567","0.0-145.0","battery-v0.2","","""event"",""trial"",""time""
""fullscreenenter"",""1"",""3210""
","
","
","""event"",""trial"",""time""
""fullscreenenter"",""1"",""3210""
","
