"trial_type","trial_index","time_elapsed","internal_node_id","task_version","subject_id","interactions","blur_events","focus_events","fullscreenenter_events","fullscreenexit_events","success","view_history","rt","responses","num_errors","age","subject","participantId","rune","rune_set","hex","correct","choice","accuracy","outcome","keys","total_keys","block","practice","value","sub","trial","stimulus","robot","valence","action","sham"
"pavlovia","0","30","0.0-0.0","battery-v0.2","","""event"",""trial"",""time""
""fullscreenenter"",""1"",""3886""
","
","
","""event"",""trial"",""time""
""fullscreenenter"",""1"",""3886""
","
","","","","","","","","","","","","","","","","","","","","","","","","","","",""
"fullscreen","1","4845","0.0-1.0","battery-v0.2","","""event"",""trial"",""time""
""fullscreenenter"",""1"",""3886""
","
","
","""event"",""trial"",""time""
""fullscreenenter"",""1"",""3886""
","
","true","","","","","","","","","","","","","","","","","","","","","","","","","",""
"pit-instructions","2","18188","0.0-2.0-0.0","battery-v0.2","","""event"",""trial"",""time""
""fullscreenenter"",""1"",""3886""
","
","
","""event"",""trial"",""time""
""fullscreenenter"",""1"",""3886""
","
","","[{""page_index"":0,""viewing_time"":13337.10000038147}]","13337.800000190735","","","","","","","","","","","","","","","","","","","","","","","",""
"pit-comprehension","3","27694","0.0-2.0-1.0-0.0","battery-v0.2","","""event"",""trial"",""time""
""fullscreenenter"",""1"",""3886""
","
","
","""event"",""trial"",""time""
""fullscreenenter"",""1"",""3886""
","
","","","9498.699999809265","[""shark""]","0","12","20189","7308","","","","","","","","","","","","","","","","","","",""
"pit-instructions","4","30143","0.0-2.0-1.0-1.0","battery-v0.2","","""event"",""trial"",""time""
""fullscreenenter"",""1"",""3886""
","
","
","""event"",""trial"",""time""
""fullscreenenter"",""1"",""3886""
","
","","[{""page_index"":0,""viewing_time"":2417}]","2417.5","","","","","","","","","","","","","","","","","","","","","","","",""
"pit-comprehension","5","33932","0.0-2.0-2.0-0.0","battery-v0.2","","""event"",""trial"",""time""
""fullscreenenter"",""1"",""3886""
","
","
","""event"",""trial"",""time""
""fullscreenenter"",""1"",""3886""
","
","","","3784.5","[""tiger""]","0","12","20189","7308","","","","","","","","","","","","","","","","","","",""
"pit-instructions","6","35527","0.0-2.0-2.0-1.0","battery-v0.2","","""event"",""trial"",""time""
""fullscreenenter"",""1"",""3886""
","
","
","""event"",""trial"",""time""
""fullscreenenter"",""1"",""3886""
","
","","[{""page_index"":0,""viewing_time"":1588}]","1588.4000000953674","","","","","","","","","","","","","","","","","","","","","","","",""
"pit-instructions","7","132255","0.0-2.0-3.0","battery-v0.2","","""event"",""trial"",""time""
""fullscreenenter"",""1"",""3886""
","
","
","""event"",""trial"",""time""
""fullscreenenter"",""1"",""3886""
","
","","[{""page_index"":0,""viewing_time"":8362.400000095367},{""page_index"":1,""viewing_time"":5368.599999904633},{""page_index"":2,""viewing_time"":7215.10000038147},{""page_index"":3,""viewing_time"":5554.199999809265},{""page_index"":4,""viewing_time"":5810.5},{""page_index"":5,""viewing_time"":7082},{""page_index"":6,""viewing_time"":8019.5},{""page_index"":7,""viewing_time"":6380},{""page_index"":8,""viewing_time"":6297.599999904633},{""page_index"":9,""viewing_time"":8698.800000190735},{""page_index"":10,""viewing_time"":8839.599999904633},{""page_index"":11,""viewing_time"":7760.800000190735},{""page_index"":12,""viewing_time"":6180.199999809265},{""page_index"":13,""viewing_time"":5154.099999904633}]","96724.10000038147","","","","","","","","","","","","","","","","","","","","","","","",""
"pit-trial","8","135648","0.0-2.0-4.0-0.0","battery-v0.2","","""event"",""trial"",""time""
""fullscreenenter"",""1"",""3886""
","
","
","""event"",""trial"",""time""
""fullscreenenter"",""1"",""3886""
","
","","","520.5999999046326","","","12","20189","7308","&#9784;","elianto","#FFFFF080"," "," ","1","&#10004","[1376.5]","1","0","0","","","","","","","",""
"pit-trial","9","138985","0.0-2.0-4.1-0.1","battery-v0.2","","""event"",""trial"",""time""
""fullscreenenter"",""1"",""3886""
","
","
","""event"",""trial"",""time""
""fullscreenenter"",""1"",""3886""
","
","","","475.30000019073486","","","12","20189","7308","&#9784;","elianto","#FFFFF080"," "," ","1","&#10004","[1327.9000000953674]","1","0","0","","","","","","","",""
"pit-trial","10","142260","0.0-2.0-4.2-0.2","battery-v0.2","","""event"",""trial"",""time""
""fullscreenenter"",""1"",""3886""
","
","
","""event"",""trial"",""time""
""fullscreenenter"",""1"",""3886""
","
","","","416","","","12","20189","7308","&#9784;","elianto","#FFFFF080"," "," ","1","&#10004","[1269.3000001907349]","1","0","0","","","","","","","",""
"pit-trial","11","145508","0.0-2.0-4.3-0.3","battery-v0.2","","""event"",""trial"",""time""
""fullscreenenter"",""1"",""3886""
","
","
","""event"",""trial"",""time""
""fullscreenenter"",""1"",""3886""
","
","","","388.5","","","12","20189","7308","&#9784;","elianto","#FFFFF080"," "," ","1","&#10004","[1238.5999999046326]","1","0","0","","","","","","","",""
"pit-trial","12","148757","0.0-2.0-4.4-0.4","battery-v0.2","","""event"",""trial"",""time""
""fullscreenenter"",""1"",""3886""
","
","
","""event"",""trial"",""time""
""fullscreenenter"",""1"",""3886""
","
","","","381.69999980926514","","","12","20189","7308","&#9784;","elianto","#FFFFF080"," "," ","1","&#10004","[1233.8000001907349]","1","0","0","","","","","","","",""
"pit-instructions","13","169267","0.0-2.0-5.0","battery-v0.2","","""event"",""trial"",""time""
""fullscreenenter"",""1"",""3886""
","
","
","""event"",""trial"",""time""
""fullscreenenter"",""1"",""3886""
","
","","[{""page_index"":0,""viewing_time"":5272.299999713898},{""page_index"":1,""viewing_time"":5848.700000286102},{""page_index"":2,""viewing_time"":4267.39999961853},{""page_index"":3,""viewing_time"":5117.400000095367}]","20506.599999904633","","","","","","","","","","","","","","","","","","","","","","","",""
"pit-trial","14","174133","0.0-2.0-6.0-0.0","battery-v0.2","","""event"",""trial"",""time""
""fullscreenenter"",""1"",""3886""
","
","
","""event"",""trial"",""time""
""fullscreenenter"",""1"",""3886""
","
","","","-1","","","12","20189","7308","&#9854;","elianto","#FFFFF080","-1","-1","1","&#10004","[]","0","0","1","","","","","","","",""
"pit-trial","15","178993","0.0-2.0-6.1-0.1","battery-v0.2","","""event"",""trial"",""time""
""fullscreenenter"",""1"",""3886""
","
","
","""event"",""trial"",""time""
""fullscreenenter"",""1"",""3886""
","
","","","-1","","","12","20189","7308","&#9854;","elianto","#FFFFF080","-1","-1","1","&#10004","[]","0","0","1","","","","","","","",""
"pit-trial","16","183854","0.0-2.0-6.2-0.2","battery-v0.2","","""event"",""trial"",""time""
""fullscreenenter"",""1"",""3886""
","
","
","""event"",""trial"",""time""
""fullscreenenter"",""1"",""3886""
","
","","","-1","","","12","20189","7308","&#9854;","elianto","#FFFFF080","-1","-1","1","&#10004","[]","0","0","1","","","","","","","",""
"pit-trial","17","188725","0.0-2.0-6.3-0.3","battery-v0.2","","""event"",""trial"",""time""
""fullscreenenter"",""1"",""3886""
","
","
","""event"",""trial"",""time""
""fullscreenenter"",""1"",""3886""
","
","","","-1","","","12","20189","7308","&#9854;","elianto","#FFFFF080","-1","-1","1","&#10004","[]","0","0","1","","","","","","","",""
"pit-trial","18","193597","0.0-2.0-6.4-0.4","battery-v0.2","","""event"",""trial"",""time""
""fullscreenenter"",""1"",""3886""
","
","
","""event"",""trial"",""time""
""fullscreenenter"",""1"",""3886""
","
","","","-1","","","12","20189","7308","&#9854;","elianto","#FFFFF080","-1","-1","1","&#10004","[]","0","0","1","","","","","","","",""
"pit-instructions","19","319021","0.0-2.0-7.0","battery-v0.2","","""event"",""trial"",""time""
""fullscreenenter"",""1"",""3886""
","
","
","""event"",""trial"",""time""
""fullscreenenter"",""1"",""3886""
","
","","[{""page_index"":0,""viewing_time"":5529},{""page_index"":1,""viewing_time"":7828.799999713898},{""page_index"":2,""viewing_time"":5848.800000190735},{""page_index"":3,""viewing_time"":5281.199999809265},{""page_index"":4,""viewing_time"":6955.60000038147},{""page_index"":5,""viewing_time"":5531.39999961853},{""page_index"":6,""viewing_time"":4660},{""page_index"":7,""viewing_time"":8109},{""page_index"":8,""viewing_time"":7059.300000190735},{""page_index"":9,""viewing_time"":5864.199999809265},{""page_index"":10,""viewing_time"":7882.5},{""page_index"":11,""viewing_time"":5117},{""page_index"":12,""viewing_time"":7162.10000038147},{""page_index"":13,""viewing_time"":9517.199999809265},{""page_index"":14,""viewing_time"":7267.599999904633},{""page_index"":15,""viewing_time"":6579.099999904633},{""page_index"":16,""viewing_time"":10093.300000190735},{""page_index"":17,""viewing_time"":9134.199999809265}]","125420.7999997139","","","","","","","","","","","","","","","","","","","","","","","",""
"pit-trial","20","322383","0.0-2.0-8.0-0.0","battery-v0.2","","""event"",""trial"",""time""
""fullscreenenter"",""1"",""3886""
","
","
","""event"",""trial"",""time""
""fullscreenenter"",""1"",""3886""
","
","","","494.5","","","12","20189","7308","&#9776;","elianto","#3366ff99"," "," ","1","+10","[1345.5]","1","0","1","","","","","","","",""
"pit-trial","21","325755","0.0-2.0-8.0-1.0","battery-v0.2","","""event"",""trial"",""time""
""fullscreenenter"",""1"",""3886""
","
","
","""event"",""trial"",""time""
""fullscreenenter"",""1"",""3886""
","
","","","508.59999990463257","","","12","20189","7308","&#9776;","elianto","#3366ff99"," "," ","1","+10","[1362.8000001907349]","1","0","1","","","","","","","",""
"pit-trial","22","328655","0.0-2.0-8.0-2.0","battery-v0.2","","""event"",""trial"",""time""
""fullscreenenter"",""1"",""3886""
","
","
","""event"",""trial"",""time""
""fullscreenenter"",""1"",""3886""
","
","","","43.10000038146973","","","12","20189","7308","&#9776;","elianto","#3366ff99"," "," ","1","+10","[895.8000001907349]","1","0","1","","","","","","","",""
"pit-trial","23","331844","0.0-2.0-8.0-3.0","battery-v0.2","","""event"",""trial"",""time""
""fullscreenenter"",""1"",""3886""
","
","
","""event"",""trial"",""time""
""fullscreenenter"",""1"",""3886""
","
","","","324.1000003814697","","","12","20189","7308","&#9776;","elianto","#3366ff99"," "," ","1","0","[1178.0999999046326]","1","0","1","","","","","","","",""
"pit-trial","24","335081","0.0-2.0-8.0-4.0","battery-v0.2","","""event"",""trial"",""time""
""fullscreenenter"",""1"",""3886""
","
","
","""event"",""trial"",""time""
""fullscreenenter"",""1"",""3886""
","
","","","374.19999980926514","","","12","20189","7308","&#9776;","elianto","#3366ff99"," "," ","1","+10","[1228.3000001907349]","1","0","1","","","","","","","",""
"pit-trial","25","338064","0.0-2.0-8.1-0.1","battery-v0.2","","""event"",""trial"",""time""
""fullscreenenter"",""1"",""3886""
","
","
","""event"",""trial"",""time""
""fullscreenenter"",""1"",""3886""
","
","","","114.30000019073486","","","12","20189","7308","&#9776;","elianto","#3366ff99"," "," ","1","+10","[968.2999997138977]","1","0","1","","","","","","","",""
"pit-trial","26","341046","0.0-2.0-8.1-1.1","battery-v0.2","","""event"",""trial"",""time""
""fullscreenenter"",""1"",""3886""
","
","
","""event"",""trial"",""time""
""fullscreenenter"",""1"",""3886""
","
","","","125.40000009536743","","","12","20189","7308","&#9776;","elianto","#3366ff99"," "," ","1","+10","[976.9000000953674]","1","0","1","","","","","","","",""
"pit-trial","27","344122","0.0-2.0-8.1-2.1","battery-v0.2","","""event"",""trial"",""time""
""fullscreenenter"",""1"",""3886""
","
","
","""event"",""trial"",""time""
""fullscreenenter"",""1"",""3886""
","
","","","214.80000019073486","","","12","20189","7308","&#9776;","elianto","#3366ff99"," "," ","1","+10","[1069]","1","0","1","","","","","","","",""
"pit-trial","28","347916","0.0-2.0-8.1-3.1","battery-v0.2","","""event"",""trial"",""time""
""fullscreenenter"",""1"",""3886""
","
","
","""event"",""trial"",""time""
""fullscreenenter"",""1"",""3886""
","
","","","939.2000002861023","","","12","20189","7308","&#9776;","elianto","#3366ff99"," "," ","1","0","[814.6999998092651,1792.1999998092651]","2","0","1","","","","","","","",""
"pit-trial","29","351270","0.0-2.0-8.1-4.1","battery-v0.2","","""event"",""trial"",""time""
""fullscreenenter"",""1"",""3886""
","
","
","""event"",""trial"",""time""
""fullscreenenter"",""1"",""3886""
","
","","","498.5","","","12","20189","7308","&#9776;","elianto","#3366ff99"," "," ","1","+10","[1349.8000001907349]","1","0","1","","","","","","","",""
"pit-trial","30","354346","0.0-2.0-8.2-0.2","battery-v0.2","","""event"",""trial"",""time""
""fullscreenenter"",""1"",""3886""
","
","
","""event"",""trial"",""time""
""fullscreenenter"",""1"",""3886""
","
","","","223.59999990463257","","","12","20189","7308","&#9776;","elianto","#3366ff99"," "," ","1","+10","[1073.9000000953674]","1","0","1","","","","","","","",""
"pit-trial","31","357440","0.0-2.0-8.2-1.2","battery-v0.2","","""event"",""trial"",""time""
""fullscreenenter"",""1"",""3886""
","
","
","""event"",""trial"",""time""
""fullscreenenter"",""1"",""3886""
","
","","","240.40000009536743","","","12","20189","7308","&#9776;","elianto","#3366ff99"," "," ","1","+10","[1091.3000001907349]","1","0","1","","","","","","","",""
"pit-trial","32","360492","0.0-2.0-8.2-2.2","battery-v0.2","","""event"",""trial"",""time""
""fullscreenenter"",""1"",""3886""
","
","
","""event"",""trial"",""time""
""fullscreenenter"",""1"",""3886""
","
","","","198.80000019073486","","","12","20189","7308","&#9776;","elianto","#3366ff99"," "," ","1","+10","[1049.3000001907349]","1","0","1","","","","","","","",""
"pit-trial","33","363623","0.0-2.0-8.2-3.2","battery-v0.2","","""event"",""trial"",""time""
""fullscreenenter"",""1"",""3886""
","
","
","""event"",""trial"",""time""
""fullscreenenter"",""1"",""3886""
","
","","","276.90000009536743","","","12","20189","7308","&#9776;","elianto","#3366ff99"," "," ","1","0","[1127.4000000953674]","1","0","1","","","","","","","",""
"pit-trial","34","366909","0.0-2.0-8.2-4.2","battery-v0.2","","""event"",""trial"",""time""
""fullscreenenter"",""1"",""3886""
","
","
","""event"",""trial"",""time""
""fullscreenenter"",""1"",""3886""
","
","","","431.59999990463257","","","12","20189","7308","&#9776;","elianto","#3366ff99"," "," ","1","+10","[1283]","1","0","1","","","","","","","",""
"call-function","35","366911","0.0-2.0-9.0","battery-v0.2","","""event"",""trial"",""time""
""fullscreenenter"",""1"",""3886""
","
","
","""event"",""trial"",""time""
""fullscreenenter"",""1"",""3886""
","
","","","","","","","","","","","","","","","","","","","","","","","","","","",""
"pit-instructions","36","409062","0.0-2.0-10.0","battery-v0.2","","""event"",""trial"",""time""
""fullscreenenter"",""1"",""3886""
","
","
","""event"",""trial"",""time""
""fullscreenenter"",""1"",""3886""
","
","","[{""page_index"":0,""viewing_time"":7015.300000190735},{""page_index"":1,""viewing_time"":7088.599999904633},{""page_index"":2,""viewing_time"":9186.099999904633},{""page_index"":3,""viewing_time"":10071.900000095367},{""page_index"":4,""viewing_time"":8787.700000286102}]","42150.5","","","","","","","","","","","","","","","","","","","","","","","",""
"pit-trial","37","412804","0.0-2.0-11.0-0.0","battery-v0.2","","""event"",""trial"",""time""
""fullscreenenter"",""1"",""3886""
","
","
","""event"",""trial"",""time""
""fullscreenenter"",""1"",""3886""
","
","","","886.4000000953674","","","12","20189","7308","&#9761;","elianto","#3366ff99","-1"," ","0","0","[1738.9000000953674]","1","0","2","","","","","","","",""
"pit-trial","38","416033","0.0-2.0-11.0-1.0","battery-v0.2","","""event"",""trial"",""time""
""fullscreenenter"",""1"",""3886""
","
","
","""event"",""trial"",""time""
""fullscreenenter"",""1"",""3886""
","
","","","367.5","","","12","20189","7308","&#9761;","elianto","#3366ff99","-1"," ","0","0","[1222.4000000953674]","1","0","2","","","","","","","",""
"pit-trial","39","419301","0.0-2.0-11.0-2.0","battery-v0.2","","""event"",""trial"",""time""
""fullscreenenter"",""1"",""3886""
","
","
","""event"",""trial"",""time""
""fullscreenenter"",""1"",""3886""
","
","","","404.80000019073486","","","12","20189","7308","&#9761;","elianto","#3366ff99","-1"," ","0","0","[1259]","1","0","2","","","","","","","",""
"pit-trial","40","424169","0.0-2.0-11.0-3.0","battery-v0.2","","""event"",""trial"",""time""
""fullscreenenter"",""1"",""3886""
","
","
","""event"",""trial"",""time""
""fullscreenenter"",""1"",""3886""
","
","","","-1","","","12","20189","7308","&#9761;","elianto","#3366ff99","-1","-1","1","0","[]","0","0","2","","","","","","","",""
"pit-trial","41","429038","0.0-2.0-11.0-4.0","battery-v0.2","","""event"",""trial"",""time""
""fullscreenenter"",""1"",""3886""
","
","
","""event"",""trial"",""time""
""fullscreenenter"",""1"",""3886""
","
","","","-1","","","12","20189","7308","&#9761;","elianto","#3366ff99","-1","-1","1","+10","[]","0","0","2","","","","","","","",""
"pit-trial","42","433912","0.0-2.0-11.1-0.1","battery-v0.2","","""event"",""trial"",""time""
""fullscreenenter"",""1"",""3886""
","
","
","""event"",""trial"",""time""
""fullscreenenter"",""1"",""3886""
","
","","","-1","","","12","20189","7308","&#9761;","elianto","#3366ff99","-1","-1","1","+10","[]","0","0","2","","","","","","","",""
"pit-trial","43","438781","0.0-2.0-11.1-1.1","battery-v0.2","","""event"",""trial"",""time""
""fullscreenenter"",""1"",""3886""
","
","
","""event"",""trial"",""time""
""fullscreenenter"",""1"",""3886""
","
","","","-1","","","12","20189","7308","&#9761;","elianto","#3366ff99","-1","-1","1","+10","[]","0","0","2","","","","","","","",""
"pit-trial","44","443637","0.0-2.0-11.1-2.1","battery-v0.2","","""event"",""trial"",""time""
""fullscreenenter"",""1"",""3886""
","
","
","""event"",""trial"",""time""
""fullscreenenter"",""1"",""3886""
","
","","","-1","","","12","20189","7308","&#9761;","elianto","#3366ff99","-1","-1","1","+10","[]","0","0","2","","","","","","","",""
"pit-trial","45","448491","0.0-2.0-11.1-3.1","battery-v0.2","","""event"",""trial"",""time""
""fullscreenenter"",""1"",""3886""
","
","
","""event"",""trial"",""time""
""fullscreenenter"",""1"",""3886""
","
","","","-1","","","12","20189","7308","&#9761;","elianto","#3366ff99","-1","-1","1","0","[]","0","0","2","","","","","","","",""
"pit-trial","46","453348","0.0-2.0-11.1-4.1","battery-v0.2","","""event"",""trial"",""time""
""fullscreenenter"",""1"",""3886""
","
","
","""event"",""trial"",""time""
""fullscreenenter"",""1"",""3886""
","
","","","-1","","","12","20189","7308","&#9761;","elianto","#3366ff99","-1","-1","1","+10","[]","0","0","2","","","","","","","",""
"pit-trial","47","458202","0.0-2.0-11.2-0.2","battery-v0.2","","""event"",""trial"",""time""
""fullscreenenter"",""1"",""3886""
","
","
","""event"",""trial"",""time""
""fullscreenenter"",""1"",""3886""
","
","","","-1","","","12","20189","7308","&#9761;","elianto","#3366ff99","-1","-1","1","+10","[]","0","0","2","","","","","","","",""
"pit-trial","48","463058","0.0-2.0-11.2-1.2","battery-v0.2","","""event"",""trial"",""time""
""fullscreenenter"",""1"",""3886""
","
","
","""event"",""trial"",""time""
""fullscreenenter"",""1"",""3886""
","
","","","-1","","","12","20189","7308","&#9761;","elianto","#3366ff99","-1","-1","1","+10","[]","0","0","2","","","","","","","",""
"pit-trial","49","467913","0.0-2.0-11.2-2.2","battery-v0.2","","""event"",""trial"",""time""
""fullscreenenter"",""1"",""3886""
","
","
","""event"",""trial"",""time""
""fullscreenenter"",""1"",""3886""
","
","","","-1","","","12","20189","7308","&#9761;","elianto","#3366ff99","-1","-1","1","+10","[]","0","0","2","","","","","","","",""
"pit-trial","50","472768","0.0-2.0-11.2-3.2","battery-v0.2","","""event"",""trial"",""time""
""fullscreenenter"",""1"",""3886""
","
","
","""event"",""trial"",""time""
""fullscreenenter"",""1"",""3886""
","
","","","-1","","","12","20189","7308","&#9761;","elianto","#3366ff99","-1","-1","1","0","[]","0","0","2","","","","","","","",""
"pit-trial","51","477621","0.0-2.0-11.2-4.2","battery-v0.2","","""event"",""trial"",""time""
""fullscreenenter"",""1"",""3886""
","
","
","""event"",""trial"",""time""
""fullscreenenter"",""1"",""3886""
","
","","","-1","","","12","20189","7308","&#9761;","elianto","#3366ff99","-1","-1","1","+10","[]","0","0","2","","","","","","","",""
"pit-trial","52","482477","0.0-2.0-11.3-0.3","battery-v0.2","","""event"",""trial"",""time""
""fullscreenenter"",""1"",""3886""
","
","
","""event"",""trial"",""time""
""fullscreenenter"",""1"",""3886""
","
","","","-1","","","12","20189","7308","&#9761;","elianto","#3366ff99","-1","-1","1","+10","[]","0","0","2","","","","","","","",""
"pit-trial","53","487339","0.0-2.0-11.3-1.3","battery-v0.2","","""event"",""trial"",""time""
""fullscreenenter"",""1"",""3886""
","
","
","""event"",""trial"",""time""
""fullscreenenter"",""1"",""3886""
","
","","","-1","","","12","20189","7308","&#9761;","elianto","#3366ff99","-1","-1","1","+10","[]","0","0","2","","","","","","","",""
"pit-trial","54","492193","0.0-2.0-11.3-2.3","battery-v0.2","","""event"",""trial"",""time""
""fullscreenenter"",""1"",""3886""
","
","
","""event"",""trial"",""time""
""fullscreenenter"",""1"",""3886""
","
","","","-1","","","12","20189","7308","&#9761;","elianto","#3366ff99","-1","-1","1","+10","[]","0","0","2","","","","","","","",""
"pit-trial","55","497049","0.0-2.0-11.3-3.3","battery-v0.2","","""event"",""trial"",""time""
""fullscreenenter"",""1"",""3886""
","
","
","""event"",""trial"",""time""
""fullscreenenter"",""1"",""3886""
","
","","","-1","","","12","20189","7308","&#9761;","elianto","#3366ff99","-1","-1","1","0","[]","0","0","2","","","","","","","",""
"pit-trial","56","501903","0.0-2.0-11.3-4.3","battery-v0.2","","""event"",""trial"",""time""
""fullscreenenter"",""1"",""3886""
","
","
","""event"",""trial"",""time""
""fullscreenenter"",""1"",""3886""
","
","","","-1","","","12","20189","7308","&#9761;","elianto","#3366ff99","-1","-1","1","+10","[]","0","0","2","","","","","","","",""
"call-function","57","501905","0.0-2.0-12.0","battery-v0.2","","""event"",""trial"",""time""
""fullscreenenter"",""1"",""3886""
","
","
","""event"",""trial"",""time""
""fullscreenenter"",""1"",""3886""
","
","","","","","","","","","","","","","","","","","","","","","","","","","","",""
"pit-instructions","58","533123","0.0-2.0-13.0","battery-v0.2","","""event"",""trial"",""time""
""fullscreenenter"",""1"",""3886""
","
","
","""event"",""trial"",""time""
""fullscreenenter"",""1"",""3886""
","
","","[{""page_index"":0,""viewing_time"":6147.5},{""page_index"":1,""viewing_time"":6437.10000038147},{""page_index"":2,""viewing_time"":3351},{""page_index"":3,""viewing_time"":10743.799999713898},{""page_index"":4,""viewing_time"":4537.200000286102}]","31217.200000286102","","","","","","","","","","","","","","","","","","","","","","","",""
"pit-trial","59","536663","0.0-2.0-14.0-0.0","battery-v0.2","","""event"",""trial"",""time""
""fullscreenenter"",""1"",""3886""
","
","
","""event"",""trial"",""time""
""fullscreenenter"",""1"",""3886""
","
","","","670.4000000953674","","","12","20189","7308","&#9826;","elianto","#f73b6a7A","-1"," ","0","-10","[1522]","1","0","3","","","","","","","",""
"pit-trial","60","539756","0.0-2.0-14.0-1.0","battery-v0.2","","""event"",""trial"",""time""
""fullscreenenter"",""1"",""3886""
","
","
","""event"",""trial"",""time""
""fullscreenenter"",""1"",""3886""
","
","","","230.19999980926514","","","12","20189","7308","&#9826;","elianto","#f73b6a7A","-1"," ","0","-10","[1081.9000000953674]","1","0","3","","","","","","","",""
"pit-trial","61","544620","0.0-2.0-14.0-2.0","battery-v0.2","","""event"",""trial"",""time""
""fullscreenenter"",""1"",""3886""
","
","
","""event"",""trial"",""time""
""fullscreenenter"",""1"",""3886""
","
","","","-1","","","12","20189","7308","&#9826;","elianto","#f73b6a7A","-1","-1","1","0","[]","0","0","3","","","","","","","",""
"pit-trial","62","549484","0.0-2.0-14.0-3.0","battery-v0.2","","""event"",""trial"",""time""
""fullscreenenter"",""1"",""3886""
","
","
","""event"",""trial"",""time""
""fullscreenenter"",""1"",""3886""
","
","","","-1","","","12","20189","7308","&#9826;","elianto","#f73b6a7A","-1","-1","1","-10","[]","0","0","3","","","","","","","",""
"pit-trial","63","554353","0.0-2.0-14.0-4.0","battery-v0.2","","""event"",""trial"",""time""
""fullscreenenter"",""1"",""3886""
","
","
","""event"",""trial"",""time""
""fullscreenenter"",""1"",""3886""
","
","","","-1","","","12","20189","7308","&#9826;","elianto","#f73b6a7A","-1","-1","1","0","[]","0","0","3","","","","","","","",""
"pit-trial","64","559228","0.0-2.0-14.1-0.1","battery-v0.2","","""event"",""trial"",""time""
""fullscreenenter"",""1"",""3886""
","
","
","""event"",""trial"",""time""
""fullscreenenter"",""1"",""3886""
","
","","","-1","","","12","20189","7308","&#9826;","elianto","#f73b6a7A","-1","-1","1","0","[]","0","0","3","","","","","","","",""
"pit-trial","65","564094","0.0-2.0-14.1-1.1","battery-v0.2","","""event"",""trial"",""time""
""fullscreenenter"",""1"",""3886""
","
","
","""event"",""trial"",""time""
""fullscreenenter"",""1"",""3886""
","
","","","-1","","","12","20189","7308","&#9826;","elianto","#f73b6a7A","-1","-1","1","0","[]","0","0","3","","","","","","","",""
"pit-trial","66","568950","0.0-2.0-14.1-2.1","battery-v0.2","","""event"",""trial"",""time""
""fullscreenenter"",""1"",""3886""
","
","
","""event"",""trial"",""time""
""fullscreenenter"",""1"",""3886""
","
","","","-1","","","12","20189","7308","&#9826;","elianto","#f73b6a7A","-1","-1","1","0","[]","0","0","3","","","","","","","",""
"pit-trial","67","573803","0.0-2.0-14.1-3.1","battery-v0.2","","""event"",""trial"",""time""
""fullscreenenter"",""1"",""3886""
","
","
","""event"",""trial"",""time""
""fullscreenenter"",""1"",""3886""
","
","","","-1","","","12","20189","7308","&#9826;","elianto","#f73b6a7A","-1","-1","1","-10","[]","0","0","3","","","","","","","",""
"pit-trial","68","578657","0.0-2.0-14.1-4.1","battery-v0.2","","""event"",""trial"",""time""
""fullscreenenter"",""1"",""3886""
","
","
","""event"",""trial"",""time""
""fullscreenenter"",""1"",""3886""
","
","","","-1","","","12","20189","7308","&#9826;","elianto","#f73b6a7A","-1","-1","1","0","[]","0","0","3","","","","","","","",""
"pit-trial","69","583513","0.0-2.0-14.2-0.2","battery-v0.2","","""event"",""trial"",""time""
""fullscreenenter"",""1"",""3886""
","
","
","""event"",""trial"",""time""
""fullscreenenter"",""1"",""3886""
","
","","","-1","","","12","20189","7308","&#9826;","elianto","#f73b6a7A","-1","-1","1","0","[]","0","0","3","","","","","","","",""
"pit-trial","70","588380","0.0-2.0-14.2-1.2","battery-v0.2","","""event"",""trial"",""time""
""fullscreenenter"",""1"",""3886""
","
","
","""event"",""trial"",""time""
""fullscreenenter"",""1"",""3886""
","
","","","-1","","","12","20189","7308","&#9826;","elianto","#f73b6a7A","-1","-1","1","0","[]","0","0","3","","","","","","","",""
"pit-trial","71","593233","0.0-2.0-14.2-2.2","battery-v0.2","","""event"",""trial"",""time""
""fullscreenenter"",""1"",""3886""
","
","
","""event"",""trial"",""time""
""fullscreenenter"",""1"",""3886""
","
","","","-1","","","12","20189","7308","&#9826;","elianto","#f73b6a7A","-1","-1","1","0","[]","0","0","3","","","","","","","",""
"pit-trial","72","598088","0.0-2.0-14.2-3.2","battery-v0.2","","""event"",""trial"",""time""
""fullscreenenter"",""1"",""3886""
","
","
","""event"",""trial"",""time""
""fullscreenenter"",""1"",""3886""
","
","","","-1","","","12","20189","7308","&#9826;","elianto","#f73b6a7A","-1","-1","1","-10","[]","0","0","3","","","","","","","",""
"pit-trial","73","602941","0.0-2.0-14.2-4.2","battery-v0.2","","""event"",""trial"",""time""
""fullscreenenter"",""1"",""3886""
","
","
","""event"",""trial"",""time""
""fullscreenenter"",""1"",""3886""
","
","","","-1","","","12","20189","7308","&#9826;","elianto","#f73b6a7A","-1","-1","1","0","[]","0","0","3","","","","","","","",""
"pit-trial","74","607797","0.0-2.0-14.3-0.3","battery-v0.2","","""event"",""trial"",""time""
""fullscreenenter"",""1"",""3886""
","
","
","""event"",""trial"",""time""
""fullscreenenter"",""1"",""3886""
","
","","","-1","","","12","20189","7308","&#9826;","elianto","#f73b6a7A","-1","-1","1","0","[]","0","0","3","","","","","","","",""
"pit-trial","75","612658","0.0-2.0-14.3-1.3","battery-v0.2","","""event"",""trial"",""time""
""fullscreenenter"",""1"",""3886""
","
","
","""event"",""trial"",""time""
""fullscreenenter"",""1"",""3886""
","
","","","-1","","","12","20189","7308","&#9826;","elianto","#f73b6a7A","-1","-1","1","0","[]","0","0","3","","","","","","","",""
"pit-trial","76","617513","0.0-2.0-14.3-2.3","battery-v0.2","","""event"",""trial"",""time""
""fullscreenenter"",""1"",""3886""
","
","
","""event"",""trial"",""time""
""fullscreenenter"",""1"",""3886""
","
","","","-1","","","12","20189","7308","&#9826;","elianto","#f73b6a7A","-1","-1","1","0","[]","0","0","3","","","","","","","",""
"pit-trial","77","622368","0.0-2.0-14.3-3.3","battery-v0.2","","""event"",""trial"",""time""
""fullscreenenter"",""1"",""3886""
","
","
","""event"",""trial"",""time""
""fullscreenenter"",""1"",""3886""
","
","","","-1","","","12","20189","7308","&#9826;","elianto","#f73b6a7A","-1","-1","1","-10","[]","0","0","3","","","","","","","",""
"pit-trial","78","627221","0.0-2.0-14.3-4.3","battery-v0.2","","""event"",""trial"",""time""
""fullscreenenter"",""1"",""3886""
","
","
","""event"",""trial"",""time""
""fullscreenenter"",""1"",""3886""
","
","","","-1","","","12","20189","7308","&#9826;","elianto","#f73b6a7A","-1","-1","1","0","[]","0","0","3","","","","","","","",""
"call-function","79","627223","0.0-2.0-15.0","battery-v0.2","","""event"",""trial"",""time""
""fullscreenenter"",""1"",""3886""
","
","
","""event"",""trial"",""time""
""fullscreenenter"",""1"",""3886""
","
","","","","","","","","","","","","","","","","","","","","","","","","","","",""
"pit-instructions","80","663306","0.0-2.0-16.0","battery-v0.2","","""event"",""trial"",""time""
""fullscreenenter"",""1"",""3886""
","
","
","""event"",""trial"",""time""
""fullscreenenter"",""1"",""3886""
","
","","[{""page_index"":0,""viewing_time"":10477.199999809265},{""page_index"":1,""viewing_time"":11144.800000190735},{""page_index"":2,""viewing_time"":5037.699999809265},{""page_index"":3,""viewing_time"":9421.900000095367}]","36082.09999990463","","","","","","","","","","","","","","","","","","","","","","","",""
"pit-trial","81","666380","0.0-2.0-17.0-0.0","battery-v0.2","","""event"",""trial"",""time""
""fullscreenenter"",""1"",""3886""
","
","
","""event"",""trial"",""time""
""fullscreenenter"",""1"",""3886""
","
","","","210.60000038146973","","","12","20189","7308","&#9789;","elianto","#f73b6a7A"," "," ","1","0","[1067.1999998092651]","1","0","4","","","","","","","",""
"pit-trial","82","669362","0.0-2.0-17.0-1.0","battery-v0.2","","""event"",""trial"",""time""
""fullscreenenter"",""1"",""3886""
","
","
","""event"",""trial"",""time""
""fullscreenenter"",""1"",""3886""
","
","","","121.5","","","12","20189","7308","&#9789;","elianto","#f73b6a7A"," "," ","1","0","[975.5999999046326]","1","0","4","","","","","","","",""
"pit-trial","83","672384","0.0-2.0-17.0-2.0","battery-v0.2","","""event"",""trial"",""time""
""fullscreenenter"",""1"",""3886""
","
","
","""event"",""trial"",""time""
""fullscreenenter"",""1"",""3886""
","
","","","160.59999990463257","","","12","20189","7308","&#9789;","elianto","#f73b6a7A"," "," ","1","0","[1010.8000001907349]","1","0","4","","","","","","","",""
"pit-trial","84","675489","0.0-2.0-17.0-3.0","battery-v0.2","","""event"",""trial"",""time""
""fullscreenenter"",""1"",""3886""
","
","
","""event"",""trial"",""time""
""fullscreenenter"",""1"",""3886""
","
","","","245.19999980926514","","","12","20189","7308","&#9789;","elianto","#f73b6a7A"," "," ","1","-10","[1097.0999999046326]","1","0","4","","","","","","","",""
"pit-trial","85","678466","0.0-2.0-17.0-4.0","battery-v0.2","","""event"",""trial"",""time""
""fullscreenenter"",""1"",""3886""
","
","
","""event"",""trial"",""time""
""fullscreenenter"",""1"",""3886""
","
","","","112.30000019073486","","","12","20189","7308","&#9789;","elianto","#f73b6a7A"," "," ","1","0","[962.6999998092651]","1","0","4","","","","","","","",""
"pit-trial","86","681759","0.0-2.0-17.1-0.1","battery-v0.2","","""event"",""trial"",""time""
""fullscreenenter"",""1"",""3886""
","
","
","""event"",""trial"",""time""
""fullscreenenter"",""1"",""3886""
","
","","","424.2000002861023","","","12","20189","7308","&#9789;","elianto","#f73b6a7A"," "," ","1","0","[773.8000001907349,1282.9000000953674]","2","0","4","","","","","","","",""
"pit-trial","87","685022","0.0-2.0-17.1-1.1","battery-v0.2","","""event"",""trial"",""time""
""fullscreenenter"",""1"",""3886""
","
","
","""event"",""trial"",""time""
""fullscreenenter"",""1"",""3886""
","
","","","395.30000019073486","","","12","20189","7308","&#9789;","elianto","#f73b6a7A"," "," ","1","0","[1247.5]","1","0","4","","","","","","","",""
"pit-trial","88","687970","0.0-2.0-17.1-2.1","battery-v0.2","","""event"",""trial"",""time""
""fullscreenenter"",""1"",""3886""
","
","
","""event"",""trial"",""time""
""fullscreenenter"",""1"",""3886""
","
","","","83","","","12","20189","7308","&#9789;","elianto","#f73b6a7A"," "," ","1","0","[932.8000001907349]","1","0","4","","","","","","","",""
"pit-trial","89","691124","0.0-2.0-17.1-3.1","battery-v0.2","","""event"",""trial"",""time""
""fullscreenenter"",""1"",""3886""
","
","
","""event"",""trial"",""time""
""fullscreenenter"",""1"",""3886""
","
","","","291.19999980926514","","","12","20189","7308","&#9789;","elianto","#f73b6a7A"," "," ","1","-10","[1142.8000001907349]","1","0","4","","","","","","","",""
"pit-trial","90","694375","0.0-2.0-17.1-4.1","battery-v0.2","","""event"",""trial"",""time""
""fullscreenenter"",""1"",""3886""
","
","
","""event"",""trial"",""time""
""fullscreenenter"",""1"",""3886""
","
","","","393.19999980926514","","","12","20189","7308","&#9789;","elianto","#f73b6a7A"," "," ","1","0","[1247.9000000953674]","1","0","4","","","","","","","",""
"pit-trial","91","697722","0.0-2.0-17.2-0.2","battery-v0.2","","""event"",""trial"",""time""
""fullscreenenter"",""1"",""3886""
","
","
","""event"",""trial"",""time""
""fullscreenenter"",""1"",""3886""
","
","","","489.6000003814697","","","12","20189","7308","&#9789;","elianto","#f73b6a7A"," "," ","1","0","[1341.3999996185303]","1","0","4","","","","","","","",""
"pit-trial","92","700630","0.0-2.0-17.2-1.2","battery-v0.2","","""event"",""trial"",""time""
""fullscreenenter"",""1"",""3886""
","
","
","""event"",""trial"",""time""
""fullscreenenter"",""1"",""3886""
","
","","","54.40000009536743","","","12","20189","7308","&#9789;","elianto","#f73b6a7A"," "," ","1","0","[905.0999999046326]","1","0","4","","","","","","","",""
"pit-trial","93","703571","0.0-2.0-17.2-2.2","battery-v0.2","","""event"",""trial"",""time""
""fullscreenenter"",""1"",""3886""
","
","
","""event"",""trial"",""time""
""fullscreenenter"",""1"",""3886""
","
","","","83.7999997138977","","","12","20189","7308","&#9789;","elianto","#f73b6a7A"," "," ","1","0","[934]","1","0","4","","","","","","","",""
"pit-trial","94","706607","0.0-2.0-17.2-3.2","battery-v0.2","","""event"",""trial"",""time""
""fullscreenenter"",""1"",""3886""
","
","
","""event"",""trial"",""time""
""fullscreenenter"",""1"",""3886""
","
","","","167.5","","","12","20189","7308","&#9789;","elianto","#f73b6a7A"," "," ","1","-10","[1019.8000001907349]","1","0","4","","","","","","","",""
"pit-trial","95","710056","0.0-2.0-17.2-4.2","battery-v0.2","","""event"",""trial"",""time""
""fullscreenenter"",""1"",""3886""
","
","
","""event"",""trial"",""time""
""fullscreenenter"",""1"",""3886""
","
","","","363.2000002861023","","","12","20189","7308","&#9789;","elianto","#f73b6a7A"," "," ","1","0","[843.5,1438.7000002861023]","2","0","4","","","","","","","",""
"pit-trial","96","713184","0.0-2.0-17.3-0.3","battery-v0.2","","""event"",""trial"",""time""
""fullscreenenter"",""1"",""3886""
","
","
","""event"",""trial"",""time""
""fullscreenenter"",""1"",""3886""
","
","","","262.90000009536743","","","12","20189","7308","&#9789;","elianto","#f73b6a7A"," "," ","1","0","[1116.8000001907349]","1","0","4","","","","","","","",""
"pit-trial","97","716342","0.0-2.0-17.3-1.3","battery-v0.2","","""event"",""trial"",""time""
""fullscreenenter"",""1"",""3886""
","
","
","""event"",""trial"",""time""
""fullscreenenter"",""1"",""3886""
","
","","","295.2000002861023","","","12","20189","7308","&#9789;","elianto","#f73b6a7A"," "," ","1","0","[1148.9000000953674]","1","0","4","","","","","","","",""
"pit-trial","98","719519","0.0-2.0-17.3-2.3","battery-v0.2","","""event"",""trial"",""time""
""fullscreenenter"",""1"",""3886""
","
","
","""event"",""trial"",""time""
""fullscreenenter"",""1"",""3886""
","
","","","318.40000009536743","","","12","20189","7308","&#9789;","elianto","#f73b6a7A"," "," ","1","0","[1172.8000001907349,1971.7000002861023]","2","0","4","","","","","","","",""
"pit-trial","99","722965","0.0-2.0-17.3-3.3","battery-v0.2","","""event"",""trial"",""time""
""fullscreenenter"",""1"",""3886""
","
","
","""event"",""trial"",""time""
""fullscreenenter"",""1"",""3886""
","
","","","592.6999998092651","","","12","20189","7308","&#9789;","elianto","#f73b6a7A"," "," ","1","-10","[1443.5]","1","0","4","","","","","","","",""
"pit-trial","100","726936","0.0-2.0-17.3-4.3","battery-v0.2","","""event"",""trial"",""time""
""fullscreenenter"",""1"",""3886""
","
","
","""event"",""trial"",""time""
""fullscreenenter"",""1"",""3886""
","
","","","1114","","","12","20189","7308","&#9789;","elianto","#f73b6a7A"," "," ","1","0","[1966]","1","0","4","","","","","","","",""
"call-function","101","726938","0.0-2.0-18.0","battery-v0.2","","""event"",""trial"",""time""
""fullscreenenter"",""1"",""3886""
","
","
","""event"",""trial"",""time""
""fullscreenenter"",""1"",""3886""
","
","","","","","","","","","","","","","","","","","","","","","","","","","","",""
"pit-instructions","102","804244","0.0-2.0-19.0","battery-v0.2","","""event"",""trial"",""time""
""fullscreenenter"",""1"",""3886""
","
","
","""event"",""trial"",""time""
""fullscreenenter"",""1"",""3886""
","
","","[{""page_index"":0,""viewing_time"":12776.5},{""page_index"":1,""viewing_time"":5975.199999809265},{""page_index"":2,""viewing_time"":14238.800000190735},{""page_index"":3,""viewing_time"":8499.5},{""page_index"":4,""viewing_time"":7725.300000190735},{""page_index"":5,""viewing_time"":9187.89999961853},{""page_index"":6,""viewing_time"":8389.700000286102},{""page_index"":7,""viewing_time"":6234.5},{""page_index"":8,""viewing_time"":4276.599999904633}]","77304.69999980927","","","","","","","","","","","","","","","","","","","","","","","",""
"pit-comprehension","103","810111","0.0-2.0-20.0-0.0","battery-v0.2","","""event"",""trial"",""time""
""fullscreenenter"",""1"",""3886""
","
","
","""event"",""trial"",""time""
""fullscreenenter"",""1"",""3886""
","
","","","5860.300000190735","[""SPACE""]","0","12","20189","7308","","","","","","","","","","","","","","","","","","",""
"pit-instructions","104","812814","0.0-2.0-20.0-1.0","battery-v0.2","","""event"",""trial"",""time""
""fullscreenenter"",""1"",""3886""
","
","
","""event"",""trial"",""time""
""fullscreenenter"",""1"",""3886""
","
","","[{""page_index"":0,""viewing_time"":2529}]","2529.5999999046326","","","","","","","","","","","","","","","","","","","","","","","",""
"pit-comprehension","105","820081","0.0-2.0-21.0-0.0","battery-v0.2","","""event"",""trial"",""time""
""fullscreenenter"",""1"",""3886""
","
","
","""event"",""trial"",""time""
""fullscreenenter"",""1"",""3886""
","
","","","7260.900000095367","[""10""]","0","12","20189","7308","","","","","","","","","","","","","","","","","","",""
"pit-instructions","106","822104","0.0-2.0-21.0-1.0","battery-v0.2","","""event"",""trial"",""time""
""fullscreenenter"",""1"",""3886""
","
","
","""event"",""trial"",""time""
""fullscreenenter"",""1"",""3886""
","
","","[{""page_index"":0,""viewing_time"":1898.0999999046326}]","1898.7000002861023","","","","","","","","","","","","","","","","","","","","","","","",""
"pit-comprehension","107","831580","0.0-2.0-22.0-0.0","battery-v0.2","","""event"",""trial"",""time""
""fullscreenenter"",""1"",""3886""
","
","
","""event"",""trial"",""time""
""fullscreenenter"",""1"",""3886""
","
","","","9469.400000095367","[""0""]","0","12","20189","7308","","","","","","","","","","","","","","","","","","",""
"pit-instructions","108","833941","0.0-2.0-22.0-1.0","battery-v0.2","","""event"",""trial"",""time""
""fullscreenenter"",""1"",""3886""
","
","
","""event"",""trial"",""time""
""fullscreenenter"",""1"",""3886""
","
","","[{""page_index"":0,""viewing_time"":2230.4000000953674}]","2230.9000000953674","","","","","","","","","","","","","","","","","","","","","","","",""
"pit-comprehension","109","850670","0.0-2.0-23.0-0.0","battery-v0.2","","""event"",""trial"",""time""
""fullscreenenter"",""1"",""3886""
","
","
","""event"",""trial"",""time""
""fullscreenenter"",""1"",""3886""
","
","","","16723.5","[""True""]","0","12","20189","7308","","","","","","","","","","","","","","","","","","",""
"pit-instructions","110","852902","0.0-2.0-23.0-1.0","battery-v0.2","","""event"",""trial"",""time""
""fullscreenenter"",""1"",""3886""
","
","
","""event"",""trial"",""time""
""fullscreenenter"",""1"",""3886""
","
","","[{""page_index"":0,""viewing_time"":2156.199999809265}]","2156.800000190735","","","","","","","","","","","","","","","","","","","","","","","",""
"pit-comprehension","111","860435","0.0-2.0-24.0-0.0","battery-v0.2","","""event"",""trial"",""time""
""fullscreenenter"",""1"",""3886""
","
","
","""event"",""trial"",""time""
""fullscreenenter"",""1"",""3886""
","
","","","7528.099999904633","[""True""]","0","12","20189","7308","","","","","","","","","","","","","","","","","","",""
"pit-instructions","112","865251","0.0-2.0-24.0-1.0","battery-v0.2","","""event"",""trial"",""time""
""fullscreenenter"",""1"",""3886""
","
","
","""event"",""trial"",""time""
""fullscreenenter"",""1"",""3886""
","
","","[{""page_index"":0,""viewing_time"":4645.599999904633}]","4646.099999904633","","","","","","","","","","","","","","","","","","","","","","","",""
"pit-comprehension","113","873914","0.0-2.0-25.0-0.0","battery-v0.2","","""event"",""trial"",""time""
""fullscreenenter"",""1"",""3886""
","
","
","""event"",""trial"",""time""
""fullscreenenter"",""1"",""3886""
","
","","","8657.39999961853","[""True""]","0","12","20189","7308","","","","","","","","","","","","","","","","","","",""
"pit-instructions","114","876284","0.0-2.0-25.0-1.0","battery-v0.2","","""event"",""trial"",""time""
""fullscreenenter"",""1"",""3886""
","
","
","""event"",""trial"",""time""
""fullscreenenter"",""1"",""3886""
","
","","[{""page_index"":0,""viewing_time"":2229.0999999046326}]","2229.5999999046326","","","","","","","","","","","","","","","","","","","","","","","",""
"pit-comprehension","115","884114","0.0-2.0-26.0-0.0","battery-v0.2","","""event"",""trial"",""time""
""fullscreenenter"",""1"",""3886""
","
","
","""event"",""trial"",""time""
""fullscreenenter"",""1"",""3886""
","
","","","7824.799999713898","[""False""]","0","12","20189","7308","","","","","","","","","","","","","","","","","","",""
"pit-instructions","116","888101","0.0-2.0-26.0-1.0","battery-v0.2","","""event"",""trial"",""time""
""fullscreenenter"",""1"",""3886""
","
","
","""event"",""trial"",""time""
""fullscreenenter"",""1"",""3886""
","
","","[{""page_index"":0,""viewing_time"":3860.4000000953674}]","3860.9000000953674","","","","","","","","","","","","","","","","","","","","","","","",""
"pit-instructions","117","904495","0.0-3.0","battery-v0.2","","""event"",""trial"",""time""
""fullscreenenter"",""1"",""3886""
","
","
","""event"",""trial"",""time""
""fullscreenenter"",""1"",""3886""
","
","","[{""page_index"":0,""viewing_time"":3725},{""page_index"":1,""viewing_time"":5139.900000095367},{""page_index"":2,""viewing_time"":7525}]","16390.400000095367","","","","","","","","","","","","","","","","","","","","","","","",""
"pit-trial","118","909366","0.0-4.0","battery-v0.2","","""event"",""trial"",""time""
""fullscreenenter"",""1"",""3886""
","
","
","""event"",""trial"",""time""
""fullscreenenter"",""1"",""3886""
","
","","","-1","","","12","20189","7308","&#9733;","elianto","#3366ff99","-1","-1","1","+10","[]","0","1","","","20189","1","2","2","win","no-go","0"
"pit-trial","119","913121","0.0-5.0","battery-v0.2","","""event"",""trial"",""time""
""fullscreenenter"",""1"",""3886""
","
","
","""event"",""trial"",""time""
""fullscreenenter"",""1"",""3886""
","
","","","890.3999996185303","","","12","20189","7308","&#9730;","elianto","#3366ff99"," "," ","1","+10","[1743.0999999046326]","1","1","","","20189","2","1","1","win","go","0"
"pit-trial","120","916881","0.0-6.0","battery-v0.2","","""event"",""trial"",""time""
""fullscreenenter"",""1"",""3886""
","
","
","""event"",""trial"",""time""
""fullscreenenter"",""1"",""3886""
","
","","","883.6999998092651","","","12","20189","7308","&#9752;","elianto","#f73b6a7A"," "," ","1","0","[1740.9000000953674]","1","1","","","20189","3","3","3","lose","go","0"
"pit-trial","121","920631","0.0-7.0","battery-v0.2","","""event"",""trial"",""time""
""fullscreenenter"",""1"",""3886""
","
","
","""event"",""trial"",""time""
""fullscreenenter"",""1"",""3886""
","
","","","894.1000003814697","","","12","20189","7308","&#9728;","elianto","#f73b6a7A","-1"," ","0","-10","[1744.5]","1","1","","","20189","4","0","4","lose","no-go","0"
"pit-trial","122","924334","0.0-8.0","battery-v0.2","","""event"",""trial"",""time""
""fullscreenenter"",""1"",""3886""
","
","
","""event"",""trial"",""time""
""fullscreenenter"",""1"",""3886""
","
","","","834.6999998092651","","","12","20189","7308","&#9730;","elianto","#3366ff99"," "," ","1","+10","[1688.0999999046326]","1","1","","","20189","5","1","1","win","go","0"
"pit-trial","123","927901","0.0-9.0","battery-v0.2","","""event"",""trial"",""time""
""fullscreenenter"",""1"",""3886""
","
","
","""event"",""trial"",""time""
""fullscreenenter"",""1"",""3886""
","
","","","692.3999996185303","","","12","20189","7308","&#9733;","elianto","#3366ff99","-1"," ","0","0","[1551]","1","1","","","20189","6","2","2","win","no-go","0"
"pit-trial","124","932362","0.0-10.0","battery-v0.2","","""event"",""trial"",""time""
""fullscreenenter"",""1"",""3886""
","
","
","""event"",""trial"",""time""
""fullscreenenter"",""1"",""3886""
","
","","","1588.4000000953674","","","12","20189","7308","&#9752;","elianto","#f73b6a7A"," "," ","1","0","[2444.300000190735]","1","1","","","20189","7","3","3","lose","go","0"
"pit-trial","125","937226","0.0-11.0","battery-v0.2","","""event"",""trial"",""time""
""fullscreenenter"",""1"",""3886""
","
","
","""event"",""trial"",""time""
""fullscreenenter"",""1"",""3886""
","
","","","-1","","","12","20189","7308","&#9728;","elianto","#f73b6a7A","-1","-1","1","0","[]","0","1","","","20189","8","0","4","lose","no-go","0"
"pit-trial","126","940524","0.0-12.0","battery-v0.2","","""event"",""trial"",""time""
""fullscreenenter"",""1"",""3886""
","
","
","""event"",""trial"",""time""
""fullscreenenter"",""1"",""3886""
","
","","","440.69999980926514","","","12","20189","7308","&#9733;","elianto","#3366ff99","-1"," ","0","0","[1295.3000001907349]","1","1","","","20189","9","2","2","win","no-go","0"
"pit-trial","127","943771","0.0-13.0","battery-v0.2","","""event"",""trial"",""time""
""fullscreenenter"",""1"",""3886""
","
","
","""event"",""trial"",""time""
""fullscreenenter"",""1"",""3886""
","
","","","387.40000009536743","","","12","20189","7308","&#9730;","elianto","#3366ff99"," "," ","1","0","[1240.0999999046326]","1","1","","","20189","10","1","1","win","go","1"
"pit-trial","128","947816","0.0-14.0","battery-v0.2","","""event"",""trial"",""time""
""fullscreenenter"",""1"",""3886""
","
","
","""event"",""trial"",""time""
""fullscreenenter"",""1"",""3886""
","
","","","1176.9000000953674","","","12","20189","7308","&#9728;","elianto","#f73b6a7A","-1"," ","0","-10","[2033.5999999046326]","1","1","","","20189","11","0","4","lose","no-go","0"
"pit-trial","129","952683","0.0-15.0","battery-v0.2","","""event"",""trial"",""time""
""fullscreenenter"",""1"",""3886""
","
","
","""event"",""trial"",""time""
""fullscreenenter"",""1"",""3886""
","
","","","-1","","","12","20189","7308","&#9752;","elianto","#f73b6a7A"," ","-1","0","-10","[]","0","1","","","20189","12","3","3","lose","go","0"
"pit-trial","130","957544","0.0-16.0","battery-v0.2","","""event"",""trial"",""time""
""fullscreenenter"",""1"",""3886""
","
","
","""event"",""trial"",""time""
""fullscreenenter"",""1"",""3886""
","
","","","-1","","","12","20189","7308","&#9733;","elianto","#3366ff99","-1","-1","1","+10","[]","0","1","","","20189","13","2","2","win","no-go","0"
"pit-trial","131","960834","0.0-17.0","battery-v0.2","","""event"",""trial"",""time""
""fullscreenenter"",""1"",""3886""
","
","
","""event"",""trial"",""time""
""fullscreenenter"",""1"",""3886""
","
","","","435.7000002861023","","","12","20189","7308","&#9730;","elianto","#3366ff99"," "," ","1","+10","[1287.2000002861023]","1","1","","","20189","14","1","1","win","go","0"
"pit-trial","132","964297","0.0-18.0","battery-v0.2","","""event"",""trial"",""time""
""fullscreenenter"",""1"",""3886""
","
","
","""event"",""trial"",""time""
""fullscreenenter"",""1"",""3886""
","
","","","606.1999998092651","","","12","20189","7308","&#9728;","elianto","#f73b6a7A","-1"," ","0","-10","[1456.4000000953674]","1","1","","","20189","15","0","4","lose","no-go","0"
"pit-trial","133","967318","0.0-19.0","battery-v0.2","","""event"",""trial"",""time""
""fullscreenenter"",""1"",""3886""
","
","
","""event"",""trial"",""time""
""fullscreenenter"",""1"",""3886""
","
","","","155.80000019073486","","","12","20189","7308","&#9752;","elianto","#f73b6a7A"," "," ","1","0","[1010.0999999046326]","1","1","","","20189","16","3","3","lose","go","0"
"pit-trial","134","971161","0.0-20.0","battery-v0.2","","""event"",""trial"",""time""
""fullscreenenter"",""1"",""3886""
","
","
","""event"",""trial"",""time""
""fullscreenenter"",""1"",""3886""
","
","","","989.7999997138977","","","12","20189","7308","&#9728;","elianto","#f73b6a7A","-1"," ","0","-10","[1840.1999998092651]","1","1","","","20189","17","0","4","lose","no-go","0"
"pit-trial","135","974852","0.0-21.0","battery-v0.2","","""event"",""trial"",""time""
""fullscreenenter"",""1"",""3886""
","
","
","""event"",""trial"",""time""
""fullscreenenter"",""1"",""3886""
","
","","","832.6999998092651","","","12","20189","7308","&#9730;","elianto","#3366ff99"," "," ","1","+10","[1685.2999997138977]","1","1","","","20189","18","1","1","win","go","0"
"pit-trial","136","979720","0.0-22.0","battery-v0.2","","""event"",""trial"",""time""
""fullscreenenter"",""1"",""3886""
","
","
","""event"",""trial"",""time""
""fullscreenenter"",""1"",""3886""
","
","","","-1","","","12","20189","7308","&#9752;","elianto","#f73b6a7A"," ","-1","0","-10","[]","0","1","","","20189","19","3","3","lose","go","0"
"pit-trial","137","983327","0.0-23.0","battery-v0.2","","""event"",""trial"",""time""
""fullscreenenter"",""1"",""3886""
","
","
","""event"",""trial"",""time""
""fullscreenenter"",""1"",""3886""
","
","","","746.5","","","12","20189","7308","&#9733;","elianto","#3366ff99","-1"," ","0","0","[1601.2999997138977]","1","1","","","20189","20","2","2","win","no-go","0"
"pit-instructions","138","997775","0.0-24.0","battery-v0.2","","""event"",""trial"",""time""
""fullscreenenter"",""1"",""3886""
","
","
","""event"",""trial"",""time""
""fullscreenenter"",""1"",""3886""
","
","","[{""page_index"":0,""viewing_time"":7663.300000190735},{""page_index"":1,""viewing_time"":6782.900000095367}]","14446.700000286102","","","","","","","","","","","","","","","","","","","","","","","",""
"pit-trial","139","1001626","0.0-25.0","battery-v0.2","","""event"",""trial"",""time""
""fullscreenenter"",""1"",""3886""
","
","
","""event"",""trial"",""time""
""fullscreenenter"",""1"",""3886""
","
","","","979.9000000953674","","","12","20189","7308","a","elianto","#f73b6a7A","-1"," ","0","0","[1831.3000001907349]","1","2","","","20189","21","2","4","lose","no-go","1"
"pit-trial","140","1005283","0.0-26.0","battery-v0.2","","""event"",""trial"",""time""
""fullscreenenter"",""1"",""3886""
","
","
","""event"",""trial"",""time""
""fullscreenenter"",""1"",""3886""
","
","","","785.4000000953674","","","12","20189","7308","g","elianto","#f73b6a7A"," "," ","1","-10","[1638.6999998092651]","1","2","","","20189","22","3","3","lose","go","1"
"pit-trial","141","1008876","0.0-27.0","battery-v0.2","","""event"",""trial"",""time""
""fullscreenenter"",""1"",""3886""
","
","
","""event"",""trial"",""time""
""fullscreenenter"",""1"",""3886""
","
","","","731.8000001907349","","","12","20189","7308","l","elianto","#3366ff99"," "," ","1","+10","[1586.6000003814697]","1","2","","","20189","23","1","1","win","go","0"
"pit-trial","142","1012491","0.0-28.0","battery-v0.2","","""event"",""trial"",""time""
""fullscreenenter"",""1"",""3886""
","
","
","""event"",""trial"",""time""
""fullscreenenter"",""1"",""3886""
","
","","","745.4000000953674","","","12","20189","7308","u","elianto","#f73b6a7A","-1"," ","0","0","[1600.5999999046326]","1","2","","","20189","24","0","4","lose","no-go","1"
"pit-trial","143","1016047","0.0-29.0","battery-v0.2","","""event"",""trial"",""time""
""fullscreenenter"",""1"",""3886""
","
","
","""event"",""trial"",""time""
""fullscreenenter"",""1"",""3886""
","
","","","685.4000000953674","","","12","20189","7308","l","elianto","#3366ff99"," "," ","1","+10","[1540.0999999046326]","1","2","","","20189","25","1","1","win","go","0"
"pit-trial","144","1020916","0.0-30.0","battery-v0.2","","""event"",""trial"",""time""
""fullscreenenter"",""1"",""3886""
","
","
","""event"",""trial"",""time""
""fullscreenenter"",""1"",""3886""
","
","","","-1","","","12","20189","7308","a","elianto","#f73b6a7A","-1","-1","1","0","[]","0","2","","","20189","26","2","4","lose","no-go","0"
"pit-trial","145","1025796","0.0-31.0","battery-v0.2","","""event"",""trial"",""time""
""fullscreenenter"",""1"",""3886""
","
","
","""event"",""trial"",""time""
""fullscreenenter"",""1"",""3886""
","
","","","-1","","","12","20189","7308","g","elianto","#f73b6a7A"," ","-1","0","-10","[]","0","2","","","20189","27","3","3","lose","go","0"
"pit-trial","146","1029499","0.0-32.0","battery-v0.2","","""event"",""trial"",""time""
""fullscreenenter"",""1"",""3886""
","
","
","""event"",""trial"",""time""
""fullscreenenter"",""1"",""3886""
","
","","","837.5999999046326","","","12","20189","7308","u","elianto","#f73b6a7A","-1"," ","0","-10","[1696.4000000953674]","1","2","","","20189","28","0","4","lose","no-go","0"
"pit-trial","147","1034359","0.0-33.0","battery-v0.2","","""event"",""trial"",""time""
""fullscreenenter"",""1"",""3886""
","
","
","""event"",""trial"",""time""
""fullscreenenter"",""1"",""3886""
","
","","","-1","","","12","20189","7308","u","elianto","#f73b6a7A","-1","-1","1","0","[]","0","2","","","20189","29","0","4","lose","no-go","0"
"pit-trial","148","1038578","0.0-34.0","battery-v0.2","","""event"",""trial"",""time""
""fullscreenenter"",""1"",""3886""
","
","
","""event"",""trial"",""time""
""fullscreenenter"",""1"",""3886""
","
","","","1357.5999999046326","","","12","20189","7308","g","elianto","#f73b6a7A"," "," ","1","0","[2211.699999809265]","1","2","","","20189","30","3","3","lose","go","0"
"pit-trial","149","1042192","0.0-35.0","battery-v0.2","","""event"",""trial"",""time""
""fullscreenenter"",""1"",""3886""
","
","
","""event"",""trial"",""time""
""fullscreenenter"",""1"",""3886""
","
","","","760.3999996185303","","","12","20189","7308","l","elianto","#3366ff99"," "," ","1","+10","[1610.5999999046326]","1","2","","","20189","31","1","1","win","go","0"
"pit-trial","150","1047055","0.0-36.0","battery-v0.2","","""event"",""trial"",""time""
""fullscreenenter"",""1"",""3886""
","
","
","""event"",""trial"",""time""
""fullscreenenter"",""1"",""3886""
","
","","","-1","","","12","20189","7308","a","elianto","#f73b6a7A","-1","-1","1","0","[]","0","2","","","20189","32","2","4","lose","no-go","0"
"pit-trial","151","1050653","0.0-37.0","battery-v0.2","","""event"",""trial"",""time""
""fullscreenenter"",""1"",""3886""
","
","
","""event"",""trial"",""time""
""fullscreenenter"",""1"",""3886""
","
","","","743.7999997138977","","","12","20189","7308","l","elianto","#3366ff99"," "," ","1","+10","[1595.4000000953674]","1","2","","","20189","33","1","1","win","go","0"
"pit-trial","152","1055516","0.0-38.0","battery-v0.2","","""event"",""trial"",""time""
""fullscreenenter"",""1"",""3886""
","
","
","""event"",""trial"",""time""
""fullscreenenter"",""1"",""3886""
","
","","","-1","","","12","20189","7308","g","elianto","#f73b6a7A"," ","-1","0","-10","[]","0","2","","","20189","34","3","3","lose","go","0"
"pit-trial","153","1060385","0.0-39.0","battery-v0.2","","""event"",""trial"",""time""
""fullscreenenter"",""1"",""3886""
","
","
","""event"",""trial"",""time""
""fullscreenenter"",""1"",""3886""
","
","","","-1","","","12","20189","7308","a","elianto","#f73b6a7A","-1","-1","1","-10","[]","0","2","","","20189","35","2","4","lose","no-go","1"
"pit-trial","154","1064911","0.0-40.0","battery-v0.2","","""event"",""trial"",""time""
""fullscreenenter"",""1"",""3886""
","
","
","""event"",""trial"",""time""
""fullscreenenter"",""1"",""3886""
","
","","","1660.5","","","12","20189","7308","u","elianto","#f73b6a7A","-1"," ","0","0","[2514.6000003814697]","1","2","","","20189","36","0","4","lose","no-go","1"
"pit-trial","155","1069774","0.0-41.0","battery-v0.2","","""event"",""trial"",""time""
""fullscreenenter"",""1"",""3886""
","
","
","""event"",""trial"",""time""
""fullscreenenter"",""1"",""3886""
","
","","","-1","","","12","20189","7308","g","elianto","#f73b6a7A"," ","-1","0","-10","[3999.7000002861023]","1","2","","","20189","37","3","3","lose","go","0"
"pit-trial","156","1074640","0.0-42.0","battery-v0.2","","""event"",""trial"",""time""
""fullscreenenter"",""1"",""3886""
","
","
","""event"",""trial"",""time""
""fullscreenenter"",""1"",""3886""
","
","","","-1","","","12","20189","7308","u","elianto","#f73b6a7A","-1","-1","1","0","[71.80000019073486]","1","2","","","20189","38","0","4","lose","no-go","0"
"pit-trial","157","1078922","0.0-43.0","battery-v0.2","","""event"",""trial"",""time""
""fullscreenenter"",""1"",""3886""
","
","
","""event"",""trial"",""time""
""fullscreenenter"",""1"",""3886""
","
","","","1425.0999999046326","","","12","20189","7308","a","elianto","#f73b6a7A","-1"," ","0","-10","[2277]","1","2","","","20189","39","2","4","lose","no-go","0"
"pit-trial","158","1082558","0.0-44.0","battery-v0.2","","""event"",""trial"",""time""
""fullscreenenter"",""1"",""3886""
","
","
","""event"",""trial"",""time""
""fullscreenenter"",""1"",""3886""
","
","","","761.0999999046326","","","12","20189","7308","l","elianto","#3366ff99"," "," ","1","0","[1617.5]","1","2","","","20189","40","1","1","win","go","1"
"pit-trial","159","1086488","0.0-45.0","battery-v0.2","","""event"",""trial"",""time""
""fullscreenenter"",""1"",""3886""
","
","
","""event"",""trial"",""time""
""fullscreenenter"",""1"",""3886""
","
","","","1076.8999996185303","","","12","20189","7308","u","elianto","#f73b6a7A","-1"," ","0","0","[1927]","1","2","","","20189","41","0","4","lose","no-go","1"
"pit-trial","160","1090833","0.0-46.0","battery-v0.2","","""event"",""trial"",""time""
""fullscreenenter"",""1"",""3886""
","
","
","""event"",""trial"",""time""
""fullscreenenter"",""1"",""3886""
","
","","","1479.3000001907349","","","12","20189","7308","a","elianto","#f73b6a7A","-1"," ","0","0","[2334]","1","2","","","20189","42","2","4","lose","no-go","1"
"pit-trial","161","1094645","0.0-47.0","battery-v0.2","","""event"",""trial"",""time""
""fullscreenenter"",""1"",""3886""
","
","
","""event"",""trial"",""time""
""fullscreenenter"",""1"",""3886""
","
","","","960.3999996185303","","","12","20189","7308","g","elianto","#f73b6a7A"," "," ","1","-10","[1810.5999999046326]","1","2","","","20189","43","3","3","lose","go","1"
"pit-trial","162","1098137","0.0-48.0","battery-v0.2","","""event"",""trial"",""time""
""fullscreenenter"",""1"",""3886""
","
","
","""event"",""trial"",""time""
""fullscreenenter"",""1"",""3886""
","
","","","629","","","12","20189","7308","l","elianto","#3366ff99"," "," ","1","0","[1482.5]","1","2","","","20189","44","1","1","win","go","1"
"pit-trial","163","1103007","0.0-49.0","battery-v0.2","","""event"",""trial"",""time""
""fullscreenenter"",""1"",""3886""
","
","
","""event"",""trial"",""time""
""fullscreenenter"",""1"",""3886""
","
","","","-1","","","12","20189","7308","u","elianto","#f73b6a7A","-1","-1","1","0","[]","0","2","","","20189","45","0","4","lose","no-go","0"
"pit-trial","164","1107860","0.0-50.0","battery-v0.2","","""event"",""trial"",""time""
""fullscreenenter"",""1"",""3886""
","
","
","""event"",""trial"",""time""
""fullscreenenter"",""1"",""3886""
","
","","","-1","","","12","20189","7308","g","elianto","#f73b6a7A"," ","-1","0","-10","[3532.2000002861023,4550,4694.5,4821.900000095367]","4","2","","","20189","46","3","3","lose","go","0"
"pit-trial","165","1112259","0.0-51.0","battery-v0.2","","""event"",""trial"",""time""
""fullscreenenter"",""1"",""3886""
","
","
","""event"",""trial"",""time""
""fullscreenenter"",""1"",""3886""
","
","","","1538.7999997138977","","","12","20189","7308","a","elianto","#f73b6a7A","-1"," ","0","-10","[109.80000019073486,232.7000002861023,349.7000002861023,497.1000003814697,803.9000000953674,2393.800000190735]","6","2","","","20189","47","2","4","lose","no-go","0"
"pit-trial","166","1115803","0.0-52.0","battery-v0.2","","""event"",""trial"",""time""
""fullscreenenter"",""1"",""3886""
","
","
","""event"",""trial"",""time""
""fullscreenenter"",""1"",""3886""
","
","","","686.1999998092651","","","12","20189","7308","p","elianto","#3366ff99","-1"," ","0","0","[1539.6999998092651]","1","2","","","20189","48","4","2","win","no-go","0"
"pit-trial","167","1119592","0.0-53.0","battery-v0.2","","""event"",""trial"",""time""
""fullscreenenter"",""1"",""3886""
","
","
","""event"",""trial"",""time""
""fullscreenenter"",""1"",""3886""
","
","","","927.5999999046326","","","12","20189","7308","g","elianto","#f73b6a7A"," "," ","1","-10","[1781.0999999046326]","1","2","","","20189","49","3","3","lose","go","1"
"pit-trial","168","1123300","0.0-54.0","battery-v0.2","","""event"",""trial"",""time""
""fullscreenenter"",""1"",""3886""
","
","
","""event"",""trial"",""time""
""fullscreenenter"",""1"",""3886""
","
","","","850.3999996185303","","","12","20189","7308","p","elianto","#3366ff99","-1"," ","0","0","[1704.6999998092651]","1","2","","","20189","50","4","2","win","no-go","0"
"pit-trial","169","1126973","0.0-55.0","battery-v0.2","","""event"",""trial"",""time""
""fullscreenenter"",""1"",""3886""
","
","
","""event"",""trial"",""time""
""fullscreenenter"",""1"",""3886""
","
","","","819.0999999046326","","","12","20189","7308","l","elianto","#3366ff99"," "," ","1","+10","[1669.9000000953674]","1","2","","","20189","51","1","1","win","go","0"
"pit-trial","170","1131840","0.0-56.0","battery-v0.2","","""event"",""trial"",""time""
""fullscreenenter"",""1"",""3886""
","
","
","""event"",""trial"",""time""
""fullscreenenter"",""1"",""3886""
","
","","","-1","","","12","20189","7308","u","elianto","#f73b6a7A","-1","-1","1","0","[]","0","2","","","20189","52","0","4","lose","no-go","0"
"pit-trial","171","1135506","0.0-57.0","battery-v0.2","","""event"",""trial"",""time""
""fullscreenenter"",""1"",""3886""
","
","
","""event"",""trial"",""time""
""fullscreenenter"",""1"",""3886""
","
","","","801.8000001907349","","","12","20189","7308","p","elianto","#3366ff99","-1"," ","0","0","[1652.7000002861023]","1","2","","","20189","53","4","2","win","no-go","0"
"pit-trial","172","1139033","0.0-58.0","battery-v0.2","","""event"",""trial"",""time""
""fullscreenenter"",""1"",""3886""
","
","
","""event"",""trial"",""time""
""fullscreenenter"",""1"",""3886""
","
","","","659.9000000953674","","","12","20189","7308","l","elianto","#3366ff99"," "," ","1","0","[1516.8000001907349]","1","2","","","20189","54","1","1","win","go","1"
"pit-trial","173","1143894","0.0-59.0","battery-v0.2","","""event"",""trial"",""time""
""fullscreenenter"",""1"",""3886""
","
","
","""event"",""trial"",""time""
""fullscreenenter"",""1"",""3886""
","
","","","-1","","","12","20189","7308","a","elianto","#f73b6a7A","-1","-1","1","0","[]","0","2","","","20189","55","2","4","lose","no-go","0"
"pit-trial","174","1148763","0.0-60.0","battery-v0.2","","""event"",""trial"",""time""
""fullscreenenter"",""1"",""3886""
","
","
","""event"",""trial"",""time""
""fullscreenenter"",""1"",""3886""
","
","","","-1","","","12","20189","7308","u","elianto","#f73b6a7A","-1","-1","1","0","[]","0","2","","","20189","56","0","4","lose","no-go","0"
"pit-trial","175","1152735","0.0-61.0","battery-v0.2","","""event"",""trial"",""time""
""fullscreenenter"",""1"",""3886""
","
","
","""event"",""trial"",""time""
""fullscreenenter"",""1"",""3886""
","
","","","1114.3000001907349","","","12","20189","7308","l","elianto","#3366ff99"," "," ","1","+10","[1969.0999999046326]","1","2","","","20189","57","1","1","win","go","0"
"pit-trial","176","1157605","0.0-62.0","battery-v0.2","","""event"",""trial"",""time""
""fullscreenenter"",""1"",""3886""
","
","
","""event"",""trial"",""time""
""fullscreenenter"",""1"",""3886""
","
","","","-1","","","12","20189","7308","p","elianto","#3366ff99","-1","-1","1","0","[]","0","2","","","20189","58","4","2","win","no-go","1"
"pit-trial","177","1162474","0.0-63.0","battery-v0.2","","""event"",""trial"",""time""
""fullscreenenter"",""1"",""3886""
","
","
","""event"",""trial"",""time""
""fullscreenenter"",""1"",""3886""
","
","","","-1","","","12","20189","7308","g","elianto","#f73b6a7A"," ","-1","0","-10","[]","0","2","","","20189","59","3","3","lose","go","0"
"pit-trial","178","1167295","0.0-64.0","battery-v0.2","","""event"",""trial"",""time""
""fullscreenenter"",""1"",""3886""
","
","
","""event"",""trial"",""time""
""fullscreenenter"",""1"",""3886""
","
","","","1957.3000001907349","","","12","20189","7308","u","elianto","#f73b6a7A","-1"," ","0","-10","[2811.4000000953674]","1","2","","","20189","60","0","4","lose","no-go","0"
"pit-trial","179","1172168","0.0-65.0","battery-v0.2","","""event"",""trial"",""time""
""fullscreenenter"",""1"",""3886""
","
","
","""event"",""trial"",""time""
""fullscreenenter"",""1"",""3886""
","
","","","-1","","","12","20189","7308","p","elianto","#3366ff99","-1","-1","1","+10","[]","0","2","","","20189","61","4","2","win","no-go","0"
"pit-trial","180","1176876","0.0-66.0","battery-v0.2","","""event"",""trial"",""time""
""fullscreenenter"",""1"",""3886""
","
","
","""event"",""trial"",""time""
""fullscreenenter"",""1"",""3886""
","
","","","1843.5999999046326","","","12","20189","7308","l","elianto","#3366ff99"," "," ","1","+10","[2697]","1","2","","","20189","62","1","1","win","go","0"
"pit-trial","181","1181456","0.0-67.0","battery-v0.2","","""event"",""trial"",""time""
""fullscreenenter"",""1"",""3886""
","
","
","""event"",""trial"",""time""
""fullscreenenter"",""1"",""3886""
","
","","","1710.5","","","12","20189","7308","a","elianto","#f73b6a7A","-1"," ","0","0","[2564.9000000953674]","1","2","","","20189","63","2","4","lose","no-go","1"
"pit-trial","182","1186317","0.0-68.0","battery-v0.2","","""event"",""trial"",""time""
""fullscreenenter"",""1"",""3886""
","
","
","""event"",""trial"",""time""
""fullscreenenter"",""1"",""3886""
","
","","","-1","","","12","20189","7308","g","elianto","#f73b6a7A"," ","-1","0","-10","[]","0","2","","","20189","64","3","3","lose","go","0"
"pit-trial","183","1191188","0.0-69.0","battery-v0.2","","""event"",""trial"",""time""
""fullscreenenter"",""1"",""3886""
","
","
","""event"",""trial"",""time""
""fullscreenenter"",""1"",""3886""
","
","","","-1","","","12","20189","7308","a","elianto","#f73b6a7A","-1","-1","1","0","[]","0","2","","","20189","65","2","4","lose","no-go","0"
"pit-trial","184","1194775","0.0-70.0","battery-v0.2","","""event"",""trial"",""time""
""fullscreenenter"",""1"",""3886""
","
","
","""event"",""trial"",""time""
""fullscreenenter"",""1"",""3886""
","
","","","721.1999998092651","","","12","20189","7308","l","elianto","#3366ff99"," "," ","1","+10","[1573.6999998092651]","1","2","","","20189","66","1","1","win","go","0"
"pit-trial","185","1199639","0.0-71.0","battery-v0.2","","""event"",""trial"",""time""
""fullscreenenter"",""1"",""3886""
","
","
","""event"",""trial"",""time""
""fullscreenenter"",""1"",""3886""
","
","","","-1","","","12","20189","7308","g","elianto","#f73b6a7A"," ","-1","0","-10","[]","0","2","","","20189","67","3","3","lose","go","0"
"pit-trial","186","1202978","0.0-72.0","battery-v0.2","","""event"",""trial"",""time""
""fullscreenenter"",""1"",""3886""
","
","
","""event"",""trial"",""time""
""fullscreenenter"",""1"",""3886""
","
","","","479.59999990463257","","","12","20189","7308","p","elianto","#3366ff99","-1"," ","0","0","[1333.7999997138977]","1","2","","","20189","68","4","2","win","no-go","0"
"pit-trial","187","1206645","0.0-73.0","battery-v0.2","","""event"",""trial"",""time""
""fullscreenenter"",""1"",""3886""
","
","
","""event"",""trial"",""time""
""fullscreenenter"",""1"",""3886""
","
","","","806.0999999046326","","","12","20189","7308","p","elianto","#3366ff99","-1"," ","0","0","[1660.3000001907349]","1","2","","","20189","69","4","2","win","no-go","0"
"pit-trial","188","1210259","0.0-74.0","battery-v0.2","","""event"",""trial"",""time""
""fullscreenenter"",""1"",""3886""
","
","
","""event"",""trial"",""time""
""fullscreenenter"",""1"",""3886""
","
","","","753.8999996185303","","","12","20189","7308","s","elianto","#3366ff99"," "," ","1","+10","[1607.4000000953674]","1","2","","","20189","70","5","1","win","go","0"
"pit-trial","189","1215129","0.0-75.0","battery-v0.2","","""event"",""trial"",""time""
""fullscreenenter"",""1"",""3886""
","
","
","""event"",""trial"",""time""
""fullscreenenter"",""1"",""3886""
","
","","","-1","","","12","20189","7308","g","elianto","#f73b6a7A"," ","-1","0","-10","[]","0","2","","","20189","71","3","3","lose","go","0"
"pit-trial","190","1218738","0.0-76.0","battery-v0.2","","""event"",""trial"",""time""
""fullscreenenter"",""1"",""3886""
","
","
","""event"",""trial"",""time""
""fullscreenenter"",""1"",""3886""
","
","","","749.5999999046326","","","12","20189","7308","l","elianto","#3366ff99"," "," ","1","0","[1603.0999999046326]","1","2","","","20189","72","1","1","win","go","1"
"pit-trial","191","1222282","0.0-77.0","battery-v0.2","","""event"",""trial"",""time""
""fullscreenenter"",""1"",""3886""
","
","
","""event"",""trial"",""time""
""fullscreenenter"",""1"",""3886""
","
","","","688.7000002861023","","","12","20189","7308","p","elianto","#3366ff99","-1"," ","0","0","[1538.9000000953674]","1","2","","","20189","73","4","2","win","no-go","0"
"pit-trial","192","1226065","0.0-78.0","battery-v0.2","","""event"",""trial"",""time""
""fullscreenenter"",""1"",""3886""
","
","
","""event"",""trial"",""time""
""fullscreenenter"",""1"",""3886""
","
","","","928.1999998092651","","","12","20189","7308","g","elianto","#f73b6a7A"," "," ","1","0","[1778.5]","1","2","","","20189","74","3","3","lose","go","0"
"pit-trial","193","1230343","0.0-79.0","battery-v0.2","","""event"",""trial"",""time""
""fullscreenenter"",""1"",""3886""
","
","
","""event"",""trial"",""time""
""fullscreenenter"",""1"",""3886""
","
","","","1421.5","","","12","20189","7308","s","elianto","#3366ff99"," "," ","1","+10","[2274]","1","2","","","20189","75","5","1","win","go","0"
"pit-trial","194","1234391","0.0-80.0","battery-v0.2","","""event"",""trial"",""time""
""fullscreenenter"",""1"",""3886""
","
","
","""event"",""trial"",""time""
""fullscreenenter"",""1"",""3886""
","
","","","1193.0999999046326","","","12","20189","7308","l","elianto","#3366ff99"," "," ","1","+10","[2045.4000000953674]","1","2","","","20189","76","1","1","win","go","0"
"pit-trial","195","1238603","0.0-81.0","battery-v0.2","","""event"",""trial"",""time""
""fullscreenenter"",""1"",""3886""
","
","
","""event"",""trial"",""time""
""fullscreenenter"",""1"",""3886""
","
","","","1356.5","","","12","20189","7308","g","elianto","#f73b6a7A"," "," ","1","-10","[2209.0999999046326]","1","2","","","20189","77","3","3","lose","go","1"
"pit-trial","196","1242304","0.0-82.0","battery-v0.2","","""event"",""trial"",""time""
""fullscreenenter"",""1"",""3886""
","
","
","""event"",""trial"",""time""
""fullscreenenter"",""1"",""3886""
","
","","","841.5999999046326","","","12","20189","7308","p","elianto","#3366ff99","-1"," ","0","0","[1691.9000000953674]","1","2","","","20189","78","4","2","win","no-go","0"
"pit-trial","197","1247161","0.0-83.0","battery-v0.2","","""event"",""trial"",""time""
""fullscreenenter"",""1"",""3886""
","
","
","""event"",""trial"",""time""
""fullscreenenter"",""1"",""3886""
","
","","","-1","","","12","20189","7308","w","elianto","#f73b6a7A","-1","-1","1","0","[]","0","2","","","20189","79","6","4","lose","no-go","0"
"pit-trial","198","1250753","0.0-84.0","battery-v0.2","","""event"",""trial"",""time""
""fullscreenenter"",""1"",""3886""
","
","
","""event"",""trial"",""time""
""fullscreenenter"",""1"",""3886""
","
","","","733.5999999046326","","","12","20189","7308","s","elianto","#3366ff99"," "," ","1","+10","[1588.7000002861023]","1","2","","","20189","80","5","1","win","go","0"
"pit-trial","199","1255607","0.0-85.0","battery-v0.2","","""event"",""trial"",""time""
""fullscreenenter"",""1"",""3886""
","
","
","""event"",""trial"",""time""
""fullscreenenter"",""1"",""3886""
","
","","","-1","","","12","20189","7308","w","elianto","#f73b6a7A","-1","-1","1","-10","[]","0","2","","","20189","81","6","4","lose","no-go","1"
"pit-trial","200","1259303","0.0-86.0","battery-v0.2","","""event"",""trial"",""time""
""fullscreenenter"",""1"",""3886""
","
","
","""event"",""trial"",""time""
""fullscreenenter"",""1"",""3886""
","
","","","842","","","12","20189","7308","e","elianto","#f73b6a7A"," "," ","1","0","[1692.9000000953674]","1","2","","","20189","82","7","3","lose","go","0"
"pit-trial","201","1264170","0.0-87.0","battery-v0.2","","""event"",""trial"",""time""
""fullscreenenter"",""1"",""3886""
","
","
","""event"",""trial"",""time""
""fullscreenenter"",""1"",""3886""
","
","","","-1","","","12","20189","7308","p","elianto","#3366ff99","-1","-1","1","+10","[]","0","2","","","20189","83","4","2","win","no-go","0"
"pit-trial","202","1268112","0.0-88.0","battery-v0.2","","""event"",""trial"",""time""
""fullscreenenter"",""1"",""3886""
","
","
","""event"",""trial"",""time""
""fullscreenenter"",""1"",""3886""
","
","","","1086.0999999046326","","","12","20189","7308","s","elianto","#3366ff99"," "," ","1","0","[1937.0999999046326]","1","2","","","20189","84","5","1","win","go","1"
"pit-trial","203","1272628","0.0-89.0","battery-v0.2","","""event"",""trial"",""time""
""fullscreenenter"",""1"",""3886""
","
","
","""event"",""trial"",""time""
""fullscreenenter"",""1"",""3886""
","
","","","1660.8999996185303","","","12","20189","7308","p","elianto","#3366ff99","-1"," ","0","0","[2511.699999809265]","1","2","","","20189","85","4","2","win","no-go","0"
"pit-trial","204","1277240","0.0-90.0","battery-v0.2","","""event"",""trial"",""time""
""fullscreenenter"",""1"",""3886""
","
","
","""event"",""trial"",""time""
""fullscreenenter"",""1"",""3886""
","
","","","1759","","","12","20189","7308","s","elianto","#3366ff99"," "," ","1","+10","[2610.0999999046326]","1","2","","","20189","86","5","1","win","go","0"
"pit-trial","205","1281751","0.0-91.0","battery-v0.2","","""event"",""trial"",""time""
""fullscreenenter"",""1"",""3886""
","
","
","""event"",""trial"",""time""
""fullscreenenter"",""1"",""3886""
","
","","","1656","","","12","20189","7308","e","elianto","#f73b6a7A"," "," ","1","0","[2506.8999996185303]","1","2","","","20189","87","7","3","lose","go","0"
"pit-trial","206","1285655","0.0-92.0","battery-v0.2","","""event"",""trial"",""time""
""fullscreenenter"",""1"",""3886""
","
","
","""event"",""trial"",""time""
""fullscreenenter"",""1"",""3886""
","
","","","1051.2000002861023","","","12","20189","7308","w","elianto","#f73b6a7A","-1"," ","0","-10","[1902.3000001907349]","1","2","","","20189","88","6","4","lose","no-go","0"
"pit-trial","207","1289688","0.0-93.0","battery-v0.2","","""event"",""trial"",""time""
""fullscreenenter"",""1"",""3886""
","
","
","""event"",""trial"",""time""
""fullscreenenter"",""1"",""3886""
","
","","","1178.5999999046326","","","12","20189","7308","w","elianto","#f73b6a7A","-1"," ","0","-10","[2029.6999998092651]","1","2","","","20189","89","6","4","lose","no-go","0"
"pit-trial","208","1294570","0.0-94.0","battery-v0.2","","""event"",""trial"",""time""
""fullscreenenter"",""1"",""3886""
","
","
","""event"",""trial"",""time""
""fullscreenenter"",""1"",""3886""
","
","","","-1","","","12","20189","7308","p","elianto","#3366ff99","-1","-1","1","+10","[]","0","2","","","20189","90","4","2","win","no-go","0"
"pit-trial","209","1299441","0.0-95.0","battery-v0.2","","""event"",""trial"",""time""
""fullscreenenter"",""1"",""3886""
","
","
","""event"",""trial"",""time""
""fullscreenenter"",""1"",""3886""
","
","","","-1","","","12","20189","7308","e","elianto","#f73b6a7A"," ","-1","0","-10","[]","0","2","","","20189","91","7","3","lose","go","0"
"pit-trial","210","1303135","0.0-96.0","battery-v0.2","","""event"",""trial"",""time""
""fullscreenenter"",""1"",""3886""
","
","
","""event"",""trial"",""time""
""fullscreenenter"",""1"",""3886""
","
","","","830.4000000953674","","","12","20189","7308","s","elianto","#3366ff99"," "," ","1","+10","[1685.6999998092651]","1","2","","","20189","92","5","1","win","go","0"
"pit-trial","211","1306876","0.0-97.0","battery-v0.2","","""event"",""trial"",""time""
""fullscreenenter"",""1"",""3886""
","
","
","""event"",""trial"",""time""
""fullscreenenter"",""1"",""3886""
","
","","","887","","","12","20189","7308","s","elianto","#3366ff99"," "," ","1","+10","[1737.5999999046326]","1","2","","","20189","93","5","1","win","go","0"
"pit-trial","212","1311733","0.0-98.0","battery-v0.2","","""event"",""trial"",""time""
""fullscreenenter"",""1"",""3886""
","
","
","""event"",""trial"",""time""
""fullscreenenter"",""1"",""3886""
","
","","","-1","","","12","20189","7308","w","elianto","#f73b6a7A","-1","-1","1","0","[]","0","2","","","20189","94","6","4","lose","no-go","0"
"pit-trial","213","1315714","0.0-99.0","battery-v0.2","","""event"",""trial"",""time""
""fullscreenenter"",""1"",""3886""
","
","
","""event"",""trial"",""time""
""fullscreenenter"",""1"",""3886""
","
","","","1126","","","12","20189","7308","d","elianto","#3366ff99","-1"," ","0","0","[1976.0999999046326]","1","2","","","20189","95","8","2","win","no-go","0"
"pit-trial","214","1319935","0.0-100.0","battery-v0.2","","""event"",""trial"",""time""
""fullscreenenter"",""1"",""3886""
","
","
","""event"",""trial"",""time""
""fullscreenenter"",""1"",""3886""
","
","","","1361.8000001907349","","","12","20189","7308","e","elianto","#f73b6a7A"," "," ","1","0","[2217.5999999046326]","1","2","","","20189","96","7","3","lose","go","0"
"pit-trial","215","1323990","0.0-101.0","battery-v0.2","","""event"",""trial"",""time""
""fullscreenenter"",""1"",""3886""
","
","
","""event"",""trial"",""time""
""fullscreenenter"",""1"",""3886""
","
","","","1192","","","12","20189","7308","e","elianto","#f73b6a7A"," "," ","1","0","[2043.1999998092651]","1","2","","","20189","97","7","3","lose","go","0"
"pit-trial","216","1328853","0.0-102.0","battery-v0.2","","""event"",""trial"",""time""
""fullscreenenter"",""1"",""3886""
","
","
","""event"",""trial"",""time""
""fullscreenenter"",""1"",""3886""
","
","","","-1","","","12","20189","7308","w","elianto","#f73b6a7A","-1","-1","1","0","[]","0","2","","","20189","98","6","4","lose","no-go","0"
"pit-trial","217","1333027","0.0-103.0","battery-v0.2","","""event"",""trial"",""time""
""fullscreenenter"",""1"",""3886""
","
","
","""event"",""trial"",""time""
""fullscreenenter"",""1"",""3886""
","
","","","1303.8999996185303","","","12","20189","7308","d","elianto","#3366ff99","-1"," ","0","0","[2161.5]","1","2","","","20189","99","8","2","win","no-go","0"
"pit-trial","218","1336858","0.0-104.0","battery-v0.2","","""event"",""trial"",""time""
""fullscreenenter"",""1"",""3886""
","
","
","""event"",""trial"",""time""
""fullscreenenter"",""1"",""3886""
","
","","","974.4000000953674","","","12","20189","7308","s","elianto","#3366ff99"," "," ","1","0","[1825.6000003814697]","1","2","","","20189","100","5","1","win","go","1"
"pit-trial","219","1341724","0.0-105.0","battery-v0.2","","""event"",""trial"",""time""
""fullscreenenter"",""1"",""3886""
","
","
","""event"",""trial"",""time""
""fullscreenenter"",""1"",""3886""
","
","","","-1","","","12","20189","7308","w","elianto","#f73b6a7A","-1","-1","1","0","[]","0","2","","","20189","101","6","4","lose","no-go","0"
"pit-trial","220","1345931","0.0-106.0","battery-v0.2","","""event"",""trial"",""time""
""fullscreenenter"",""1"",""3886""
","
","
","""event"",""trial"",""time""
""fullscreenenter"",""1"",""3886""
","
","","","1345.1999998092651","","","12","20189","7308","s","elianto","#3366ff99"," "," ","1","+10","[2197.699999809265]","1","2","","","20189","102","5","1","win","go","0"
"pit-trial","221","1350794","0.0-107.0","battery-v0.2","","""event"",""trial"",""time""
""fullscreenenter"",""1"",""3886""
","
","
","""event"",""trial"",""time""
""fullscreenenter"",""1"",""3886""
","
","","","-1","","","12","20189","7308","d","elianto","#3366ff99","-1","-1","1","0","[]","0","2","","","20189","103","8","2","win","no-go","1"
"pit-trial","222","1354471","0.0-108.0","battery-v0.2","","""event"",""trial"",""time""
""fullscreenenter"",""1"",""3886""
","
","
","""event"",""trial"",""time""
""fullscreenenter"",""1"",""3886""
","
","","","813.4000000953674","","","12","20189","7308","j","elianto","#3366ff99","-1"," ","0","0","[1664.8000001907349]","1","2","","","20189","104","9","2","win","no-go","0"
"pit-trial","223","1358335","0.0-109.0","battery-v0.2","","""event"",""trial"",""time""
""fullscreenenter"",""1"",""3886""
","
","
","""event"",""trial"",""time""
""fullscreenenter"",""1"",""3886""
","
","","","1002.8000001907349","","","12","20189","7308","s","elianto","#3366ff99"," "," ","1","+10","[1854.5]","1","2","","","20189","105","5","1","win","go","0"
"pit-trial","224","1362616","0.0-110.0","battery-v0.2","","""event"",""trial"",""time""
""fullscreenenter"",""1"",""3886""
","
","
","""event"",""trial"",""time""
""fullscreenenter"",""1"",""3886""
","
","","","1426.9000000953674","","","12","20189","7308","d","elianto","#3366ff99","-1"," ","0","+10","[2278]","1","2","","","20189","106","8","2","win","no-go","1"
"pit-trial","225","1367208","0.0-111.0","battery-v0.2","","""event"",""trial"",""time""
""fullscreenenter"",""1"",""3886""
","
","
","""event"",""trial"",""time""
""fullscreenenter"",""1"",""3886""
","
","","","1730.3000001907349","","","12","20189","7308","j","elianto","#3366ff99","-1"," ","0","0","[2581.699999809265]","1","2","","","20189","107","9","2","win","no-go","0"
"pit-trial","226","1372075","0.0-112.0","battery-v0.2","","""event"",""trial"",""time""
""fullscreenenter"",""1"",""3886""
","
","
","""event"",""trial"",""time""
""fullscreenenter"",""1"",""3886""
","
","","","-1","","","12","20189","7308","w","elianto","#f73b6a7A","-1","-1","1","0","[]","0","2","","","20189","108","6","4","lose","no-go","0"
"pit-trial","227","1376297","0.0-113.0","battery-v0.2","","""event"",""trial"",""time""
""fullscreenenter"",""1"",""3886""
","
","
","""event"",""trial"",""time""
""fullscreenenter"",""1"",""3886""
","
","","","1365.9000000953674","","","12","20189","7308","d","elianto","#3366ff99","-1"," ","0","0","[2219.9000000953674]","1","2","","","20189","109","8","2","win","no-go","0"
"pit-trial","228","1380329","0.0-114.0","battery-v0.2","","""event"",""trial"",""time""
""fullscreenenter"",""1"",""3886""
","
","
","""event"",""trial"",""time""
""fullscreenenter"",""1"",""3886""
","
","","","1176.5999999046326","","","12","20189","7308","s","elianto","#3366ff99"," "," ","1","+10","[2027.0999999046326]","1","2","","","20189","110","5","1","win","go","0"
"pit-trial","229","1385196","0.0-115.0","battery-v0.2","","""event"",""trial"",""time""
""fullscreenenter"",""1"",""3886""
","
","
","""event"",""trial"",""time""
""fullscreenenter"",""1"",""3886""
","
","","","-1","","","12","20189","7308","w","elianto","#f73b6a7A","-1","-1","1","0","[]","0","2","","","20189","111","6","4","lose","no-go","0"
"pit-trial","230","1390071","0.0-116.0","battery-v0.2","","""event"",""trial"",""time""
""fullscreenenter"",""1"",""3886""
","
","
","""event"",""trial"",""time""
""fullscreenenter"",""1"",""3886""
","
","","","-1","","","12","20189","7308","j","elianto","#3366ff99","-1","-1","1","+10","[]","0","2","","","20189","112","9","2","win","no-go","0"
"pit-trial","231","1394295","0.0-117.0","battery-v0.2","","""event"",""trial"",""time""
""fullscreenenter"",""1"",""3886""
","
","
","""event"",""trial"",""time""
""fullscreenenter"",""1"",""3886""
","
","","","1356.3000001907349","","","12","20189","7308","s","elianto","#3366ff99"," "," ","1","+10","[2216.9000000953674]","1","2","","","20189","113","5","1","win","go","0"
"pit-trial","232","1399160","0.0-118.0","battery-v0.2","","""event"",""trial"",""time""
""fullscreenenter"",""1"",""3886""
","
","
","""event"",""trial"",""time""
""fullscreenenter"",""1"",""3886""
","
","","","-1","","","12","20189","7308","j","elianto","#3366ff99","-1","-1","1","+10","[]","0","2","","","20189","114","9","2","win","no-go","0"
"pit-trial","233","1403151","0.0-119.0","battery-v0.2","","""event"",""trial"",""time""
""fullscreenenter"",""1"",""3886""
","
","
","""event"",""trial"",""time""
""fullscreenenter"",""1"",""3886""
","
","","","1125.4000000953674","","","12","20189","7308","e","elianto","#f73b6a7A"," "," ","1","-10","[1978.3999996185303]","1","2","","","20189","115","7","3","lose","go","1"
"pit-trial","234","1407045","0.0-120.0","battery-v0.2","","""event"",""trial"",""time""
""fullscreenenter"",""1"",""3886""
","
","
","""event"",""trial"",""time""
""fullscreenenter"",""1"",""3886""
","
","","","1028.5999999046326","","","12","20189","7308","d","elianto","#3366ff99","-1"," ","0","+10","[1882.5]","1","2","","","20189","116","8","2","win","no-go","1"
"pit-trial","235","1411272","0.0-121.0","battery-v0.2","","""event"",""trial"",""time""
""fullscreenenter"",""1"",""3886""
","
","
","""event"",""trial"",""time""
""fullscreenenter"",""1"",""3886""
","
","","","1364.0999999046326","","","12","20189","7308","d","elianto","#3366ff99","-1"," ","0","+10","[2216.7000002861023]","1","2","","","20189","117","8","2","win","no-go","1"
"pit-trial","236","1416141","0.0-122.0","battery-v0.2","","""event"",""trial"",""time""
""fullscreenenter"",""1"",""3886""
","
","
","""event"",""trial"",""time""
""fullscreenenter"",""1"",""3886""
","
","","","-1","","","12","20189","7308","w","elianto","#f73b6a7A","-1","-1","1","0","[]","0","2","","","20189","118","6","4","lose","no-go","0"
"pit-trial","237","1421003","0.0-123.0","battery-v0.2","","""event"",""trial"",""time""
""fullscreenenter"",""1"",""3886""
","
","
","""event"",""trial"",""time""
""fullscreenenter"",""1"",""3886""
","
","","","-1","","","12","20189","7308","j","elianto","#3366ff99","-1","-1","1","+10","[]","0","2","","","20189","119","9","2","win","no-go","0"
"pit-trial","238","1425147","0.0-124.0","battery-v0.2","","""event"",""trial"",""time""
""fullscreenenter"",""1"",""3886""
","
","
","""event"",""trial"",""time""
""fullscreenenter"",""1"",""3886""
","
","","","1282.2999997138977","","","12","20189","7308","s","elianto","#3366ff99"," "," ","1","+10","[2132.5999999046326]","1","2","","","20189","120","5","1","win","go","0"
"pit-trial","239","1430002","0.0-125.0","battery-v0.2","","""event"",""trial"",""time""
""fullscreenenter"",""1"",""3886""
","
","
","""event"",""trial"",""time""
""fullscreenenter"",""1"",""3886""
","
","","","-1","","","12","20189","7308","e","elianto","#f73b6a7A"," ","-1","0","-10","[]","0","2","","","20189","121","7","3","lose","go","0"
"pit-trial","240","1433963","0.0-126.0","battery-v0.2","","""event"",""trial"",""time""
""fullscreenenter"",""1"",""3886""
","
","
","""event"",""trial"",""time""
""fullscreenenter"",""1"",""3886""
","
","","","1095.7000002861023","","","12","20189","7308","d","elianto","#3366ff99","-1"," ","0","0","[1952.0999999046326]","1","2","","","20189","122","8","2","win","no-go","0"
"pit-trial","241","1437555","0.0-127.0","battery-v0.2","","""event"",""trial"",""time""
""fullscreenenter"",""1"",""3886""
","
","
","""event"",""trial"",""time""
""fullscreenenter"",""1"",""3886""
","
","","","733.7000002861023","","","12","20189","7308","s","elianto","#3366ff99"," "," ","1","+10","[1584.2000002861023]","1","2","","","20189","123","5","1","win","go","0"
"pit-trial","242","1442423","0.0-128.0","battery-v0.2","","""event"",""trial"",""time""
""fullscreenenter"",""1"",""3886""
","
","
","""event"",""trial"",""time""
""fullscreenenter"",""1"",""3886""
","
","","","-1","","","12","20189","7308","j","elianto","#3366ff99","-1","-1","1","+10","[]","0","2","","","20189","124","9","2","win","no-go","0"
"pit-trial","243","1447286","0.0-129.0","battery-v0.2","","""event"",""trial"",""time""
""fullscreenenter"",""1"",""3886""
","
","
","""event"",""trial"",""time""
""fullscreenenter"",""1"",""3886""
","
","","","-1","","","12","20189","7308","w","elianto","#f73b6a7A","-1","-1","1","0","[]","0","2","","","20189","125","6","4","lose","no-go","0"
"pit-trial","244","1451057","0.0-130.0","battery-v0.2","","""event"",""trial"",""time""
""fullscreenenter"",""1"",""3886""
","
","
","""event"",""trial"",""time""
""fullscreenenter"",""1"",""3886""
","
","","","916.5","","","12","20189","7308","e","elianto","#f73b6a7A"," "," ","1","0","[1766.8999996185303]","1","2","","","20189","126","7","3","lose","go","0"
"pit-trial","245","1455912","0.0-131.0","battery-v0.2","","""event"",""trial"",""time""
""fullscreenenter"",""1"",""3886""
","
","
","""event"",""trial"",""time""
""fullscreenenter"",""1"",""3886""
","
","","","-1","","","12","20189","7308","j","elianto","#3366ff99","-1","-1","1","+10","[]","0","2","","","20189","127","9","2","win","no-go","0"
"pit-trial","246","1459616","0.0-132.0","battery-v0.2","","""event"",""trial"",""time""
""fullscreenenter"",""1"",""3886""
","
","
","""event"",""trial"",""time""
""fullscreenenter"",""1"",""3886""
","
","","","838.1999998092651","","","12","20189","7308","d","elianto","#3366ff99","-1"," ","0","0","[1692.6999998092651]","1","2","","","20189","128","8","2","win","no-go","0"
"pit-trial","247","1464482","0.0-133.0","battery-v0.2","","""event"",""trial"",""time""
""fullscreenenter"",""1"",""3886""
","
","
","""event"",""trial"",""time""
""fullscreenenter"",""1"",""3886""
","
","","","-1","","","12","20189","7308","e","elianto","#f73b6a7A"," ","-1","0","-10","[]","0","2","","","20189","129","7","3","lose","go","0"
"pit-trial","248","1469350","0.0-134.0","battery-v0.2","","""event"",""trial"",""time""
""fullscreenenter"",""1"",""3886""
","
","
","""event"",""trial"",""time""
""fullscreenenter"",""1"",""3886""
","
","","","-1","","","12","20189","7308","w","elianto","#f73b6a7A","-1","-1","1","0","[]","0","2","","","20189","130","6","4","lose","no-go","0"
"pit-trial","249","1473035","0.0-135.0","battery-v0.2","","""event"",""trial"",""time""
""fullscreenenter"",""1"",""3886""
","
","
","""event"",""trial"",""time""
""fullscreenenter"",""1"",""3886""
","
","","","823.7000002861023","","","12","20189","7308","d","elianto","#3366ff99","-1"," ","0","0","[1680.5999999046326]","1","2","","","20189","131","8","2","win","no-go","0"
"pit-trial","250","1477902","0.0-136.0","battery-v0.2","","""event"",""trial"",""time""
""fullscreenenter"",""1"",""3886""
","
","
","""event"",""trial"",""time""
""fullscreenenter"",""1"",""3886""
","
","","","-1","","","12","20189","7308","j","elianto","#3366ff99","-1","-1","1","+10","[]","0","2","","","20189","132","9","2","win","no-go","0"
"pit-trial","251","1482706","0.0-137.0","battery-v0.2","","""event"",""trial"",""time""
""fullscreenenter"",""1"",""3886""
","
","
","""event"",""trial"",""time""
""fullscreenenter"",""1"",""3886""
","
","","","1948.5999999046326","","","12","20189","7308","j","elianto","#3366ff99","-1"," ","0","0","[2800.199999809265]","1","2","","","20189","133","9","2","win","no-go","0"
"pit-trial","252","1487572","0.0-138.0","battery-v0.2","","""event"",""trial"",""time""
""fullscreenenter"",""1"",""3886""
","
","
","""event"",""trial"",""time""
""fullscreenenter"",""1"",""3886""
","
","","","-1","","","12","20189","7308","e","elianto","#f73b6a7A"," ","-1","0","0","[2971.9000000953674]","1","2","","","20189","134","7","3","lose","go","1"
"pit-trial","253","1492047","0.0-139.0","battery-v0.2","","""event"",""trial"",""time""
""fullscreenenter"",""1"",""3886""
","
","
","""event"",""trial"",""time""
""fullscreenenter"",""1"",""3886""
","
","","","1610","","","12","20189","7308","w","elianto","#f73b6a7A","-1"," ","0","-10","[2465.5999999046326]","1","2","","","20189","135","6","4","lose","no-go","0"
"pit-trial","254","1495825","0.0-140.0","battery-v0.2","","""event"",""trial"",""time""
""fullscreenenter"",""1"",""3886""
","
","
","""event"",""trial"",""time""
""fullscreenenter"",""1"",""3886""
","
","","","917.6999998092651","","","12","20189","7308","d","elianto","#3366ff99","-1"," ","0","0","[1769.8000001907349]","1","2","","","20189","136","8","2","win","no-go","0"
"pit-trial","255","1500690","0.0-141.0","battery-v0.2","","""event"",""trial"",""time""
""fullscreenenter"",""1"",""3886""
","
","
","""event"",""trial"",""time""
""fullscreenenter"",""1"",""3886""
","
","","","-1","","","12","20189","7308","e","elianto","#f73b6a7A"," ","-1","0","-10","[]","0","2","","","20189","137","7","3","lose","go","0"
"pit-trial","256","1504321","0.0-142.0","battery-v0.2","","""event"",""trial"",""time""
""fullscreenenter"",""1"",""3886""
","
","
","""event"",""trial"",""time""
""fullscreenenter"",""1"",""3886""
","
","","","763.5999999046326","","","12","20189","7308","j","elianto","#3366ff99","-1"," ","0","0","[1617.7000002861023]","1","2","","","20189","138","9","2","win","no-go","0"
"pit-trial","257","1509184","0.0-143.0","battery-v0.2","","""event"",""trial"",""time""
""fullscreenenter"",""1"",""3886""
","
","
","""event"",""trial"",""time""
""fullscreenenter"",""1"",""3886""
","
","","","-1","","","12","20189","7308","w","elianto","#f73b6a7A","-1","-1","1","0","[]","0","2","","","20189","139","6","4","lose","no-go","0"
"pit-trial","258","1512852","0.0-144.0","battery-v0.2","","""event"",""trial"",""time""
""fullscreenenter"",""1"",""3886""
","
","
","""event"",""trial"",""time""
""fullscreenenter"",""1"",""3886""
","
","","","814.4000000953674","","","12","20189","7308","d","elianto","#3366ff99","-1"," ","0","0","[1664.4000000953674]","1","2","","","20189","140","8","2","win","no-go","0"
"pit-instructions","259","1594006","0.0-145.0","battery-v0.2","","""event"",""trial"",""time""
""fullscreenenter"",""1"",""3886""
","
","
","""event"",""trial"",""time""
""fullscreenenter"",""1"",""3886""
","
","","[{""page_index"":0,""viewing_time"":67586.30000019073},{""page_index"":1,""viewing_time"":13565.799999713898}]","81152.69999980927","","","","","","","","","","","","","","","","","","","","","","","",""
"pit-trial","260","1597672","0.0-146.0","battery-v0.2","","""event"",""trial"",""time""
""fullscreenenter"",""1"",""3886""
","
","
","""event"",""trial"",""time""
""fullscreenenter"",""1"",""3886""
","
","","","794.4000000953674","","","12","20189","7308","f","elianto","#3366ff99","-1"," ","0","0","[1650.3000001907349]","1","3","","","20189","141","1","2","win","no-go","0"
"pit-trial","261","1601451","0.0-147.0","battery-v0.2","","""event"",""trial"",""time""
""fullscreenenter"",""1"",""3886""
","
","
","""event"",""trial"",""time""
""fullscreenenter"",""1"",""3886""
","
","","","909.4000000953674","","","12","20189","7308","t","elianto","#f73b6a7A"," "," ","1","0","[1763.6999998092651]","1","3","","","20189","142","2","3","lose","go","0"
"pit-trial","262","1604899","0.0-148.0","battery-v0.2","","""event"",""trial"",""time""
""fullscreenenter"",""1"",""3886""
","
","
","""event"",""trial"",""time""
""fullscreenenter"",""1"",""3886""
","
","","","582.1999998092651","","","12","20189","7308","n","elianto","#f73b6a7A"," "," ","1","0","[1436.1999998092651]","1","3","","","20189","143","0","3","lose","go","0"
"pit-trial","263","1608355","0.0-149.0","battery-v0.2","","""event"",""trial"",""time""
""fullscreenenter"",""1"",""3886""
","
","
","""event"",""trial"",""time""
""fullscreenenter"",""1"",""3886""
","
","","","600.5999999046326","","","12","20189","7308","b","elianto","#f73b6a7A","-1"," ","0","0","[1451.8000001907349]","1","3","","","20189","144","3","4","lose","no-go","1"
"pit-trial","264","1612253","0.0-150.0","battery-v0.2","","""event"",""trial"",""time""
""fullscreenenter"",""1"",""3886""
","
","
","""event"",""trial"",""time""
""fullscreenenter"",""1"",""3886""
","
