"trial_type","trial_index","time_elapsed","internal_node_id","task_version","subject_id","interactions","blur_events","focus_events","fullscreenenter_events","fullscreenexit_events","success","view_history","rt","responses","num_errors","age","subject","participantId","rune","rune_set","hex","correct","choice","accuracy","outcome","keys","total_keys","block","practice","value","sub","trial","stimulus","robot","valence","action","sham"
"pavlovia","0","5","0.0-0.0","battery-v0.2","","""event"",""trial"",""time""
""fullscreenenter"",""1"",""3428""
","
","
","""event"",""trial"",""time""
""fullscreenenter"",""1"",""3428""
","
","","","","","","","","","","","","","","","","","","","","","","","","","","",""
"fullscreen","1","4409","0.0-1.0","battery-v0.2","","""event"",""trial"",""time""
""fullscreenenter"",""1"",""3428""
","
","
","""event"",""trial"",""time""
""fullscreenenter"",""1"",""3428""
","
","true","","","","","","","","","","","","","","","","","","","","","","","","","",""
"pit-instructions","2","10690","0.0-2.0-0.0","battery-v0.2","","""event"",""trial"",""time""
""fullscreenenter"",""1"",""3428""
","
","
","""event"",""trial"",""time""
""fullscreenenter"",""1"",""3428""
","
","","[{""page_index"":0,""viewing_time"":6278.5}]","6278.700000000012","","","","","","","","","","","","","","","","","","","","","","","",""
"pit-comprehension","3","13772","0.0-2.0-1.0-0.0","battery-v0.2","","""event"",""trial"",""time""
""fullscreenenter"",""1"",""3428""
","
","
","""event"",""trial"",""time""
""fullscreenenter"",""1"",""3428""
","
","","","3080.5","[""shark""]","0","14","18218","6804","","","","","","","","","","","","","","","","","","",""
"pit-instructions","4","14808","0.0-2.0-1.0-1.0","battery-v0.2","","""event"",""trial"",""time""
""fullscreenenter"",""1"",""3428""
","
","
","""event"",""trial"",""time""
""fullscreenenter"",""1"",""3428""
","
","","[{""page_index"":0,""viewing_time"":1029.600000000035}]","1029.8000000000466","","","","","","","","","","","","","","","","","","","","","","","",""
"pit-comprehension","5","17775","0.0-2.0-2.0-0.0","battery-v0.2","","""event"",""trial"",""time""
""fullscreenenter"",""1"",""3428""
","
","
","""event"",""trial"",""time""
""fullscreenenter"",""1"",""3428""
","
","","","2965.7999999999884","[""tiger""]","0","14","18218","6804","","","","","","","","","","","","","","","","","","",""
"pit-instructions","6","18496","0.0-2.0-2.0-1.0","battery-v0.2","","""event"",""trial"",""time""
""fullscreenenter"",""1"",""3428""
","
","
","""event"",""trial"",""time""
""fullscreenenter"",""1"",""3428""
","
","","[{""page_index"":0,""viewing_time"":719.3999999999651}]","719.5","","","","","","","","","","","","","","","","","","","","","","","",""
"pit-instructions","7","121280","0.0-2.0-3.0","battery-v0.2","","""event"",""trial"",""time""
""fullscreenenter"",""1"",""3428""
","
","
","""event"",""trial"",""time""
""fullscreenenter"",""1"",""3428""
","
","","[{""page_index"":0,""viewing_time"":9856},{""page_index"":1,""viewing_time"":6133.399999999965},{""page_index"":2,""viewing_time"":7532.800000000047},{""page_index"":3,""viewing_time"":5828},{""page_index"":4,""viewing_time"":8766.099999999977},{""page_index"":5,""viewing_time"":5529.099999999977},{""page_index"":6,""viewing_time"":7369.5},{""page_index"":7,""viewing_time"":6788.700000000012},{""page_index"":8,""viewing_time"":6448.900000000023},{""page_index"":9,""viewing_time"":8370.200000000012},{""page_index"":10,""viewing_time"":7830.79999999993},{""page_index"":11,""viewing_time"":8887.100000000093},{""page_index"":12,""viewing_time"":7448.599999999977},{""page_index"":13,""viewing_time"":5993.5}]","102782.89999999997","","","","","","","","","","","","","","","","","","","","","","","",""
"pit-trial","8","124961","0.0-2.0-4.0-0.0","battery-v0.2","","""event"",""trial"",""time""
""fullscreenenter"",""1"",""3428""
","
","
","""event"",""trial"",""time""
""fullscreenenter"",""1"",""3428""
","
","","","824.6999999999534","","","14","18218","6804","&#9784;","elianto","#FFFFF080"," "," ","1","&#10004","[1677.4000000000233]","1","0","0","","","","","","","",""
"pit-trial","9","128528","0.0-2.0-4.1-0.1","battery-v0.2","","""event"",""trial"",""time""
""fullscreenenter"",""1"",""3428""
","
","
","""event"",""trial"",""time""
""fullscreenenter"",""1"",""3428""
","
","","","712.6999999999534","","","14","18218","6804","&#9784;","elianto","#FFFFF080"," "," ","1","&#10004","[1562.8000000000466]","1","0","0","","","","","","","",""
"pit-trial","10","131799","0.0-2.0-4.2-0.2","battery-v0.2","","""event"",""trial"",""time""
""fullscreenenter"",""1"",""3428""
","
","
","""event"",""trial"",""time""
""fullscreenenter"",""1"",""3428""
","
","","","418","","","14","18218","6804","&#9784;","elianto","#FFFFF080"," "," ","1","&#10004","[1268.5]","1","0","0","","","","","","","",""
"pit-trial","11","134991","0.0-2.0-4.3-0.3","battery-v0.2","","""event"",""trial"",""time""
""fullscreenenter"",""1"",""3428""
","
","
","""event"",""trial"",""time""
""fullscreenenter"",""1"",""3428""
","
","","","330.5","","","14","18218","6804","&#9784;","elianto","#FFFFF080"," "," ","1","&#10004","[1182.0999999999767]","1","0","0","","","","","","","",""
"pit-trial","12","138745","0.0-2.0-4.4-0.4","battery-v0.2","","""event"",""trial"",""time""
""fullscreenenter"",""1"",""3428""
","
","
","""event"",""trial"",""time""
""fullscreenenter"",""1"",""3428""
","
","","","885.5999999999767","","","14","18218","6804","&#9784;","elianto","#FFFFF080"," "," ","1","&#10004","[1738]","1","0","0","","","","","","","",""
"pit-instructions","13","159685","0.0-2.0-5.0","battery-v0.2","","""event"",""trial"",""time""
""fullscreenenter"",""1"",""3428""
","
","
","""event"",""trial"",""time""
""fullscreenenter"",""1"",""3428""
","
","","[{""page_index"":0,""viewing_time"":4708.300000000047},{""page_index"":1,""viewing_time"":5140.400000000023},{""page_index"":2,""viewing_time"":4961.699999999953},{""page_index"":3,""viewing_time"":6128}]","20938.70000000007","","","","","","","","","","","","","","","","","","","","","","","",""
"pit-trial","14","164543","0.0-2.0-6.0-0.0","battery-v0.2","","""event"",""trial"",""time""
""fullscreenenter"",""1"",""3428""
","
","
","""event"",""trial"",""time""
""fullscreenenter"",""1"",""3428""
","
","","","-1","","","14","18218","6804","&#9854;","elianto","#FFFFF080","-1","-1","1","&#10004","[]","0","0","1","","","","","","","",""
"pit-trial","15","169412","0.0-2.0-6.1-0.1","battery-v0.2","","""event"",""trial"",""time""
""fullscreenenter"",""1"",""3428""
","
","
","""event"",""trial"",""time""
""fullscreenenter"",""1"",""3428""
","
","","","-1","","","14","18218","6804","&#9854;","elianto","#FFFFF080","-1","-1","1","&#10004","[]","0","0","1","","","","","","","",""
"pit-trial","16","174273","0.0-2.0-6.2-0.2","battery-v0.2","","""event"",""trial"",""time""
""fullscreenenter"",""1"",""3428""
","
","
","""event"",""trial"",""time""
""fullscreenenter"",""1"",""3428""
","
","","","-1","","","14","18218","6804","&#9854;","elianto","#FFFFF080","-1","-1","1","&#10004","[]","0","0","1","","","","","","","",""
"pit-trial","17","179139","0.0-2.0-6.3-0.3","battery-v0.2","","""event"",""trial"",""time""
""fullscreenenter"",""1"",""3428""
","
","
","""event"",""trial"",""time""
""fullscreenenter"",""1"",""3428""
","
","","","-1","","","14","18218","6804","&#9854;","elianto","#FFFFF080","-1","-1","1","&#10004","[]","0","0","1","","","","","","","",""
"pit-trial","18","184007","0.0-2.0-6.4-0.4","battery-v0.2","","""event"",""trial"",""time""
""fullscreenenter"",""1"",""3428""
","
","
","""event"",""trial"",""time""
""fullscreenenter"",""1"",""3428""
","
","","","-1","","","14","18218","6804","&#9854;","elianto","#FFFFF080","-1","-1","1","&#10004","[]","0","0","1","","","","","","","",""
"pit-instructions","19","314636","0.0-2.0-7.0","battery-v0.2","","""event"",""trial"",""time""
""fullscreenenter"",""1"",""3428""
","
","
","""event"",""trial"",""time""
""fullscreenenter"",""1"",""3428""
","
","","[{""page_index"":0,""viewing_time"":6319.699999999953},{""page_index"":1,""viewing_time"":8466.800000000047},{""page_index"":2,""viewing_time"":6739.5},{""page_index"":3,""viewing_time"":8332.400000000023},{""page_index"":4,""viewing_time"":7612.599999999977},{""page_index"":5,""viewing_time"":8717.400000000023},{""page_index"":6,""viewing_time"":7272},{""page_index"":7,""viewing_time"":7748.5},{""page_index"":8,""viewing_time"":6589.900000000023},{""page_index"":9,""viewing_time"":8532.5},{""page_index"":10,""viewing_time"":6147.29999999993},{""page_index"":11,""viewing_time"":4613.5},{""page_index"":12,""viewing_time"":7100.5},{""page_index"":13,""viewing_time"":7564.099999999977},{""page_index"":14,""viewing_time"":7292.300000000047},{""page_index"":15,""viewing_time"":6250},{""page_index"":16,""viewing_time"":7346.900000000023},{""page_index"":17,""viewing_time"":7981.099999999977}]","130627.40000000002","","","","","","","","","","","","","","","","","","","","","","","",""
"pit-trial","20","317977","0.0-2.0-8.0-0.0","battery-v0.2","","""event"",""trial"",""time""
""fullscreenenter"",""1"",""3428""
","
","
","""event"",""trial"",""time""
""fullscreenenter"",""1"",""3428""
","
","","","477","","","14","18218","6804","&#9776;","elianto","#3366ff99"," "," ","1","+10","[1327.5]","1","0","1","","","","","","","",""
"pit-trial","21","321183","0.0-2.0-8.0-1.0","battery-v0.2","","""event"",""trial"",""time""
""fullscreenenter"",""1"",""3428""
","
","
","""event"",""trial"",""time""
""fullscreenenter"",""1"",""3428""
","
","","","345.5","","","14","18218","6804","&#9776;","elianto","#3366ff99"," "," ","1","+10","[1197.9000000000233]","1","0","1","","","","","","","",""
"pit-trial","22","324458","0.0-2.0-8.0-2.0","battery-v0.2","","""event"",""trial"",""time""
""fullscreenenter"",""1"",""3428""
","
","
","""event"",""trial"",""time""
""fullscreenenter"",""1"",""3428""
","
","","","414.80000000004657","","","14","18218","6804","&#9776;","elianto","#3366ff99"," "," ","1","+10","[1265.5]","1","0","1","","","","","","","",""
"pit-trial","23","327723","0.0-2.0-8.0-3.0","battery-v0.2","","""event"",""trial"",""time""
""fullscreenenter"",""1"",""3428""
","
","
","""event"",""trial"",""time""
""fullscreenenter"",""1"",""3428""
","
","","","396.5999999999767","","","14","18218","6804","&#9776;","elianto","#3366ff99"," "," ","1","0","[1249.0999999999767]","1","0","1","","","","","","","",""
"pit-trial","24","330906","0.0-2.0-8.0-4.0","battery-v0.2","","""event"",""trial"",""time""
""fullscreenenter"",""1"",""3428""
","
","
","""event"",""trial"",""time""
""fullscreenenter"",""1"",""3428""
","
","","","320.80000000004657","","","14","18218","6804","&#9776;","elianto","#3366ff99"," "," ","1","+10","[1173.4000000000233]","1","0","1","","","","","","","",""
"pit-trial","25","334168","0.0-2.0-8.1-0.1","battery-v0.2","","""event"",""trial"",""time""
""fullscreenenter"",""1"",""3428""
","
","
","""event"",""trial"",""time""
""fullscreenenter"",""1"",""3428""
","
","","","399","","","14","18218","6804","&#9776;","elianto","#3366ff99"," "," ","1","+10","[1249.3000000000466]","1","0","1","","","","","","","",""
"pit-trial","26","338143","0.0-2.0-8.1-1.1","battery-v0.2","","""event"",""trial"",""time""
""fullscreenenter"",""1"",""3428""
","
","
","""event"",""trial"",""time""
""fullscreenenter"",""1"",""3428""
","
","","","1113.3000000000466","","","14","18218","6804","&#9776;","elianto","#3366ff99"," "," ","1","+10","[1966.5999999999767]","1","0","1","","","","","","","",""
"pit-trial","27","341348","0.0-2.0-8.1-2.1","battery-v0.2","","""event"",""trial"",""time""
""fullscreenenter"",""1"",""3428""
","
","
","""event"",""trial"",""time""
""fullscreenenter"",""1"",""3428""
","
","","","346.0999999999767","","","14","18218","6804","&#9776;","elianto","#3366ff99"," "," ","1","+10","[1197.5999999999767]","1","0","1","","","","","","","",""
"pit-trial","28","344263","0.0-2.0-8.1-3.1","battery-v0.2","","""event"",""trial"",""time""
""fullscreenenter"",""1"",""3428""
","
","
","""event"",""trial"",""time""
""fullscreenenter"",""1"",""3428""
","
","","","62","","","14","18218","6804","&#9776;","elianto","#3366ff99"," "," ","1","0","[913.4000000000233]","1","0","1","","","","","","","",""
"pit-trial","29","347492","0.0-2.0-8.1-4.1","battery-v0.2","","""event"",""trial"",""time""
""fullscreenenter"",""1"",""3428""
","
","
","""event"",""trial"",""time""
""fullscreenenter"",""1"",""3428""
","
","","","376.80000000004657","","","14","18218","6804","&#9776;","elianto","#3366ff99"," "," ","1","+10","[1227.6000000000931]","1","0","1","","","","","","","",""
"pit-trial","30","351255","0.0-2.0-8.2-0.2","battery-v0.2","","""event"",""trial"",""time""
""fullscreenenter"",""1"",""3428""
","
","
","""event"",""trial"",""time""
""fullscreenenter"",""1"",""3428""
","
","","","909.2999999999302","","","14","18218","6804","&#9776;","elianto","#3366ff99"," "," ","1","+10","[1760.0999999999767]","1","0","1","","","","","","","",""
"pit-trial","31","354916","0.0-2.0-8.2-1.2","battery-v0.2","","""event"",""trial"",""time""
""fullscreenenter"",""1"",""3428""
","
","
","""event"",""trial"",""time""
""fullscreenenter"",""1"",""3428""
","
","","","808.1999999999534","","","14","18218","6804","&#9776;","elianto","#3366ff99"," "," ","1","+10","[1659.5]","1","0","1","","","","","","","",""
"pit-trial","32","358158","0.0-2.0-8.2-2.2","battery-v0.2","","""event"",""trial"",""time""
""fullscreenenter"",""1"",""3428""
","
","
","""event"",""trial"",""time""
""fullscreenenter"",""1"",""3428""
","
","","","389","","","14","18218","6804","&#9776;","elianto","#3366ff99"," "," ","1","+10","[1239.6999999999534]","1","0","1","","","","","","","",""
"pit-trial","33","361373","0.0-2.0-8.2-3.2","battery-v0.2","","""event"",""trial"",""time""
""fullscreenenter"",""1"",""3428""
","
","
","""event"",""trial"",""time""
""fullscreenenter"",""1"",""3428""
","
","","","364","","","14","18218","6804","&#9776;","elianto","#3366ff99"," "," ","1","0","[1214]","1","0","1","","","","","","","",""
"pit-trial","34","365231","0.0-2.0-8.2-4.2","battery-v0.2","","""event"",""trial"",""time""
""fullscreenenter"",""1"",""3428""
","
","
","""event"",""trial"",""time""
""fullscreenenter"",""1"",""3428""
","
","","","1005.8000000000466","","","14","18218","6804","&#9776;","elianto","#3366ff99"," "," ","1","+10","[1855.9000000000233]","1","0","1","","","","","","","",""
"call-function","35","365231","0.0-2.0-9.0","battery-v0.2","","""event"",""trial"",""time""
""fullscreenenter"",""1"",""3428""
","
","
","""event"",""trial"",""time""
""fullscreenenter"",""1"",""3428""
","
","","","","","","","","","","","","","","","","","","","","","","","","","","",""
"pit-instructions","36","403871","0.0-2.0-10.0","battery-v0.2","","""event"",""trial"",""time""
""fullscreenenter"",""1"",""3428""
","
","
","""event"",""trial"",""time""
""fullscreenenter"",""1"",""3428""
","
","","[{""page_index"":0,""viewing_time"":5782.300000000047},{""page_index"":1,""viewing_time"":7393.699999999953},{""page_index"":2,""viewing_time"":9548.599999999977},{""page_index"":3,""viewing_time"":8394.300000000047},{""page_index"":4,""viewing_time"":7520.599999999977}]","38639.80000000005","","","","","","","","","","","","","","","","","","","","","","","",""
"pit-trial","37","408742","0.0-2.0-11.0-0.0","battery-v0.2","","""event"",""trial"",""time""
""fullscreenenter"",""1"",""3428""
","
","
","""event"",""trial"",""time""
""fullscreenenter"",""1"",""3428""
","
","","","-1","","","14","18218","6804","&#9761;","elianto","#3366ff99","-1","-1","1","+10","[]","0","0","2","","","","","","","",""
"pit-trial","38","413616","0.0-2.0-11.0-1.0","battery-v0.2","","""event"",""trial"",""time""
""fullscreenenter"",""1"",""3428""
","
","
","""event"",""trial"",""time""
""fullscreenenter"",""1"",""3428""
","
","","","-1","","","14","18218","6804","&#9761;","elianto","#3366ff99","-1","-1","1","+10","[]","0","0","2","","","","","","","",""
"pit-trial","39","418493","0.0-2.0-11.0-2.0","battery-v0.2","","""event"",""trial"",""time""
""fullscreenenter"",""1"",""3428""
","
","
","""event"",""trial"",""time""
""fullscreenenter"",""1"",""3428""
","
","","","-1","","","14","18218","6804","&#9761;","elianto","#3366ff99","-1","-1","1","+10","[]","0","0","2","","","","","","","",""
"pit-trial","40","423368","0.0-2.0-11.0-3.0","battery-v0.2","","""event"",""trial"",""time""
""fullscreenenter"",""1"",""3428""
","
","
","""event"",""trial"",""time""
""fullscreenenter"",""1"",""3428""
","
","","","-1","","","14","18218","6804","&#9761;","elianto","#3366ff99","-1","-1","1","0","[]","0","0","2","","","","","","","",""
"pit-trial","41","428235","0.0-2.0-11.0-4.0","battery-v0.2","","""event"",""trial"",""time""
""fullscreenenter"",""1"",""3428""
","
","
","""event"",""trial"",""time""
""fullscreenenter"",""1"",""3428""
","
","","","-1","","","14","18218","6804","&#9761;","elianto","#3366ff99","-1","-1","1","+10","[]","0","0","2","","","","","","","",""
"pit-trial","42","433106","0.0-2.0-11.1-0.1","battery-v0.2","","""event"",""trial"",""time""
""fullscreenenter"",""1"",""3428""
","
","
","""event"",""trial"",""time""
""fullscreenenter"",""1"",""3428""
","
","","","-1","","","14","18218","6804","&#9761;","elianto","#3366ff99","-1","-1","1","+10","[]","0","0","2","","","","","","","",""
"pit-trial","43","437960","0.0-2.0-11.1-1.1","battery-v0.2","","""event"",""trial"",""time""
""fullscreenenter"",""1"",""3428""
","
","
","""event"",""trial"",""time""
""fullscreenenter"",""1"",""3428""
","
","","","-1","","","14","18218","6804","&#9761;","elianto","#3366ff99","-1","-1","1","+10","[]","0","0","2","","","","","","","",""
"pit-trial","44","442812","0.0-2.0-11.1-2.1","battery-v0.2","","""event"",""trial"",""time""
""fullscreenenter"",""1"",""3428""
","
","
","""event"",""trial"",""time""
""fullscreenenter"",""1"",""3428""
","
","","","-1","","","14","18218","6804","&#9761;","elianto","#3366ff99","-1","-1","1","+10","[]","0","0","2","","","","","","","",""
"pit-trial","45","447665","0.0-2.0-11.1-3.1","battery-v0.2","","""event"",""trial"",""time""
""fullscreenenter"",""1"",""3428""
","
","
","""event"",""trial"",""time""
""fullscreenenter"",""1"",""3428""
","
","","","-1","","","14","18218","6804","&#9761;","elianto","#3366ff99","-1","-1","1","0","[]","0","0","2","","","","","","","",""
"pit-trial","46","452518","0.0-2.0-11.1-4.1","battery-v0.2","","""event"",""trial"",""time""
""fullscreenenter"",""1"",""3428""
","
","
","""event"",""trial"",""time""
""fullscreenenter"",""1"",""3428""
","
","","","-1","","","14","18218","6804","&#9761;","elianto","#3366ff99","-1","-1","1","+10","[]","0","0","2","","","","","","","",""
"pit-trial","47","457384","0.0-2.0-11.2-0.2","battery-v0.2","","""event"",""trial"",""time""
""fullscreenenter"",""1"",""3428""
","
","
","""event"",""trial"",""time""
""fullscreenenter"",""1"",""3428""
","
","","","-1","","","14","18218","6804","&#9761;","elianto","#3366ff99","-1","-1","1","+10","[]","0","0","2","","","","","","","",""
"pit-trial","48","462237","0.0-2.0-11.2-1.2","battery-v0.2","","""event"",""trial"",""time""
""fullscreenenter"",""1"",""3428""
","
","
","""event"",""trial"",""time""
""fullscreenenter"",""1"",""3428""
","
","","","-1","","","14","18218","6804","&#9761;","elianto","#3366ff99","-1","-1","1","+10","[]","0","0","2","","","","","","","",""
"pit-trial","49","467089","0.0-2.0-11.2-2.2","battery-v0.2","","""event"",""trial"",""time""
""fullscreenenter"",""1"",""3428""
","
","
","""event"",""trial"",""time""
""fullscreenenter"",""1"",""3428""
","
","","","-1","","","14","18218","6804","&#9761;","elianto","#3366ff99","-1","-1","1","+10","[]","0","0","2","","","","","","","",""
"pit-trial","50","471942","0.0-2.0-11.2-3.2","battery-v0.2","","""event"",""trial"",""time""
""fullscreenenter"",""1"",""3428""
","
","
","""event"",""trial"",""time""
""fullscreenenter"",""1"",""3428""
","
","","","-1","","","14","18218","6804","&#9761;","elianto","#3366ff99","-1","-1","1","0","[]","0","0","2","","","","","","","",""
"pit-trial","51","476794","0.0-2.0-11.2-4.2","battery-v0.2","","""event"",""trial"",""time""
""fullscreenenter"",""1"",""3428""
","
","
","""event"",""trial"",""time""
""fullscreenenter"",""1"",""3428""
","
","","","-1","","","14","18218","6804","&#9761;","elianto","#3366ff99","-1","-1","1","+10","[]","0","0","2","","","","","","","",""
"pit-trial","52","481646","0.0-2.0-11.3-0.3","battery-v0.2","","""event"",""trial"",""time""
""fullscreenenter"",""1"",""3428""
","
","
","""event"",""trial"",""time""
""fullscreenenter"",""1"",""3428""
","
","","","-1","","","14","18218","6804","&#9761;","elianto","#3366ff99","-1","-1","1","+10","[]","0","0","2","","","","","","","",""
"pit-trial","53","486499","0.0-2.0-11.3-1.3","battery-v0.2","","""event"",""trial"",""time""
""fullscreenenter"",""1"",""3428""
","
","
","""event"",""trial"",""time""
""fullscreenenter"",""1"",""3428""
","
","","","-1","","","14","18218","6804","&#9761;","elianto","#3366ff99","-1","-1","1","+10","[]","0","0","2","","","","","","","",""
"pit-trial","54","491351","0.0-2.0-11.3-2.3","battery-v0.2","","""event"",""trial"",""time""
""fullscreenenter"",""1"",""3428""
","
","
","""event"",""trial"",""time""
""fullscreenenter"",""1"",""3428""
","
","","","-1","","","14","18218","6804","&#9761;","elianto","#3366ff99","-1","-1","1","+10","[]","0","0","2","","","","","","","",""
"pit-trial","55","496204","0.0-2.0-11.3-3.3","battery-v0.2","","""event"",""trial"",""time""
""fullscreenenter"",""1"",""3428""
","
","
","""event"",""trial"",""time""
""fullscreenenter"",""1"",""3428""
","
","","","-1","","","14","18218","6804","&#9761;","elianto","#3366ff99","-1","-1","1","0","[]","0","0","2","","","","","","","",""
"pit-trial","56","501056","0.0-2.0-11.3-4.3","battery-v0.2","","""event"",""trial"",""time""
""fullscreenenter"",""1"",""3428""
","
","
","""event"",""trial"",""time""
""fullscreenenter"",""1"",""3428""
","
","","","-1","","","14","18218","6804","&#9761;","elianto","#3366ff99","-1","-1","1","+10","[]","0","0","2","","","","","","","",""
"call-function","57","501057","0.0-2.0-12.0","battery-v0.2","","""event"",""trial"",""time""
""fullscreenenter"",""1"",""3428""
","
","
","""event"",""trial"",""time""
""fullscreenenter"",""1"",""3428""
","
","","","","","","","","","","","","","","","","","","","","","","","","","","",""
"pit-instructions","58","533995","0.0-2.0-13.0","battery-v0.2","","""event"",""trial"",""time""
""fullscreenenter"",""1"",""3428""
","
","
","""event"",""trial"",""time""
""fullscreenenter"",""1"",""3428""
","
","","[{""page_index"":0,""viewing_time"":4646.699999999953},{""page_index"":1,""viewing_time"":8105.5},{""page_index"":2,""viewing_time"":5193.599999999977},{""page_index"":3,""viewing_time"":10363.800000000047},{""page_index"":4,""viewing_time"":4627.199999999953}]","32937","","","","","","","","","","","","","","","","","","","","","","","",""
"pit-trial","59","537635","0.0-2.0-14.0-0.0","battery-v0.2","","""event"",""trial"",""time""
""fullscreenenter"",""1"",""3428""
","
","
","""event"",""trial"",""time""
""fullscreenenter"",""1"",""3428""
","
","","","782.5","","","14","18218","6804","&#9826;","elianto","#f73b6a7A","-1"," ","0","-10","[1634.4000000000233]","1","0","3","","","","","","","",""
"pit-trial","60","540892","0.0-2.0-14.0-1.0","battery-v0.2","","""event"",""trial"",""time""
""fullscreenenter"",""1"",""3428""
","
","
","""event"",""trial"",""time""
""fullscreenenter"",""1"",""3428""
","
","","","404.9000000000233","","","14","18218","6804","&#9826;","elianto","#f73b6a7A","-1"," ","0","-10","[772.0999999999767,1255.3999999999069]","2","0","3","","","","","","","",""
"pit-trial","61","545749","0.0-2.0-14.0-2.0","battery-v0.2","","""event"",""trial"",""time""
""fullscreenenter"",""1"",""3428""
","
","
","""event"",""trial"",""time""
""fullscreenenter"",""1"",""3428""
","
","","","-1","","","14","18218","6804","&#9826;","elianto","#f73b6a7A","-1","-1","1","0","[]","0","0","3","","","","","","","",""
"pit-trial","62","550623","0.0-2.0-14.0-3.0","battery-v0.2","","""event"",""trial"",""time""
""fullscreenenter"",""1"",""3428""
","
","
","""event"",""trial"",""time""
""fullscreenenter"",""1"",""3428""
","
","","","-1","","","14","18218","6804","&#9826;","elianto","#f73b6a7A","-1","-1","1","-10","[]","0","0","3","","","","","","","",""
"pit-trial","63","555488","0.0-2.0-14.0-4.0","battery-v0.2","","""event"",""trial"",""time""
""fullscreenenter"",""1"",""3428""
","
","
","""event"",""trial"",""time""
""fullscreenenter"",""1"",""3428""
","
","","","-1","","","14","18218","6804","&#9826;","elianto","#f73b6a7A","-1","-1","1","0","[]","0","0","3","","","","","","","",""
"pit-trial","64","560350","0.0-2.0-14.1-0.1","battery-v0.2","","""event"",""trial"",""time""
""fullscreenenter"",""1"",""3428""
","
","
","""event"",""trial"",""time""
""fullscreenenter"",""1"",""3428""
","
","","","-1","","","14","18218","6804","&#9826;","elianto","#f73b6a7A","-1","-1","1","0","[]","0","0","3","","","","","","","",""
"pit-trial","65","565203","0.0-2.0-14.1-1.1","battery-v0.2","","""event"",""trial"",""time""
""fullscreenenter"",""1"",""3428""
","
","
","""event"",""trial"",""time""
""fullscreenenter"",""1"",""3428""
","
","","","-1","","","14","18218","6804","&#9826;","elianto","#f73b6a7A","-1","-1","1","0","[]","0","0","3","","","","","","","",""
"pit-trial","66","570056","0.0-2.0-14.1-2.1","battery-v0.2","","""event"",""trial"",""time""
""fullscreenenter"",""1"",""3428""
","
","
","""event"",""trial"",""time""
""fullscreenenter"",""1"",""3428""
","
","","","-1","","","14","18218","6804","&#9826;","elianto","#f73b6a7A","-1","-1","1","0","[]","0","0","3","","","","","","","",""
"pit-trial","67","574908","0.0-2.0-14.1-3.1","battery-v0.2","","""event"",""trial"",""time""
""fullscreenenter"",""1"",""3428""
","
","
","""event"",""trial"",""time""
""fullscreenenter"",""1"",""3428""
","
","","","-1","","","14","18218","6804","&#9826;","elianto","#f73b6a7A","-1","-1","1","-10","[]","0","0","3","","","","","","","",""
"pit-trial","68","579762","0.0-2.0-14.1-4.1","battery-v0.2","","""event"",""trial"",""time""
""fullscreenenter"",""1"",""3428""
","
","
","""event"",""trial"",""time""
""fullscreenenter"",""1"",""3428""
","
","","","-1","","","14","18218","6804","&#9826;","elianto","#f73b6a7A","-1","-1","1","0","[]","0","0","3","","","","","","","",""
"pit-trial","69","584615","0.0-2.0-14.2-0.2","battery-v0.2","","""event"",""trial"",""time""
""fullscreenenter"",""1"",""3428""
","
","
","""event"",""trial"",""time""
""fullscreenenter"",""1"",""3428""
","
","","","-1","","","14","18218","6804","&#9826;","elianto","#f73b6a7A","-1","-1","1","0","[]","0","0","3","","","","","","","",""
"pit-trial","70","589467","0.0-2.0-14.2-1.2","battery-v0.2","","""event"",""trial"",""time""
""fullscreenenter"",""1"",""3428""
","
","
","""event"",""trial"",""time""
""fullscreenenter"",""1"",""3428""
","
","","","-1","","","14","18218","6804","&#9826;","elianto","#f73b6a7A","-1","-1","1","0","[]","0","0","3","","","","","","","",""
"pit-trial","71","594320","0.0-2.0-14.2-2.2","battery-v0.2","","""event"",""trial"",""time""
""fullscreenenter"",""1"",""3428""
","
","
","""event"",""trial"",""time""
""fullscreenenter"",""1"",""3428""
","
","","","-1","","","14","18218","6804","&#9826;","elianto","#f73b6a7A","-1","-1","1","0","[]","0","0","3","","","","","","","",""
"pit-trial","72","599173","0.0-2.0-14.2-3.2","battery-v0.2","","""event"",""trial"",""time""
""fullscreenenter"",""1"",""3428""
","
","
","""event"",""trial"",""time""
""fullscreenenter"",""1"",""3428""
","
","","","-1","","","14","18218","6804","&#9826;","elianto","#f73b6a7A","-1","-1","1","-10","[]","0","0","3","","","","","","","",""
"pit-trial","73","604027","0.0-2.0-14.2-4.2","battery-v0.2","","""event"",""trial"",""time""
""fullscreenenter"",""1"",""3428""
","
","
","""event"",""trial"",""time""
""fullscreenenter"",""1"",""3428""
","
","","","-1","","","14","18218","6804","&#9826;","elianto","#f73b6a7A","-1","-1","1","0","[]","0","0","3","","","","","","","",""
"pit-trial","74","608880","0.0-2.0-14.3-0.3","battery-v0.2","","""event"",""trial"",""time""
""fullscreenenter"",""1"",""3428""
","
","
","""event"",""trial"",""time""
""fullscreenenter"",""1"",""3428""
","
","","","-1","","","14","18218","6804","&#9826;","elianto","#f73b6a7A","-1","-1","1","0","[]","0","0","3","","","","","","","",""
"pit-trial","75","613731","0.0-2.0-14.3-1.3","battery-v0.2","","""event"",""trial"",""time""
""fullscreenenter"",""1"",""3428""
","
","
","""event"",""trial"",""time""
""fullscreenenter"",""1"",""3428""
","
","","","-1","","","14","18218","6804","&#9826;","elianto","#f73b6a7A","-1","-1","1","0","[]","0","0","3","","","","","","","",""
"pit-trial","76","618584","0.0-2.0-14.3-2.3","battery-v0.2","","""event"",""trial"",""time""
""fullscreenenter"",""1"",""3428""
","
","
","""event"",""trial"",""time""
""fullscreenenter"",""1"",""3428""
","
","","","-1","","","14","18218","6804","&#9826;","elianto","#f73b6a7A","-1","-1","1","0","[]","0","0","3","","","","","","","",""
"pit-trial","77","623437","0.0-2.0-14.3-3.3","battery-v0.2","","""event"",""trial"",""time""
""fullscreenenter"",""1"",""3428""
","
","
","""event"",""trial"",""time""
""fullscreenenter"",""1"",""3428""
","
","","","-1","","","14","18218","6804","&#9826;","elianto","#f73b6a7A","-1","-1","1","-10","[]","0","0","3","","","","","","","",""
"pit-trial","78","628289","0.0-2.0-14.3-4.3","battery-v0.2","","""event"",""trial"",""time""
""fullscreenenter"",""1"",""3428""
","
","
","""event"",""trial"",""time""
""fullscreenenter"",""1"",""3428""
","
","","","-1","","","14","18218","6804","&#9826;","elianto","#f73b6a7A","-1","-1","1","0","[]","0","0","3","","","","","","","",""
"call-function","79","628290","0.0-2.0-15.0","battery-v0.2","","""event"",""trial"",""time""
""fullscreenenter"",""1"",""3428""
","
","
","""event"",""trial"",""time""
""fullscreenenter"",""1"",""3428""
","
","","","","","","","","","","","","","","","","","","","","","","","","","","",""
"pit-instructions","80","659072","0.0-2.0-16.0","battery-v0.2","","""event"",""trial"",""time""
""fullscreenenter"",""1"",""3428""
","
","
","""event"",""trial"",""time""
""fullscreenenter"",""1"",""3428""
","
","","[{""page_index"":0,""viewing_time"":6750.200000000186},{""page_index"":1,""viewing_time"":9911.399999999907},{""page_index"":2,""viewing_time"":6256.100000000093},{""page_index"":3,""viewing_time"":7864.399999999907}]","30782.300000000047","","","","","","","","","","","","","","","","","","","","","","","",""
"pit-trial","81","662406","0.0-2.0-17.0-0.0","battery-v0.2","","""event"",""trial"",""time""
""fullscreenenter"",""1"",""3428""
","
","
","""event"",""trial"",""time""
""fullscreenenter"",""1"",""3428""
","
","","","468","","","14","18218","6804","&#9789;","elianto","#f73b6a7A"," "," ","1","0","[1318.2000000001863]","1","0","4","","","","","","","",""
"pit-trial","82","665637","0.0-2.0-17.0-1.0","battery-v0.2","","""event"",""trial"",""time""
""fullscreenenter"",""1"",""3428""
","
","
","""event"",""trial"",""time""
""fullscreenenter"",""1"",""3428""
","
","","","364.9000000001397","","","14","18218","6804","&#9789;","elianto","#f73b6a7A"," "," ","1","0","[1218.8999999999069]","1","0","4","","","","","","","",""
"pit-trial","83","669151","0.0-2.0-17.0-2.0","battery-v0.2","","""event"",""trial"",""time""
""fullscreenenter"",""1"",""3428""
","
","
","""event"",""trial"",""time""
""fullscreenenter"",""1"",""3428""
","
","","","659.6999999999534","","","14","18218","6804","&#9789;","elianto","#f73b6a7A"," "," ","1","0","[1511.5]","1","0","4","","","","","","","",""
"pit-trial","84","672843","0.0-2.0-17.0-3.0","battery-v0.2","","""event"",""trial"",""time""
""fullscreenenter"",""1"",""3428""
","
","
","""event"",""trial"",""time""
""fullscreenenter"",""1"",""3428""
","
","","","828","","","14","18218","6804","&#9789;","elianto","#f73b6a7A"," "," ","1","-10","[1680.6999999999534]","1","0","4","","","","","","","",""
"pit-trial","85","676081","0.0-2.0-17.0-4.0","battery-v0.2","","""event"",""trial"",""time""
""fullscreenenter"",""1"",""3428""
","
","
","""event"",""trial"",""time""
""fullscreenenter"",""1"",""3428""
","
","","","377.69999999995343","","","14","18218","6804","&#9789;","elianto","#f73b6a7A"," "," ","1","0","[1228]","1","0","4","","","","","","","",""
"pit-trial","86","680123","0.0-2.0-17.1-0.1","battery-v0.2","","""event"",""trial"",""time""
""fullscreenenter"",""1"",""3428""
","
","
","""event"",""trial"",""time""
""fullscreenenter"",""1"",""3428""
","
","","","1188.7999999998137","","","14","18218","6804","&#9789;","elianto","#f73b6a7A"," "," ","1","0","[2039.7999999998137]","1","0","4","","","","","","","",""
"pit-trial","87","683234","0.0-2.0-17.1-1.1","battery-v0.2","","""event"",""trial"",""time""
""fullscreenenter"",""1"",""3428""
","
","
","""event"",""trial"",""time""
""fullscreenenter"",""1"",""3428""
","
","","","253.69999999995343","","","14","18218","6804","&#9789;","elianto","#f73b6a7A"," "," ","1","0","[1107.1999999999534]","1","0","4","","","","","","","",""
"pit-trial","88","686260","0.0-2.0-17.1-2.1","battery-v0.2","","""event"",""trial"",""time""
""fullscreenenter"",""1"",""3428""
","
","
","""event"",""trial"",""time""
""fullscreenenter"",""1"",""3428""
","
","","","173.80000000004657","","","14","18218","6804","&#9789;","elianto","#f73b6a7A"," "," ","1","0","[1024.0999999998603]","1","0","4","","","","","","","",""
"pit-trial","89","689608","0.0-2.0-17.1-3.1","battery-v0.2","","""event"",""trial"",""time""
""fullscreenenter"",""1"",""3428""
","
","
","""event"",""trial"",""time""
""fullscreenenter"",""1"",""3428""
","
","","","495.9000000001397","","","14","18218","6804","&#9789;","elianto","#f73b6a7A"," "," ","1","-10","[1346.7000000001863]","1","0","4","","","","","","","",""
"pit-trial","90","692760","0.0-2.0-17.1-4.1","battery-v0.2","","""event"",""trial"",""time""
""fullscreenenter"",""1"",""3428""
","
","
","""event"",""trial"",""time""
""fullscreenenter"",""1"",""3428""
","
","","","299.69999999995343","","","14","18218","6804","&#9789;","elianto","#f73b6a7A"," "," ","1","0","[1151.1000000000931]","1","0","4","","","","","","","",""
"pit-trial","91","695958","0.0-2.0-17.2-0.2","battery-v0.2","","""event"",""trial"",""time""
""fullscreenenter"",""1"",""3428""
","
","
","""event"",""trial"",""time""
""fullscreenenter"",""1"",""3428""
","
","","","344.4000000001397","","","14","18218","6804","&#9789;","elianto","#f73b6a7A"," "," ","1","0","[1195.1000000000931]","1","0","4","","","","","","","",""
"pit-trial","92","699351","0.0-2.0-17.2-1.2","battery-v0.2","","""event"",""trial"",""time""
""fullscreenenter"",""1"",""3428""
","
","
","""event"",""trial"",""time""
""fullscreenenter"",""1"",""3428""
","
","","","539.5","","","14","18218","6804","&#9789;","elianto","#f73b6a7A"," "," ","1","0","[1391.2000000001863]","1","0","4","","","","","","","",""
"pit-trial","93","702631","0.0-2.0-17.2-2.2","battery-v0.2","","""event"",""trial"",""time""
""fullscreenenter"",""1"",""3428""
","
","
","""event"",""trial"",""time""
""fullscreenenter"",""1"",""3428""
","
","","","427.5","","","14","18218","6804","&#9789;","elianto","#f73b6a7A"," "," ","1","0","[1278.5]","1","0","4","","","","","","","",""
"pit-trial","94","705832","0.0-2.0-17.2-3.2","battery-v0.2","","""event"",""trial"",""time""
""fullscreenenter"",""1"",""3428""
","
","
","""event"",""trial"",""time""
""fullscreenenter"",""1"",""3428""
","
","","","348.80000000004657","","","14","18218","6804","&#9789;","elianto","#f73b6a7A"," "," ","1","-10","[1198.8000000000466]","1","0","4","","","","","","","",""
"pit-trial","95","709712","0.0-2.0-17.2-4.2","battery-v0.2","","""event"",""trial"",""time""
""fullscreenenter"",""1"",""3428""
","
","
","""event"",""trial"",""time""
""fullscreenenter"",""1"",""3428""
","
","","","1027.7000000001863","","","14","18218","6804","&#9789;","elianto","#f73b6a7A"," "," ","1","0","[1878.6000000000931]","1","0","4","","","","","","","",""
"pit-trial","96","713155","0.0-2.0-17.3-0.3","battery-v0.2","","""event"",""trial"",""time""
""fullscreenenter"",""1"",""3428""
","
","
","""event"",""trial"",""time""
""fullscreenenter"",""1"",""3428""
","
","","","589.7000000001863","","","14","18218","6804","&#9789;","elianto","#f73b6a7A"," "," ","1","0","[1440.5]","1","0","4","","","","","","","",""
"pit-trial","97","716912","0.0-2.0-17.3-1.3","battery-v0.2","","""event"",""trial"",""time""
""fullscreenenter"",""1"",""3428""
","
","
","""event"",""trial"",""time""
""fullscreenenter"",""1"",""3428""
","
","","","904.8999999999069","","","14","18218","6804","&#9789;","elianto","#f73b6a7A"," "," ","1","0","[1755.5]","1","0","4","","","","","","","",""
"pit-trial","98","720846","0.0-2.0-17.3-2.3","battery-v0.2","","""event"",""trial"",""time""
""fullscreenenter"",""1"",""3428""
","
","
","""event"",""trial"",""time""
""fullscreenenter"",""1"",""3428""
","
","","","1081.8000000000466","","","14","18218","6804","&#9789;","elianto","#f73b6a7A"," "," ","1","0","[1932.3000000000466]","1","0","4","","","","","","","",""
"pit-trial","99","724708","0.0-2.0-17.3-3.3","battery-v0.2","","""event"",""trial"",""time""
""fullscreenenter"",""1"",""3428""
","
","
","""event"",""trial"",""time""
""fullscreenenter"",""1"",""3428""
","
","","","1009.6000000000931","","","14","18218","6804","&#9789;","elianto","#f73b6a7A"," "," ","1","-10","[1860.6000000000931]","1","0","4","","","","","","","",""
"pit-trial","100","728632","0.0-2.0-17.3-4.3","battery-v0.2","","""event"",""trial"",""time""
""fullscreenenter"",""1"",""3428""
","
","
","""event"",""trial"",""time""
""fullscreenenter"",""1"",""3428""
","
","","","1071.6999999999534","","","14","18218","6804","&#9789;","elianto","#f73b6a7A"," "," ","1","0","[1922.3999999999069]","1","0","4","","","","","","","",""
"call-function","101","728633","0.0-2.0-18.0","battery-v0.2","","""event"",""trial"",""time""
""fullscreenenter"",""1"",""3428""
","
","
","""event"",""trial"",""time""
""fullscreenenter"",""1"",""3428""
","
","","","","","","","","","","","","","","","","","","","","","","","","","","",""
"pit-instructions","102","796217","0.0-2.0-19.0","battery-v0.2","","""event"",""trial"",""time""
""fullscreenenter"",""1"",""3428""
","
","
","""event"",""trial"",""time""
""fullscreenenter"",""1"",""3428""
","
","","[{""page_index"":0,""viewing_time"":6410.199999999953},{""page_index"":1,""viewing_time"":4799.399999999907},{""page_index"":2,""viewing_time"":8677.40000000014},{""page_index"":3,""viewing_time"":7395},{""page_index"":4,""viewing_time"":9949.399999999907},{""page_index"":5,""viewing_time"":8274.199999999953},{""page_index"":6,""viewing_time"":8947.700000000186},{""page_index"":7,""viewing_time"":7939.699999999953},{""page_index"":8,""viewing_time"":5191.399999999907}]","67584.59999999986","","","","","","","","","","","","","","","","","","","","","","","",""
"pit-comprehension","103","800592","0.0-2.0-20.0-0.0","battery-v0.2","","""event"",""trial"",""time""
""fullscreenenter"",""1"",""3428""
","
","
","""event"",""trial"",""time""
""fullscreenenter"",""1"",""3428""
","
","","","4372.800000000047","[""SPACE""]","0","14","18218","6804","","","","","","","","","","","","","","","","","","",""
"pit-instructions","104","803298","0.0-2.0-20.0-1.0","battery-v0.2","","""event"",""trial"",""time""
""fullscreenenter"",""1"",""3428""
","
","
","""event"",""trial"",""time""
""fullscreenenter"",""1"",""3428""
","
","","[{""page_index"":0,""viewing_time"":2687.100000000093}]","2687.4000000001397","","","","","","","","","","","","","","","","","","","","","","","",""
"pit-comprehension","105","810031","0.0-2.0-21.0-0.0","battery-v0.2","","""event"",""trial"",""time""
""fullscreenenter"",""1"",""3428""
","
","
","""event"",""trial"",""time""
""fullscreenenter"",""1"",""3428""
","
","","","6730.800000000047","[""10""]","0","14","18218","6804","","","","","","","","","","","","","","","","","","",""
"pit-instructions","106","812335","0.0-2.0-21.0-1.0","battery-v0.2","","""event"",""trial"",""time""
""fullscreenenter"",""1"",""3428""
","
","
","""event"",""trial"",""time""
""fullscreenenter"",""1"",""3428""
","
","","[{""page_index"":0,""viewing_time"":2286.899999999907}]","2287.0999999998603","","","","","","","","","","","","","","","","","","","","","","","",""
"pit-comprehension","107","819152","0.0-2.0-22.0-0.0","battery-v0.2","","""event"",""trial"",""time""
""fullscreenenter"",""1"",""3428""
","
","
","""event"",""trial"",""time""
""fullscreenenter"",""1"",""3428""
","
","","","6814.800000000047","[""0""]","0","14","18218","6804","","","","","","","","","","","","","","","","","","",""
"pit-instructions","108","826039","0.0-2.0-22.0-1.0","battery-v0.2","","""event"",""trial"",""time""
""fullscreenenter"",""1"",""3428""
","
","
","""event"",""trial"",""time""
""fullscreenenter"",""1"",""3428""
","
","","[{""page_index"":0,""viewing_time"":6870.40000000014}]","6870.699999999953","","","","","","","","","","","","","","","","","","","","","","","",""
"pit-comprehension","109","835153","0.0-2.0-23.0-0.0","battery-v0.2","","""event"",""trial"",""time""
""fullscreenenter"",""1"",""3428""
","
","
","""event"",""trial"",""time""
""fullscreenenter"",""1"",""3428""
","
","","","9111","[""True""]","0","14","18218","6804","","","","","","","","","","","","","","","","","","",""
"pit-instructions","110","840194","0.0-2.0-23.0-1.0","battery-v0.2","","""event"",""trial"",""time""
""fullscreenenter"",""1"",""3428""
","
","
","""event"",""trial"",""time""
""fullscreenenter"",""1"",""3428""
","
","","[{""page_index"":0,""viewing_time"":5021.90000000014}]","5022.100000000093","","","","","","","","","","","","","","","","","","","","","","","",""
"pit-comprehension","111","847954","0.0-2.0-24.0-0.0","battery-v0.2","","""event"",""trial"",""time""
""fullscreenenter"",""1"",""3428""
","
","
","""event"",""trial"",""time""
""fullscreenenter"",""1"",""3428""
","
","","","7758.59999999986","[""True""]","0","14","18218","6804","","","","","","","","","","","","","","","","","","",""
"pit-instructions","112","851142","0.0-2.0-24.0-1.0","battery-v0.2","","""event"",""trial"",""time""
""fullscreenenter"",""1"",""3428""
","
","
","""event"",""trial"",""time""
""fullscreenenter"",""1"",""3428""
","
","","[{""page_index"":0,""viewing_time"":3169.6999999999534}]","3169.8000000000466","","","","","","","","","","","","","","","","","","","","","","","",""
"pit-comprehension","113","857475","0.0-2.0-25.0-0.0","battery-v0.2","","""event"",""trial"",""time""
""fullscreenenter"",""1"",""3428""
","
","
","""event"",""trial"",""time""
""fullscreenenter"",""1"",""3428""
","
","","","6331.90000000014","[""True""]","0","14","18218","6804","","","","","","","","","","","","","","","","","","",""
"pit-instructions","114","862064","0.0-2.0-25.0-1.0","battery-v0.2","","""event"",""trial"",""time""
""fullscreenenter"",""1"",""3428""
","
","
","""event"",""trial"",""time""
""fullscreenenter"",""1"",""3428""
","
","","[{""page_index"":0,""viewing_time"":4570.600000000093}]","4570.800000000047","","","","","","","","","","","","","","","","","","","","","","","",""
"pit-comprehension","115","867507","0.0-2.0-26.0-0.0","battery-v0.2","","""event"",""trial"",""time""
""fullscreenenter"",""1"",""3428""
","
","
","""event"",""trial"",""time""
""fullscreenenter"",""1"",""3428""
","
","","","5441.5","[""False""]","0","14","18218","6804","","","","","","","","","","","","","","","","","","",""
"pit-instructions","116","869373","0.0-2.0-26.0-1.0","battery-v0.2","","""event"",""trial"",""time""
""fullscreenenter"",""1"",""3428""
","
","
","""event"",""trial"",""time""
""fullscreenenter"",""1"",""3428""
","
","","[{""page_index"":0,""viewing_time"":1845.3999999999069}]","1845.5999999998603","","","","","","","","","","","","","","","","","","","","","","","",""
"pit-instructions","117","888912","0.0-3.0","battery-v0.2","","""event"",""trial"",""time""
""fullscreenenter"",""1"",""3428""
","
","
","""event"",""trial"",""time""
""fullscreenenter"",""1"",""3428""
","
","","[{""page_index"":0,""viewing_time"":7922.800000000047},{""page_index"":1,""viewing_time"":5292.09999999986},{""page_index"":2,""viewing_time"":6323.40000000014}]","19538.5","","","","","","","","","","","","","","","","","","","","","","","",""
"pit-trial","118","893783","0.0-4.0","battery-v0.2","","""event"",""trial"",""time""
""fullscreenenter"",""1"",""3428""
","
","
","""event"",""trial"",""time""
""fullscreenenter"",""1"",""3428""
","
","","","-1","","","14","18218","6804","&#9752;","elianto","#f73b6a7A"," ","-1","0","-10","[]","0","1","","","18218","1","3","3","lose","go","0"
"pit-trial","119","898643","0.0-5.0","battery-v0.2","","""event"",""trial"",""time""
""fullscreenenter"",""1"",""3428""
","
","
","""event"",""trial"",""time""
""fullscreenenter"",""1"",""3428""
","
","","","-1","","","14","18218","6804","&#9730;","elianto","#3366ff99"," ","-1","0","+10","[]","0","1","","","18218","2","1","1","win","go","1"
"pit-trial","120","902342","0.0-6.0","battery-v0.2","","""event"",""trial"",""time""
""fullscreenenter"",""1"",""3428""
","
","
","""event"",""trial"",""time""
""fullscreenenter"",""1"",""3428""
","
","","","834.8999999999069","","","14","18218","6804","&#9733;","elianto","#3366ff99","-1"," ","0","0","[1688.5]","1","1","","","18218","3","2","2","win","no-go","0"
"pit-trial","121","907200","0.0-7.0","battery-v0.2","","""event"",""trial"",""time""
""fullscreenenter"",""1"",""3428""
","
","
","""event"",""trial"",""time""
""fullscreenenter"",""1"",""3428""
","
","","","-1","","","14","18218","6804","&#9728;","elianto","#f73b6a7A","-1","-1","1","0","[]","0","1","","","18218","4","0","4","lose","no-go","0"
"pit-trial","122","912068","0.0-8.0","battery-v0.2","","""event"",""trial"",""time""
""fullscreenenter"",""1"",""3428""
","
","
","""event"",""trial"",""time""
""fullscreenenter"",""1"",""3428""
","
","","","-1","","","14","18218","6804","&#9728;","elianto","#f73b6a7A","-1","-1","1","0","[]","0","1","","","18218","5","0","4","lose","no-go","0"
"pit-trial","123","915891","0.0-9.0","battery-v0.2","","""event"",""trial"",""time""
""fullscreenenter"",""1"",""3428""
","
","
","""event"",""trial"",""time""
""fullscreenenter"",""1"",""3428""
","
","","","959.3000000000466","","","14","18218","6804","&#9733;","elianto","#3366ff99","-1"," ","0","0","[1809.3999999999069]","1","1","","","18218","6","2","2","win","no-go","0"
"pit-trial","124","919897","0.0-10.0","battery-v0.2","","""event"",""trial"",""time""
""fullscreenenter"",""1"",""3428""
","
","
","""event"",""trial"",""time""
""fullscreenenter"",""1"",""3428""
","
","","","1147","","","14","18218","6804","&#9752;","elianto","#f73b6a7A"," "," ","1","-10","[2001.3000000000466]","1","1","","","18218","7","3","3","lose","go","1"
"pit-trial","125","923351","0.0-11.0","battery-v0.2","","""event"",""trial"",""time""
""fullscreenenter"",""1"",""3428""
","
","
","""event"",""trial"",""time""
""fullscreenenter"",""1"",""3428""
","
","","","600.4000000001397","","","14","18218","6804","&#9730;","elianto","#3366ff99"," "," ","1","+10","[1451.4000000001397]","1","1","","","18218","8","1","1","win","go","0"
"pit-trial","126","926989","0.0-12.0","battery-v0.2","","""event"",""trial"",""time""
""fullscreenenter"",""1"",""3428""
","
","
","""event"",""trial"",""time""
""fullscreenenter"",""1"",""3428""
","
","","","785.8999999999069","","","14","18218","6804","&#9752;","elianto","#f73b6a7A"," "," ","1","0","[1637.3000000000466]","1","1","","","18218","9","3","3","lose","go","0"
"pit-trial","127","931841","0.0-13.0","battery-v0.2","","""event"",""trial"",""time""
""fullscreenenter"",""1"",""3428""
","
","
","""event"",""trial"",""time""
""fullscreenenter"",""1"",""3428""
","
","","","-1","","","14","18218","6804","&#9728;","elianto","#f73b6a7A","-1","-1","1","0","[]","0","1","","","18218","10","0","4","lose","no-go","0"
"pit-trial","128","935421","0.0-14.0","battery-v0.2","","""event"",""trial"",""time""
""fullscreenenter"",""1"",""3428""
","
","
","""event"",""trial"",""time""
""fullscreenenter"",""1"",""3428""
","
","","","727.6000000000931","","","14","18218","6804","&#9733;","elianto","#3366ff99","-1"," ","0","0","[1578.3000000000466]","1","1","","","18218","11","2","2","win","no-go","0"
"pit-trial","129","938818","0.0-15.0","battery-v0.2","","""event"",""trial"",""time""
""fullscreenenter"",""1"",""3428""
","
","
","""event"",""trial"",""time""
""fullscreenenter"",""1"",""3428""
","
","","","545.0999999998603","","","14","18218","6804","&#9730;","elianto","#3366ff99"," "," ","1","+10","[1395.1999999999534]","1","1","","","18218","12","1","1","win","go","0"
"pit-trial","130","943672","0.0-16.0","battery-v0.2","","""event"",""trial"",""time""
""fullscreenenter"",""1"",""3428""
","
","
","""event"",""trial"",""time""
""fullscreenenter"",""1"",""3428""
","
","","","-1","","","14","18218","6804","&#9728;","elianto","#f73b6a7A","-1","-1","1","0","[]","0","1","","","18218","13","0","4","lose","no-go","0"
"pit-trial","131","947965","0.0-17.0","battery-v0.2","","""event"",""trial"",""time""
""fullscreenenter"",""1"",""3428""
","
","
","""event"",""trial"",""time""
""fullscreenenter"",""1"",""3428""
","
","","","1440.8999999999069","","","14","18218","6804","&#9752;","elianto","#f73b6a7A"," "," ","1","-10","[2291.6999999999534]","1","1","","","18218","14","3","3","lose","go","1"
"pit-trial","132","951827","0.0-18.0","battery-v0.2","","""event"",""trial"",""time""
""fullscreenenter"",""1"",""3428""
","
","
","""event"",""trial"",""time""
""fullscreenenter"",""1"",""3428""
","
","","","1010.8000000000466","","","14","18218","6804","&#9733;","elianto","#3366ff99","-1"," ","0","0","[1861.1999999999534]","1","1","","","18218","15","2","2","win","no-go","0"
"pit-trial","133","955706","0.0-19.0","battery-v0.2","","""event"",""trial"",""time""
""fullscreenenter"",""1"",""3428""
","
","
","""event"",""trial"",""time""
""fullscreenenter"",""1"",""3428""
","
","","","1025.1999999999534","","","14","18218","6804","&#9730;","elianto","#3366ff99"," "," ","1","+10","[1876.6999999999534]","1","1","","","18218","16","1","1","win","go","0"
"pit-trial","134","960558","0.0-20.0","battery-v0.2","","""event"",""trial"",""time""
""fullscreenenter"",""1"",""3428""
","
","
","""event"",""trial"",""time""
""fullscreenenter"",""1"",""3428""
","
","","","-1","","","14","18218","6804","&#9752;","elianto","#f73b6a7A"," ","-1","0","-10","[2852.1999999999534]","1","1","","","18218","17","3","3","lose","go","0"
"pit-trial","135","964183","0.0-21.0","battery-v0.2","","""event"",""trial"",""time""
""fullscreenenter"",""1"",""3428""
","
","
","""event"",""trial"",""time""
""fullscreenenter"",""1"",""3428""
","
","","","771.8999999999069","","","14","18218","6804","&#9730;","elianto","#3366ff99"," "," ","1","0","[1622.1999999999534]","1","1","","","18218","18","1","1","win","go","1"
"pit-trial","136","969036","0.0-22.0","battery-v0.2","","""event"",""trial"",""time""
""fullscreenenter"",""1"",""3428""
","
","
","""event"",""trial"",""time""
""fullscreenenter"",""1"",""3428""
","
","","","-1","","","14","18218","6804","&#9728;","elianto","#f73b6a7A","-1","-1","1","-10","[]","0","1","","","18218","19","0","4","lose","no-go","1"
"pit-trial","137","973889","0.0-23.0","battery-v0.2","","""event"",""trial"",""time""
""fullscreenenter"",""1"",""3428""
","
","
","""event"",""trial"",""time""
""fullscreenenter"",""1"",""3428""
","
","","","-1","","","14","18218","6804","&#9733;","elianto","#3366ff99","-1","-1","1","0","[]","0","1","","","18218","20","2","2","win","no-go","1"
"pit-instructions","138","986376","0.0-24.0","battery-v0.2","","""event"",""trial"",""time""
""fullscreenenter"",""1"",""3428""
","
","
","""event"",""trial"",""time""
""fullscreenenter"",""1"",""3428""
","
","","[{""page_index"":0,""viewing_time"":5881.799999999814},{""page_index"":1,""viewing_time"":6603.700000000186}]","12485.799999999814","","","","","","","","","","","","","","","","","","","","","","","",""
"pit-trial","139","990572","0.0-25.0","battery-v0.2","","""event"",""trial"",""time""
""fullscreenenter"",""1"",""3428""
","
","
","""event"",""trial"",""time""
""fullscreenenter"",""1"",""3428""
","
","","","1330.5","","","14","18218","6804","t","elianto","#f73b6a7A"," "," ","1","0","[2181.1999999999534]","1","2","","","18218","21","2","3","lose","go","0"
"pit-trial","140","995233","0.0-26.0","battery-v0.2","","""event"",""trial"",""time""
""fullscreenenter"",""1"",""3428""
","
","
","""event"",""trial"",""time""
""fullscreenenter"",""1"",""3428""
","
","","","1803.5","","","14","18218","6804","n","elianto","#f73b6a7A"," "," ","1","0","[2658.100000000093]","1","2","","","18218","22","0","3","lose","go","0"
"pit-trial","141","999490","0.0-27.0","battery-v0.2","","""event"",""trial"",""time""
""fullscreenenter"",""1"",""3428""
","
","
","""event"",""trial"",""time""
""fullscreenenter"",""1"",""3428""
","
","","","1401.3999999999069","","","14","18218","6804","f","elianto","#3366ff99","-1"," ","0","0","[2252.899999999907]","1","2","","","18218","23","1","2","win","no-go","0"
"pit-trial","142","1004357","0.0-28.0","battery-v0.2","","""event"",""trial"",""time""
""fullscreenenter"",""1"",""3428""
","
","
","""event"",""trial"",""time""
""fullscreenenter"",""1"",""3428""
","
","","","-1","","","14","18218","6804","b","elianto","#f73b6a7A","-1","-1","1","0","[]","0","2","","","18218","24","3","4","lose","no-go","0"
"pit-trial","143","1007862","0.0-29.0","battery-v0.2","","""event"",""trial"",""time""
""fullscreenenter"",""1"",""3428""
","
","
","""event"",""trial"",""time""
""fullscreenenter"",""1"",""3428""
","
","","","648","","","14","18218","6804","f","elianto","#3366ff99","-1"," ","0","+10","[1500.5]","1","2","","","18218","25","1","2","win","no-go","1"
"pit-trial","144","1012745","0.0-30.0","battery-v0.2","","""event"",""trial"",""time""
""fullscreenenter"",""1"",""3428""
","
","
","""event"",""trial"",""time""
""fullscreenenter"",""1"",""3428""
","
","","","-1","","","14","18218","6804","b","elianto","#f73b6a7A","-1","-1","1","0","[]","0","2","","","18218","26","3","4","lose","no-go","0"
"pit-trial","145","1017181","0.0-31.0","battery-v0.2","","""event"",""trial"",""time""
""fullscreenenter"",""1"",""3428""
","
","
","""event"",""trial"",""time""
""fullscreenenter"",""1"",""3428""
","
","","","1582.6999999999534","","","14","18218","6804","n","elianto","#f73b6a7A"," "," ","1","0","[2434.399999999907]","1","2","","","18218","27","0","3","lose","go","0"
"pit-trial","146","1021916","0.0-32.0","battery-v0.2","","""event"",""trial"",""time""
""fullscreenenter"",""1"",""3428""
","
","
","""event"",""trial"",""time""
""fullscreenenter"",""1"",""3428""
","
","","","1882.6999999999534","","","14","18218","6804","t","elianto","#f73b6a7A"," "," ","1","-10","[2733.1999999999534]","1","2","","","18218","28","2","3","lose","go","1"
"pit-trial","147","1025637","0.0-33.0","battery-v0.2","","""event"",""trial"",""time""
""fullscreenenter"",""1"",""3428""
","
","
","""event"",""trial"",""time""
""fullscreenenter"",""1"",""3428""
","
","","","869.3999999999069","","","14","18218","6804","f","elianto","#3366ff99","-1"," ","0","+10","[1720.3999999999069]","1","2","","","18218","29","1","2","win","no-go","1"
"pit-trial","148","1029897","0.0-34.0","battery-v0.2","","""event"",""trial"",""time""
""fullscreenenter"",""1"",""3428""
","
","
","""event"",""trial"",""time""
""fullscreenenter"",""1"",""3428""
","
","","","1407.8000000000466","","","14","18218","6804","n","elianto","#f73b6a7A"," "," ","1","0","[2258.100000000093]","1","2","","","18218","30","0","3","lose","go","0"
"pit-trial","149","1034749","0.0-35.0","battery-v0.2","","""event"",""trial"",""time""
""fullscreenenter"",""1"",""3428""
","
","
","""event"",""trial"",""time""
""fullscreenenter"",""1"",""3428""
","
","","","-1","","","14","18218","6804","b","elianto","#f73b6a7A","-1","-1","1","0","[]","0","2","","","18218","31","3","4","lose","no-go","0"
"pit-trial","150","1039296","0.0-36.0","battery-v0.2","","""event"",""trial"",""time""
""fullscreenenter"",""1"",""3428""
","
","
","""event"",""trial"",""time""
""fullscreenenter"",""1"",""3428""
","
","","","1693.8999999999069","","","14","18218","6804","t","elianto","#f73b6a7A"," "," ","1","0","[2545.1999999999534]","1","2","","","18218","32","2","3","lose","go","0"
"pit-trial","151","1044151","0.0-37.0","battery-v0.2","","""event"",""trial"",""time""
""fullscreenenter"",""1"",""3428""
","
","
","""event"",""trial"",""time""
""fullscreenenter"",""1"",""3428""
","
","","","-1","","","14","18218","6804","b","elianto","#f73b6a7A","-1","-1","1","0","[]","0","2","","","18218","33","3","4","lose","no-go","0"
"pit-trial","152","1049004","0.0-38.0","battery-v0.2","","""event"",""trial"",""time""
""fullscreenenter"",""1"",""3428""
","
","
","""event"",""trial"",""time""
""fullscreenenter"",""1"",""3428""
","
","","","-1","","","14","18218","6804","n","elianto","#f73b6a7A"," ","-1","0","0","[]","0","2","","","18218","34","0","3","lose","go","1"
"pit-trial","153","1053087","0.0-39.0","battery-v0.2","","""event"",""trial"",""time""
""fullscreenenter"",""1"",""3428""
","
","
","""event"",""trial"",""time""
""fullscreenenter"",""1"",""3428""
","
","","","1231.1000000000931","","","14","18218","6804","t","elianto","#f73b6a7A"," "," ","1","0","[2081.2000000001863]","1","2","","","18218","35","2","3","lose","go","0"
"pit-trial","154","1056764","0.0-40.0","battery-v0.2","","""event"",""trial"",""time""
""fullscreenenter"",""1"",""3428""
","
","
","""event"",""trial"",""time""
""fullscreenenter"",""1"",""3428""
","
","","","824.5","","","14","18218","6804","f","elianto","#3366ff99","-1"," ","0","0","[1675.2000000001863]","1","2","","","18218","36","1","2","win","no-go","0"
"pit-trial","155","1061617","0.0-41.0","battery-v0.2","","""event"",""trial"",""time""
""fullscreenenter"",""1"",""3428""
","
","
","""event"",""trial"",""time""
""fullscreenenter"",""1"",""3428""
","
","","","-1","","","14","18218","6804","b","elianto","#f73b6a7A","-1","-1","1","-10","[]","0","2","","","18218","37","3","4","lose","no-go","1"
"pit-trial","156","1065338","0.0-42.0","battery-v0.2","","""event"",""trial"",""time""
""fullscreenenter"",""1"",""3428""
","
","
","""event"",""trial"",""time""
""fullscreenenter"",""1"",""3428""
","
","","","867.8999999999069","","","14","18218","6804","f","elianto","#3366ff99","-1"," ","0","0","[1719.2999999998137]","1","2","","","18218","38","1","2","win","no-go","0"
"pit-trial","157","1070190","0.0-43.0","battery-v0.2","","""event"",""trial"",""time""
""fullscreenenter"",""1"",""3428""
","
","
","""event"",""trial"",""time""
""fullscreenenter"",""1"",""3428""
","
","","","-1","","","14","18218","6804","n","elianto","#f73b6a7A"," ","-1","0","-10","[]","0","2","","","18218","39","0","3","lose","go","0"
"pit-trial","158","1073881","0.0-44.0","battery-v0.2","","""event"",""trial"",""time""
""fullscreenenter"",""1"",""3428""
","
","
","""event"",""trial"",""time""
""fullscreenenter"",""1"",""3428""
","
","","","838.1999999997206","","","14","18218","6804","t","elianto","#f73b6a7A"," "," ","1","0","[1689.1999999997206]","1","2","","","18218","40","2","3","lose","go","0"
"pit-trial","159","1078734","0.0-45.0","battery-v0.2","","""event"",""trial"",""time""
""fullscreenenter"",""1"",""3428""
","
","
","""event"",""trial"",""time""
""fullscreenenter"",""1"",""3428""
","
","","","-1","","","14","18218","6804","n","elianto","#f73b6a7A"," ","-1","0","-10","[]","0","2","","","18218","41","0","3","lose","go","0"
"pit-trial","160","1081927","0.0-46.0","battery-v0.2","","""event"",""trial"",""time""
""fullscreenenter"",""1"",""3428""
","
","
","""event"",""trial"",""time""
""fullscreenenter"",""1"",""3428""
","
","","","341.70000000018626","","","14","18218","6804","f","elianto","#3366ff99","-1"," ","0","0","[1192.3999999999069]","1","2","","","18218","42","1","2","win","no-go","0"
"pit-trial","161","1086779","0.0-47.0","battery-v0.2","","""event"",""trial"",""time""
""fullscreenenter"",""1"",""3428""
","
","
","""event"",""trial"",""time""
""fullscreenenter"",""1"",""3428""
","
","","","-1","","","14","18218","6804","b","elianto","#f73b6a7A","-1","-1","1","-10","[]","0","2","","","18218","43","3","4","lose","no-go","1"
"pit-trial","162","1090411","0.0-48.0","battery-v0.2","","""event"",""trial"",""time""
""fullscreenenter"",""1"",""3428""
","
","
","""event"",""trial"",""time""
""fullscreenenter"",""1"",""3428""
","
","","","778.7999999998137","","","14","18218","6804","t","elianto","#f73b6a7A"," "," ","1","0","[1629.2999999998137]","1","2","","","18218","44","2","3","lose","go","0"
"pit-trial","163","1094174","0.0-49.0","battery-v0.2","","""event"",""trial"",""time""
""fullscreenenter"",""1"",""3428""
","
","
","""event"",""trial"",""time""
""fullscreenenter"",""1"",""3428""
","
","","","910.3999999999069","","","14","18218","6804","t","elianto","#f73b6a7A"," "," ","1","0","[1760.7000000001863]","1","2","","","18218","45","2","3","lose","go","0"
"pit-trial","164","1097585","0.0-50.0","battery-v0.2","","""event"",""trial"",""time""
""fullscreenenter"",""1"",""3428""
","
","
","""event"",""trial"",""time""
""fullscreenenter"",""1"",""3428""
","
","","","559","","","14","18218","6804","f","elianto","#3366ff99","-1"," ","0","+10","[1410]","1","2","","","18218","46","1","2","win","no-go","1"
"pit-trial","165","1102438","0.0-51.0","battery-v0.2","","""event"",""trial"",""time""
""fullscreenenter"",""1"",""3428""
","
","
","""event"",""trial"",""time""
""fullscreenenter"",""1"",""3428""
","
","","","-1","","","14","18218","6804","n","elianto","#f73b6a7A"," ","-1","0","-10","[]","0","2","","","18218","47","0","3","lose","go","0"
"pit-trial","166","1107290","0.0-52.0","battery-v0.2","","""event"",""trial"",""time""
""fullscreenenter"",""1"",""3428""
","
","
","""event"",""trial"",""time""
""fullscreenenter"",""1"",""3428""
","
","","","-1","","","14","18218","6804","b","elianto","#f73b6a7A","-1","-1","1","0","[]","0","2","","","18218","48","3","4","lose","no-go","0"
"pit-trial","167","1111090","0.0-53.0","battery-v0.2","","""event"",""trial"",""time""
""fullscreenenter"",""1"",""3428""
","
","
","""event"",""trial"",""time""
""fullscreenenter"",""1"",""3428""
","
","","","947","","","14","18218","6804","f","elianto","#3366ff99","-1"," ","0","0","[1798]","1","2","","","18218","49","1","2","win","no-go","0"
"pit-trial","168","1115943","0.0-54.0","battery-v0.2","","""event"",""trial"",""time""
""fullscreenenter"",""1"",""3428""
","
","
","""event"",""trial"",""time""
""fullscreenenter"",""1"",""3428""
","
","","","-1","","","14","18218","6804","b","elianto","#f73b6a7A","-1","-1","1","0","[]","0","2","","","18218","50","3","4","lose","no-go","0"
"pit-trial","169","1120795","0.0-55.0","battery-v0.2","","""event"",""trial"",""time""
""fullscreenenter"",""1"",""3428""
","
","
","""event"",""trial"",""time""
""fullscreenenter"",""1"",""3428""
","
","","","-1","","","14","18218","6804","t","elianto","#f73b6a7A"," ","-1","0","-10","[]","0","2","","","18218","51","2","3","lose","go","0"
"pit-trial","170","1125648","0.0-56.0","battery-v0.2","","""event"",""trial"",""time""
""fullscreenenter"",""1"",""3428""
","
","
","""event"",""trial"",""time""
""fullscreenenter"",""1"",""3428""
","
","","","-1","","","14","18218","6804","n","elianto","#f73b6a7A"," ","-1","0","-10","[]","0","2","","","18218","52","0","3","lose","go","0"
"pit-trial","171","1129551","0.0-57.0","battery-v0.2","","""event"",""trial"",""time""
""fullscreenenter"",""1"",""3428""
","
","
","""event"",""trial"",""time""
""fullscreenenter"",""1"",""3428""
","
","","","1050","","","14","18218","6804","t","elianto","#f73b6a7A"," "," ","1","-10","[1901.7000000001863]","1","2","","","18218","53","2","3","lose","go","1"
"pit-trial","172","1134403","0.0-58.0","battery-v0.2","","""event"",""trial"",""time""
""fullscreenenter"",""1"",""3428""
","
","
","""event"",""trial"",""time""
""fullscreenenter"",""1"",""3428""
","
","","","-1","","","14","18218","6804","n","elianto","#f73b6a7A"," ","-1","0","-10","[]","0","2","","","18218","54","0","3","lose","go","0"
"pit-trial","173","1139257","0.0-59.0","battery-v0.2","","""event"",""trial"",""time""
""fullscreenenter"",""1"",""3428""
","
","
","""event"",""trial"",""time""
""fullscreenenter"",""1"",""3428""
","
","","","-1","","","14","18218","6804","b","elianto","#f73b6a7A","-1","-1","1","0","[]","0","2","","","18218","55","3","4","lose","no-go","0"
"pit-trial","174","1142961","0.0-60.0","battery-v0.2","","""event"",""trial"",""time""
""fullscreenenter"",""1"",""3428""
","
","
","""event"",""trial"",""time""
""fullscreenenter"",""1"",""3428""
","
","","","851.8999999999069","","","14","18218","6804","f","elianto","#3366ff99","-1"," ","0","0","[1702.8999999999069,1753.6000000000931]","2","2","","","18218","56","1","2","win","no-go","0"
"pit-trial","175","1147011","0.0-61.0","battery-v0.2","","""event"",""trial"",""time""
""fullscreenenter"",""1"",""3428""
","
","
","""event"",""trial"",""time""
""fullscreenenter"",""1"",""3428""
","
","","","1198.5999999996275","","","14","18218","6804","c","elianto","#3366ff99"," "," ","1","+10","[2048.7999999998137]","1","2","","","18218","57","4","1","win","go","0"
"pit-trial","176","1151863","0.0-62.0","battery-v0.2","","""event"",""trial"",""time""
""fullscreenenter"",""1"",""3428""
","
","
","""event"",""trial"",""time""
""fullscreenenter"",""1"",""3428""
","
","","","-1","","","14","18218","6804","b","elianto","#f73b6a7A","-1","-1","1","0","[]","0","2","","","18218","58","3","4","lose","no-go","0"
"pit-trial","177","1156717","0.0-63.0","battery-v0.2","","""event"",""trial"",""time""
""fullscreenenter"",""1"",""3428""
","
","
","""event"",""trial"",""time""
""fullscreenenter"",""1"",""3428""
","
","","","-1","","","14","18218","6804","n","elianto","#f73b6a7A"," ","-1","0","-10","[]","0","2","","","18218","59","0","3","lose","go","0"
"pit-trial","178","1161278","0.0-64.0","battery-v0.2","","""event"",""trial"",""time""
""fullscreenenter"",""1"",""3428""
","
","
","""event"",""trial"",""time""
""fullscreenenter"",""1"",""3428""
","
","","","1707.6000000000931","","","14","18218","6804","t","elianto","#f73b6a7A"," "," ","1","0","[2558.600000000093,2683.5]","2","2","","","18218","60","2","3","lose","go","0"
"pit-trial","179","1166131","0.0-65.0","battery-v0.2","","""event"",""trial"",""time""
""fullscreenenter"",""1"",""3428""
","
","
","""event"",""trial"",""time""
""fullscreenenter"",""1"",""3428""
","
","","","-1","","","14","18218","6804","b","elianto","#f73b6a7A","-1","-1","1","0","[]","0","2","","","18218","61","3","4","lose","no-go","0"
"pit-trial","180","1170208","0.0-66.0","battery-v0.2","","""event"",""trial"",""time""
""fullscreenenter"",""1"",""3428""
","
","
","""event"",""trial"",""time""
""fullscreenenter"",""1"",""3428""
","
","","","1225","","","14","18218","6804","f","elianto","#3366ff99","-1"," ","0","0","[2075.399999999907]","1","2","","","18218","62","1","2","win","no-go","0"
"pit-trial","181","1173972","0.0-67.0","battery-v0.2","","""event"",""trial"",""time""
""fullscreenenter"",""1"",""3428""
","
","
","""event"",""trial"",""time""
""fullscreenenter"",""1"",""3428""
","
","","","910.8999999999069","","","14","18218","6804","t","elianto","#f73b6a7A"," "," ","1","0","[1762.5]","1","2","","","18218","63","2","3","lose","go","0"
"pit-trial","182","1177749","0.0-68.0","battery-v0.2","","""event"",""trial"",""time""
""fullscreenenter"",""1"",""3428""
","
","
","""event"",""trial"",""time""
""fullscreenenter"",""1"",""3428""
","
","","","924.7999999998137","","","14","18218","6804","c","elianto","#3366ff99"," "," ","1","+10","[1774.7999999998137]","1","2","","","18218","64","4","1","win","go","0"
"pit-trial","183","1181940","0.0-69.0","battery-v0.2","","""event"",""trial"",""time""
""fullscreenenter"",""1"",""3428""
","
","
","""event"",""trial"",""time""
""fullscreenenter"",""1"",""3428""
","
","","","1338.7000000001863","","","14","18218","6804","z","elianto","#3366ff99","-1"," ","0","0","[2189.6999999997206]","1","2","","","18218","65","5","2","win","no-go","0"
"pit-trial","184","1186792","0.0-70.0","battery-v0.2","","""event"",""trial"",""time""
""fullscreenenter"",""1"",""3428""
","
","
","""event"",""trial"",""time""
""fullscreenenter"",""1"",""3428""
","
","","","-1","","","14","18218","6804","b","elianto","#f73b6a7A","-1","-1","1","-10","[]","0","2","","","18218","66","3","4","lose","no-go","1"
"pit-trial","185","1190500","0.0-71.0","battery-v0.2","","""event"",""trial"",""time""
""fullscreenenter"",""1"",""3428""
","
","
","""event"",""trial"",""time""
""fullscreenenter"",""1"",""3428""
","
","","","855.7000000001863","","","14","18218","6804","f","elianto","#3366ff99","-1"," ","0","0","[1706.2000000001863]","1","2","","","18218","67","1","2","win","no-go","0"
"pit-trial","186","1194133","0.0-72.0","battery-v0.2","","""event"",""trial"",""time""
""fullscreenenter"",""1"",""3428""
","
","
","""event"",""trial"",""time""
""fullscreenenter"",""1"",""3428""
","
","","","780.3999999999069","","","14","18218","6804","c","elianto","#3366ff99"," "," ","1","+10","[1631.5]","1","2","","","18218","68","4","1","win","go","0"
"pit-trial","187","1198984","0.0-73.0","battery-v0.2","","""event"",""trial"",""time""
""fullscreenenter"",""1"",""3428""
","
","
","""event"",""trial"",""time""
""fullscreenenter"",""1"",""3428""
","
","","","-1","","","14","18218","6804","f","elianto","#3366ff99","-1","-1","1","+10","[]","0","2","","","18218","69","1","2","win","no-go","0"
"pit-trial","188","1202957","0.0-74.0","battery-v0.2","","""event"",""trial"",""time""
""fullscreenenter"",""1"",""3428""
","
","
","""event"",""trial"",""time""
""fullscreenenter"",""1"",""3428""
","
","","","1119.8999999999069","","","14","18218","6804","c","elianto","#3366ff99"," "," ","1","+10","[1970.7000000001863]","1","2","","","18218","70","4","1","win","go","0"
"pit-trial","189","1206998","0.0-75.0","battery-v0.2","","""event"",""trial"",""time""
""fullscreenenter"",""1"",""3428""
","
","
","""event"",""trial"",""time""
""fullscreenenter"",""1"",""3428""
","
","","","1189.6000000000931","","","14","18218","6804","t","elianto","#f73b6a7A"," "," ","1","-10","[2039.7000000001863]","1","2","","","18218","71","2","3","lose","go","1"
"pit-trial","190","1211851","0.0-76.0","battery-v0.2","","""event"",""trial"",""time""
""fullscreenenter"",""1"",""3428""
","
","
","""event"",""trial"",""time""
""fullscreenenter"",""1"",""3428""
","
","","","-1","","","14","18218","6804","z","elianto","#3366ff99","-1","-1","1","0","[]","0","2","","","18218","72","5","2","win","no-go","1"
"pit-trial","191","1216705","0.0-77.0","battery-v0.2","","""event"",""trial"",""time""
""fullscreenenter"",""1"",""3428""
","
","
","""event"",""trial"",""time""
""fullscreenenter"",""1"",""3428""
","
","","","-1","","","14","18218","6804","b","elianto","#f73b6a7A","-1","-1","1","0","[]","0","2","","","18218","73","3","4","lose","no-go","0"
"pit-trial","192","1220417","0.0-78.0","battery-v0.2","","""event"",""trial"",""time""
""fullscreenenter"",""1"",""3428""
","
","
","""event"",""trial"",""time""
""fullscreenenter"",""1"",""3428""
","
","","","859.6000000000931","","","14","18218","6804","f","elianto","#3366ff99","-1"," ","0","0","[1710.6000000000931]","1","2","","","18218","74","1","2","win","no-go","0"
"pit-trial","193","1224015","0.0-79.0","battery-v0.2","","""event"",""trial"",""time""
""fullscreenenter"",""1"",""3428""
","
","
","""event"",""trial"",""time""
""fullscreenenter"",""1"",""3428""
","
","","","746.8999999999069","","","14","18218","6804","c","elianto","#3366ff99"," "," ","1","+10","[1596.8999999999069]","1","2","","","18218","75","4","1","win","go","0"
"pit-trial","194","1228868","0.0-80.0","battery-v0.2","","""event"",""trial"",""time""
""fullscreenenter"",""1"",""3428""
","
","
","""event"",""trial"",""time""
""fullscreenenter"",""1"",""3428""
","
","","","-1","","","14","18218","6804","z","elianto","#3366ff99","-1","-1","1","+10","[]","0","2","","","18218","76","5","2","win","no-go","0"
"pit-trial","195","1233722","0.0-81.0","battery-v0.2","","""event"",""trial"",""time""
""fullscreenenter"",""1"",""3428""
","
","
","""event"",""trial"",""time""
""fullscreenenter"",""1"",""3428""
","
","","","-1","","","14","18218","6804","b","elianto","#f73b6a7A","-1","-1","1","0","[]","0","2","","","18218","77","3","4","lose","no-go","0"
"pit-trial","196","1238574","0.0-82.0","battery-v0.2","","""event"",""trial"",""time""
""fullscreenenter"",""1"",""3428""
","
","
","""event"",""trial"",""time""
""fullscreenenter"",""1"",""3428""
","
","","","-1","","","14","18218","6804","c","elianto","#3366ff99"," ","-1","0","0","[]","0","2","","","18218","78","4","1","win","go","0"
"pit-trial","197","1243426","0.0-83.0","battery-v0.2","","""event"",""trial"",""time""
""fullscreenenter"",""1"",""3428""
","
","
","""event"",""trial"",""time""
""fullscreenenter"",""1"",""3428""
","
","","","-1","","","14","18218","6804","c","elianto","#3366ff99"," ","-1","0","0","[]","0","2","","","18218","79","4","1","win","go","0"
"pit-trial","198","1247328","0.0-84.0","battery-v0.2","","""event"",""trial"",""time""
""fullscreenenter"",""1"",""3428""
","
","
","""event"",""trial"",""time""
""fullscreenenter"",""1"",""3428""
","
","","","1049.1999999997206","","","14","18218","6804","z","elianto","#3366ff99","-1"," ","0","+10","[1899.7999999998137]","1","2","","","18218","80","5","2","win","no-go","1"
"pit-trial","199","1251042","0.0-85.0","battery-v0.2","","""event"",""trial"",""time""
""fullscreenenter"",""1"",""3428""
","
","
","""event"",""trial"",""time""
""fullscreenenter"",""1"",""3428""
","
","","","861.2000000001863","","","14","18218","6804","c","elianto","#3366ff99"," "," ","1","+10","[1712.1000000000931]","1","2","","","18218","81","4","1","win","go","0"
"pit-trial","200","1254812","0.0-86.0","battery-v0.2","","""event"",""trial"",""time""
""fullscreenenter"",""1"",""3428""
","
","
","""event"",""trial"",""time""
""fullscreenenter"",""1"",""3428""
","
","","","918.1999999997206","","","14","18218","6804","z","elianto","#3366ff99","-1"," ","0","0","[1768.5]","1","2","","","18218","82","5","2","win","no-go","0"
"pit-trial","201","1259664","0.0-87.0","battery-v0.2","","""event"",""trial"",""time""
""fullscreenenter"",""1"",""3428""
","
","
","""event"",""trial"",""time""
""fullscreenenter"",""1"",""3428""
","
","","","-1","","","14","18218","6804","b","elianto","#f73b6a7A","-1","-1","1","0","[]","0","2","","","18218","83","3","4","lose","no-go","0"
"pit-trial","202","1264518","0.0-88.0","battery-v0.2","","""event"",""trial"",""time""
""fullscreenenter"",""1"",""3428""
","
","
","""event"",""trial"",""time""
""fullscreenenter"",""1"",""3428""
","
","","","-1","","","14","18218","6804","y","elianto","#f73b6a7A","-1","-1","1","-10","[]","0","2","","","18218","84","7","4","lose","no-go","1"
"pit-trial","203","1268814","0.0-89.0","battery-v0.2","","""event"",""trial"",""time""
""fullscreenenter"",""1"",""3428""
","
","
","""event"",""trial"",""time""
""fullscreenenter"",""1"",""3428""
","
","","","1443.5","","","14","18218","6804","h","elianto","#f73b6a7A"," "," ","1","-10","[2294.2000000001863]","1","2","","","18218","85","6","3","lose","go","1"
"pit-trial","204","1272391","0.0-90.0","battery-v0.2","","""event"",""trial"",""time""
""fullscreenenter"",""1"",""3428""
","
","
","""event"",""trial"",""time""
""fullscreenenter"",""1"",""3428""
","
","","","724.7999999998137","","","14","18218","6804","c","elianto","#3366ff99"," "," ","1","0","[1575.7999999998137]","1","2","","","18218","86","4","1","win","go","1"
"pit-trial","205","1277244","0.0-91.0","battery-v0.2","","""event"",""trial"",""time""
""fullscreenenter"",""1"",""3428""
","
","
","""event"",""trial"",""time""
""fullscreenenter"",""1"",""3428""
","
","","","-1","","","14","18218","6804","z","elianto","#3366ff99","-1","-1","1","0","[]","0","2","","","18218","87","5","2","win","no-go","1"
"pit-trial","206","1281692","0.0-92.0","battery-v0.2","","""event"",""trial"",""time""
""fullscreenenter"",""1"",""3428""
","
","
","""event"",""trial"",""time""
""fullscreenenter"",""1"",""3428""
","
","","","1594.5","","","14","18218","6804","y","elianto","#f73b6a7A","-1"," ","0","0","[2446]","1","2","","","18218","88","7","4","lose","no-go","1"
"pit-trial","207","1285336","0.0-93.0","battery-v0.2","","""event"",""trial"",""time""
""fullscreenenter"",""1"",""3428""
","
","
","""event"",""trial"",""time""
""fullscreenenter"",""1"",""3428""
","
","","","790.5","","","14","18218","6804","c","elianto","#3366ff99"," "," ","1","+10","[1641.3000000002794]","1","2","","","18218","89","4","1","win","go","0"
"pit-trial","208","1289754","0.0-94.0","battery-v0.2","","""event"",""trial"",""time""
""fullscreenenter"",""1"",""3428""
","
","
","""event"",""trial"",""time""
""fullscreenenter"",""1"",""3428""
","
","","","1565.7999999998137","","","14","18218","6804","h","elianto","#f73b6a7A"," "," ","1","-10","[2416.7999999998137]","1","2","","","18218","90","6","3","lose","go","1"
"pit-trial","209","1293083","0.0-95.0","battery-v0.2","","""event"",""trial"",""time""
""fullscreenenter"",""1"",""3428""
","
","
","""event"",""trial"",""time""
""fullscreenenter"",""1"",""3428""
","
","","","476.59999999962747","","","14","18218","6804","z","elianto","#3366ff99","-1"," ","0","0","[1327.8999999999069]","1","2","","","18218","91","5","2","win","no-go","0"
"pit-trial","210","1296690","0.0-96.0","battery-v0.2","","""event"",""trial"",""time""
""fullscreenenter"",""1"",""3428""
","
","
","""event"",""trial"",""time""
""fullscreenenter"",""1"",""3428""
","
","","","755.3000000002794","","","14","18218","6804","y","elianto","#f73b6a7A","-1"," ","0","-10","[1605.6000000000931]","1","2","","","18218","92","7","4","lose","no-go","0"
"pit-trial","211","1300111","0.0-97.0","battery-v0.2","","""event"",""trial"",""time""
""fullscreenenter"",""1"",""3428""
","
","
","""event"",""trial"",""time""
""fullscreenenter"",""1"",""3428""
","
","","","569.6000000000931","","","14","18218","6804","y","elianto","#f73b6a7A","-1"," ","0","0","[1420.1000000000931]","1","2","","","18218","93","7","4","lose","no-go","1"
"pit-trial","212","1304965","0.0-98.0","battery-v0.2","","""event"",""trial"",""time""
""fullscreenenter"",""1"",""3428""
","
","
","""event"",""trial"",""time""
""fullscreenenter"",""1"",""3428""
","
","","","-1","","","14","18218","6804","z","elianto","#3366ff99","-1","-1","1","0","[]","0","2","","","18218","94","5","2","win","no-go","1"
"pit-trial","213","1309817","0.0-99.0","battery-v0.2","","""event"",""trial"",""time""
""fullscreenenter"",""1"",""3428""
","
","
","""event"",""trial"",""time""
""fullscreenenter"",""1"",""3428""
","
","","","-1","","","14","18218","6804","h","elianto","#f73b6a7A"," ","-1","0","-10","[]","0","2","","","18218","95","6","3","lose","go","0"
"pit-trial","214","1313783","0.0-100.0","battery-v0.2","","""event"",""trial"",""time""
""fullscreenenter"",""1"",""3428""
","
","
","""event"",""trial"",""time""
""fullscreenenter"",""1"",""3428""
","
","","","1113.1000000000931","","","14","18218","6804","r","elianto","#3366ff99"," "," ","1","+10","[1964.1000000000931]","1","2","","","18218","96","8","1","win","go","0"
"pit-trial","215","1318635","0.0-101.0","battery-v0.2","","""event"",""trial"",""time""
""fullscreenenter"",""1"",""3428""
","
","
","""event"",""trial"",""time""
""fullscreenenter"",""1"",""3428""
","
","","","-1","","","14","18218","6804","z","elianto","#3366ff99","-1","-1","1","0","[]","0","2","","","18218","97","5","2","win","no-go","1"
"pit-trial","216","1323259","0.0-102.0","battery-v0.2","","""event"",""trial"",""time""
""fullscreenenter"",""1"",""3428""
","
","
","""event"",""trial"",""time""
""fullscreenenter"",""1"",""3428""
","
","","","1771","","","14","18218","6804","y","elianto","#f73b6a7A","-1"," ","0","0","[2622.5]","1","2","","","18218","98","7","4","lose","no-go","1"
"pit-trial","217","1327049","0.0-103.0","battery-v0.2","","""event"",""trial"",""time""
""fullscreenenter"",""1"",""3428""
","
","
","""event"",""trial"",""time""
""fullscreenenter"",""1"",""3428""
","
","","","937.6999999997206","","","14","18218","6804","r","elianto","#3366ff99"," "," ","1","0","[1787.9000000003725]","1","2","","","18218","99","8","1","win","go","1"
"pit-trial","218","1331902","0.0-104.0","battery-v0.2","","""event"",""trial"",""time""
""fullscreenenter"",""1"",""3428""
","
","
","""event"",""trial"",""time""
""fullscreenenter"",""1"",""3428""
","
","","","-1","","","14","18218","6804","h","elianto","#f73b6a7A"," ","-1","0","-10","[]","0","2","","","18218","100","6","3","lose","go","0"
"pit-trial","219","1335955","0.0-105.0","battery-v0.2","","""event"",""trial"",""time""
""fullscreenenter"",""1"",""3428""
","
","
","""event"",""trial"",""time""
""fullscreenenter"",""1"",""3428""
","
","","","1199.1000000000931","","","14","18218","6804","z","elianto","#3366ff99","-1"," ","0","0","[2051.100000000093]","1","2","","","18218","101","5","2","win","no-go","0"
"pit-trial","220","1339951","0.0-106.0","battery-v0.2","","""event"",""trial"",""time""
""fullscreenenter"",""1"",""3428""
","
","
","""event"",""trial"",""time""
""fullscreenenter"",""1"",""3428""
","
","","","1143.7000000001863","","","14","18218","6804","m","elianto","#3366ff99"," "," ","1","0","[1993.9000000003725]","1","2","","","18218","102","9","1","win","go","1"
"pit-trial","221","1344486","0.0-107.0","battery-v0.2","","""event"",""trial"",""time""
""fullscreenenter"",""1"",""3428""
","
","
","""event"",""trial"",""time""
""fullscreenenter"",""1"",""3428""
","
","","","1682.3999999999069","","","14","18218","6804","y","elianto","#f73b6a7A","-1"," ","0","-10","[2533.2999999998137]","1","2","","","18218","103","7","4","lose","no-go","0"
"pit-trial","222","1348490","0.0-108.0","battery-v0.2","","""event"",""trial"",""time""
""fullscreenenter"",""1"",""3428""
","
","
","""event"",""trial"",""time""
""fullscreenenter"",""1"",""3428""
","
","","","1150.9000000003725","","","14","18218","6804","r","elianto","#3366ff99"," "," ","1","+10","[2001.9000000003725]","1","2","","","18218","104","8","1","win","go","0"
"pit-trial","223","1352423","0.0-109.0","battery-v0.2","","""event"",""trial"",""time""
""fullscreenenter"",""1"",""3428""
","
","
","""event"",""trial"",""time""
""fullscreenenter"",""1"",""3428""
","
","","","1080.8999999999069","","","14","18218","6804","m","elianto","#3366ff99"," "," ","1","+10","[1931.6000000000931]","1","2","","","18218","105","9","1","win","go","0"
"pit-trial","224","1356119","0.0-110.0","battery-v0.2","","""event"",""trial"",""time""
""fullscreenenter"",""1"",""3428""
","
","
","""event"",""trial"",""time""
""fullscreenenter"",""1"",""3428""
","
","","","843.7000000001863","","","14","18218","6804","r","elianto","#3366ff99"," "," ","1","+10","[1694.6000000000931]","1","2","","","18218","106","8","1","win","go","0"
"pit-trial","225","1360972","0.0-111.0","battery-v0.2","","""event"",""trial"",""time""
""fullscreenenter"",""1"",""3428""
","
","
","""event"",""trial"",""time""
""fullscreenenter"",""1"",""3428""
","
","","","-1","","","14","18218","6804","h","elianto","#f73b6a7A"," ","-1","0","-10","[]","0","2","","","18218","107","6","3","lose","go","0"
"pit-trial","226","1364719","0.0-112.0","battery-v0.2","","""event"",""trial"",""time""
""fullscreenenter"",""1"",""3428""
","
","
","""event"",""trial"",""time""
""fullscreenenter"",""1"",""3428""
","
","","","893.7999999998137","","","14","18218","6804","c","elianto","#3366ff99"," "," ","1","+10","[1744.2999999998137]","1","2","","","18218","108","4","1","win","go","0"
"pit-trial","227","1368353","0.0-113.0","battery-v0.2","","""event"",""trial"",""time""
""fullscreenenter"",""1"",""3428""
","
","
","""event"",""trial"",""time""
""fullscreenenter"",""1"",""3428""
","
","","","780.8000000002794","","","14","18218","6804","r","elianto","#3366ff99"," "," ","1","0","[1631.8000000002794]","1","2","","","18218","109","8","1","win","go","1"
"pit-trial","228","1373206","0.0-114.0","battery-v0.2","","""event"",""trial"",""time""
""fullscreenenter"",""1"",""3428""
","
","
","""event"",""trial"",""time""
""fullscreenenter"",""1"",""3428""
","
","","","-1","","","14","18218","6804","z","elianto","#3366ff99","-1","-1","1","0","[]","0","2","","","18218","110","5","2","win","no-go","1"
"pit-trial","229","1376825","0.0-115.0","battery-v0.2","","""event"",""trial"",""time""
""fullscreenenter"",""1"",""3428""
","
","
","""event"",""trial"",""time""
""fullscreenenter"",""1"",""3428""
","
","","","767.5999999996275","","","14","18218","6804","m","elianto","#3366ff99"," "," ","1","+10","[1618]","1","2","","","18218","111","9","1","win","go","0"
"pit-trial","230","1381678","0.0-116.0","battery-v0.2","","""event"",""trial"",""time""
""fullscreenenter"",""1"",""3428""
","
","
","""event"",""trial"",""time""
""fullscreenenter"",""1"",""3428""
","
","","","-1","","","14","18218","6804","h","elianto","#f73b6a7A"," ","-1","0","-10","[]","0","2","","","18218","112","6","3","lose","go","0"
"pit-trial","231","1385535","0.0-117.0","battery-v0.2","","""event"",""trial"",""time""
""fullscreenenter"",""1"",""3428""
","
","
","""event"",""trial"",""time""
""fullscreenenter"",""1"",""3428""
","
","","","1004.1000000000931","","","14","18218","6804","r","elianto","#3366ff99"," "," ","1","+10","[1854.8000000002794]","1","2","","","18218","113","8","1","win","go","0"
"pit-trial","232","1389410","0.0-118.0","battery-v0.2","","""event"",""trial"",""time""
""fullscreenenter"",""1"",""3428""
","
","
","""event"",""trial"",""time""
""fullscreenenter"",""1"",""3428""
","
","","","1022.5","","","14","18218","6804","m","elianto","#3366ff99"," "," ","1","0","[1872.5999999996275]","1","2","","","18218","114","9","1","win","go","1"
"pit-trial","233","1394262","0.0-119.0","battery-v0.2","","""event"",""trial"",""time""
""fullscreenenter"",""1"",""3428""
","
","
","""event"",""trial"",""time""
""fullscreenenter"",""1"",""3428""
","
","","","-1","","","14","18218","6804","h","elianto","#f73b6a7A"," ","-1","0","0","[]","0","2","","","18218","115","6","3","lose","go","1"
"pit-trial","234","1399126","0.0-120.0","battery-v0.2","","""event"",""trial"",""time""
""fullscreenenter"",""1"",""3428""
","
","
","""event"",""trial"",""time""
""fullscreenenter"",""1"",""3428""
","
","","","-1","","","14","18218","6804","z","elianto","#3366ff99","-1","-1","1","+10","[]","0","2","","","18218","116","5","2","win","no-go","0"
"pit-trial","235","1403303","0.0-121.0","battery-v0.2","","""event"",""trial"",""time""
""fullscreenenter"",""1"",""3428""
","
","
","""event"",""trial"",""time""
""fullscreenenter"",""1"",""3428""
","
","","","1323.8999999999069","","","14","18218","6804","r","elianto","#3366ff99"," "," ","1","0","[2175.0999999996275]","1","2","","","18218","117","8","1","win","go","1"
"pit-trial","236","1408155","0.0-122.0","battery-v0.2","","""event"",""trial"",""time""
""fullscreenenter"",""1"",""3428""
","
","
","""event"",""trial"",""time""
""fullscreenenter"",""1"",""3428""
","
","","","-1","","","14","18218","6804","h","elianto","#f73b6a7A"," ","-1","0","-10","[]","0","2","","","18218","118","6","3","lose","go","0"
"pit-trial","237","1413008","0.0-123.0","battery-v0.2","","""event"",""trial"",""time""
""fullscreenenter"",""1"",""3428""
","
","
","""event"",""trial"",""time""
""fullscreenenter"",""1"",""3428""
","
","","","-1","","","14","18218","6804","z","elianto","#3366ff99","-1","-1","1","+10","[]","0","2","","","18218","119","5","2","win","no-go","0"
"pit-trial","238","1416595","0.0-124.0","battery-v0.2","","""event"",""trial"",""time""
""fullscreenenter"",""1"",""3428""
","
","
","""event"",""trial"",""time""
""fullscreenenter"",""1"",""3428""
","
","","","734.8000000002794","","","14","18218","6804","m","elianto","#3366ff99"," "," ","1","+10","[1585.3000000002794]","1","2","","","18218","120","9","1","win","go","0"
"pit-trial","239","1421447","0.0-125.0","battery-v0.2","","""event"",""trial"",""time""
""fullscreenenter"",""1"",""3428""
","
","
","""event"",""trial"",""time""
""fullscreenenter"",""1"",""3428""
","
","","","-1","","","14","18218","6804","y","elianto","#f73b6a7A","-1","-1","1","0","[]","0","2","","","18218","121","7","4","lose","no-go","0"
"pit-trial","240","1425231","0.0-126.0","battery-v0.2","","""event"",""trial"",""time""
""fullscreenenter"",""1"",""3428""
","
","
","""event"",""trial"",""time""
""fullscreenenter"",""1"",""3428""
","
","","","933.7000000001863","","","14","18218","6804","m","elianto","#3366ff99"," "," ","1","+10","[1783.7000000001863]","1","2","","","18218","122","9","1","win","go","0"
"pit-trial","241","1428785","0.0-127.0","battery-v0.2","","""event"",""trial"",""time""
""fullscreenenter"",""1"",""3428""
","
","
","""event"",""trial"",""time""
""fullscreenenter"",""1"",""3428""
","
","","","699.8999999999069","","","14","18218","6804","r","elianto","#3366ff99"," "," ","1","+10","[1551.2000000001863]","1","2","","","18218","123","8","1","win","go","0"
"pit-trial","242","1433638","0.0-128.0","battery-v0.2","","""event"",""trial"",""time""
""fullscreenenter"",""1"",""3428""
","
","
","""event"",""trial"",""time""
""fullscreenenter"",""1"",""3428""
","
","","","-1","","","14","18218","6804","h","elianto","#f73b6a7A"," ","-1","0","-10","[]","0","2","","","18218","124","6","3","lose","go","0"
"pit-trial","243","1437299","0.0-129.0","battery-v0.2","","""event"",""trial"",""time""
""fullscreenenter"",""1"",""3428""
","
","
","""event"",""trial"",""time""
""fullscreenenter"",""1"",""3428""
","
","","","808.7999999998137","","","14","18218","6804","r","elianto","#3366ff99"," "," ","1","+10","[1659]","1","2","","","18218","125","8","1","win","go","0"
"pit-trial","244","1442151","0.0-130.0","battery-v0.2","","""event"",""trial"",""time""
""fullscreenenter"",""1"",""3428""
","
","
","""event"",""trial"",""time""
""fullscreenenter"",""1"",""3428""
","
","","","-1","","","14","18218","6804","y","elianto","#f73b6a7A","-1","-1","1","0","[]","0","2","","","18218","126","7","4","lose","no-go","0"
"pit-trial","245","1445808","0.0-131.0","battery-v0.2","","""event"",""trial"",""time""
""fullscreenenter"",""1"",""3428""
","
","
","""event"",""trial"",""time""
""fullscreenenter"",""1"",""3428""
","
","","","805.1000000000931","","","14","18218","6804","m","elianto","#3366ff99"," "," ","1","+10","[1655.7000000001863]","1","2","","","18218","127","9","1","win","go","0"
"pit-trial","246","1450661","0.0-132.0","battery-v0.2","","""event"",""trial"",""time""
""fullscreenenter"",""1"",""3428""
","
","
","""event"",""trial"",""time""
""fullscreenenter"",""1"",""3428""
","
","","","-1","","","14","18218","6804","h","elianto","#f73b6a7A"," ","-1","0","-10","[]","0","2","","","18218","128","6","3","lose","go","0"
"pit-trial","247","1454303","0.0-133.0","battery-v0.2","","""event"",""trial"",""time""
""fullscreenenter"",""1"",""3428""
","
","
","""event"",""trial"",""time""
""fullscreenenter"",""1"",""3428""
","
","","","790","","","14","18218","6804","m","elianto","#3366ff99"," "," ","1","+10","[1640]","1","2","","","18218","129","9","1","win","go","0"
"pit-trial","248","1459156","0.0-134.0","battery-v0.2","","""event"",""trial"",""time""
""fullscreenenter"",""1"",""3428""
","
","
","""event"",""trial"",""time""
""fullscreenenter"",""1"",""3428""
","
","","","-1","","","14","18218","6804","y","elianto","#f73b6a7A","-1","-1","1","0","[]","0","2","","","18218","130","7","4","lose","no-go","0"
"pit-trial","249","1462831","0.0-135.0","battery-v0.2","","""event"",""trial"",""time""
""fullscreenenter"",""1"",""3428""
","
","
","""event"",""trial"",""time""
""fullscreenenter"",""1"",""3428""
","
","","","823.8999999999069","","","14","18218","6804","r","elianto","#3366ff99"," "," ","1","+10","[1674.1999999997206]","1","2","","","18218","131","8","1","win","go","0"
"pit-trial","250","1467684","0.0-136.0","battery-v0.2","","""event"",""trial"",""time""
""fullscreenenter"",""1"",""3428""
","
","
","""event"",""trial"",""time""
""fullscreenenter"",""1"",""3428""
","
","","","-1","","","14","18218","6804","h","elianto","#f73b6a7A"," ","-1","0","-10","[]","0","2","","","18218","132","6","3","lose","go","0"
"pit-trial","251","1472537","0.0-137.0","battery-v0.2","","""event"",""trial"",""time""
""fullscreenenter"",""1"",""3428""
","
","
","""event"",""trial"",""time""
""fullscreenenter"",""1"",""3428""
","
","","","-1","","","14","18218","6804","y","elianto","#f73b6a7A","-1","-1","1","0","[]","0","2","","","18218","133","7","4","lose","no-go","0"
"pit-trial","252","1476100","0.0-138.0","battery-v0.2","","""event"",""trial"",""time""
""fullscreenenter"",""1"",""3428""
","
","
","""event"",""trial"",""time""
""fullscreenenter"",""1"",""3428""
","
","","","710.3999999999069","","","14","18218","6804","r","elianto","#3366ff99"," "," ","1","+10","[1561.7999999998137]","1","2","","","18218","134","8","1","win","go","0"
"pit-trial","253","1479744","0.0-139.0","battery-v0.2","","""event"",""trial"",""time""
""fullscreenenter"",""1"",""3428""
","
","
","""event"",""trial"",""time""
""fullscreenenter"",""1"",""3428""
","
","","","791","","","14","18218","6804","m","elianto","#3366ff99"," "," ","1","+10","[1642.1000000000931]","1","2","","","18218","135","9","1","win","go","0"
"pit-trial","254","1483643","0.0-140.0","battery-v0.2","","""event"",""trial"",""time""
""fullscreenenter"",""1"",""3428""
","
","
","""event"",""trial"",""time""
""fullscreenenter"",""1"",""3428""
","
","","","1047.2999999998137","","","14","18218","6804","h","elianto","#f73b6a7A"," "," ","1","-10","[1897.6999999997206]","1","2","","","18218","136","6","3","lose","go","1"
"pit-trial","255","1487347","0.0-141.0","battery-v0.2","","""event"",""trial"",""time""
""fullscreenenter"",""1"",""3428""
","
","
","""event"",""trial"",""time""
""fullscreenenter"",""1"",""3428""
","
","","","850.6999999997206","","","14","18218","6804","h","elianto","#f73b6a7A"," "," ","1","-10","[1702.2999999998137]","1","2","","","18218","137","6","3","lose","go","1"
"pit-trial","256","1490890","0.0-142.0","battery-v0.2","","""event"",""trial"",""time""
""fullscreenenter"",""1"",""3428""
","
","
","""event"",""trial"",""time""
""fullscreenenter"",""1"",""3428""
","
","","","690","","","14","18218","6804","m","elianto","#3366ff99"," "," ","1","+10","[1541]","1","2","","","18218","138","9","1","win","go","0"
"pit-trial","257","1494739","0.0-143.0","battery-v0.2","","""event"",""trial"",""time""
""fullscreenenter"",""1"",""3428""
","
","
","""event"",""trial"",""time""
""fullscreenenter"",""1"",""3428""
","
","","","996.3999999999069","","","14","18218","6804","r","elianto","#3366ff99"," "," ","1","+10","[1846.6000000000931]","1","2","","","18218","139","8","1","win","go","0"
"pit-trial","258","1498855","0.0-144.0","battery-v0.2","","""event"",""trial"",""time""
""fullscreenenter"",""1"",""3428""
","
","
","""event"",""trial"",""time""
""fullscreenenter"",""1"",""3428""
","
","","","1263.2000000001863","","","14","18218","6804","y","elianto","#f73b6a7A","-1"," ","0","0","[2114.5]","1","2","","","18218","140","7","4","lose","no-go","1"
"pit-instructions","259","1512938","0.0-145.0","battery-v0.2","","""event"",""trial"",""time""
""fullscreenenter"",""1"",""3428""
","
","
","""event"",""trial"",""time""
""fullscreenenter"",""1"",""3428""
","
","","[{""page_index"":0,""viewing_time"":5807.5},{""page_index"":1,""viewing_time"":8275.200000000186}]","14082.799999999814","","","","","","","","","","","","","","","","","","","","","","","",""
"pit-trial","260","1516892","0.0-146.0","battery-v0.2","","""event"",""trial"",""time""
""fullscreenenter"",""1"",""3428""
","
","
","""event"",""trial"",""time""
""fullscreenenter"",""1"",""3428""
","
","","","1093","","","14","18218","6804","a","elianto","#f73b6a7A","-1"," ","0","-10","[1947.8999999999069]","1","3","","","18218","141","2","4","lose","no-go","0"
"pit-trial","261","1521154","0.0-147.0","battery-v0.2","","""event"",""trial"",""time""
""fullscreenenter"",""1"",""3428""
","
","
","""event"",""trial"",""time""
""fullscreenenter"",""1"",""3428""
","
","","","1400.8000000002794","","","14","18218","6804","l","elianto","#3366ff99"," "," ","1","+10","[2253.8000000002794]","1","3","","","18218","142","1","1","win","go","0"
"pit-trial","262","1525349","0.0-148.0","battery-v0.2","","""event"",""trial"",""time""
""fullscreenenter"",""1"",""3428""
","
","
","""event"",""trial"",""time""
""fullscreenenter"",""1"",""3428""
","
","","","1336.7999999998137","","","14","18218","6804","u","elianto","#f73b6a7A","-1"," ","0","-10","[2188.2999999998137]","1","3","","","18218","143","0","4","lose","no-go","0"
"pit-trial","263","1530223","0.0-149.0","battery-v0.2","","""event"",""trial"",""time""
""fullscreenenter"",""1"",""3428""
","
","
","""event"",""trial"",""time""
""fullscreenenter"",""1"",""3428""
","
","","","-1","","","14","18218","6804","g","elianto","#f73b6a7A"," ","-1","0","-10","[]","0","3","","","18218","144","3","3","lose","go","0"
"pit-trial","264","1534590","0.0-150.0","battery-v0.2","","""event"",""trial"",""time""
""fullscreenenter"",""1"",""3428""
","
","
","""event"",""trial"",""time""
""fullscreenenter"",""1"",""3428""
","
","","","1502","","","14","18218","6804","g","elianto","#f73b6a7A"," "," ","1","0","[2352.6999999997206]","1","3","","","18218","145","3","3","lose","go","0"
"pit-trial","265","1539455","0.0-151.0","battery-v0.2","","""event"",""trial"",""time""
""fullscreenenter"",""1"",""3428""
","
","
","""event"",""trial"",""time""
""fullscreenenter"",""1"",""3428""
","
","","","-1","","","14","18218","6804","a","elianto","#f73b6a7A","-1","-1","1","0","[]","0","3","","","18218","146","2","4","lose","no-go","0"
"pit-trial","266","1544316","0.0-152.0","battery-v0.2","","""event"",""trial"",""time""
""fullscreenenter"",""1"",""3428""
","
","
","""event"",""trial"",""time""
""fullscreenenter"",""1"",""3428""
","
","","","-1","","","14","18218","6804","u","elianto","#f73b6a7A","-1","-1","1","-10","[]","0","3","","","18218","147","0","4","lose","no-go","1"
