"trial_type","trial_index","time_elapsed","internal_node_id","task_version","subject_id","interactions","blur_events","focus_events","fullscreenenter_events","fullscreenexit_events","success","view_history","rt","responses","num_errors","age","subject","participantId","rune","rune_set","hex","correct","choice","accuracy","outcome","keys","total_keys","block","practice","value","sub","trial","stimulus","robot","valence","action","sham"
"pavlovia","0","42","0.0-0.0","battery-v0.2","","""event"",""trial"",""time""
""fullscreenenter"",""1"",""2490""
","
","
","""event"",""trial"",""time""
""fullscreenenter"",""1"",""2490""
","
","","","","","","","","","","","","","","","","","","","","","","","","","","",""
"fullscreen","1","3437","0.0-1.0","battery-v0.2","","""event"",""trial"",""time""
""fullscreenenter"",""1"",""2490""
","
","
","""event"",""trial"",""time""
""fullscreenenter"",""1"",""2490""
","
","true","","","","","","","","","","","","","","","","","","","","","","","","","",""
"pit-instructions","2","12185","0.0-2.0-0.0","battery-v0.2","","""event"",""trial"",""time""
""fullscreenenter"",""1"",""2490""
","
","
","""event"",""trial"",""time""
""fullscreenenter"",""1"",""2490""
","
","","[{""page_index"":0,""viewing_time"":8723.600000000559}]","8727.900000000373","","","","","","","","","","","","","","","","","","","","","","","",""
"pit-comprehension","3","20350","0.0-2.0-1.0-0.0","battery-v0.2","","""event"",""trial"",""time""
""fullscreenenter"",""1"",""2490""
","
","
","""event"",""trial"",""time""
""fullscreenenter"",""1"",""2490""
","
","","","8147","[""shark""]","0","13","6468","3784","","","","","","","","","","","","","","","","","","",""
"pit-instructions","4","22392","0.0-2.0-1.0-1.0","battery-v0.2","","""event"",""trial"",""time""
""fullscreenenter"",""1"",""2490""
","
","
","""event"",""trial"",""time""
""fullscreenenter"",""1"",""2490""
","
","","[{""page_index"":0,""viewing_time"":2001.6000000005588}]","2005.2000000001863","","","","","","","","","","","","","","","","","","","","","","","",""
"pit-comprehension","5","30647","0.0-2.0-2.0-0.0","battery-v0.2","","""event"",""trial"",""time""
""fullscreenenter"",""1"",""2490""
","
","
","""event"",""trial"",""time""
""fullscreenenter"",""1"",""2490""
","
","","","8236.5","[""tiger""]","0","13","6468","3784","","","","","","","","","","","","","","","","","","",""
"pit-instructions","6","32634","0.0-2.0-2.0-1.0","battery-v0.2","","""event"",""trial"",""time""
""fullscreenenter"",""1"",""2490""
","
","
","""event"",""trial"",""time""
""fullscreenenter"",""1"",""2490""
","
","","[{""page_index"":0,""viewing_time"":1973.2000000001863}]","1975.4000000003725","","","","","","","","","","","","","","","","","","","","","","","",""
"pit-instructions","7","193474","0.0-2.0-3.0","battery-v0.2","","""event"",""trial"",""time""
""fullscreenenter"",""1"",""2490""
","
","
","""event"",""trial"",""time""
""fullscreenenter"",""1"",""2490""
","
","","[{""page_index"":0,""viewing_time"":8603.300000000745},{""page_index"":1,""viewing_time"":8351},{""page_index"":2,""viewing_time"":8043.0999999996275},{""page_index"":3,""viewing_time"":7230.9000000003725},{""page_index"":4,""viewing_time"":6505.399999999441},{""page_index"":5,""viewing_time"":6013.600000000559},{""page_index"":6,""viewing_time"":9636.599999999627},{""page_index"":7,""viewing_time"":7469.9000000003725},{""page_index"":8,""viewing_time"":8108.299999998882},{""page_index"":9,""viewing_time"":39171.800000000745},{""page_index"":10,""viewing_time"":13043.900000000373},{""page_index"":11,""viewing_time"":17749.799999998882},{""page_index"":12,""viewing_time"":6512.60000000149},{""page_index"":13,""viewing_time"":14381.89999999851}]","160825.70000000112","","","","","","","","","","","","","","","","","","","","","","","",""
"pit-trial","8","198340","0.0-2.0-4.0-0.0","battery-v0.2","","""event"",""trial"",""time""
""fullscreenenter"",""1"",""2490""
","
","
","""event"",""trial"",""time""
""fullscreenenter"",""1"",""2490""
","
","","","-1","","","13","6468","3784","&#9784;","elianto","#FFFFF080"," ","-1","0","&#10060","[3046.300000000745,4689.5]","2","0","0","","","","","","","",""
"pit-trial","9","202043","0.0-2.0-4.1-0.1","battery-v0.2","","""event"",""trial"",""time""
""fullscreenenter"",""1"",""2490""
","
","
","""event"",""trial"",""time""
""fullscreenenter"",""1"",""2490""
","
","","","837.1999999992549","","","13","6468","3784","&#9784;","elianto","#FFFFF080"," "," ","1","&#10004","[1687.1000000014901]","1","0","0","","","","","","","",""
"pit-trial","10","205536","0.0-2.0-4.2-0.2","battery-v0.2","","""event"",""trial"",""time""
""fullscreenenter"",""1"",""2490""
","
","
","""event"",""trial"",""time""
""fullscreenenter"",""1"",""2490""
","
","","","629.5","","","13","6468","3784","&#9784;","elianto","#FFFFF080"," "," ","1","&#10004","[1479.5999999996275]","1","0","0","","","","","","","",""
"pit-trial","11","209065","0.0-2.0-4.3-0.3","battery-v0.2","","""event"",""trial"",""time""
""fullscreenenter"",""1"",""2490""
","
","
","""event"",""trial"",""time""
""fullscreenenter"",""1"",""2490""
","
","","","665.0999999996275","","","13","6468","3784","&#9784;","elianto","#FFFFF080"," "," ","1","&#10004","[1514.5]","1","0","0","","","","","","","",""
"pit-trial","12","212561","0.0-2.0-4.4-0.4","battery-v0.2","","""event"",""trial"",""time""
""fullscreenenter"",""1"",""2490""
","
","
","""event"",""trial"",""time""
""fullscreenenter"",""1"",""2490""
","
","","","632.4000000003725","","","13","6468","3784","&#9784;","elianto","#FFFFF080"," "," ","1","&#10004","[1482.300000000745]","1","0","0","","","","","","","",""
"pit-instructions","13","242038","0.0-2.0-5.0","battery-v0.2","","""event"",""trial"",""time""
""fullscreenenter"",""1"",""2490""
","
","
","""event"",""trial"",""time""
""fullscreenenter"",""1"",""2490""
","
","","[{""page_index"":0,""viewing_time"":8837},{""page_index"":1,""viewing_time"":6650.5999999996275},{""page_index"":2,""viewing_time"":6587.0999999996275},{""page_index"":3,""viewing_time"":7385.5}]","29462.900000000373","","","","","","","","","","","","","","","","","","","","","","","",""
"pit-trial","14","246899","0.0-2.0-6.0-0.0","battery-v0.2","","""event"",""trial"",""time""
""fullscreenenter"",""1"",""2490""
","
","
","""event"",""trial"",""time""
""fullscreenenter"",""1"",""2490""
","
","","","-1","","","13","6468","3784","&#9854;","elianto","#FFFFF080","-1","-1","1","&#10004","[]","0","0","1","","","","","","","",""
"pit-trial","15","251765","0.0-2.0-6.1-0.1","battery-v0.2","","""event"",""trial"",""time""
""fullscreenenter"",""1"",""2490""
","
","
","""event"",""trial"",""time""
""fullscreenenter"",""1"",""2490""
","
","","","-1","","","13","6468","3784","&#9854;","elianto","#FFFFF080","-1","-1","1","&#10004","[]","0","0","1","","","","","","","",""
"pit-trial","16","256628","0.0-2.0-6.2-0.2","battery-v0.2","","""event"",""trial"",""time""
""fullscreenenter"",""1"",""2490""
","
","
","""event"",""trial"",""time""
""fullscreenenter"",""1"",""2490""
","
","","","-1","","","13","6468","3784","&#9854;","elianto","#FFFFF080","-1","-1","1","&#10004","[]","0","0","1","","","","","","","",""
"pit-trial","17","261494","0.0-2.0-6.3-0.3","battery-v0.2","","""event"",""trial"",""time""
""fullscreenenter"",""1"",""2490""
","
","
","""event"",""trial"",""time""
""fullscreenenter"",""1"",""2490""
","
","","","-1","","","13","6468","3784","&#9854;","elianto","#FFFFF080","-1","-1","1","&#10004","[]","0","0","1","","","","","","","",""
"pit-trial","18","266356","0.0-2.0-6.4-0.4","battery-v0.2","","""event"",""trial"",""time""
""fullscreenenter"",""1"",""2490""
","
","
","""event"",""trial"",""time""
""fullscreenenter"",""1"",""2490""
","
","","","-1","","","13","6468","3784","&#9854;","elianto","#FFFFF080","-1","-1","1","&#10004","[]","0","0","1","","","","","","","",""
"pit-instructions","19","409081","0.0-2.0-7.0","battery-v0.2","","""event"",""trial"",""time""
""fullscreenenter"",""1"",""2490""
","
","
","""event"",""trial"",""time""
""fullscreenenter"",""1"",""2490""
","
","","[{""page_index"":0,""viewing_time"":7515},{""page_index"":1,""viewing_time"":7783.89999999851},{""page_index"":2,""viewing_time"":6198.800000000745},{""page_index"":3,""viewing_time"":6472.300000000745},{""page_index"":4,""viewing_time"":5851.89999999851},{""page_index"":5,""viewing_time"":5843.300000000745},{""page_index"":6,""viewing_time"":9479.5},{""page_index"":7,""viewing_time"":8097.0999999996275},{""page_index"":8,""viewing_time"":7655.9000000003725},{""page_index"":9,""viewing_time"":6850.699999999255},{""page_index"":10,""viewing_time"":7587},{""page_index"":11,""viewing_time"":7116.5},{""page_index"":12,""viewing_time"":7278.60000000149},{""page_index"":13,""viewing_time"":7718.89999999851},{""page_index"":14,""viewing_time"":8587.900000000373},{""page_index"":15,""viewing_time"":6676.0999999996275},{""page_index"":16,""viewing_time"":7562.200000001118},{""page_index"":17,""viewing_time"":18430.900000000373}]","142710.29999999888","","","","","","","","","","","","","","","","","","","","","","","",""
"pit-trial","20","413212","0.0-2.0-8.0-0.0","battery-v0.2","","""event"",""trial"",""time""
""fullscreenenter"",""1"",""2490""
","
","
","""event"",""trial"",""time""
""fullscreenenter"",""1"",""2490""
","
","","","1268.7000000011176","","","13","6468","3784","&#9776;","elianto","#3366ff99"," "," ","1","+10","[2118.4000000003725]","1","0","1","","","","","","","",""
"pit-trial","21","416687","0.0-2.0-8.0-1.0","battery-v0.2","","""event"",""trial"",""time""
""fullscreenenter"",""1"",""2490""
","
","
","""event"",""trial"",""time""
""fullscreenenter"",""1"",""2490""
","
","","","614.5999999996275","","","13","6468","3784","&#9776;","elianto","#3366ff99"," "," ","1","+10","[1464.6000000014901]","1","0","1","","","","","","","",""
"pit-trial","22","420125","0.0-2.0-8.0-2.0","battery-v0.2","","""event"",""trial"",""time""
""fullscreenenter"",""1"",""2490""
","
","
","""event"",""trial"",""time""
""fullscreenenter"",""1"",""2490""
","
","","","573.9000000003725","","","13","6468","3784","&#9776;","elianto","#3366ff99"," "," ","1","+10","[1427.5]","1","0","1","","","","","","","",""
"pit-trial","23","423501","0.0-2.0-8.0-3.0","battery-v0.2","","""event"",""trial"",""time""
""fullscreenenter"",""1"",""2490""
","
","
","""event"",""trial"",""time""
""fullscreenenter"",""1"",""2490""
","
","","","511.59999999962747","","","13","6468","3784","&#9776;","elianto","#3366ff99"," "," ","1","0","[1361.7000000011176]","1","0","1","","","","","","","",""
"pit-trial","24","426882","0.0-2.0-8.0-4.0","battery-v0.2","","""event"",""trial"",""time""
""fullscreenenter"",""1"",""2490""
","
","
","""event"",""trial"",""time""
""fullscreenenter"",""1"",""2490""
","
","","","519","","","13","6468","3784","&#9776;","elianto","#3366ff99"," "," ","1","+10","[1369.0999999996275]","1","0","1","","","","","","","",""
"pit-trial","25","430155","0.0-2.0-8.1-0.1","battery-v0.2","","""event"",""trial"",""time""
""fullscreenenter"",""1"",""2490""
","
","
","""event"",""trial"",""time""
""fullscreenenter"",""1"",""2490""
","
","","","409.90000000037253","","","13","6468","3784","&#9776;","elianto","#3366ff99"," "," ","1","+10","[1259.8999999985099]","1","0","1","","","","","","","",""
"pit-trial","26","433345","0.0-2.0-8.1-1.1","battery-v0.2","","""event"",""trial"",""time""
""fullscreenenter"",""1"",""2490""
","
","
","""event"",""trial"",""time""
""fullscreenenter"",""1"",""2490""
","
","","","320.30000000074506","","","13","6468","3784","&#9776;","elianto","#3366ff99"," "," ","1","+10","[1175.699999999255]","1","0","1","","","","","","","",""
"pit-trial","27","436922","0.0-2.0-8.1-2.1","battery-v0.2","","""event"",""trial"",""time""
""fullscreenenter"",""1"",""2490""
","
","
","""event"",""trial"",""time""
""fullscreenenter"",""1"",""2490""
","
","","","712.1999999992549","","","13","6468","3784","&#9776;","elianto","#3366ff99"," "," ","1","+10","[1562.300000000745]","1","0","1","","","","","","","",""
"pit-trial","28","440122","0.0-2.0-8.1-3.1","battery-v0.2","","""event"",""trial"",""time""
""fullscreenenter"",""1"",""2490""
","
","
","""event"",""trial"",""time""
""fullscreenenter"",""1"",""2490""
","
","","","340","","","13","6468","3784","&#9776;","elianto","#3366ff99"," "," ","1","0","[1190.7999999988824]","1","0","1","","","","","","","",""
"pit-trial","29","443020","0.0-2.0-8.1-4.1","battery-v0.2","","""event"",""trial"",""time""
""fullscreenenter"",""1"",""2490""
","
","
","""event"",""trial"",""time""
""fullscreenenter"",""1"",""2490""
","
","","","36.19999999925494","","","13","6468","3784","&#9776;","elianto","#3366ff99"," "," ","1","+10","[886.0999999996275,1091.199999999255]","2","0","1","","","","","","","",""
"pit-trial","30","446437","0.0-2.0-8.2-0.2","battery-v0.2","","""event"",""trial"",""time""
""fullscreenenter"",""1"",""2490""
","
","
","""event"",""trial"",""time""
""fullscreenenter"",""1"",""2490""
","
","","","548.9000000003725","","","13","6468","3784","&#9776;","elianto","#3366ff99"," "," ","1","+10","[1399,2521.699999999255]","2","0","1","","","","","","","",""
"pit-trial","31","449598","0.0-2.0-8.2-1.2","battery-v0.2","","""event"",""trial"",""time""
""fullscreenenter"",""1"",""2490""
","
","
","""event"",""trial"",""time""
""fullscreenenter"",""1"",""2490""
","
","","","296.5","","","13","6468","3784","&#9776;","elianto","#3366ff99"," "," ","1","+10","[1146.5]","1","0","1","","","","","","","",""
"pit-trial","32","452683","0.0-2.0-8.2-2.2","battery-v0.2","","""event"",""trial"",""time""
""fullscreenenter"",""1"",""2490""
","
","
","""event"",""trial"",""time""
""fullscreenenter"",""1"",""2490""
","
","","","220.19999999925494","","","13","6468","3784","&#9776;","elianto","#3366ff99"," "," ","1","+10","[1070.300000000745]","1","0","1","","","","","","","",""
"pit-trial","33","455789","0.0-2.0-8.2-3.2","battery-v0.2","","""event"",""trial"",""time""
""fullscreenenter"",""1"",""2490""
","
","
","""event"",""trial"",""time""
""fullscreenenter"",""1"",""2490""
","
","","","245.09999999962747","","","13","6468","3784","&#9776;","elianto","#3366ff99"," "," ","1","0","[1095.199999999255]","1","0","1","","","","","","","",""
"pit-trial","34","458982","0.0-2.0-8.2-4.2","battery-v0.2","","""event"",""trial"",""time""
""fullscreenenter"",""1"",""2490""
","
","
","""event"",""trial"",""time""
""fullscreenenter"",""1"",""2490""
","
","","","331","","","13","6468","3784","&#9776;","elianto","#3366ff99"," "," ","1","+10","[1182.4000000003725]","1","0","1","","","","","","","",""
"call-function","35","458989","0.0-2.0-9.0","battery-v0.2","","""event"",""trial"",""time""
""fullscreenenter"",""1"",""2490""
","
","
","""event"",""trial"",""time""
""fullscreenenter"",""1"",""2490""
","
","","","","","","","","","","","","","","","","","","","","","","","","","","",""
"pit-instructions","36","505867","0.0-2.0-10.0","battery-v0.2","","""event"",""trial"",""time""
""fullscreenenter"",""1"",""2490""
","
","
","""event"",""trial"",""time""
""fullscreenenter"",""1"",""2490""
","
","","[{""page_index"":0,""viewing_time"":8015.700000001118},{""page_index"":1,""viewing_time"":8747.5},{""page_index"":2,""viewing_time"":10481.599999999627},{""page_index"":3,""viewing_time"":12310},{""page_index"":4,""viewing_time"":7317.9000000003725}]","46875.20000000112","","","","","","","","","","","","","","","","","","","","","","","",""
"pit-trial","37","509046","0.0-2.0-11.0-0.0","battery-v0.2","","""event"",""trial"",""time""
""fullscreenenter"",""1"",""2490""
","
","
","""event"",""trial"",""time""
""fullscreenenter"",""1"",""2490""
","
","","","320.80000000074506","","","13","6468","3784","&#9761;","elianto","#3366ff99","-1"," ","0","0","[1170.800000000745]","1","0","2","","","","","","","",""
"pit-trial","38","512058","0.0-2.0-11.0-1.0","battery-v0.2","","""event"",""trial"",""time""
""fullscreenenter"",""1"",""2490""
","
","
","""event"",""trial"",""time""
""fullscreenenter"",""1"",""2490""
","
","","","148.10000000149012","","","13","6468","3784","&#9761;","elianto","#3366ff99","-1"," ","0","0","[998.1999999992549]","1","0","2","","","","","","","",""
"pit-trial","39","516920","0.0-2.0-11.0-2.0","battery-v0.2","","""event"",""trial"",""time""
""fullscreenenter"",""1"",""2490""
","
","
","""event"",""trial"",""time""
""fullscreenenter"",""1"",""2490""
","
","","","-1","","","13","6468","3784","&#9761;","elianto","#3366ff99","-1","-1","1","+10","[]","0","0","2","","","","","","","",""
"pit-trial","40","520284","0.0-2.0-11.0-3.0","battery-v0.2","","""event"",""trial"",""time""
""fullscreenenter"",""1"",""2490""
","
","
","""event"",""trial"",""time""
""fullscreenenter"",""1"",""2490""
","
","","","501.80000000074506","","","13","6468","3784","&#9761;","elianto","#3366ff99","-1"," ","0","+10","[1352.0999999996275]","1","0","2","","","","","","","",""
"pit-trial","41","523392","0.0-2.0-11.0-4.0","battery-v0.2","","""event"",""trial"",""time""
""fullscreenenter"",""1"",""2490""
","
","
","""event"",""trial"",""time""
""fullscreenenter"",""1"",""2490""
","
","","","243.5","","","13","6468","3784","&#9761;","elianto","#3366ff99","-1"," ","0","0","[1096.5]","1","0","2","","","","","","","",""
"pit-trial","42","528258","0.0-2.0-11.1-0.1","battery-v0.2","","""event"",""trial"",""time""
""fullscreenenter"",""1"",""2490""
","
","
","""event"",""trial"",""time""
""fullscreenenter"",""1"",""2490""
","
","","","-1","","","13","6468","3784","&#9761;","elianto","#3366ff99","-1","-1","1","+10","[]","0","0","2","","","","","","","",""
"pit-trial","43","531527","0.0-2.0-11.1-1.1","battery-v0.2","","""event"",""trial"",""time""
""fullscreenenter"",""1"",""2490""
","
","
","""event"",""trial"",""time""
""fullscreenenter"",""1"",""2490""
","
","","","404.2000000011176","","","13","6468","3784","&#9761;","elianto","#3366ff99","-1"," ","0","0","[1256.9000000003725]","1","0","2","","","","","","","",""
"pit-trial","44","534872","0.0-2.0-11.1-2.1","battery-v0.2","","""event"",""trial"",""time""
""fullscreenenter"",""1"",""2490""
","
","
","""event"",""trial"",""time""
""fullscreenenter"",""1"",""2490""
","
","","","482.90000000037253","","","13","6468","3784","&#9761;","elianto","#3366ff99","-1"," ","0","0","[1333]","1","0","2","","","","","","","",""
"pit-trial","45","538432","0.0-2.0-11.1-3.1","battery-v0.2","","""event"",""trial"",""time""
""fullscreenenter"",""1"",""2490""
","
","
","""event"",""trial"",""time""
""fullscreenenter"",""1"",""2490""
","
","","","696.6999999992549","","","13","6468","3784","&#9761;","elianto","#3366ff99","-1"," ","0","+10","[1547.7999999988824]","1","0","2","","","","","","","",""
"pit-trial","46","541534","0.0-2.0-11.1-4.1","battery-v0.2","","""event"",""trial"",""time""
""fullscreenenter"",""1"",""2490""
","
","
","""event"",""trial"",""time""
""fullscreenenter"",""1"",""2490""
","
","","","236.40000000037253","","","13","6468","3784","&#9761;","elianto","#3366ff99","-1"," ","0","0","[1087.4000000003725]","1","0","2","","","","","","","",""
"pit-trial","47","544843","0.0-2.0-11.2-0.2","battery-v0.2","","""event"",""trial"",""time""
""fullscreenenter"",""1"",""2490""
","
","
","""event"",""trial"",""time""
""fullscreenenter"",""1"",""2490""
","
","","","441.90000000037253","","","13","6468","3784","&#9761;","elianto","#3366ff99","-1"," ","0","0","[1291.8999999985099]","1","0","2","","","","","","","",""
"pit-trial","48","548567","0.0-2.0-11.2-1.2","battery-v0.2","","""event"",""trial"",""time""
""fullscreenenter"",""1"",""2490""
","
","
","""event"",""trial"",""time""
""fullscreenenter"",""1"",""2490""
","
","","","861","","","13","6468","3784","&#9761;","elianto","#3366ff99","-1"," ","0","0","[1711.199999999255]","1","0","2","","","","","","","",""
"pit-trial","49","551889","0.0-2.0-11.2-2.2","battery-v0.2","","""event"",""trial"",""time""
""fullscreenenter"",""1"",""2490""
","
","
","""event"",""trial"",""time""
""fullscreenenter"",""1"",""2490""
","
","","","458.5","","","13","6468","3784","&#9761;","elianto","#3366ff99","-1"," ","0","0","[1308.7000000011176]","1","0","2","","","","","","","",""
"pit-trial","50","555373","0.0-2.0-11.2-3.2","battery-v0.2","","""event"",""trial"",""time""
""fullscreenenter"",""1"",""2490""
","
","
","""event"",""trial"",""time""
""fullscreenenter"",""1"",""2490""
","
","","","622.5999999996275","","","13","6468","3784","&#9761;","elianto","#3366ff99","-1"," ","0","+10","[1473.4000000003725]","1","0","2","","","","","","","",""
"pit-trial","51","558631","0.0-2.0-11.2-4.2","battery-v0.2","","""event"",""trial"",""time""
""fullscreenenter"",""1"",""2490""
","
","
","""event"",""trial"",""time""
""fullscreenenter"",""1"",""2490""
","
","","","395.30000000074506","","","13","6468","3784","&#9761;","elianto","#3366ff99","-1"," ","0","0","[1246.0999999996275,1427.4000000003725]","2","0","2","","","","","","","",""
"pit-trial","52","562779","0.0-2.0-11.3-0.3","battery-v0.2","","""event"",""trial"",""time""
""fullscreenenter"",""1"",""2490""
","
","
","""event"",""trial"",""time""
""fullscreenenter"",""1"",""2490""
","
","","","1283.0999999996275","","","13","6468","3784","&#9761;","elianto","#3366ff99","-1"," ","0","0","[2133.0999999996275]","1","0","2","","","","","","","",""
"pit-trial","53","565777","0.0-2.0-11.3-1.3","battery-v0.2","","""event"",""trial"",""time""
""fullscreenenter"",""1"",""2490""
","
","
","""event"",""trial"",""time""
""fullscreenenter"",""1"",""2490""
","
","","","137.90000000037253","","","13","6468","3784","&#9761;","elianto","#3366ff99","-1"," ","0","0","[435.69999999925494,764.0999999996275,988.0999999996275,1275]","4","0","2","","","","","","","",""
"pit-trial","54","568661","0.0-2.0-11.3-2.3","battery-v0.2","","""event"",""trial"",""time""
""fullscreenenter"",""1"",""2490""
","
","
","""event"",""trial"",""time""
""fullscreenenter"",""1"",""2490""
","
","","","25.90000000037253","","","13","6468","3784","&#9761;","elianto","#3366ff99","-1"," ","0","0","[876.0999999996275]","1","0","2","","","","","","","",""
"pit-trial","55","571582","0.0-2.0-11.3-3.3","battery-v0.2","","""event"",""trial"",""time""
""fullscreenenter"",""1"",""2490""
","
","
","""event"",""trial"",""time""
""fullscreenenter"",""1"",""2490""
","
","","","59.80000000074506","","","13","6468","3784","&#9761;","elianto","#3366ff99","-1"," ","0","+10","[288.40000000037253,465.5,622.9000000003725,783.6999999992549,909.9000000003725,1081.699999999255]","6","0","2","","","","","","","",""
"pit-trial","56","575161","0.0-2.0-11.3-4.3","battery-v0.2","","""event"",""trial"",""time""
""fullscreenenter"",""1"",""2490""
","
","
","""event"",""trial"",""time""
""fullscreenenter"",""1"",""2490""
","
","","","720.0999999996275","","","13","6468","3784","&#9761;","elianto","#3366ff99","-1"," ","0","0","[1570.0999999996275]","1","0","2","","","","","","","",""
"call-function","57","575171","0.0-2.0-12.0","battery-v0.2","","""event"",""trial"",""time""
""fullscreenenter"",""1"",""2490""
","
","
","""event"",""trial"",""time""
""fullscreenenter"",""1"",""2490""
","
","","","","","","","","","","","","","","","","","","","","","","","","","","",""
"pit-instructions","58","640475","0.0-2.0-13.0","battery-v0.2","","""event"",""trial"",""time""
""fullscreenenter"",""1"",""2490""
","
","
","""event"",""trial"",""time""
""fullscreenenter"",""1"",""2490""
","
","","[{""page_index"":0,""viewing_time"":17207.900000000373},{""page_index"":1,""viewing_time"":15922.599999999627},{""page_index"":2,""viewing_time"":14170.800000000745},{""page_index"":3,""viewing_time"":10803.400000000373},{""page_index"":4,""viewing_time"":7194.0999999996275}]","65301.70000000112","","","","","","","","","","","","","","","","","","","","","","","",""
"pit-trial","59","645336","0.0-2.0-14.0-0.0","battery-v0.2","","""event"",""trial"",""time""
""fullscreenenter"",""1"",""2490""
","
","
","""event"",""trial"",""time""
""fullscreenenter"",""1"",""2490""
","
","","","-1","","","13","6468","3784","&#9826;","elianto","#f73b6a7A","-1","-1","1","0","[]","0","0","3","","","","","","","",""
"pit-trial","60","650198","0.0-2.0-14.0-1.0","battery-v0.2","","""event"",""trial"",""time""
""fullscreenenter"",""1"",""2490""
","
","
","""event"",""trial"",""time""
""fullscreenenter"",""1"",""2490""
","
","","","-1","","","13","6468","3784","&#9826;","elianto","#f73b6a7A","-1","-1","1","0","[]","0","0","3","","","","","","","",""
"pit-trial","61","655060","0.0-2.0-14.0-2.0","battery-v0.2","","""event"",""trial"",""time""
""fullscreenenter"",""1"",""2490""
","
","
","""event"",""trial"",""time""
""fullscreenenter"",""1"",""2490""
","
","","","-1","","","13","6468","3784","&#9826;","elianto","#f73b6a7A","-1","-1","1","0","[]","0","0","3","","","","","","","",""
"pit-trial","62","659922","0.0-2.0-14.0-3.0","battery-v0.2","","""event"",""trial"",""time""
""fullscreenenter"",""1"",""2490""
","
","
","""event"",""trial"",""time""
""fullscreenenter"",""1"",""2490""
","
","","","-1","","","13","6468","3784","&#9826;","elianto","#f73b6a7A","-1","-1","1","-10","[]","0","0","3","","","","","","","",""
"pit-trial","63","663001","0.0-2.0-14.0-4.0","battery-v0.2","","""event"",""trial"",""time""
""fullscreenenter"",""1"",""2490""
","
","
","""event"",""trial"",""time""
""fullscreenenter"",""1"",""2490""
","
","","","218.7000000011176","","","13","6468","3784","&#9826;","elianto","#f73b6a7A","-1"," ","0","-10","[1068.699999999255]","1","0","3","","","","","","","",""
"pit-trial","64","666189","0.0-2.0-14.1-0.1","battery-v0.2","","""event"",""trial"",""time""
""fullscreenenter"",""1"",""2490""
","
","
","""event"",""trial"",""time""
""fullscreenenter"",""1"",""2490""
","
","","","322.7000000011176","","","13","6468","3784","&#9826;","elianto","#f73b6a7A","-1"," ","0","-10","[1172.7999999988824]","1","0","3","","","","","","","",""
"pit-trial","65","669555","0.0-2.0-14.1-1.1","battery-v0.2","","""event"",""trial"",""time""
""fullscreenenter"",""1"",""2490""
","
","
","""event"",""trial"",""time""
""fullscreenenter"",""1"",""2490""
","
","","","492.59999999962747","","","13","6468","3784","&#9826;","elianto","#f73b6a7A","-1"," ","0","-10","[1350.2000000011176]","1","0","3","","","","","","","",""
"pit-trial","66","672731","0.0-2.0-14.1-2.1","battery-v0.2","","""event"",""trial"",""time""
""fullscreenenter"",""1"",""2490""
","
","
","""event"",""trial"",""time""
""fullscreenenter"",""1"",""2490""
","
","","","310.5","","","13","6468","3784","&#9826;","elianto","#f73b6a7A","-1"," ","0","-10","[1164.6000000014901]","1","0","3","","","","","","","",""
"pit-trial","67","675887","0.0-2.0-14.1-3.1","battery-v0.2","","""event"",""trial"",""time""
""fullscreenenter"",""1"",""2490""
","
","
","""event"",""trial"",""time""
""fullscreenenter"",""1"",""2490""
","
","","","296.90000000037253","","","13","6468","3784","&#9826;","elianto","#f73b6a7A","-1"," ","0","0","[1146.7999999988824]","1","0","3","","","","","","","",""
"pit-trial","68","679199","0.0-2.0-14.1-4.1","battery-v0.2","","""event"",""trial"",""time""
""fullscreenenter"",""1"",""2490""
","
","
","""event"",""trial"",""time""
""fullscreenenter"",""1"",""2490""
","
","","","447.7999999988824","","","13","6468","3784","&#9826;","elianto","#f73b6a7A","-1"," ","0","-10","[1300.5999999996275]","1","0","3","","","","","","","",""
"pit-trial","69","684063","0.0-2.0-14.2-0.2","battery-v0.2","","""event"",""trial"",""time""
""fullscreenenter"",""1"",""2490""
","
","
","""event"",""trial"",""time""
""fullscreenenter"",""1"",""2490""
","
","","","-1","","","13","6468","3784","&#9826;","elianto","#f73b6a7A","-1","-1","1","0","[]","0","0","3","","","","","","","",""
"pit-trial","70","688928","0.0-2.0-14.2-1.2","battery-v0.2","","""event"",""trial"",""time""
""fullscreenenter"",""1"",""2490""
","
","
","""event"",""trial"",""time""
""fullscreenenter"",""1"",""2490""
","
","","","-1","","","13","6468","3784","&#9826;","elianto","#f73b6a7A","-1","-1","1","0","[]","0","0","3","","","","","","","",""
"pit-trial","71","693793","0.0-2.0-14.2-2.2","battery-v0.2","","""event"",""trial"",""time""
""fullscreenenter"",""1"",""2490""
","
","
","""event"",""trial"",""time""
""fullscreenenter"",""1"",""2490""
","
","","","-1","","","13","6468","3784","&#9826;","elianto","#f73b6a7A","-1","-1","1","0","[]","0","0","3","","","","","","","",""
"pit-trial","72","698657","0.0-2.0-14.2-3.2","battery-v0.2","","""event"",""trial"",""time""
""fullscreenenter"",""1"",""2490""
","
","
","""event"",""trial"",""time""
""fullscreenenter"",""1"",""2490""
","
","","","-1","","","13","6468","3784","&#9826;","elianto","#f73b6a7A","-1","-1","1","-10","[]","0","0","3","","","","","","","",""
"pit-trial","73","703523","0.0-2.0-14.2-4.2","battery-v0.2","","""event"",""trial"",""time""
""fullscreenenter"",""1"",""2490""
","
","
","""event"",""trial"",""time""
""fullscreenenter"",""1"",""2490""
","
","","","-1","","","13","6468","3784","&#9826;","elianto","#f73b6a7A","-1","-1","1","0","[]","0","0","3","","","","","","","",""
"pit-trial","74","708387","0.0-2.0-14.3-0.3","battery-v0.2","","""event"",""trial"",""time""
""fullscreenenter"",""1"",""2490""
","
","
","""event"",""trial"",""time""
""fullscreenenter"",""1"",""2490""
","
","","","-1","","","13","6468","3784","&#9826;","elianto","#f73b6a7A","-1","-1","1","0","[]","0","0","3","","","","","","","",""
"pit-trial","75","713250","0.0-2.0-14.3-1.3","battery-v0.2","","""event"",""trial"",""time""
""fullscreenenter"",""1"",""2490""
","
","
","""event"",""trial"",""time""
""fullscreenenter"",""1"",""2490""
","
","","","-1","","","13","6468","3784","&#9826;","elianto","#f73b6a7A","-1","-1","1","0","[]","0","0","3","","","","","","","",""
"pit-trial","76","718113","0.0-2.0-14.3-2.3","battery-v0.2","","""event"",""trial"",""time""
""fullscreenenter"",""1"",""2490""
","
","
","""event"",""trial"",""time""
""fullscreenenter"",""1"",""2490""
","
","","","-1","","","13","6468","3784","&#9826;","elianto","#f73b6a7A","-1","-1","1","0","[]","0","0","3","","","","","","","",""
"pit-trial","77","722976","0.0-2.0-14.3-3.3","battery-v0.2","","""event"",""trial"",""time""
""fullscreenenter"",""1"",""2490""
","
","
","""event"",""trial"",""time""
""fullscreenenter"",""1"",""2490""
","
","","","-1","","","13","6468","3784","&#9826;","elianto","#f73b6a7A","-1","-1","1","-10","[]","0","0","3","","","","","","","",""
"pit-trial","78","727839","0.0-2.0-14.3-4.3","battery-v0.2","","""event"",""trial"",""time""
""fullscreenenter"",""1"",""2490""
","
","
","""event"",""trial"",""time""
""fullscreenenter"",""1"",""2490""
","
","","","-1","","","13","6468","3784","&#9826;","elianto","#f73b6a7A","-1","-1","1","0","[]","0","0","3","","","","","","","",""
"call-function","79","727846","0.0-2.0-15.0","battery-v0.2","","""event"",""trial"",""time""
""fullscreenenter"",""1"",""2490""
","
","
","""event"",""trial"",""time""
""fullscreenenter"",""1"",""2490""
","
","","","","","","","","","","","","","","","","","","","","","","","","","","",""
"pit-instructions","80","759803","0.0-2.0-16.0","battery-v0.2","","""event"",""trial"",""time""
""fullscreenenter"",""1"",""2490""
","
","
","""event"",""trial"",""time""
""fullscreenenter"",""1"",""2490""
","
","","[{""page_index"":0,""viewing_time"":8963},{""page_index"":1,""viewing_time"":13996.099999999627},{""page_index"":2,""viewing_time"":4754.4000000003725},{""page_index"":3,""viewing_time"":4237.800000000745}]","31955.400000000373","","","","","","","","","","","","","","","","","","","","","","","",""
"pit-trial","81","763491","0.0-2.0-17.0-0.0","battery-v0.2","","""event"",""trial"",""time""
""fullscreenenter"",""1"",""2490""
","
","
","""event"",""trial"",""time""
""fullscreenenter"",""1"",""2490""
","
","","","827.6000000014901","","","13","6468","3784","&#9789;","elianto","#f73b6a7A"," "," ","1","0","[1677.7999999988824,2366.7999999988824,2792.7999999988824,3088.7999999988824,3352.7999999988824,3608.699999999255]","6","0","4","","","","","","","",""
"pit-trial","82","766418","0.0-2.0-17.0-1.0","battery-v0.2","","""event"",""trial"",""time""
""fullscreenenter"",""1"",""2490""
","
","
","""event"",""trial"",""time""
""fullscreenenter"",""1"",""2490""
","
","","","68.29999999888241","","","13","6468","3784","&#9789;","elianto","#f73b6a7A"," "," ","1","0","[359.5,554.1000000014901,918.4000000003725,1496.4000000003725,2139.800000000745,2350.9000000003725,2581.9000000003725,2839.800000000745]","8","0","4","","","","","","","",""
"pit-trial","83","769438","0.0-2.0-17.0-2.0","battery-v0.2","","""event"",""trial"",""time""
""fullscreenenter"",""1"",""2490""
","
","
","""event"",""trial"",""time""
""fullscreenenter"",""1"",""2490""
","
","","","160.40000000037253","","","13","6468","3784","&#9789;","elianto","#f73b6a7A"," "," ","1","0","[115.60000000149012,336.80000000074506,566.9000000003725,793.5,1010.5,1248.300000000745,1492,1723.800000000745,1987.5,2168.60000000149,2379.10000000149,2534.4000000003725,2732.10000000149,2928.5]","14","0","4","","","","","","","",""
"pit-trial","84","772715","0.0-2.0-17.0-3.0","battery-v0.2","","""event"",""trial"",""time""
""fullscreenenter"",""1"",""2490""
","
","
","""event"",""trial"",""time""
""fullscreenenter"",""1"",""2490""
","
","","","414.7000000011176","","","13","6468","3784","&#9789;","elianto","#f73b6a7A"," "," ","1","-10","[96.90000000037253,540.4000000003725,1264.7999999988824]","3","0","4","","","","","","","",""
"pit-trial","85","777580","0.0-2.0-17.0-4.0","battery-v0.2","","""event"",""trial"",""time""
""fullscreenenter"",""1"",""2490""
","
","
","""event"",""trial"",""time""
""fullscreenenter"",""1"",""2490""
","
","","","-1","","","13","6468","3784","&#9789;","elianto","#f73b6a7A"," ","-1","0","-10","[]","0","0","4","","","","","","","",""
"pit-trial","86","782443","0.0-2.0-17.1-0.1","battery-v0.2","","""event"",""trial"",""time""
""fullscreenenter"",""1"",""2490""
","
","
","""event"",""trial"",""time""
""fullscreenenter"",""1"",""2490""
","
","","","-1","","","13","6468","3784","&#9789;","elianto","#f73b6a7A"," ","-1","0","-10","[]","0","0","4","","","","","","","",""
"pit-trial","87","787306","0.0-2.0-17.1-1.1","battery-v0.2","","""event"",""trial"",""time""
""fullscreenenter"",""1"",""2490""
","
","
","""event"",""trial"",""time""
""fullscreenenter"",""1"",""2490""
","
","","","-1","","","13","6468","3784","&#9789;","elianto","#f73b6a7A"," ","-1","0","-10","[]","0","0","4","","","","","","","",""
"pit-trial","88","792169","0.0-2.0-17.1-2.1","battery-v0.2","","""event"",""trial"",""time""
""fullscreenenter"",""1"",""2490""
","
","
","""event"",""trial"",""time""
""fullscreenenter"",""1"",""2490""
","
","","","-1","","","13","6468","3784","&#9789;","elianto","#f73b6a7A"," ","-1","0","-10","[]","0","0","4","","","","","","","",""
"pit-trial","89","796126","0.0-2.0-17.1-3.1","battery-v0.2","","""event"",""trial"",""time""
""fullscreenenter"",""1"",""2490""
","
","
","""event"",""trial"",""time""
""fullscreenenter"",""1"",""2490""
","
","","","1088.800000000745","","","13","6468","3784","&#9789;","elianto","#f73b6a7A"," "," ","1","-10","[1942.7999999988824]","1","0","4","","","","","","","",""
"pit-trial","90","799144","0.0-2.0-17.1-4.1","battery-v0.2","","""event"",""trial"",""time""
""fullscreenenter"",""1"",""2490""
","
","
","""event"",""trial"",""time""
""fullscreenenter"",""1"",""2490""
","
","","","151.89999999850988","","","13","6468","3784","&#9789;","elianto","#f73b6a7A"," "," ","1","0","[1002]","1","0","4","","","","","","","",""
"pit-trial","91","802518","0.0-2.0-17.2-0.2","battery-v0.2","","""event"",""trial"",""time""
""fullscreenenter"",""1"",""2490""
","
","
","""event"",""trial"",""time""
""fullscreenenter"",""1"",""2490""
","
","","","509.59999999962747","","","13","6468","3784","&#9789;","elianto","#f73b6a7A"," "," ","1","0","[1359.5]","1","0","4","","","","","","","",""
"pit-trial","92","805617","0.0-2.0-17.2-1.2","battery-v0.2","","""event"",""trial"",""time""
""fullscreenenter"",""1"",""2490""
","
","
","""event"",""trial"",""time""
""fullscreenenter"",""1"",""2490""
","
","","","237.30000000074506","","","13","6468","3784","&#9789;","elianto","#f73b6a7A"," "," ","1","0","[1087.4000000003725]","1","0","4","","","","","","","",""
"pit-trial","93","809606","0.0-2.0-17.2-2.2","battery-v0.2","","""event"",""trial"",""time""
""fullscreenenter"",""1"",""2490""
","
","
","""event"",""trial"",""time""
""fullscreenenter"",""1"",""2490""
","
","","","1128.8999999985099","","","13","6468","3784","&#9789;","elianto","#f73b6a7A"," "," ","1","0","[1979.0999999996275]","1","0","4","","","","","","","",""
"pit-trial","94","812731","0.0-2.0-17.2-3.2","battery-v0.2","","""event"",""trial"",""time""
""fullscreenenter"",""1"",""2490""
","
","
","""event"",""trial"",""time""
""fullscreenenter"",""1"",""2490""
","
","","","259.30000000074506","","","13","6468","3784","&#9789;","elianto","#f73b6a7A"," "," ","1","-10","[1113.9000000003725]","1","0","4","","","","","","","",""
"pit-trial","95","815619","0.0-2.0-17.2-4.2","battery-v0.2","","""event"",""trial"",""time""
""fullscreenenter"",""1"",""2490""
","
","
","""event"",""trial"",""time""
""fullscreenenter"",""1"",""2490""
","
","","","28.09999999962747","","","13","6468","3784","&#9789;","elianto","#f73b6a7A"," "," ","1","0","[878.0999999996275]","1","0","4","","","","","","","",""
"pit-trial","96","820482","0.0-2.0-17.3-0.3","battery-v0.2","","""event"",""trial"",""time""
""fullscreenenter"",""1"",""2490""
","
","
","""event"",""trial"",""time""
""fullscreenenter"",""1"",""2490""
","
","","","-1","","","13","6468","3784","&#9789;","elianto","#f73b6a7A"," ","-1","0","-10","[353.69999999925494,719.5]","2","0","4","","","","","","","",""
"pit-trial","97","825342","0.0-2.0-17.3-1.3","battery-v0.2","","""event"",""trial"",""time""
""fullscreenenter"",""1"",""2490""
","
","
","""event"",""trial"",""time""
""fullscreenenter"",""1"",""2490""
","
","","","-1","","","13","6468","3784","&#9789;","elianto","#f73b6a7A"," ","-1","0","-10","[]","0","0","4","","","","","","","",""
"pit-trial","98","830202","0.0-2.0-17.3-2.3","battery-v0.2","","""event"",""trial"",""time""
""fullscreenenter"",""1"",""2490""
","
","
","""event"",""trial"",""time""
""fullscreenenter"",""1"",""2490""
","
","","","-1","","","13","6468","3784","&#9789;","elianto","#f73b6a7A"," ","-1","0","-10","[]","0","0","4","","","","","","","",""
"pit-trial","99","835064","0.0-2.0-17.3-3.3","battery-v0.2","","""event"",""trial"",""time""
""fullscreenenter"",""1"",""2490""
","
","
","""event"",""trial"",""time""
""fullscreenenter"",""1"",""2490""
","
","","","-1","","","13","6468","3784","&#9789;","elianto","#f73b6a7A"," ","-1","0","0","[]","0","0","4","","","","","","","",""
"pit-trial","100","839927","0.0-2.0-17.3-4.3","battery-v0.2","","""event"",""trial"",""time""
""fullscreenenter"",""1"",""2490""
","
","
","""event"",""trial"",""time""
""fullscreenenter"",""1"",""2490""
","
","","","-1","","","13","6468","3784","&#9789;","elianto","#f73b6a7A"," ","-1","0","-10","[]","0","0","4","","","","","","","",""
"call-function","101","839935","0.0-2.0-18.0","battery-v0.2","","""event"",""trial"",""time""
""fullscreenenter"",""1"",""2490""
","
","
","""event"",""trial"",""time""
""fullscreenenter"",""1"",""2490""
","
","","","","","","","","","","","","","","","","","","","","","","","","","","",""
"pit-instructions","102","937986","0.0-2.0-19.0","battery-v0.2","","""event"",""trial"",""time""
""fullscreenenter"",""1"",""2490""
","
","
","""event"",""trial"",""time""
""fullscreenenter"",""1"",""2490""
","
","","[{""page_index"":0,""viewing_time"":11361.89999999851},{""page_index"":1,""viewing_time"":6927.700000001118},{""page_index"":2,""viewing_time"":11801.299999998882},{""page_index"":3,""viewing_time"":13306.10000000149},{""page_index"":4,""viewing_time"":7414.199999999255},{""page_index"":5,""viewing_time"":14593},{""page_index"":6,""viewing_time"":16375},{""page_index"":7,""viewing_time"":10313.400000000373},{""page_index"":8,""viewing_time"":5955.0999999996275}]","98049","","","","","","","","","","","","","","","","","","","","","","","",""
"pit-comprehension","103","946729","0.0-2.0-20.0-0.0","battery-v0.2","","""event"",""trial"",""time""
""fullscreenenter"",""1"",""2490""
","
","
","""event"",""trial"",""time""
""fullscreenenter"",""1"",""2490""
","
","","","8728.700000001118","[""SPACE""]","0","13","6468","3784","","","","","","","","","","","","","","","","","","",""
"pit-instructions","104","949222","0.0-2.0-20.0-1.0","battery-v0.2","","""event"",""trial"",""time""
""fullscreenenter"",""1"",""2490""
","
","
","""event"",""trial"",""time""
""fullscreenenter"",""1"",""2490""
","
","","[{""page_index"":0,""viewing_time"":2390.2000000011176}]","2393.10000000149","","","","","","","","","","","","","","","","","","","","","","","",""
"pit-comprehension","105","957166","0.0-2.0-21.0-0.0","battery-v0.2","","""event"",""trial"",""time""
""fullscreenenter"",""1"",""2490""
","
","
","""event"",""trial"",""time""
""fullscreenenter"",""1"",""2490""
","
","","","7925.4000000003725","[""10""]","0","13","6468","3784","","","","","","","","","","","","","","","","","","",""
"pit-instructions","106","958821","0.0-2.0-21.0-1.0","battery-v0.2","","""event"",""trial"",""time""
""fullscreenenter"",""1"",""2490""
","
","
","""event"",""trial"",""time""
""fullscreenenter"",""1"",""2490""
","
","","[{""page_index"":0,""viewing_time"":1536.4000000003725}]","1538.300000000745","","","","","","","","","","","","","","","","","","","","","","","",""
"pit-comprehension","107","973014","0.0-2.0-22.0-0.0","battery-v0.2","","""event"",""trial"",""time""
""fullscreenenter"",""1"",""2490""
","
","
","""event"",""trial"",""time""
""fullscreenenter"",""1"",""2490""
","
","","","14179.400000000373","[""0""]","0","13","6468","3784","","","","","","","","","","","","","","","","","","",""
"pit-instructions","108","974790","0.0-2.0-22.0-1.0","battery-v0.2","","""event"",""trial"",""time""
""fullscreenenter"",""1"",""2490""
","
","
","""event"",""trial"",""time""
""fullscreenenter"",""1"",""2490""
","
","","[{""page_index"":0,""viewing_time"":1675.5}]","1676.7000000011176","","","","","","","","","","","","","","","","","","","","","","","",""
"pit-comprehension","109","994838","0.0-2.0-23.0-0.0","battery-v0.2","","""event"",""trial"",""time""
""fullscreenenter"",""1"",""2490""
","
","
","""event"",""trial"",""time""
""fullscreenenter"",""1"",""2490""
","
","","","20035.400000000373","[""True""]","0","13","6468","3784","","","","","","","","","","","","","","","","","","",""
"pit-instructions","110","998963","0.0-2.0-23.0-1.0","battery-v0.2","","""event"",""trial"",""time""
""fullscreenenter"",""1"",""2490""
","
","
","""event"",""trial"",""time""
""fullscreenenter"",""1"",""2490""
","
","","[{""page_index"":0,""viewing_time"":4002.0999999996275}]","4004.699999999255","","","","","","","","","","","","","","","","","","","","","","","",""
"pit-comprehension","111","1007703","0.0-2.0-24.0-0.0","battery-v0.2","","""event"",""trial"",""time""
""fullscreenenter"",""1"",""2490""
","
","
","""event"",""trial"",""time""
""fullscreenenter"",""1"",""2490""
","
","","","8724.699999999255","[""True""]","0","13","6468","3784","","","","","","","","","","","","","","","","","","",""
"pit-instructions","112","1009664","0.0-2.0-24.0-1.0","battery-v0.2","","""event"",""trial"",""time""
""fullscreenenter"",""1"",""2490""
","
","
","""event"",""trial"",""time""
""fullscreenenter"",""1"",""2490""
","
","","[{""page_index"":0,""viewing_time"":1856.3999999985099}]","1858","","","","","","","","","","","","","","","","","","","","","","","",""
"pit-comprehension","113","1017350","0.0-2.0-25.0-0.0","battery-v0.2","","""event"",""trial"",""time""
""fullscreenenter"",""1"",""2490""
","
","
","""event"",""trial"",""time""
""fullscreenenter"",""1"",""2490""
","
","","","7671.0999999996275","[""True""]","0","13","6468","3784","","","","","","","","","","","","","","","","","","",""
"pit-instructions","114","1021464","0.0-2.0-25.0-1.0","battery-v0.2","","""event"",""trial"",""time""
""fullscreenenter"",""1"",""2490""
","
","
","""event"",""trial"",""time""
""fullscreenenter"",""1"",""2490""
","
","","[{""page_index"":0,""viewing_time"":4004.699999999255}]","4005.7999999988824","","","","","","","","","","","","","","","","","","","","","","","",""
"pit-comprehension","115","1029436","0.0-2.0-26.0-0.0","battery-v0.2","","""event"",""trial"",""time""
""fullscreenenter"",""1"",""2490""
","
","
","""event"",""trial"",""time""
""fullscreenenter"",""1"",""2490""
","
","","","7960.4000000003725","[""False""]","0","13","6468","3784","","","","","","","","","","","","","","","","","","",""
"pit-instructions","116","1031157","0.0-2.0-26.0-1.0","battery-v0.2","","""event"",""trial"",""time""
""fullscreenenter"",""1"",""2490""
","
","
","""event"",""trial"",""time""
""fullscreenenter"",""1"",""2490""
","
","","[{""page_index"":0,""viewing_time"":1613}]","1614.199999999255","","","","","","","","","","","","","","","","","","","","","","","",""
"pit-instructions","117","1054936","0.0-3.0","battery-v0.2","","""event"",""trial"",""time""
""fullscreenenter"",""1"",""2490""
","
","
","""event"",""trial"",""time""
""fullscreenenter"",""1"",""2490""
","
","","[{""page_index"":0,""viewing_time"":4183.199999999255},{""page_index"":1,""viewing_time"":5577.4000000003725},{""page_index"":2,""viewing_time"":14007.099999999627}]","23771","","","","","","","","","","","","","","","","","","","","","","","",""
"pit-trial","118","1058952","0.0-4.0","battery-v0.2","","""event"",""trial"",""time""
""fullscreenenter"",""1"",""2490""
","
","
","""event"",""trial"",""time""
""fullscreenenter"",""1"",""2490""
","
","","","1144.9000000003725","","","13","6468","3784","&#9752;","elianto","#f73b6a7A"," "," ","1","0","[1995,3722]","2","1","","","6468","1","3","3","lose","go","0"
"pit-trial","119","1062502","0.0-5.0","battery-v0.2","","""event"",""trial"",""time""
""fullscreenenter"",""1"",""2490""
","
","
","""event"",""trial"",""time""
""fullscreenenter"",""1"",""2490""
","
","","","686.9000000003725","","","13","6468","3784","&#9730;","elianto","#3366ff99"," "," ","1","+10","[1537.4000000003725]","1","1","","","6468","2","1","1","win","go","0"
"pit-trial","120","1065956","0.0-6.0","battery-v0.2","","""event"",""trial"",""time""
""fullscreenenter"",""1"",""2490""
","
","
","""event"",""trial"",""time""
""fullscreenenter"",""1"",""2490""
","
","","","593.9000000003725","","","13","6468","3784","&#9733;","elianto","#3366ff99","-1"," ","0","+10","[1443.9000000003725]","1","1","","","6468","3","2","2","win","no-go","1"
"pit-trial","121","1069372","0.0-7.0","battery-v0.2","","""event"",""trial"",""time""
""fullscreenenter"",""1"",""2490""
","
","
","""event"",""trial"",""time""
""fullscreenenter"",""1"",""2490""
","
","","","557.2999999988824","","","13","6468","3784","&#9728;","elianto","#f73b6a7A","-1"," ","0","0","[1407.300000000745]","1","1","","","6468","4","0","4","lose","no-go","1"
"pit-trial","122","1072756","0.0-8.0","battery-v0.2","","""event"",""trial"",""time""
""fullscreenenter"",""1"",""2490""
","
","
","""event"",""trial"",""time""
""fullscreenenter"",""1"",""2490""
","
","","","516.6999999992549","","","13","6468","3784","&#9733;","elianto","#3366ff99","-1"," ","0","+10","[1372.9000000003725]","1","1","","","6468","5","2","2","win","no-go","1"
"pit-trial","123","1077621","0.0-9.0","battery-v0.2","","""event"",""trial"",""time""
""fullscreenenter"",""1"",""2490""
","
","
","""event"",""trial"",""time""
""fullscreenenter"",""1"",""2490""
","
","","","-1","","","13","6468","3784","&#9728;","elianto","#f73b6a7A","-1","-1","1","0","[3383.199999999255]","1","1","","","6468","6","0","4","lose","no-go","0"
"pit-trial","124","1081351","0.0-10.0","battery-v0.2","","""event"",""trial"",""time""
""fullscreenenter"",""1"",""2490""
","
","
","""event"",""trial"",""time""
""fullscreenenter"",""1"",""2490""
","
","","","866","","","13","6468","3784","&#9730;","elianto","#3366ff99"," "," ","1","+10","[1716.0999999996275]","1","1","","","6468","7","1","1","win","go","0"
"pit-trial","125","1085473","0.0-11.0","battery-v0.2","","""event"",""trial"",""time""
""fullscreenenter"",""1"",""2490""
","
","
","""event"",""trial"",""time""
""fullscreenenter"",""1"",""2490""
","
","","","1257.4000000003725","","","13","6468","3784","&#9752;","elianto","#f73b6a7A"," "," ","1","0","[2107.5]","1","1","","","6468","8","3","3","lose","go","0"
"pit-trial","126","1089450","0.0-12.0","battery-v0.2","","""event"",""trial"",""time""
""fullscreenenter"",""1"",""2490""
","
","
","""event"",""trial"",""time""
""fullscreenenter"",""1"",""2490""
","
","","","1110.300000000745","","","13","6468","3784","&#9752;","elianto","#f73b6a7A"," "," ","1","0","[1964.1000000014901]","1","1","","","6468","9","3","3","lose","go","0"
"pit-trial","127","1093781","0.0-13.0","battery-v0.2","","""event"",""trial"",""time""
""fullscreenenter"",""1"",""2490""
","
","
","""event"",""trial"",""time""
""fullscreenenter"",""1"",""2490""
","
","","","1468.4000000003725","","","13","6468","3784","&#9730;","elianto","#3366ff99"," "," ","1","0","[2318.39999999851]","1","1","","","6468","10","1","1","win","go","1"
"pit-trial","128","1097262","0.0-14.0","battery-v0.2","","""event"",""trial"",""time""
""fullscreenenter"",""1"",""2490""
","
","
","""event"",""trial"",""time""
""fullscreenenter"",""1"",""2490""
","
","","","617.2999999988824","","","13","6468","3784","&#9728;","elianto","#f73b6a7A","-1"," ","0","-10","[1467.300000000745]","1","1","","","6468","11","0","4","lose","no-go","0"
"pit-trial","129","1100663","0.0-15.0","battery-v0.2","","""event"",""trial"",""time""
""fullscreenenter"",""1"",""2490""
","
","
","""event"",""trial"",""time""
""fullscreenenter"",""1"",""2490""
","
","","","532.8000000007451","","","13","6468","3784","&#9733;","elianto","#3366ff99","-1"," ","0","0","[1386.199999999255]","1","1","","","6468","12","2","2","win","no-go","0"
"pit-trial","130","1104350","0.0-16.0","battery-v0.2","","""event"",""trial"",""time""
""fullscreenenter"",""1"",""2490""
","
","
","""event"",""trial"",""time""
""fullscreenenter"",""1"",""2490""
","
","","","824","","","13","6468","3784","&#9733;","elianto","#3366ff99","-1"," ","0","+10","[1675.300000000745]","1","1","","","6468","13","2","2","win","no-go","1"
"pit-trial","131","1107779","0.0-17.0","battery-v0.2","","""event"",""trial"",""time""
""fullscreenenter"",""1"",""2490""
","
","
","""event"",""trial"",""time""
""fullscreenenter"",""1"",""2490""
","
","","","566.7000000011176","","","13","6468","3784","&#9730;","elianto","#3366ff99"," "," ","1","+10","[1416.7999999988824]","1","1","","","6468","14","1","1","win","go","0"
"pit-trial","132","1111810","0.0-18.0","battery-v0.2","","""event"",""trial"",""time""
""fullscreenenter"",""1"",""2490""
","
","
","""event"",""trial"",""time""
""fullscreenenter"",""1"",""2490""
","
","","","1170.5","","","13","6468","3784","&#9752;","elianto","#f73b6a7A"," "," ","1","0","[2020.800000000745]","1","1","","","6468","15","3","3","lose","go","0"
"pit-trial","133","1115363","0.0-19.0","battery-v0.2","","""event"",""trial"",""time""
""fullscreenenter"",""1"",""2490""
","
","
","""event"",""trial"",""time""
""fullscreenenter"",""1"",""2490""
","
","","","691.4000000003725","","","13","6468","3784","&#9728;","elianto","#f73b6a7A","-1"," ","0","-10","[1541.4000000003725]","1","1","","","6468","16","0","4","lose","no-go","0"
"pit-trial","134","1118352","0.0-20.0","battery-v0.2","","""event"",""trial"",""time""
""fullscreenenter"",""1"",""2490""
","
","
","""event"",""trial"",""time""
""fullscreenenter"",""1"",""2490""
","
","","","121","","","13","6468","3784","&#9752;","elianto","#f73b6a7A"," "," ","1","0","[74.09999999962747,974.3000000007451]","2","1","","","6468","17","3","3","lose","go","0"
"pit-trial","135","1121867","0.0-21.0","battery-v0.2","","""event"",""trial"",""time""
""fullscreenenter"",""1"",""2490""
","
","
","""event"",""trial"",""time""
""fullscreenenter"",""1"",""2490""
","
","","","653.0999999996275","","","13","6468","3784","&#9733;","elianto","#3366ff99","-1"," ","0","0","[1503.2000000011176]","1","1","","","6468","18","2","2","win","no-go","0"
"pit-trial","136","1126732","0.0-22.0","battery-v0.2","","""event"",""trial"",""time""
""fullscreenenter"",""1"",""2490""
","
","
","""event"",""trial"",""time""
""fullscreenenter"",""1"",""2490""
","
","","","-1","","","13","6468","3784","&#9728;","elianto","#f73b6a7A","-1","-1","1","0","[]","0","1","","","6468","19","0","4","lose","no-go","0"
"pit-trial","137","1130575","0.0-23.0","battery-v0.2","","""event"",""trial"",""time""
""fullscreenenter"",""1"",""2490""
","
","
","""event"",""trial"",""time""
""fullscreenenter"",""1"",""2490""
","
","","","979.6000000014901","","","13","6468","3784","&#9730;","elianto","#3366ff99"," "," ","1","+10","[1829.699999999255]","1","1","","","6468","20","1","1","win","go","0"
"pit-instructions","138","1149023","0.0-24.0","battery-v0.2","","""event"",""trial"",""time""
""fullscreenenter"",""1"",""2490""
","
","
","""event"",""trial"",""time""
""fullscreenenter"",""1"",""2490""
","
","","[{""page_index"":0,""viewing_time"":12398.300000000745},{""page_index"":1,""viewing_time"":6042.5999999996275}]","18442.5","","","","","","","","","","","","","","","","","","","","","","","",""
"pit-trial","139","1152459","0.0-25.0","battery-v0.2","","""event"",""trial"",""time""
""fullscreenenter"",""1"",""2490""
","
","
","""event"",""trial"",""time""
""fullscreenenter"",""1"",""2490""
","
","","","572.1999999992549","","","13","6468","3784","j","elianto","#f73b6a7A"," "," ","1","0","[1422.2000000011176]","1","2","","","6468","21","0","3","lose","go","0"
"pit-trial","140","1155599","0.0-26.0","battery-v0.2","","""event"",""trial"",""time""
""fullscreenenter"",""1"",""2490""
","
","
","""event"",""trial"",""time""
""fullscreenenter"",""1"",""2490""
","
","","","273.1000000014901","","","13","6468","3784","d","elianto","#3366ff99","-1"," ","0","0","[1123.0999999996275,2094.800000000745]","2","2","","","6468","22","1","2","win","no-go","0"
"pit-trial","141","1158485","0.0-27.0","battery-v0.2","","""event"",""trial"",""time""
""fullscreenenter"",""1"",""2490""
","
","
","""event"",""trial"",""time""
""fullscreenenter"",""1"",""2490""
","
","","","20.300000000745058","","","13","6468","3784","e","elianto","#f73b6a7A"," "," ","1","-10","[875.7999999988824,1869.9000000003725]","2","2","","","6468","23","2","3","lose","go","1"
"pit-trial","142","1162016","0.0-28.0","battery-v0.2","","""event"",""trial"",""time""
""fullscreenenter"",""1"",""2490""
","
","
","""event"",""trial"",""time""
""fullscreenenter"",""1"",""2490""
","
","","","668.1000000014901","","","13","6468","3784","w","elianto","#f73b6a7A","-1"," ","0","-10","[1518.199999999255]","1","2","","","6468","24","3","4","lose","no-go","0"
"pit-trial","143","1165173","0.0-29.0","battery-v0.2","","""event"",""trial"",""time""
""fullscreenenter"",""1"",""2490""
","
","
","""event"",""trial"",""time""
""fullscreenenter"",""1"",""2490""
","
","","","294.69999999925494","","","13","6468","3784","e","elianto","#f73b6a7A"," "," ","1","0","[1144.800000000745]","1","2","","","6468","25","2","3","lose","go","0"
"pit-trial","144","1168460","0.0-30.0","battery-v0.2","","""event"",""trial"",""time""
""fullscreenenter"",""1"",""2490""
","
","
","""event"",""trial"",""time""
""fullscreenenter"",""1"",""2490""
","
","","","424.2000000011176","","","13","6468","3784","w","elianto","#f73b6a7A","-1"," ","0","0","[1274.2999999988824]","1","2","","","6468","26","3","4","lose","no-go","1"
"pit-trial","145","1171618","0.0-31.0","battery-v0.2","","""event"",""trial"",""time""
""fullscreenenter"",""1"",""2490""
","
","
","""event"",""trial"",""time""
""fullscreenenter"",""1"",""2490""
","
","","","291.5","","","13","6468","3784","d","elianto","#3366ff99","-1"," ","0","+10","[1141.5999999996275]","1","2","","","6468","27","1","2","win","no-go","1"
"pit-trial","146","1175239","0.0-32.0","battery-v0.2","","""event"",""trial"",""time""
""fullscreenenter"",""1"",""2490""
","
","
","""event"",""trial"",""time""
""fullscreenenter"",""1"",""2490""
","
","","","753.5999999996275","","","13","6468","3784","j","elianto","#f73b6a7A"," "," ","1","0","[328.90000000037253,1606.800000000745]","2","2","","","6468","28","0","3","lose","go","0"
"pit-trial","147","1178350","0.0-33.0","battery-v0.2","","""event"",""trial"",""time""
""fullscreenenter"",""1"",""2490""
","
","
","""event"",""trial"",""time""
""fullscreenenter"",""1"",""2490""
","
","","","245.90000000037253","","","13","6468","3784","e","elianto","#f73b6a7A"," "," ","1","-10","[1095.9000000003725]","1","2","","","6468","29","2","3","lose","go","1"
"pit-trial","148","1181697","0.0-34.0","battery-v0.2","","""event"",""trial"",""time""
""fullscreenenter"",""1"",""2490""
","
","
","""event"",""trial"",""time""
""fullscreenenter"",""1"",""2490""
","
","","","483.09999999962747","","","13","6468","3784","j","elianto","#f73b6a7A"," "," ","1","-10","[1334.2000000011176]","1","2","","","6468","30","0","3","lose","go","1"
"pit-trial","149","1185567","0.0-35.0","battery-v0.2","","""event"",""trial"",""time""
""fullscreenenter"",""1"",""2490""
","
","
","""event"",""trial"",""time""
""fullscreenenter"",""1"",""2490""
","
","","","1003.8000000007451","","","13","6468","3784","d","elianto","#3366ff99","-1"," ","0","0","[1853.4000000003725]","1","2","","","6468","31","1","2","win","no-go","0"
"pit-trial","150","1188871","0.0-36.0","battery-v0.2","","""event"",""trial"",""time""
""fullscreenenter"",""1"",""2490""
","
","
","""event"",""trial"",""time""
""fullscreenenter"",""1"",""2490""
","
","","","444.40000000037253","","","13","6468","3784","w","elianto","#f73b6a7A","-1"," ","0","-10","[1294.5]","1","2","","","6468","32","3","4","lose","no-go","0"
"pit-trial","151","1193731","0.0-37.0","battery-v0.2","","""event"",""trial"",""time""
""fullscreenenter"",""1"",""2490""
","
","
","""event"",""trial"",""time""
""fullscreenenter"",""1"",""2490""
","
","","","-1","","","13","6468","3784","e","elianto","#f73b6a7A"," ","-1","0","-10","[]","0","2","","","6468","33","2","3","lose","go","0"
"pit-trial","152","1197024","0.0-38.0","battery-v0.2","","""event"",""trial"",""time""
""fullscreenenter"",""1"",""2490""
","
","
","""event"",""trial"",""time""
""fullscreenenter"",""1"",""2490""
","
","","","434.30000000074506","","","13","6468","3784","j","elianto","#f73b6a7A"," "," ","1","0","[1284.4000000003725,3054.0999999996275]","2","2","","","6468","34","0","3","lose","go","0"
"pit-trial","153","1200395","0.0-39.0","battery-v0.2","","""event"",""trial"",""time""
""fullscreenenter"",""1"",""2490""
","
","
","""event"",""trial"",""time""
""fullscreenenter"",""1"",""2490""
","
","","","510.5","","","13","6468","3784","d","elianto","#3366ff99","-1"," ","0","0","[665.1999999992549,1360.699999999255,2088.9000000003725,2787.699999999255]","4","2","","","6468","35","1","2","win","no-go","0"
"pit-trial","154","1203471","0.0-40.0","battery-v0.2","","""event"",""trial"",""time""
""fullscreenenter"",""1"",""2490""
","
","
","""event"",""trial"",""time""
""fullscreenenter"",""1"",""2490""
","
","","","210.69999999925494","","","13","6468","3784","w","elianto","#f73b6a7A","-1"," ","0","-10","[125.30000000074506,849,1064.300000000745,2611.800000000745]","4","2","","","6468","36","3","4","lose","no-go","0"
"pit-trial","155","1207094","0.0-41.0","battery-v0.2","","""event"",""trial"",""time""
""fullscreenenter"",""1"",""2490""
","
","
","""event"",""trial"",""time""
""fullscreenenter"",""1"",""2490""
","
","","","759.2999999988824","","","13","6468","3784","d","elianto","#3366ff99","-1"," ","0","0","[1609.5,3176.5999999996275]","2","2","","","6468","37","1","2","win","no-go","0"
"pit-trial","156","1210738","0.0-42.0","battery-v0.2","","""event"",""trial"",""time""
""fullscreenenter"",""1"",""2490""
","
","
","""event"",""trial"",""time""
""fullscreenenter"",""1"",""2490""
","
","","","780.3000000007451","","","13","6468","3784","j","elianto","#f73b6a7A"," "," ","1","0","[1630.199999999255,1842.9000000003725]","2","2","","","6468","38","0","3","lose","go","0"
"pit-trial","157","1215602","0.0-43.0","battery-v0.2","","""event"",""trial"",""time""
""fullscreenenter"",""1"",""2490""
","
","
","""event"",""trial"",""time""
""fullscreenenter"",""1"",""2490""
","
","","","-1","","","13","6468","3784","w","elianto","#f73b6a7A","-1","-1","1","0","[]","0","2","","","6468","39","3","4","lose","no-go","0"
"pit-trial","158","1218756","0.0-44.0","battery-v0.2","","""event"",""trial"",""time""
""fullscreenenter"",""1"",""2490""
","
","
","""event"",""trial"",""time""
""fullscreenenter"",""1"",""2490""
","
","","","287.40000000037253","","","13","6468","3784","e","elianto","#f73b6a7A"," "," ","1","0","[1137.5]","1","2","","","6468","40","2","3","lose","go","0"
"pit-trial","159","1223619","0.0-45.0","battery-v0.2","","""event"",""trial"",""time""
""fullscreenenter"",""1"",""2490""
","
","
","""event"",""trial"",""time""
""fullscreenenter"",""1"",""2490""
","
","","","-1","","","13","6468","3784","e","elianto","#f73b6a7A"," ","-1","0","-10","[]","0","2","","","6468","41","2","3","lose","go","0"
"pit-trial","160","1228480","0.0-46.0","battery-v0.2","","""event"",""trial"",""time""
""fullscreenenter"",""1"",""2490""
","
","
","""event"",""trial"",""time""
""fullscreenenter"",""1"",""2490""
","
","","","-1","","","13","6468","3784","j","elianto","#f73b6a7A"," ","-1","0","-10","[]","0","2","","","6468","42","0","3","lose","go","0"
"pit-trial","161","1231714","0.0-47.0","battery-v0.2","","""event"",""trial"",""time""
""fullscreenenter"",""1"",""2490""
","
","
","""event"",""trial"",""time""
""fullscreenenter"",""1"",""2490""
","
","","","372.80000000074506","","","13","6468","3784","d","elianto","#3366ff99","-1"," ","0","0","[1222.699999999255]","1","2","","","6468","43","1","2","win","no-go","0"
"pit-trial","162","1235459","0.0-48.0","battery-v0.2","","""event"",""trial"",""time""
""fullscreenenter"",""1"",""2490""
","
","
","""event"",""trial"",""time""
""fullscreenenter"",""1"",""2490""
","
","","","883.6000000014901","","","13","6468","3784","w","elianto","#f73b6a7A","-1"," ","0","-10","[830.4000000003725,1733.699999999255]","2","2","","","6468","44","3","4","lose","no-go","0"
"pit-trial","163","1238604","0.0-49.0","battery-v0.2","","""event"",""trial"",""time""
""fullscreenenter"",""1"",""2490""
","
","
","""event"",""trial"",""time""
""fullscreenenter"",""1"",""2490""
","
","","","280.90000000037253","","","13","6468","3784","d","elianto","#3366ff99","-1"," ","0","0","[1131.1000000014901]","1","2","","","6468","45","1","2","win","no-go","0"
"pit-trial","164","1243469","0.0-50.0","battery-v0.2","","""event"",""trial"",""time""
""fullscreenenter"",""1"",""2490""
","
","
","""event"",""trial"",""time""
""fullscreenenter"",""1"",""2490""
","
","","","-1","","","13","6468","3784","e","elianto","#f73b6a7A"," ","-1","0","-10","[799]","1","2","","","6468","46","2","3","lose","go","0"
"pit-trial","165","1246854","0.0-51.0","battery-v0.2","","""event"",""trial"",""time""
""fullscreenenter"",""1"",""2490""
","
","
","""event"",""trial"",""time""
""fullscreenenter"",""1"",""2490""
","
","","","518.6999999992549","","","13","6468","3784","j","elianto","#f73b6a7A"," "," ","1","0","[1368.6000000014901]","1","2","","","6468","47","0","3","lose","go","0"
"pit-trial","166","1250577","0.0-52.0","battery-v0.2","","""event"",""trial"",""time""
""fullscreenenter"",""1"",""2490""
","
","
","""event"",""trial"",""time""
""fullscreenenter"",""1"",""2490""
","
","","","862","","","13","6468","3784","w","elianto","#f73b6a7A","-1"," ","0","-10","[1712.0999999996275,3473.2999999988824]","2","2","","","6468","48","3","4","lose","no-go","0"
"pit-trial","167","1255441","0.0-53.0","battery-v0.2","","""event"",""trial"",""time""
""fullscreenenter"",""1"",""2490""
","
","
","""event"",""trial"",""time""
""fullscreenenter"",""1"",""2490""
","
","","","-1","","","13","6468","3784","e","elianto","#f73b6a7A"," ","-1","0","-10","[]","0","2","","","6468","49","2","3","lose","go","0"
"pit-trial","168","1258868","0.0-54.0","battery-v0.2","","""event"",""trial"",""time""
""fullscreenenter"",""1"",""2490""
","
","
","""event"",""trial"",""time""
""fullscreenenter"",""1"",""2490""
","
","","","565.9000000003725","","","13","6468","3784","j","elianto","#f73b6a7A"," "," ","1","0","[1415.800000000745]","1","2","","","6468","50","0","3","lose","go","0"
"pit-trial","169","1262219","0.0-55.0","battery-v0.2","","""event"",""trial"",""time""
""fullscreenenter"",""1"",""2490""
","
","
","""event"",""trial"",""time""
""fullscreenenter"",""1"",""2490""
","
","","","488.30000000074506","","","13","6468","3784","w","elianto","#f73b6a7A","-1"," ","0","-10","[1338.300000000745,1970.300000000745]","2","2","","","6468","51","3","4","lose","no-go","0"
"pit-trial","170","1265411","0.0-56.0","battery-v0.2","","""event"",""trial"",""time""
""fullscreenenter"",""1"",""2490""
","
","
","""event"",""trial"",""time""
""fullscreenenter"",""1"",""2490""
","
","","","328.69999999925494","","","13","6468","3784","d","elianto","#3366ff99","-1"," ","0","0","[1178.7999999988824]","1","2","","","6468","52","1","2","win","no-go","0"
"pit-trial","171","1268786","0.0-57.0","battery-v0.2","","""event"",""trial"",""time""
""fullscreenenter"",""1"",""2490""
","
","
","""event"",""trial"",""time""
""fullscreenenter"",""1"",""2490""
","
","","","513.4000000003725","","","13","6468","3784","d","elianto","#3366ff99","-1"," ","0","0","[1364.0999999996275]","1","2","","","6468","53","1","2","win","no-go","0"
"pit-trial","172","1273651","0.0-58.0","battery-v0.2","","""event"",""trial"",""time""
""fullscreenenter"",""1"",""2490""
","
","
","""event"",""trial"",""time""
""fullscreenenter"",""1"",""2490""
","
","","","-1","","","13","6468","3784","w","elianto","#f73b6a7A","-1","-1","1","-10","[]","0","2","","","6468","54","3","4","lose","no-go","1"
"pit-trial","173","1277308","0.0-59.0","battery-v0.2","","""event"",""trial"",""time""
""fullscreenenter"",""1"",""2490""
","
","
","""event"",""trial"",""time""
""fullscreenenter"",""1"",""2490""
","
","","","792.0999999996275","","","13","6468","3784","j","elianto","#f73b6a7A"," "," ","1","0","[1643.5]","1","2","","","6468","55","0","3","lose","go","0"
"pit-trial","174","1281111","0.0-60.0","battery-v0.2","","""event"",""trial"",""time""
""fullscreenenter"",""1"",""2490""
","
","
","""event"",""trial"",""time""
""fullscreenenter"",""1"",""2490""
","
","","","942","","","13","6468","3784","e","elianto","#f73b6a7A"," "," ","1","0","[1792]","1","2","","","6468","56","2","3","lose","go","0"
"pit-trial","175","1285975","0.0-61.0","battery-v0.2","","""event"",""trial"",""time""
""fullscreenenter"",""1"",""2490""
","
","
","""event"",""trial"",""time""
""fullscreenenter"",""1"",""2490""
","
","","","-1","","","13","6468","3784","w","elianto","#f73b6a7A","-1","-1","1","0","[]","0","2","","","6468","57","3","4","lose","no-go","0"
"pit-trial","176","1290840","0.0-62.0","battery-v0.2","","""event"",""trial"",""time""
""fullscreenenter"",""1"",""2490""
","
","
","""event"",""trial"",""time""
""fullscreenenter"",""1"",""2490""
","
","","","-1","","","13","6468","3784","e","elianto","#f73b6a7A"," ","-1","0","-10","[3215.0999999996275]","1","2","","","6468","58","2","3","lose","go","0"
"pit-trial","177","1294336","0.0-63.0","battery-v0.2","","""event"",""trial"",""time""
""fullscreenenter"",""1"",""2490""
","
","
","""event"",""trial"",""time""
""fullscreenenter"",""1"",""2490""
","
","","","632.5999999996275","","","13","6468","3784","s","elianto","#3366ff99"," "," ","1","+10","[1482.5]","1","2","","","6468","59","4","1","win","go","0"
"pit-trial","178","1298402","0.0-64.0","battery-v0.2","","""event"",""trial"",""time""
""fullscreenenter"",""1"",""2490""
","
","
","""event"",""trial"",""time""
""fullscreenenter"",""1"",""2490""
","
","","","1197.699999999255","","","13","6468","3784","j","elianto","#f73b6a7A"," "," ","1","0","[2047.699999999255]","1","2","","","6468","60","0","3","lose","go","0"
"pit-trial","179","1303032","0.0-65.0","battery-v0.2","","""event"",""trial"",""time""
""fullscreenenter"",""1"",""2490""
","
","
","""event"",""trial"",""time""
""fullscreenenter"",""1"",""2490""
","
","","","1764","","","13","6468","3784","e","elianto","#f73b6a7A"," "," ","1","0","[2614.4000000003725]","1","2","","","6468","61","2","3","lose","go","0"
"pit-trial","180","1306228","0.0-66.0","battery-v0.2","","""event"",""trial"",""time""
""fullscreenenter"",""1"",""2490""
","
","
","""event"",""trial"",""time""
""fullscreenenter"",""1"",""2490""
","
","","","332.59999999962747","","","13","6468","3784","s","elianto","#3366ff99"," "," ","1","+10","[1182.5]","1","2","","","6468","62","4","1","win","go","0"
"pit-trial","181","1310051","0.0-67.0","battery-v0.2","","""event"",""trial"",""time""
""fullscreenenter"",""1"",""2490""
","
","
","""event"",""trial"",""time""
""fullscreenenter"",""1"",""2490""
","
","","","958.0999999996275","","","13","6468","3784","w","elianto","#f73b6a7A","-1"," ","0","-10","[1808.0999999996275]","1","2","","","6468","63","3","4","lose","no-go","0"
"pit-trial","182","1313457","0.0-68.0","battery-v0.2","","""event"",""trial"",""time""
""fullscreenenter"",""1"",""2490""
","
","
","""event"",""trial"",""time""
""fullscreenenter"",""1"",""2490""
","
","","","542.8999999985099","","","13","6468","3784","d","elianto","#3366ff99","-1"," ","0","0","[1392.300000000745]","1","2","","","6468","64","1","2","win","no-go","0"
"pit-trial","183","1316946","0.0-69.0","battery-v0.2","","""event"",""trial"",""time""
""fullscreenenter"",""1"",""2490""
","
","
","""event"",""trial"",""time""
""fullscreenenter"",""1"",""2490""
","
","","","623.2999999988824","","","13","6468","3784","p","elianto","#3366ff99","-1"," ","0","0","[1473.4000000003725]","1","2","","","6468","65","5","2","win","no-go","0"
"pit-trial","184","1320344","0.0-70.0","battery-v0.2","","""event"",""trial"",""time""
""fullscreenenter"",""1"",""2490""
","
","
","""event"",""trial"",""time""
""fullscreenenter"",""1"",""2490""
","
","","","538.2999999988824","","","13","6468","3784","d","elianto","#3366ff99","-1"," ","0","0","[1388.4000000003725]","1","2","","","6468","66","1","2","win","no-go","0"
"pit-trial","185","1323684","0.0-71.0","battery-v0.2","","""event"",""trial"",""time""
""fullscreenenter"",""1"",""2490""
","
","
","""event"",""trial"",""time""
""fullscreenenter"",""1"",""2490""
","
","","","475.40000000037253","","","13","6468","3784","s","elianto","#3366ff99"," "," ","1","+10","[1326.7000000011176]","1","2","","","6468","67","4","1","win","go","0"
"pit-trial","186","1327346","0.0-72.0","battery-v0.2","","""event"",""trial"",""time""
""fullscreenenter"",""1"",""2490""
","
","
","""event"",""trial"",""time""
""fullscreenenter"",""1"",""2490""
","
","","","799.1999999992549","","","13","6468","3784","w","elianto","#f73b6a7A","-1"," ","0","-10","[1649.2000000011176]","1","2","","","6468","68","3","4","lose","no-go","0"
"pit-trial","187","1331405","0.0-73.0","battery-v0.2","","""event"",""trial"",""time""
""fullscreenenter"",""1"",""2490""
","
","
","""event"",""trial"",""time""
""fullscreenenter"",""1"",""2490""
","
","","","1195","","","13","6468","3784","p","elianto","#3366ff99","-1"," ","0","0","[2045.0999999996275]","1","2","","","6468","69","5","2","win","no-go","0"
"pit-trial","188","1335407","0.0-74.0","battery-v0.2","","""event"",""trial"",""time""
""fullscreenenter"",""1"",""2490""
","
","
","""event"",""trial"",""time""
""fullscreenenter"",""1"",""2490""
","
","","","1139.7000000011176","","","13","6468","3784","d","elianto","#3366ff99","-1"," ","0","+10","[1989.8999999985099]","1","2","","","6468","70","1","2","win","no-go","1"
"pit-trial","189","1338728","0.0-75.0","battery-v0.2","","""event"",""trial"",""time""
""fullscreenenter"",""1"",""2490""
","
","
","""event"",""trial"",""time""
""fullscreenenter"",""1"",""2490""
","
","","","460.90000000037253","","","13","6468","3784","s","elianto","#3366ff99"," "," ","1","+10","[1311]","1","2","","","6468","71","4","1","win","go","0"
"pit-trial","190","1342680","0.0-76.0","battery-v0.2","","""event"",""trial"",""time""
""fullscreenenter"",""1"",""2490""
","
","
","""event"",""trial"",""time""
""fullscreenenter"",""1"",""2490""
","
","","","1086.300000000745","","","13","6468","3784","e","elianto","#f73b6a7A"," "," ","1","0","[1940.6000000014901]","1","2","","","6468","72","2","3","lose","go","0"
"pit-trial","191","1346090","0.0-77.0","battery-v0.2","","""event"",""trial"",""time""
""fullscreenenter"",""1"",""2490""
","
","
","""event"",""trial"",""time""
""fullscreenenter"",""1"",""2490""
","
","","","548.0999999996275","","","13","6468","3784","s","elianto","#3366ff99"," "," ","1","+10","[1398.199999999255]","1","2","","","6468","73","4","1","win","go","0"
"pit-trial","192","1349840","0.0-78.0","battery-v0.2","","""event"",""trial"",""time""
""fullscreenenter"",""1"",""2490""
","
","
","""event"",""trial"",""time""
""fullscreenenter"",""1"",""2490""
","
","","","890.5","","","13","6468","3784","p","elianto","#3366ff99","-1"," ","0","0","[1741.1000000014901]","1","2","","","6468","74","5","2","win","no-go","0"
"pit-trial","193","1353174","0.0-79.0","battery-v0.2","","""event"",""trial"",""time""
""fullscreenenter"",""1"",""2490""
","
","
","""event"",""trial"",""time""
""fullscreenenter"",""1"",""2490""
","
","","","469.30000000074506","","","13","6468","3784","d","elianto","#3366ff99","-1"," ","0","0","[166.90000000037253,1319.4000000003725]","2","2","","","6468","75","1","2","win","no-go","0"
"pit-trial","194","1358038","0.0-80.0","battery-v0.2","","""event"",""trial"",""time""
""fullscreenenter"",""1"",""2490""
","
","
","""event"",""trial"",""time""
""fullscreenenter"",""1"",""2490""
","
","","","-1","","","13","6468","3784","w","elianto","#f73b6a7A","-1","-1","1","0","[]","0","2","","","6468","76","3","4","lose","no-go","0"
"pit-trial","195","1361656","0.0-81.0","battery-v0.2","","""event"",""trial"",""time""
""fullscreenenter"",""1"",""2490""
","
","
","""event"",""trial"",""time""
""fullscreenenter"",""1"",""2490""
","
","","","754","","","13","6468","3784","s","elianto","#3366ff99"," "," ","1","+10","[1604]","1","2","","","6468","77","4","1","win","go","0"
"pit-trial","196","1364988","0.0-82.0","battery-v0.2","","""event"",""trial"",""time""
""fullscreenenter"",""1"",""2490""
","
","
","""event"",""trial"",""time""
""fullscreenenter"",""1"",""2490""
","
","","","470.2000000011176","","","13","6468","3784","p","elianto","#3366ff99","-1"," ","0","0","[1320.300000000745]","1","2","","","6468","78","5","2","win","no-go","0"
"pit-trial","197","1368405","0.0-83.0","battery-v0.2","","""event"",""trial"",""time""
""fullscreenenter"",""1"",""2490""
","
","
","""event"",""trial"",""time""
""fullscreenenter"",""1"",""2490""
","
","","","555.9000000003725","","","13","6468","3784","s","elianto","#3366ff99"," "," ","1","+10","[1406.0999999996275]","1","2","","","6468","79","4","1","win","go","0"
"pit-trial","198","1371954","0.0-84.0","battery-v0.2","","""event"",""trial"",""time""
""fullscreenenter"",""1"",""2490""
","
","
","""event"",""trial"",""time""
""fullscreenenter"",""1"",""2490""
","
","","","685.8000000007451","","","13","6468","3784","w","elianto","#f73b6a7A","-1"," ","0","0","[1536.6000000014901]","1","2","","","6468","80","3","4","lose","no-go","1"
"pit-trial","199","1375297","0.0-85.0","battery-v0.2","","""event"",""trial"",""time""
""fullscreenenter"",""1"",""2490""
","
","
","""event"",""trial"",""time""
""fullscreenenter"",""1"",""2490""
","
","","","475.80000000074506","","","13","6468","3784","s","elianto","#3366ff99"," "," ","1","+10","[1325.7999999988824]","1","2","","","6468","81","4","1","win","go","0"
"pit-trial","200","1380161","0.0-86.0","battery-v0.2","","""event"",""trial"",""time""
""fullscreenenter"",""1"",""2490""
","
","
","""event"",""trial"",""time""
""fullscreenenter"",""1"",""2490""
","
","","","-1","","","13","6468","3784","a","elianto","#f73b6a7A","-1","-1","1","0","[]","0","2","","","6468","82","7","4","lose","no-go","0"
"pit-trial","201","1383467","0.0-87.0","battery-v0.2","","""event"",""trial"",""time""
""fullscreenenter"",""1"",""2490""
","
","
","""event"",""trial"",""time""
""fullscreenenter"",""1"",""2490""
","
","","","446.5","","","13","6468","3784","p","elianto","#3366ff99","-1"," ","0","0","[1296.6000000014901]","1","2","","","6468","83","5","2","win","no-go","0"
"pit-trial","202","1388332","0.0-88.0","battery-v0.2","","""event"",""trial"",""time""
""fullscreenenter"",""1"",""2490""
","
","
","""event"",""trial"",""time""
""fullscreenenter"",""1"",""2490""
","
","","","-1","","","13","6468","3784","w","elianto","#f73b6a7A","-1","-1","1","0","[]","0","2","","","6468","84","3","4","lose","no-go","0"
"pit-trial","203","1392078","0.0-89.0","battery-v0.2","","""event"",""trial"",""time""
""fullscreenenter"",""1"",""2490""
","
","
","""event"",""trial"",""time""
""fullscreenenter"",""1"",""2490""
","
","","","882.1000000014901","","","13","6468","3784","g","elianto","#f73b6a7A"," "," ","1","-10","[1732.199999999255]","1","2","","","6468","85","6","3","lose","go","1"
"pit-trial","204","1395408","0.0-90.0","battery-v0.2","","""event"",""trial"",""time""
""fullscreenenter"",""1"",""2490""
","
","
","""event"",""trial"",""time""
""fullscreenenter"",""1"",""2490""
","
","","","463.40000000037253","","","13","6468","3784","s","elianto","#3366ff99"," "," ","1","+10","[1313.3999999985099]","1","2","","","6468","86","4","1","win","go","0"
"pit-trial","205","1398756","0.0-91.0","battery-v0.2","","""event"",""trial"",""time""
""fullscreenenter"",""1"",""2490""
","
","
","""event"",""trial"",""time""
""fullscreenenter"",""1"",""2490""
","
","","","486.40000000037253","","","13","6468","3784","p","elianto","#3366ff99","-1"," ","0","0","[1336.4000000003725]","1","2","","","6468","87","5","2","win","no-go","0"
"pit-trial","206","1403622","0.0-92.0","battery-v0.2","","""event"",""trial"",""time""
""fullscreenenter"",""1"",""2490""
","
","
","""event"",""trial"",""time""
""fullscreenenter"",""1"",""2490""
","
","","","-1","","","13","6468","3784","a","elianto","#f73b6a7A","-1","-1","1","0","[]","0","2","","","6468","88","7","4","lose","no-go","0"
"pit-trial","207","1408486","0.0-93.0","battery-v0.2","","""event"",""trial"",""time""
""fullscreenenter"",""1"",""2490""
","
","
","""event"",""trial"",""time""
""fullscreenenter"",""1"",""2490""
","
","","","-1","","","13","6468","3784","g","elianto","#f73b6a7A"," ","-1","0","-10","[]","0","2","","","6468","89","6","3","lose","go","0"
"pit-trial","208","1411892","0.0-94.0","battery-v0.2","","""event"",""trial"",""time""
""fullscreenenter"",""1"",""2490""
","
","
","""event"",""trial"",""time""
""fullscreenenter"",""1"",""2490""
","
","","","544.8000000007451","","","13","6468","3784","s","elianto","#3366ff99"," "," ","1","+10","[1393.0999999996275,2722.199999999255]","2","2","","","6468","90","4","1","win","go","0"
"pit-trial","209","1416755","0.0-95.0","battery-v0.2","","""event"",""trial"",""time""
""fullscreenenter"",""1"",""2490""
","
","
","""event"",""trial"",""time""
""fullscreenenter"",""1"",""2490""
","
","","","-1","","","13","6468","3784","a","elianto","#f73b6a7A","-1","-1","1","-10","[]","0","2","","","6468","91","7","4","lose","no-go","1"
"pit-trial","210","1420076","0.0-96.0","battery-v0.2","","""event"",""trial"",""time""
""fullscreenenter"",""1"",""2490""
","
","
","""event"",""trial"",""time""
""fullscreenenter"",""1"",""2490""
","
","","","457.80000000074506","","","13","6468","3784","p","elianto","#3366ff99","-1"," ","0","+10","[615.7999999988824,1307.7999999988824]","2","2","","","6468","92","5","2","win","no-go","1"
"pit-trial","211","1424530","0.0-97.0","battery-v0.2","","""event"",""trial"",""time""
""fullscreenenter"",""1"",""2490""
","
","
","""event"",""trial"",""time""
""fullscreenenter"",""1"",""2490""
","
","","","1592.2999999988824","","","13","6468","3784","g","elianto","#f73b6a7A"," "," ","1","0","[2442.5999999996275]","1","2","","","6468","93","6","3","lose","go","0"
"pit-trial","212","1427940","0.0-98.0","battery-v0.2","","""event"",""trial"",""time""
""fullscreenenter"",""1"",""2490""
","
","
","""event"",""trial"",""time""
""fullscreenenter"",""1"",""2490""
","
","","","548.0999999996275","","","13","6468","3784","l","elianto","#3366ff99"," "," ","1","+10","[1398.2000000011176]","1","2","","","6468","94","8","1","win","go","0"
"pit-trial","213","1431723","0.0-99.0","battery-v0.2","","""event"",""trial"",""time""
""fullscreenenter"",""1"",""2490""
","
","
","""event"",""trial"",""time""
""fullscreenenter"",""1"",""2490""
","
","","","919","","","13","6468","3784","p","elianto","#3366ff99","-1"," ","0","0","[1771.1000000014901]","1","2","","","6468","95","5","2","win","no-go","0"
"pit-trial","214","1436120","0.0-100.0","battery-v0.2","","""event"",""trial"",""time""
""fullscreenenter"",""1"",""2490""
","
","
","""event"",""trial"",""time""
""fullscreenenter"",""1"",""2490""
","
","","","1532.199999999255","","","13","6468","3784","a","elianto","#f73b6a7A","-1"," ","0","-10","[2382.39999999851]","1","2","","","6468","96","7","4","lose","no-go","0"
"pit-trial","215","1439407","0.0-101.0","battery-v0.2","","""event"",""trial"",""time""
""fullscreenenter"",""1"",""2490""
","
","
","""event"",""trial"",""time""
""fullscreenenter"",""1"",""2490""
","
","","","423.09999999962747","","","13","6468","3784","p","elianto","#3366ff99","-1"," ","0","0","[1273.199999999255]","1","2","","","6468","97","5","2","win","no-go","0"
"pit-trial","216","1442710","0.0-102.0","battery-v0.2","","""event"",""trial"",""time""
""fullscreenenter"",""1"",""2490""
","
","
","""event"",""trial"",""time""
""fullscreenenter"",""1"",""2490""
","
","","","438.3999999985099","","","13","6468","3784","l","elianto","#3366ff99"," "," ","1","+10","[1288.4000000003725]","1","2","","","6468","98","8","1","win","go","0"
"pit-trial","217","1446132","0.0-103.0","battery-v0.2","","""event"",""trial"",""time""
""fullscreenenter"",""1"",""2490""
","
","
","""event"",""trial"",""time""
""fullscreenenter"",""1"",""2490""
","
","","","557.0999999996275","","","13","6468","3784","g","elianto","#f73b6a7A"," "," ","1","0","[1408]","1","2","","","6468","99","6","3","lose","go","0"
"pit-trial","218","1450996","0.0-104.0","battery-v0.2","","""event"",""trial"",""time""
""fullscreenenter"",""1"",""2490""
","
","
","""event"",""trial"",""time""
""fullscreenenter"",""1"",""2490""
","
","","","-1","","","13","6468","3784","a","elianto","#f73b6a7A","-1","-1","1","0","[]","0","2","","","6468","100","7","4","lose","no-go","0"
"pit-trial","219","1454504","0.0-105.0","battery-v0.2","","""event"",""trial"",""time""
""fullscreenenter"",""1"",""2490""
","
","
","""event"",""trial"",""time""
""fullscreenenter"",""1"",""2490""
","
","","","643.7000000011176","","","13","6468","3784","p","elianto","#3366ff99","-1"," ","0","0","[1493.699999999255]","1","2","","","6468","101","5","2","win","no-go","0"
"pit-trial","220","1459368","0.0-106.0","battery-v0.2","","""event"",""trial"",""time""
""fullscreenenter"",""1"",""2490""
","
","
","""event"",""trial"",""time""
""fullscreenenter"",""1"",""2490""
","
","","","-1","","","13","6468","3784","a","elianto","#f73b6a7A","-1","-1","1","-10","[]","0","2","","","6468","102","7","4","lose","no-go","1"
"pit-trial","221","1462762","0.0-107.0","battery-v0.2","","""event"",""trial"",""time""
""fullscreenenter"",""1"",""2490""
","
","
","""event"",""trial"",""time""
""fullscreenenter"",""1"",""2490""
","
","","","527.5999999996275","","","13","6468","3784","l","elianto","#3366ff99"," "," ","1","0","[1377.7000000011176]","1","2","","","6468","103","8","1","win","go","1"
"pit-trial","222","1466224","0.0-108.0","battery-v0.2","","""event"",""trial"",""time""
""fullscreenenter"",""1"",""2490""
","
","
","""event"",""trial"",""time""
""fullscreenenter"",""1"",""2490""
","
","","","597.7000000011176","","","13","6468","3784","u","elianto","#3366ff99"," "," ","1","+10","[1447.699999999255]","1","2","","","6468","104","9","1","win","go","0"
"pit-trial","223","1469295","0.0-109.0","battery-v0.2","","""event"",""trial"",""time""
""fullscreenenter"",""1"",""2490""
","
","
","""event"",""trial"",""time""
""fullscreenenter"",""1"",""2490""
","
","","","209.2000000011176","","","13","6468","3784","g","elianto","#f73b6a7A"," "," ","1","0","[1059.4000000003725]","1","2","","","6468","105","6","3","lose","go","0"
"pit-trial","224","1472639","0.0-110.0","battery-v0.2","","""event"",""trial"",""time""
""fullscreenenter"",""1"",""2490""
","
","
","""event"",""trial"",""time""
""fullscreenenter"",""1"",""2490""
","
","","","478.80000000074506","","","13","6468","3784","l","elianto","#3366ff99"," "," ","1","0","[1328.699999999255]","1","2","","","6468","106","8","1","win","go","1"
"pit-trial","225","1475989","0.0-111.0","battery-v0.2","","""event"",""trial"",""time""
""fullscreenenter"",""1"",""2490""
","
","
","""event"",""trial"",""time""
""fullscreenenter"",""1"",""2490""
","
","","","484.7999999988824","","","13","6468","3784","s","elianto","#3366ff99"," "," ","1","+10","[1335]","1","2","","","6468","107","4","1","win","go","0"
"pit-trial","226","1479358","0.0-112.0","battery-v0.2","","""event"",""trial"",""time""
""fullscreenenter"",""1"",""2490""
","
","
","""event"",""trial"",""time""
""fullscreenenter"",""1"",""2490""
","
","","","506.2999999988824","","","13","6468","3784","u","elianto","#3366ff99"," "," ","1","+10","[1356.2999999988824]","1","2","","","6468","108","9","1","win","go","0"
"pit-trial","227","1483621","0.0-113.0","battery-v0.2","","""event"",""trial"",""time""
""fullscreenenter"",""1"",""2490""
","
","
","""event"",""trial"",""time""
""fullscreenenter"",""1"",""2490""
","
","","","1400.6000000014901","","","13","6468","3784","g","elianto","#f73b6a7A"," "," ","1","0","[2250.5999999996275]","1","2","","","6468","109","6","3","lose","go","0"
"pit-trial","228","1486989","0.0-114.0","battery-v0.2","","""event"",""trial"",""time""
""fullscreenenter"",""1"",""2490""
","
","
","""event"",""trial"",""time""
""fullscreenenter"",""1"",""2490""
","
","","","505.19999999925494","","","13","6468","3784","p","elianto","#3366ff99","-1"," ","0","0","[573,1355.300000000745]","2","2","","","6468","110","5","2","win","no-go","0"
"pit-trial","229","1490371","0.0-115.0","battery-v0.2","","""event"",""trial"",""time""
""fullscreenenter"",""1"",""2490""
","
","
","""event"",""trial"",""time""
""fullscreenenter"",""1"",""2490""
","
","","","517.1000000014901","","","13","6468","3784","u","elianto","#3366ff99"," "," ","1","+10","[1368]","1","2","","","6468","111","9","1","win","go","0"
"pit-trial","230","1493716","0.0-116.0","battery-v0.2","","""event"",""trial"",""time""
""fullscreenenter"",""1"",""2490""
","
","
","""event"",""trial"",""time""
""fullscreenenter"",""1"",""2490""
","
","","","480.40000000037253","","","13","6468","3784","l","elianto","#3366ff99"," "," ","1","+10","[1337]","1","2","","","6468","112","8","1","win","go","0"
"pit-trial","231","1497036","0.0-117.0","battery-v0.2","","""event"",""trial"",""time""
""fullscreenenter"",""1"",""2490""
","
","
","""event"",""trial"",""time""
""fullscreenenter"",""1"",""2490""
","
","","","453.5","","","13","6468","3784","l","elianto","#3366ff99"," "," ","1","+10","[1309.199999999255]","1","2","","","6468","113","8","1","win","go","0"
"pit-trial","232","1500277","0.0-118.0","battery-v0.2","","""event"",""trial"",""time""
""fullscreenenter"",""1"",""2490""
","
","
","""event"",""trial"",""time""
""fullscreenenter"",""1"",""2490""
","
","","","380","","","13","6468","3784","u","elianto","#3366ff99"," "," ","1","0","[1230.300000000745,2580.9000000003725]","2","2","","","6468","114","9","1","win","go","1"
"pit-trial","233","1504336","0.0-119.0","battery-v0.2","","""event"",""trial"",""time""
""fullscreenenter"",""1"",""2490""
","
","
","""event"",""trial"",""time""
""fullscreenenter"",""1"",""2490""
","
","","","1194.2999999988824","","","13","6468","3784","g","elianto","#f73b6a7A"," "," ","1","0","[2046.4000000003725]","1","2","","","6468","115","6","3","lose","go","0"
"pit-trial","234","1507549","0.0-120.0","battery-v0.2","","""event"",""trial"",""time""
""fullscreenenter"",""1"",""2490""
","
","
","""event"",""trial"",""time""
""fullscreenenter"",""1"",""2490""
","
","","","352.2999999988824","","","13","6468","3784","p","elianto","#3366ff99","-1"," ","0","0","[677.2000000011176,1202.4000000003725]","2","2","","","6468","116","5","2","win","no-go","0"
"pit-trial","235","1510918","0.0-121.0","battery-v0.2","","""event"",""trial"",""time""
""fullscreenenter"",""1"",""2490""
","
","
","""event"",""trial"",""time""
""fullscreenenter"",""1"",""2490""
","
","","","506.5","","","13","6468","3784","l","elianto","#3366ff99"," "," ","1","0","[1356.7000000011176]","1","2","","","6468","117","8","1","win","go","1"
"pit-trial","236","1514154","0.0-122.0","battery-v0.2","","""event"",""trial"",""time""
""fullscreenenter"",""1"",""2490""
","
","
","""event"",""trial"",""time""
""fullscreenenter"",""1"",""2490""
","
","","","373.1000000014901","","","13","6468","3784","p","elianto","#3366ff99","-1"," ","0","0","[1225.699999999255]","1","2","","","6468","118","5","2","win","no-go","0"
"pit-trial","237","1517171","0.0-123.0","battery-v0.2","","""event"",""trial"",""time""
""fullscreenenter"",""1"",""2490""
","
","
","""event"",""trial"",""time""
""fullscreenenter"",""1"",""2490""
","
","","","153.09999999962747","","","13","6468","3784","g","elianto","#f73b6a7A"," "," ","1","0","[1003.3000000007451]","1","2","","","6468","119","6","3","lose","go","0"
"pit-trial","238","1520533","0.0-124.0","battery-v0.2","","""event"",""trial"",""time""
""fullscreenenter"",""1"",""2490""
","
","
","""event"",""trial"",""time""
""fullscreenenter"",""1"",""2490""
","
","","","498","","","13","6468","3784","u","elianto","#3366ff99"," "," ","1","+10","[1348.0999999996275]","1","2","","","6468","120","9","1","win","go","0"
"pit-trial","239","1524355","0.0-125.0","battery-v0.2","","""event"",""trial"",""time""
""fullscreenenter"",""1"",""2490""
","
","
","""event"",""trial"",""time""
""fullscreenenter"",""1"",""2490""
","
","","","959.8999999985099","","","13","6468","3784","l","elianto","#3366ff99"," "," ","1","+10","[1809.9000000003725]","1","2","","","6468","121","8","1","win","go","0"
"pit-trial","240","1527838","0.0-126.0","battery-v0.2","","""event"",""trial"",""time""
""fullscreenenter"",""1"",""2490""
","
","
","""event"",""trial"",""time""
""fullscreenenter"",""1"",""2490""
","
","","","612.5999999996275","","","13","6468","3784","g","elianto","#f73b6a7A"," "," ","1","-10","[1468.699999999255]","1","2","","","6468","122","6","3","lose","go","1"
"pit-trial","241","1531197","0.0-127.0","battery-v0.2","","""event"",""trial"",""time""
""fullscreenenter"",""1"",""2490""
","
","
","""event"",""trial"",""time""
""fullscreenenter"",""1"",""2490""
","
","","","496.2000000011176","","","13","6468","3784","u","elianto","#3366ff99"," "," ","1","0","[1346.199999999255,2057.699999999255]","2","2","","","6468","123","9","1","win","go","1"
"pit-trial","242","1535204","0.0-128.0","battery-v0.2","","""event"",""trial"",""time""
""fullscreenenter"",""1"",""2490""
","
","
","""event"",""trial"",""time""
""fullscreenenter"",""1"",""2490""
","
","","","1141.4000000003725","","","13","6468","3784","a","elianto","#f73b6a7A","-1"," ","0","-10","[1991.9000000003725]","1","2","","","6468","124","7","4","lose","no-go","0"
"pit-trial","243","1540066","0.0-129.0","battery-v0.2","","""event"",""trial"",""time""
""fullscreenenter"",""1"",""2490""
","
","
","""event"",""trial"",""time""
""fullscreenenter"",""1"",""2490""
","
","","","-1","","","13","6468","3784","g","elianto","#f73b6a7A"," ","-1","0","0","[]","0","2","","","6468","125","6","3","lose","go","1"
"pit-trial","244","1543337","0.0-130.0","battery-v0.2","","""event"",""trial"",""time""
""fullscreenenter"",""1"",""2490""
","
","
","""event"",""trial"",""time""
""fullscreenenter"",""1"",""2490""
","
","","","406.90000000037253","","","13","6468","3784","l","elianto","#3366ff99"," "," ","1","+10","[1257]","1","2","","","6468","126","8","1","win","go","0"
"pit-trial","245","1547272","0.0-131.0","battery-v0.2","","""event"",""trial"",""time""
""fullscreenenter"",""1"",""2490""
","
","
","""event"",""trial"",""time""
""fullscreenenter"",""1"",""2490""
","
","","","1071.699999999255","","","13","6468","3784","a","elianto","#f73b6a7A","-1"," ","0","-10","[179.5,1921.6000000014901]","2","2","","","6468","127","7","4","lose","no-go","0"
"pit-trial","246","1550607","0.0-132.0","battery-v0.2","","""event"",""trial"",""time""
""fullscreenenter"",""1"",""2490""
","
","
","""event"",""trial"",""time""
""fullscreenenter"",""1"",""2490""
","
","","","467.69999999925494","","","13","6468","3784","u","elianto","#3366ff99"," "," ","1","0","[1320.9000000003725,2263.5999999996275]","2","2","","","6468","128","9","1","win","go","1"
"pit-trial","247","1553999","0.0-133.0","battery-v0.2","","""event"",""trial"",""time""
""fullscreenenter"",""1"",""2490""
","
","
","""event"",""trial"",""time""
""fullscreenenter"",""1"",""2490""
","
","","","529.8999999985099","","","13","6468","3784","l","elianto","#3366ff99"," "," ","1","0","[1379.9000000003725]","1","2","","","6468","129","8","1","win","go","1"
"pit-trial","248","1557796","0.0-134.0","battery-v0.2","","""event"",""trial"",""time""
""fullscreenenter"",""1"",""2490""
","
","
","""event"",""trial"",""time""
""fullscreenenter"",""1"",""2490""
","
","","","930.1000000014901","","","13","6468","3784","g","elianto","#f73b6a7A"," "," ","1","-10","[1779.9000000003725,3298.2000000011176]","2","2","","","6468","130","6","3","lose","go","1"
"pit-trial","249","1561444","0.0-135.0","battery-v0.2","","""event"",""trial"",""time""
""fullscreenenter"",""1"",""2490""
","
","
","""event"",""trial"",""time""
""fullscreenenter"",""1"",""2490""
","
","","","788.8000000007451","","","13","6468","3784","a","elianto","#f73b6a7A","-1"," ","0","-10","[1638.7999999988824]","1","2","","","6468","131","7","4","lose","no-go","0"
"pit-trial","250","1564806","0.0-136.0","battery-v0.2","","""event"",""trial"",""time""
""fullscreenenter"",""1"",""2490""
","
","
","""event"",""trial"",""time""
""fullscreenenter"",""1"",""2490""
","
","","","500.69999999925494","","","13","6468","3784","u","elianto","#3366ff99"," "," ","1","+10","[35.5,1350.7000000011176]","2","2","","","6468","132","9","1","win","go","0"
"pit-trial","251","1568285","0.0-137.0","battery-v0.2","","""event"",""trial"",""time""
""fullscreenenter"",""1"",""2490""
","
","
","""event"",""trial"",""time""
""fullscreenenter"",""1"",""2490""
","
","","","618.0999999996275","","","13","6468","3784","l","elianto","#3366ff99"," "," ","1","+10","[1468.1000000014901]","1","2","","","6468","133","8","1","win","go","0"
"pit-trial","252","1571687","0.0-138.0","battery-v0.2","","""event"",""trial"",""time""
""fullscreenenter"",""1"",""2490""
","
","
","""event"",""trial"",""time""
""fullscreenenter"",""1"",""2490""
","
","","","541.5","","","13","6468","3784","u","elianto","#3366ff99"," "," ","1","+10","[1391.5999999996275,3238.199999999255]","2","2","","","6468","134","9","1","win","go","0"
"pit-trial","253","1575923","0.0-139.0","battery-v0.2","","""event"",""trial"",""time""
""fullscreenenter"",""1"",""2490""
","
","
","""event"",""trial"",""time""
""fullscreenenter"",""1"",""2490""
","
","","","1372.7999999988824","","","13","6468","3784","g","elianto","#f73b6a7A"," "," ","1","0","[173.40000000037253,2223.5999999996275,2536.5999999996275]","3","2","","","6468","135","6","3","lose","go","0"
"pit-trial","254","1579548","0.0-140.0","battery-v0.2","","""event"",""trial"",""time""
""fullscreenenter"",""1"",""2490""
","
","
","""event"",""trial"",""time""
""fullscreenenter"",""1"",""2490""
","
","","","765.3000000007451","","","13","6468","3784","a","elianto","#f73b6a7A","-1"," ","0","0","[1615.2999999988824]","1","2","","","6468","136","7","4","lose","no-go","1"
"pit-trial","255","1582764","0.0-141.0","battery-v0.2","","""event"",""trial"",""time""
""fullscreenenter"",""1"",""2490""
","
","
","""event"",""trial"",""time""
""fullscreenenter"",""1"",""2490""
","
","","","350.80000000074506","","","13","6468","3784","u","elianto","#3366ff99"," "," ","1","+10","[1200.7999999988824]","1","2","","","6468","137","9","1","win","go","0"
"pit-trial","256","1586523","0.0-142.0","battery-v0.2","","""event"",""trial"",""time""
""fullscreenenter"",""1"",""2490""
","
","
","""event"",""trial"",""time""
""fullscreenenter"",""1"",""2490""
","
","","","899.4000000003725","","","13","6468","3784","g","elianto","#f73b6a7A"," "," ","1","-10","[1749.4000000003725]","1","2","","","6468","138","6","3","lose","go","1"
"pit-trial","257","1589816","0.0-143.0","battery-v0.2","","""event"",""trial"",""time""
""fullscreenenter"",""1"",""2490""
","
","
","""event"",""trial"",""time""
""fullscreenenter"",""1"",""2490""
","
","","","430.7000000011176","","","13","6468","3784","l","elianto","#3366ff99"," "," ","1","+10","[1283.5]","1","2","","","6468","139","8","1","win","go","0"
"pit-trial","258","1592774","0.0-144.0","battery-v0.2","","""event"",""trial"",""time""
""fullscreenenter"",""1"",""2490""
","
","
","""event"",""trial"",""time""
""fullscreenenter"",""1"",""2490""
","
","","","97.30000000074506","","","13","6468","3784","a","elianto","#f73b6a7A","-1"," ","0","-10","[947.3000000007451,1958.9000000003725]","2","2","","","6468","140","7","4","lose","no-go","0"
"pit-instructions","259","1640230","0.0-145.0","battery-v0.2","","""event"",""trial"",""time""
""fullscreenenter"",""1"",""2490""
","
","
","""event"",""trial"",""time""
""fullscreenenter"",""1"",""2490""
","
","","[{""page_index"":0,""viewing_time"":27976.799999998882},{""page_index"":1,""viewing_time"":19468.800000000745}]","47448.40000000037","","","","","","","","","","","","","","","","","","","","","","","",""
"pit-trial","260","1645101","0.0-146.0","battery-v0.2","","""event"",""trial"",""time""
""fullscreenenter"",""1"",""2490""
","
","
