"trial_type","trial_index","time_elapsed","internal_node_id","task_version","subject_id","interactions","blur_events","focus_events","fullscreenenter_events","fullscreenexit_events","success","view_history","rt","responses","num_errors","age","subject","participantId","rune","rune_set","hex","correct","choice","accuracy","outcome","keys","total_keys","block","practice","value","sub","trial","stimulus","robot","valence","action","sham"
"pavlovia","0","7","0.0-0.0","battery-v0.2","","""event"",""trial"",""time""
""fullscreenenter"",""1"",""8864""
","
","
","""event"",""trial"",""time""
""fullscreenenter"",""1"",""8864""
","
","","","","","","","","","","","","","","","","","","","","","","","","","","",""
"fullscreen","1","9863","0.0-1.0","battery-v0.2","","""event"",""trial"",""time""
""fullscreenenter"",""1"",""8864""
","
","
","""event"",""trial"",""time""
""fullscreenenter"",""1"",""8864""
","
","true","","","","","","","","","","","","","","","","","","","","","","","","","",""
"pit-instructions","2","16778","0.0-2.0-0.0","battery-v0.2","","""event"",""trial"",""time""
""fullscreenenter"",""1"",""8864""
","
","
","""event"",""trial"",""time""
""fullscreenenter"",""1"",""8864""
","
","","[{""page_index"":0,""viewing_time"":6912.399999976158}]","6912.5999999940395","","","","","","","","","","","","","","","","","","","","","","","",""
"pit-comprehension","3","21235","0.0-2.0-1.0-0.0","battery-v0.2","","""event"",""trial"",""time""
""fullscreenenter"",""1"",""8864""
","
","
","""event"",""trial"",""time""
""fullscreenenter"",""1"",""8864""
","
","","","4454.899999976158","[""shark""]","0","13","9645","2224","","","","","","","","","","","","","","","","","","",""
"pit-instructions","4","24906","0.0-2.0-1.0-1.0","battery-v0.2","","""event"",""trial"",""time""
""fullscreenenter"",""1"",""8864""
","
","
","""event"",""trial"",""time""
""fullscreenenter"",""1"",""8864""
","
","","[{""page_index"":0,""viewing_time"":3663.899999976158}]","3664.199999988079","","","","","","","","","","","","","","","","","","","","","","","",""
"pit-comprehension","5","28242","0.0-2.0-2.0-0.0","battery-v0.2","","""event"",""trial"",""time""
""fullscreenenter"",""1"",""8864""
","
","
","""event"",""trial"",""time""
""fullscreenenter"",""1"",""8864""
","
","","","3333.5999999940395","[""tiger""]","0","13","9645","2224","","","","","","","","","","","","","","","","","","",""
"pit-instructions","6","29962","0.0-2.0-2.0-1.0","battery-v0.2","","""event"",""trial"",""time""
""fullscreenenter"",""1"",""8864""
","
","
","""event"",""trial"",""time""
""fullscreenenter"",""1"",""8864""
","
","","[{""page_index"":0,""viewing_time"":1718.4000000059605}]","1718.699999988079","","","","","","","","","","","","","","","","","","","","","","","",""
"pit-instructions","7","150394","0.0-2.0-3.0","battery-v0.2","","""event"",""trial"",""time""
""fullscreenenter"",""1"",""8864""
","
","
","""event"",""trial"",""time""
""fullscreenenter"",""1"",""8864""
","
","","[{""page_index"":0,""viewing_time"":9757.699999988079},{""page_index"":1,""viewing_time"":14688.300000011921},{""page_index"":2,""viewing_time"":10199.59999999404},{""page_index"":3,""viewing_time"":9400},{""page_index"":4,""viewing_time"":7087.9000000059605},{""page_index"":5,""viewing_time"":6104.0999999940395},{""page_index"":6,""viewing_time"":7472.5},{""page_index"":7,""viewing_time"":6952.0999999940395},{""page_index"":8,""viewing_time"":8119.4000000059605},{""page_index"":9,""viewing_time"":14999.800000011921},{""page_index"":10,""viewing_time"":7320.199999988079},{""page_index"":11,""viewing_time"":6872.0999999940395},{""page_index"":12,""viewing_time"":6464.200000017881},{""page_index"":13,""viewing_time"":4991.699999988079}]","120429.79999998212","","","","","","","","","","","","","","","","","","","","","","","",""
"pit-trial","8","154279","0.0-2.0-4.0-0.0","battery-v0.2","","""event"",""trial"",""time""
""fullscreenenter"",""1"",""8864""
","
","
","""event"",""trial"",""time""
""fullscreenenter"",""1"",""8864""
","
","","","1025","","","13","9645","2224","&#9784;","elianto","#FFFFF080"," "," ","1","&#10004","[1881.7000000178814]","1","0","0","","","","","","","",""
"pit-trial","9","157652","0.0-2.0-4.1-0.1","battery-v0.2","","""event"",""trial"",""time""
""fullscreenenter"",""1"",""8864""
","
","
","""event"",""trial"",""time""
""fullscreenenter"",""1"",""8864""
","
","","","497.5","","","13","9645","2224","&#9784;","elianto","#FFFFF080"," "," ","1","&#10004","[1355.5999999940395]","1","0","0","","","","","","","",""
"pit-trial","10","161091","0.0-2.0-4.2-0.2","battery-v0.2","","""event"",""trial"",""time""
""fullscreenenter"",""1"",""8864""
","
","
","""event"",""trial"",""time""
""fullscreenenter"",""1"",""8864""
","
","","","567","","","13","9645","2224","&#9784;","elianto","#FFFFF080"," "," ","1","&#10004","[1422.5]","1","0","0","","","","","","","",""
"pit-trial","11","164574","0.0-2.0-4.3-0.3","battery-v0.2","","""event"",""trial"",""time""
""fullscreenenter"",""1"",""8864""
","
","
","""event"",""trial"",""time""
""fullscreenenter"",""1"",""8864""
","
","","","618.6999999880791","","","13","9645","2224","&#9784;","elianto","#FFFFF080"," "," ","1","&#10004","[1471.9000000059605]","1","0","0","","","","","","","",""
"pit-trial","12","168014","0.0-2.0-4.4-0.4","battery-v0.2","","""event"",""trial"",""time""
""fullscreenenter"",""1"",""8864""
","
","
","""event"",""trial"",""time""
""fullscreenenter"",""1"",""8864""
","
","","","583.1999999880791","","","13","9645","2224","&#9784;","elianto","#FFFFF080"," "," ","1","&#10004","[1436.4000000059605]","1","0","0","","","","","","","",""
"pit-instructions","13","193546","0.0-2.0-5.0","battery-v0.2","","""event"",""trial"",""time""
""fullscreenenter"",""1"",""8864""
","
","
","""event"",""trial"",""time""
""fullscreenenter"",""1"",""8864""
","
","","[{""page_index"":0,""viewing_time"":6834},{""page_index"":1,""viewing_time"":7744},{""page_index"":2,""viewing_time"":5103.5999999940395},{""page_index"":3,""viewing_time"":5848}]","25529.899999976158","","","","","","","","","","","","","","","","","","","","","","","",""
"pit-trial","14","198414","0.0-2.0-6.0-0.0","battery-v0.2","","""event"",""trial"",""time""
""fullscreenenter"",""1"",""8864""
","
","
","""event"",""trial"",""time""
""fullscreenenter"",""1"",""8864""
","
","","","-1","","","13","9645","2224","&#9854;","elianto","#FFFFF080","-1","-1","1","&#10004","[]","0","0","1","","","","","","","",""
"pit-trial","15","203281","0.0-2.0-6.1-0.1","battery-v0.2","","""event"",""trial"",""time""
""fullscreenenter"",""1"",""8864""
","
","
","""event"",""trial"",""time""
""fullscreenenter"",""1"",""8864""
","
","","","-1","","","13","9645","2224","&#9854;","elianto","#FFFFF080","-1","-1","1","&#10004","[]","0","0","1","","","","","","","",""
"pit-trial","16","208144","0.0-2.0-6.2-0.2","battery-v0.2","","""event"",""trial"",""time""
""fullscreenenter"",""1"",""8864""
","
","
","""event"",""trial"",""time""
""fullscreenenter"",""1"",""8864""
","
","","","-1","","","13","9645","2224","&#9854;","elianto","#FFFFF080","-1","-1","1","&#10004","[]","0","0","1","","","","","","","",""
"pit-trial","17","213011","0.0-2.0-6.3-0.3","battery-v0.2","","""event"",""trial"",""time""
""fullscreenenter"",""1"",""8864""
","
","
","""event"",""trial"",""time""
""fullscreenenter"",""1"",""8864""
","
","","","-1","","","13","9645","2224","&#9854;","elianto","#FFFFF080","-1","-1","1","&#10004","[]","0","0","1","","","","","","","",""
"pit-trial","18","216675","0.0-2.0-6.4-0.4","battery-v0.2","","""event"",""trial"",""time""
""fullscreenenter"",""1"",""8864""
","
","
","""event"",""trial"",""time""
""fullscreenenter"",""1"",""8864""
","
","","","803.7000000178814","","","13","9645","2224","&#9854;","elianto","#FFFFF080","-1"," ","0","&#10060","[1655]","1","0","1","","","","","","","",""
"pit-trial","19","221534","0.0-2.0-6.5-0.5","battery-v0.2","","""event"",""trial"",""time""
""fullscreenenter"",""1"",""8864""
","
","
","""event"",""trial"",""time""
""fullscreenenter"",""1"",""8864""
","
","","","-1","","","13","9645","2224","&#9854;","elianto","#FFFFF080","-1","-1","1","&#10004","[]","0","0","1","","","","","","","",""
"pit-trial","20","226386","0.0-2.0-6.6-0.6","battery-v0.2","","""event"",""trial"",""time""
""fullscreenenter"",""1"",""8864""
","
","
","""event"",""trial"",""time""
""fullscreenenter"",""1"",""8864""
","
","","","-1","","","13","9645","2224","&#9854;","elianto","#FFFFF080","-1","-1","1","&#10004","[]","0","0","1","","","","","","","",""
"pit-instructions","21","245794","0.0-2.0-6.6-1.6-0.6","battery-v0.2","","""event"",""trial"",""time""
""fullscreenenter"",""1"",""8864""
","
","
","""event"",""trial"",""time""
""fullscreenenter"",""1"",""8864""
","
","","[{""page_index"":0,""viewing_time"":6438.800000011921},{""page_index"":1,""viewing_time"":12967.899999976158}]","19406.90000000596","","","","","","","","","","","","","","","","","","","","","","","",""
"pit-trial","22","250662","0.0-2.0-6.7-0.7","battery-v0.2","","""event"",""trial"",""time""
""fullscreenenter"",""1"",""8864""
","
","
","""event"",""trial"",""time""
""fullscreenenter"",""1"",""8864""
","
","","","-1","","","13","9645","2224","&#9854;","elianto","#FFFFF080","-1","-1","1","&#10004","[]","0","0","1","","","","","","","",""
"pit-instructions","23","381987","0.0-2.0-7.0","battery-v0.2","","""event"",""trial"",""time""
""fullscreenenter"",""1"",""8864""
","
","
","""event"",""trial"",""time""
""fullscreenenter"",""1"",""8864""
","
","","[{""page_index"":0,""viewing_time"":7578.199999988079},{""page_index"":1,""viewing_time"":6303.800000011921},{""page_index"":2,""viewing_time"":7136.199999988079},{""page_index"":3,""viewing_time"":6407.200000017881},{""page_index"":4,""viewing_time"":5960.699999988079},{""page_index"":5,""viewing_time"":5071.5999999940395},{""page_index"":6,""viewing_time"":4480.4000000059605},{""page_index"":7,""viewing_time"":7240},{""page_index"":8,""viewing_time"":6071.9000000059605},{""page_index"":9,""viewing_time"":6872.0999999940395},{""page_index"":10,""viewing_time"":7551.5999999940395},{""page_index"":11,""viewing_time"":6623.9000000059605},{""page_index"":12,""viewing_time"":7400.5},{""page_index"":13,""viewing_time"":6079.5},{""page_index"":14,""viewing_time"":6184.5999999940395},{""page_index"":15,""viewing_time"":13535.90000000596},{""page_index"":16,""viewing_time"":13207.59999999404},{""page_index"":17,""viewing_time"":7616.4000000059605}]","131322.40000000596","","","","","","","","","","","","","","","","","","","","","","","",""
"pit-trial","24","386780","0.0-2.0-8.0-0.0","battery-v0.2","","""event"",""trial"",""time""
""fullscreenenter"",""1"",""8864""
","
","
","""event"",""trial"",""time""
""fullscreenenter"",""1"",""8864""
","
","","","1935.2000000178814","","","13","9645","2224","&#9776;","elianto","#3366ff99"," "," ","1","+10","[2791]","1","0","1","","","","","","","",""
"pit-trial","25","390243","0.0-2.0-8.0-1.0","battery-v0.2","","""event"",""trial"",""time""
""fullscreenenter"",""1"",""8864""
","
","
","""event"",""trial"",""time""
""fullscreenenter"",""1"",""8864""
","
","","","594","","","13","9645","2224","&#9776;","elianto","#3366ff99"," "," ","1","+10","[1446.2999999821186]","1","0","1","","","","","","","",""
"pit-trial","26","393838","0.0-2.0-8.0-2.0","battery-v0.2","","""event"",""trial"",""time""
""fullscreenenter"",""1"",""8864""
","
","
","""event"",""trial"",""time""
""fullscreenenter"",""1"",""8864""
","
","","","732.9000000059605","","","13","9645","2224","&#9776;","elianto","#3366ff99"," "," ","1","+10","[1583]","1","0","1","","","","","","","",""
"pit-trial","27","397406","0.0-2.0-8.0-3.0","battery-v0.2","","""event"",""trial"",""time""
""fullscreenenter"",""1"",""8864""
","
","
","""event"",""trial"",""time""
""fullscreenenter"",""1"",""8864""
","
","","","701.5","","","13","9645","2224","&#9776;","elianto","#3366ff99"," "," ","1","0","[1556]","1","0","1","","","","","","","",""
"pit-trial","28","400859","0.0-2.0-8.0-4.0","battery-v0.2","","""event"",""trial"",""time""
""fullscreenenter"",""1"",""8864""
","
","
","""event"",""trial"",""time""
""fullscreenenter"",""1"",""8864""
","
","","","593.3000000119209","","","13","9645","2224","&#9776;","elianto","#3366ff99"," "," ","1","+10","[1450.5999999940395]","1","0","1","","","","","","","",""
"pit-trial","29","404455","0.0-2.0-8.1-0.1","battery-v0.2","","""event"",""trial"",""time""
""fullscreenenter"",""1"",""8864""
","
","
","""event"",""trial"",""time""
""fullscreenenter"",""1"",""8864""
","
","","","723.5","","","13","9645","2224","&#9776;","elianto","#3366ff99"," "," ","1","+10","[1582.9000000059605]","1","0","1","","","","","","","",""
"pit-trial","30","407896","0.0-2.0-8.1-1.1","battery-v0.2","","""event"",""trial"",""time""
""fullscreenenter"",""1"",""8864""
","
","
","""event"",""trial"",""time""
""fullscreenenter"",""1"",""8864""
","
","","","576.5","","","13","9645","2224","&#9776;","elianto","#3366ff99"," "," ","1","+10","[1426.7000000178814]","1","0","1","","","","","","","",""
"pit-trial","31","411474","0.0-2.0-8.1-2.1","battery-v0.2","","""event"",""trial"",""time""
""fullscreenenter"",""1"",""8864""
","
","
","""event"",""trial"",""time""
""fullscreenenter"",""1"",""8864""
","
","","","702.5","","","13","9645","2224","&#9776;","elianto","#3366ff99"," "," ","1","+10","[1560.9000000059605]","1","0","1","","","","","","","",""
"pit-trial","32","414900","0.0-2.0-8.1-3.1","battery-v0.2","","""event"",""trial"",""time""
""fullscreenenter"",""1"",""8864""
","
","
","""event"",""trial"",""time""
""fullscreenenter"",""1"",""8864""
","
","","","573.4000000059605","","","13","9645","2224","&#9776;","elianto","#3366ff99"," "," ","1","0","[1423.5999999940395]","1","0","1","","","","","","","",""
"pit-trial","33","418524","0.0-2.0-8.1-4.1","battery-v0.2","","""event"",""trial"",""time""
""fullscreenenter"",""1"",""8864""
","
","
","""event"",""trial"",""time""
""fullscreenenter"",""1"",""8864""
","
","","","771.7000000178814","","","13","9645","2224","&#9776;","elianto","#3366ff99"," "," ","1","+10","[1621.800000011921]","1","0","1","","","","","","","",""
"pit-trial","34","421804","0.0-2.0-8.2-0.2","battery-v0.2","","""event"",""trial"",""time""
""fullscreenenter"",""1"",""8864""
","
","
","""event"",""trial"",""time""
""fullscreenenter"",""1"",""8864""
","
","","","426.40000000596046","","","13","9645","2224","&#9776;","elianto","#3366ff99"," "," ","1","+10","[1277.300000011921]","1","0","1","","","","","","","",""
"pit-trial","35","425427","0.0-2.0-8.2-1.2","battery-v0.2","","""event"",""trial"",""time""
""fullscreenenter"",""1"",""8864""
","
","
","""event"",""trial"",""time""
""fullscreenenter"",""1"",""8864""
","
","","","771.3999999761581","","","13","9645","2224","&#9776;","elianto","#3366ff99"," "," ","1","+10","[1621.699999988079]","1","0","1","","","","","","","",""
"pit-trial","36","428580","0.0-2.0-8.2-2.2","battery-v0.2","","""event"",""trial"",""time""
""fullscreenenter"",""1"",""8864""
","
","
","""event"",""trial"",""time""
""fullscreenenter"",""1"",""8864""
","
","","","299.40000000596046","","","13","9645","2224","&#9776;","elianto","#3366ff99"," "," ","1","+10","[1150.300000011921]","1","0","1","","","","","","","",""
"pit-trial","37","432051","0.0-2.0-8.2-3.2","battery-v0.2","","""event"",""trial"",""time""
""fullscreenenter"",""1"",""8864""
","
","
","""event"",""trial"",""time""
""fullscreenenter"",""1"",""8864""
","
","","","619.5","","","13","9645","2224","&#9776;","elianto","#3366ff99"," "," ","1","0","[1469.5999999940395]","1","0","1","","","","","","","",""
"pit-trial","38","435251","0.0-2.0-8.2-4.2","battery-v0.2","","""event"",""trial"",""time""
""fullscreenenter"",""1"",""8864""
","
","
","""event"",""trial"",""time""
""fullscreenenter"",""1"",""8864""
","
","","","348","","","13","9645","2224","&#9776;","elianto","#3366ff99"," "," ","1","+10","[1198.699999988079]","1","0","1","","","","","","","",""
"call-function","39","435253","0.0-2.0-9.0","battery-v0.2","","""event"",""trial"",""time""
""fullscreenenter"",""1"",""8864""
","
","
","""event"",""trial"",""time""
""fullscreenenter"",""1"",""8864""
","
","","","","","","","","","","","","","","","","","","","","","","","","","","",""
"pit-instructions","40","477234","0.0-2.0-10.0","battery-v0.2","","""event"",""trial"",""time""
""fullscreenenter"",""1"",""8864""
","
","
","""event"",""trial"",""time""
""fullscreenenter"",""1"",""8864""
","
","","[{""page_index"":0,""viewing_time"":5709.800000011921},{""page_index"":1,""viewing_time"":9023.59999999404},{""page_index"":2,""viewing_time"":9279.90000000596},{""page_index"":3,""viewing_time"":9072.59999999404},{""page_index"":4,""viewing_time"":8895.800000011921}]","41981.90000000596","","","","","","","","","","","","","","","","","","","","","","","",""
"pit-trial","41","480673","0.0-2.0-11.0-0.0","battery-v0.2","","""event"",""trial"",""time""
""fullscreenenter"",""1"",""8864""
","
","
","""event"",""trial"",""time""
""fullscreenenter"",""1"",""8864""
","
","","","568.9000000059605","","","13","9645","2224","&#9761;","elianto","#3366ff99","-1"," ","0","0","[1422.5999999940395]","1","0","2","","","","","","","",""
"pit-trial","42","483662","0.0-2.0-11.0-1.0","battery-v0.2","","""event"",""trial"",""time""
""fullscreenenter"",""1"",""8864""
","
","
","""event"",""trial"",""time""
""fullscreenenter"",""1"",""8864""
","
","","","126.7000000178814","","","13","9645","2224","&#9761;","elianto","#3366ff99","-1"," ","0","0","[983.2000000178814]","1","0","2","","","","","","","",""
"pit-trial","43","486578","0.0-2.0-11.0-2.0","battery-v0.2","","""event"",""trial"",""time""
""fullscreenenter"",""1"",""8864""
","
","
","""event"",""trial"",""time""
""fullscreenenter"",""1"",""8864""
","
","","","51.900000005960464","","","13","9645","2224","&#9761;","elianto","#3366ff99","-1"," ","0","0","[906.3000000119209]","1","0","2","","","","","","","",""
"pit-trial","44","491445","0.0-2.0-11.0-3.0","battery-v0.2","","""event"",""trial"",""time""
""fullscreenenter"",""1"",""8864""
","
","
","""event"",""trial"",""time""
""fullscreenenter"",""1"",""8864""
","
","","","-1","","","13","9645","2224","&#9761;","elianto","#3366ff99","-1","-1","1","0","[]","0","0","2","","","","","","","",""
"pit-trial","45","496318","0.0-2.0-11.0-4.0","battery-v0.2","","""event"",""trial"",""time""
""fullscreenenter"",""1"",""8864""
","
","
","""event"",""trial"",""time""
""fullscreenenter"",""1"",""8864""
","
","","","-1","","","13","9645","2224","&#9761;","elianto","#3366ff99","-1","-1","1","+10","[]","0","0","2","","","","","","","",""
"pit-trial","46","501194","0.0-2.0-11.1-0.1","battery-v0.2","","""event"",""trial"",""time""
""fullscreenenter"",""1"",""8864""
","
","
","""event"",""trial"",""time""
""fullscreenenter"",""1"",""8864""
","
","","","-1","","","13","9645","2224","&#9761;","elianto","#3366ff99","-1","-1","1","+10","[]","0","0","2","","","","","","","",""
"pit-trial","47","504611","0.0-2.0-11.1-1.1","battery-v0.2","","""event"",""trial"",""time""
""fullscreenenter"",""1"",""8864""
","
","
","""event"",""trial"",""time""
""fullscreenenter"",""1"",""8864""
","
","","","558.3000000119209","","","13","9645","2224","&#9761;","elianto","#3366ff99","-1"," ","0","0","[1415.2000000178814]","1","0","2","","","","","","","",""
"pit-trial","48","507650","0.0-2.0-11.1-2.1","battery-v0.2","","""event"",""trial"",""time""
""fullscreenenter"",""1"",""8864""
","
","
","""event"",""trial"",""time""
""fullscreenenter"",""1"",""8864""
","
","","","177.7000000178814","","","13","9645","2224","&#9761;","elianto","#3366ff99","-1"," ","0","0","[1037.7000000178814]","1","0","2","","","","","","","",""
"pit-trial","49","512503","0.0-2.0-11.1-3.1","battery-v0.2","","""event"",""trial"",""time""
""fullscreenenter"",""1"",""8864""
","
","
","""event"",""trial"",""time""
""fullscreenenter"",""1"",""8864""
","
","","","-1","","","13","9645","2224","&#9761;","elianto","#3366ff99","-1","-1","1","0","[]","0","0","2","","","","","","","",""
"pit-trial","50","515531","0.0-2.0-11.1-4.1","battery-v0.2","","""event"",""trial"",""time""
""fullscreenenter"",""1"",""8864""
","
","
","""event"",""trial"",""time""
""fullscreenenter"",""1"",""8864""
","
","","","175.09999999403954","","","13","9645","2224","&#9761;","elianto","#3366ff99","-1"," ","0","0","[1025.5999999940395]","1","0","2","","","","","","","",""
"pit-trial","51","519443","0.0-2.0-11.2-0.2","battery-v0.2","","""event"",""trial"",""time""
""fullscreenenter"",""1"",""8864""
","
","
","""event"",""trial"",""time""
""fullscreenenter"",""1"",""8864""
","
","","","1058.2000000178814","","","13","9645","2224","&#9761;","elianto","#3366ff99","-1"," ","0","0","[1908.6000000238419]","1","0","2","","","","","","","",""
"pit-trial","52","524295","0.0-2.0-11.2-1.2","battery-v0.2","","""event"",""trial"",""time""
""fullscreenenter"",""1"",""8864""
","
","
","""event"",""trial"",""time""
""fullscreenenter"",""1"",""8864""
","
","","","-1","","","13","9645","2224","&#9761;","elianto","#3366ff99","-1","-1","1","+10","[]","0","0","2","","","","","","","",""
"pit-trial","53","529148","0.0-2.0-11.2-2.2","battery-v0.2","","""event"",""trial"",""time""
""fullscreenenter"",""1"",""8864""
","
","
","""event"",""trial"",""time""
""fullscreenenter"",""1"",""8864""
","
","","","-1","","","13","9645","2224","&#9761;","elianto","#3366ff99","-1","-1","1","+10","[]","0","0","2","","","","","","","",""
"pit-trial","54","534002","0.0-2.0-11.2-3.2","battery-v0.2","","""event"",""trial"",""time""
""fullscreenenter"",""1"",""8864""
","
","
","""event"",""trial"",""time""
""fullscreenenter"",""1"",""8864""
","
","","","-1","","","13","9645","2224","&#9761;","elianto","#3366ff99","-1","-1","1","0","[]","0","0","2","","","","","","","",""
"pit-trial","55","538856","0.0-2.0-11.2-4.2","battery-v0.2","","""event"",""trial"",""time""
""fullscreenenter"",""1"",""8864""
","
","
","""event"",""trial"",""time""
""fullscreenenter"",""1"",""8864""
","
","","","-1","","","13","9645","2224","&#9761;","elianto","#3366ff99","-1","-1","1","+10","[]","0","0","2","","","","","","","",""
"pit-trial","56","543719","0.0-2.0-11.3-0.3","battery-v0.2","","""event"",""trial"",""time""
""fullscreenenter"",""1"",""8864""
","
","
","""event"",""trial"",""time""
""fullscreenenter"",""1"",""8864""
","
","","","-1","","","13","9645","2224","&#9761;","elianto","#3366ff99","-1","-1","1","+10","[]","0","0","2","","","","","","","",""
"pit-trial","57","548572","0.0-2.0-11.3-1.3","battery-v0.2","","""event"",""trial"",""time""
""fullscreenenter"",""1"",""8864""
","
","
","""event"",""trial"",""time""
""fullscreenenter"",""1"",""8864""
","
","","","-1","","","13","9645","2224","&#9761;","elianto","#3366ff99","-1","-1","1","+10","[]","0","0","2","","","","","","","",""
"pit-trial","58","553425","0.0-2.0-11.3-2.3","battery-v0.2","","""event"",""trial"",""time""
""fullscreenenter"",""1"",""8864""
","
","
","""event"",""trial"",""time""
""fullscreenenter"",""1"",""8864""
","
","","","-1","","","13","9645","2224","&#9761;","elianto","#3366ff99","-1","-1","1","+10","[]","0","0","2","","","","","","","",""
"pit-trial","59","557834","0.0-2.0-11.3-3.3","battery-v0.2","","""event"",""trial"",""time""
""fullscreenenter"",""1"",""8864""
","
","
","""event"",""trial"",""time""
""fullscreenenter"",""1"",""8864""
","
","","","1557.300000011921","","","13","9645","2224","&#9761;","elianto","#3366ff99","-1"," ","0","+10","[2407.699999988079]","1","0","2","","","","","","","",""
"pit-trial","60","560737","0.0-2.0-11.3-4.3","battery-v0.2","","""event"",""trial"",""time""
""fullscreenenter"",""1"",""8864""
","
","
","""event"",""trial"",""time""
""fullscreenenter"",""1"",""8864""
","
","","","50.89999997615814","","","13","9645","2224","&#9761;","elianto","#3366ff99","-1"," ","0","0","[901.3999999761581]","1","0","2","","","","","","","",""
"call-function","61","560738","0.0-2.0-12.0","battery-v0.2","","""event"",""trial"",""time""
""fullscreenenter"",""1"",""8864""
","
","
","""event"",""trial"",""time""
""fullscreenenter"",""1"",""8864""
","
","","","","","","","","","","","","","","","","","","","","","","","","","","",""
"pit-instructions","62","594218","0.0-2.0-13.0","battery-v0.2","","""event"",""trial"",""time""
""fullscreenenter"",""1"",""8864""
","
","
","""event"",""trial"",""time""
""fullscreenenter"",""1"",""8864""
","
","","[{""page_index"":0,""viewing_time"":4927.4000000059605},{""page_index"":1,""viewing_time"":6031.5999999940395},{""page_index"":2,""viewing_time"":4592.4000000059605},{""page_index"":3,""viewing_time"":10063.699999988079},{""page_index"":4,""viewing_time"":7864}]","33479.20000001788","","","","","","","","","","","","","","","","","","","","","","","",""
"pit-trial","63","599097","0.0-2.0-14.0-0.0","battery-v0.2","","""event"",""trial"",""time""
""fullscreenenter"",""1"",""8864""
","
","
","""event"",""trial"",""time""
""fullscreenenter"",""1"",""8864""
","
","","","-1","","","13","9645","2224","&#9826;","elianto","#f73b6a7A","-1","-1","1","0","[]","0","0","3","","","","","","","",""
"pit-trial","64","603970","0.0-2.0-14.0-1.0","battery-v0.2","","""event"",""trial"",""time""
""fullscreenenter"",""1"",""8864""
","
","
","""event"",""trial"",""time""
""fullscreenenter"",""1"",""8864""
","
","","","-1","","","13","9645","2224","&#9826;","elianto","#f73b6a7A","-1","-1","1","0","[]","0","0","3","","","","","","","",""
"pit-trial","65","608831","0.0-2.0-14.0-2.0","battery-v0.2","","""event"",""trial"",""time""
""fullscreenenter"",""1"",""8864""
","
","
","""event"",""trial"",""time""
""fullscreenenter"",""1"",""8864""
","
","","","-1","","","13","9645","2224","&#9826;","elianto","#f73b6a7A","-1","-1","1","0","[]","0","0","3","","","","","","","",""
"pit-trial","66","613697","0.0-2.0-14.0-3.0","battery-v0.2","","""event"",""trial"",""time""
""fullscreenenter"",""1"",""8864""
","
","
","""event"",""trial"",""time""
""fullscreenenter"",""1"",""8864""
","
","","","-1","","","13","9645","2224","&#9826;","elianto","#f73b6a7A","-1","-1","1","-10","[]","0","0","3","","","","","","","",""
"pit-trial","67","618566","0.0-2.0-14.0-4.0","battery-v0.2","","""event"",""trial"",""time""
""fullscreenenter"",""1"",""8864""
","
","
","""event"",""trial"",""time""
""fullscreenenter"",""1"",""8864""
","
","","","-1","","","13","9645","2224","&#9826;","elianto","#f73b6a7A","-1","-1","1","0","[]","0","0","3","","","","","","","",""
"pit-trial","68","623433","0.0-2.0-14.1-0.1","battery-v0.2","","""event"",""trial"",""time""
""fullscreenenter"",""1"",""8864""
","
","
","""event"",""trial"",""time""
""fullscreenenter"",""1"",""8864""
","
","","","-1","","","13","9645","2224","&#9826;","elianto","#f73b6a7A","-1","-1","1","0","[]","0","0","3","","","","","","","",""
"pit-trial","69","628295","0.0-2.0-14.1-1.1","battery-v0.2","","""event"",""trial"",""time""
""fullscreenenter"",""1"",""8864""
","
","
","""event"",""trial"",""time""
""fullscreenenter"",""1"",""8864""
","
","","","-1","","","13","9645","2224","&#9826;","elianto","#f73b6a7A","-1","-1","1","0","[]","0","0","3","","","","","","","",""
"pit-trial","70","633148","0.0-2.0-14.1-2.1","battery-v0.2","","""event"",""trial"",""time""
""fullscreenenter"",""1"",""8864""
","
","
","""event"",""trial"",""time""
""fullscreenenter"",""1"",""8864""
","
","","","-1","","","13","9645","2224","&#9826;","elianto","#f73b6a7A","-1","-1","1","0","[]","0","0","3","","","","","","","",""
"pit-trial","71","638001","0.0-2.0-14.1-3.1","battery-v0.2","","""event"",""trial"",""time""
""fullscreenenter"",""1"",""8864""
","
","
","""event"",""trial"",""time""
""fullscreenenter"",""1"",""8864""
","
","","","-1","","","13","9645","2224","&#9826;","elianto","#f73b6a7A","-1","-1","1","-10","[]","0","0","3","","","","","","","",""
"pit-trial","72","642855","0.0-2.0-14.1-4.1","battery-v0.2","","""event"",""trial"",""time""
""fullscreenenter"",""1"",""8864""
","
","
","""event"",""trial"",""time""
""fullscreenenter"",""1"",""8864""
","
","","","-1","","","13","9645","2224","&#9826;","elianto","#f73b6a7A","-1","-1","1","0","[]","0","0","3","","","","","","","",""
"pit-trial","73","647707","0.0-2.0-14.2-0.2","battery-v0.2","","""event"",""trial"",""time""
""fullscreenenter"",""1"",""8864""
","
","
","""event"",""trial"",""time""
""fullscreenenter"",""1"",""8864""
","
","","","-1","","","13","9645","2224","&#9826;","elianto","#f73b6a7A","-1","-1","1","0","[]","0","0","3","","","","","","","",""
"pit-trial","74","652559","0.0-2.0-14.2-1.2","battery-v0.2","","""event"",""trial"",""time""
""fullscreenenter"",""1"",""8864""
","
","
","""event"",""trial"",""time""
""fullscreenenter"",""1"",""8864""
","
","","","-1","","","13","9645","2224","&#9826;","elianto","#f73b6a7A","-1","-1","1","0","[]","0","0","3","","","","","","","",""
"pit-trial","75","657413","0.0-2.0-14.2-2.2","battery-v0.2","","""event"",""trial"",""time""
""fullscreenenter"",""1"",""8864""
","
","
","""event"",""trial"",""time""
""fullscreenenter"",""1"",""8864""
","
","","","-1","","","13","9645","2224","&#9826;","elianto","#f73b6a7A","-1","-1","1","0","[]","0","0","3","","","","","","","",""
"pit-trial","76","662265","0.0-2.0-14.2-3.2","battery-v0.2","","""event"",""trial"",""time""
""fullscreenenter"",""1"",""8864""
","
","
","""event"",""trial"",""time""
""fullscreenenter"",""1"",""8864""
","
","","","-1","","","13","9645","2224","&#9826;","elianto","#f73b6a7A","-1","-1","1","-10","[]","0","0","3","","","","","","","",""
"pit-trial","77","667118","0.0-2.0-14.2-4.2","battery-v0.2","","""event"",""trial"",""time""
""fullscreenenter"",""1"",""8864""
","
","
","""event"",""trial"",""time""
""fullscreenenter"",""1"",""8864""
","
","","","-1","","","13","9645","2224","&#9826;","elianto","#f73b6a7A","-1","-1","1","0","[]","0","0","3","","","","","","","",""
"pit-trial","78","671972","0.0-2.0-14.3-0.3","battery-v0.2","","""event"",""trial"",""time""
""fullscreenenter"",""1"",""8864""
","
","
","""event"",""trial"",""time""
""fullscreenenter"",""1"",""8864""
","
","","","-1","","","13","9645","2224","&#9826;","elianto","#f73b6a7A","-1","-1","1","0","[]","0","0","3","","","","","","","",""
"pit-trial","79","676825","0.0-2.0-14.3-1.3","battery-v0.2","","""event"",""trial"",""time""
""fullscreenenter"",""1"",""8864""
","
","
","""event"",""trial"",""time""
""fullscreenenter"",""1"",""8864""
","
","","","-1","","","13","9645","2224","&#9826;","elianto","#f73b6a7A","-1","-1","1","0","[]","0","0","3","","","","","","","",""
"pit-trial","80","681677","0.0-2.0-14.3-2.3","battery-v0.2","","""event"",""trial"",""time""
""fullscreenenter"",""1"",""8864""
","
","
","""event"",""trial"",""time""
""fullscreenenter"",""1"",""8864""
","
","","","-1","","","13","9645","2224","&#9826;","elianto","#f73b6a7A","-1","-1","1","0","[]","0","0","3","","","","","","","",""
"pit-trial","81","686530","0.0-2.0-14.3-3.3","battery-v0.2","","""event"",""trial"",""time""
""fullscreenenter"",""1"",""8864""
","
","
","""event"",""trial"",""time""
""fullscreenenter"",""1"",""8864""
","
","","","-1","","","13","9645","2224","&#9826;","elianto","#f73b6a7A","-1","-1","1","-10","[]","0","0","3","","","","","","","",""
"pit-trial","82","691383","0.0-2.0-14.3-4.3","battery-v0.2","","""event"",""trial"",""time""
""fullscreenenter"",""1"",""8864""
","
","
","""event"",""trial"",""time""
""fullscreenenter"",""1"",""8864""
","
","","","-1","","","13","9645","2224","&#9826;","elianto","#f73b6a7A","-1","-1","1","0","[]","0","0","3","","","","","","","",""
"call-function","83","691384","0.0-2.0-15.0","battery-v0.2","","""event"",""trial"",""time""
""fullscreenenter"",""1"",""8864""
","
","
","""event"",""trial"",""time""
""fullscreenenter"",""1"",""8864""
","
","","","","","","","","","","","","","","","","","","","","","","","","","","",""
"pit-instructions","84","730123","0.0-2.0-16.0","battery-v0.2","","""event"",""trial"",""time""
""fullscreenenter"",""1"",""8864""
","
","
","""event"",""trial"",""time""
""fullscreenenter"",""1"",""8864""
","
","","[{""page_index"":0,""viewing_time"":10777.90000000596},{""page_index"":1,""viewing_time"":12784.299999982119},{""page_index"":2,""viewing_time"":8951.300000011921},{""page_index"":3,""viewing_time"":6224.300000011921}]","38738.19999998808","","","","","","","","","","","","","","","","","","","","","","","",""
"pit-trial","85","734988","0.0-2.0-17.0-0.0","battery-v0.2","","""event"",""trial"",""time""
""fullscreenenter"",""1"",""8864""
","
","
","""event"",""trial"",""time""
""fullscreenenter"",""1"",""8864""
","
","","","-1","","","13","9645","2224","&#9789;","elianto","#f73b6a7A"," ","-1","0","-10","[]","0","0","4","","","","","","","",""
"pit-trial","86","739857","0.0-2.0-17.0-1.0","battery-v0.2","","""event"",""trial"",""time""
""fullscreenenter"",""1"",""8864""
","
","
","""event"",""trial"",""time""
""fullscreenenter"",""1"",""8864""
","
","","","-1","","","13","9645","2224","&#9789;","elianto","#f73b6a7A"," ","-1","0","-10","[]","0","0","4","","","","","","","",""
"pit-trial","87","744730","0.0-2.0-17.0-2.0","battery-v0.2","","""event"",""trial"",""time""
""fullscreenenter"",""1"",""8864""
","
","
","""event"",""trial"",""time""
""fullscreenenter"",""1"",""8864""
","
","","","-1","","","13","9645","2224","&#9789;","elianto","#f73b6a7A"," ","-1","0","-10","[]","0","0","4","","","","","","","",""
"pit-trial","88","749588","0.0-2.0-17.0-3.0","battery-v0.2","","""event"",""trial"",""time""
""fullscreenenter"",""1"",""8864""
","
","
","""event"",""trial"",""time""
""fullscreenenter"",""1"",""8864""
","
","","","-1","","","13","9645","2224","&#9789;","elianto","#f73b6a7A"," ","-1","0","0","[]","0","0","4","","","","","","","",""
"pit-trial","89","754452","0.0-2.0-17.0-4.0","battery-v0.2","","""event"",""trial"",""time""
""fullscreenenter"",""1"",""8864""
","
","
","""event"",""trial"",""time""
""fullscreenenter"",""1"",""8864""
","
","","","-1","","","13","9645","2224","&#9789;","elianto","#f73b6a7A"," ","-1","0","-10","[]","0","0","4","","","","","","","",""
"pit-trial","90","759318","0.0-2.0-17.1-0.1","battery-v0.2","","""event"",""trial"",""time""
""fullscreenenter"",""1"",""8864""
","
","
","""event"",""trial"",""time""
""fullscreenenter"",""1"",""8864""
","
","","","-1","","","13","9645","2224","&#9789;","elianto","#f73b6a7A"," ","-1","0","-10","[]","0","0","4","","","","","","","",""
"pit-trial","91","764170","0.0-2.0-17.1-1.1","battery-v0.2","","""event"",""trial"",""time""
""fullscreenenter"",""1"",""8864""
","
","
","""event"",""trial"",""time""
""fullscreenenter"",""1"",""8864""
","
","","","-1","","","13","9645","2224","&#9789;","elianto","#f73b6a7A"," ","-1","0","-10","[]","0","0","4","","","","","","","",""
"pit-trial","92","769023","0.0-2.0-17.1-2.1","battery-v0.2","","""event"",""trial"",""time""
""fullscreenenter"",""1"",""8864""
","
","
","""event"",""trial"",""time""
""fullscreenenter"",""1"",""8864""
","
","","","-1","","","13","9645","2224","&#9789;","elianto","#f73b6a7A"," ","-1","0","-10","[]","0","0","4","","","","","","","",""
"pit-trial","93","773876","0.0-2.0-17.1-3.1","battery-v0.2","","""event"",""trial"",""time""
""fullscreenenter"",""1"",""8864""
","
","
","""event"",""trial"",""time""
""fullscreenenter"",""1"",""8864""
","
","","","-1","","","13","9645","2224","&#9789;","elianto","#f73b6a7A"," ","-1","0","0","[]","0","0","4","","","","","","","",""
"pit-trial","94","778729","0.0-2.0-17.1-4.1","battery-v0.2","","""event"",""trial"",""time""
""fullscreenenter"",""1"",""8864""
","
","
","""event"",""trial"",""time""
""fullscreenenter"",""1"",""8864""
","
","","","-1","","","13","9645","2224","&#9789;","elianto","#f73b6a7A"," ","-1","0","-10","[]","0","0","4","","","","","","","",""
"pit-trial","95","783582","0.0-2.0-17.2-0.2","battery-v0.2","","""event"",""trial"",""time""
""fullscreenenter"",""1"",""8864""
","
","
","""event"",""trial"",""time""
""fullscreenenter"",""1"",""8864""
","
","","","-1","","","13","9645","2224","&#9789;","elianto","#f73b6a7A"," ","-1","0","-10","[]","0","0","4","","","","","","","",""
"pit-trial","96","788434","0.0-2.0-17.2-1.2","battery-v0.2","","""event"",""trial"",""time""
""fullscreenenter"",""1"",""8864""
","
","
","""event"",""trial"",""time""
""fullscreenenter"",""1"",""8864""
","
","","","-1","","","13","9645","2224","&#9789;","elianto","#f73b6a7A"," ","-1","0","-10","[]","0","0","4","","","","","","","",""
"pit-trial","97","793286","0.0-2.0-17.2-2.2","battery-v0.2","","""event"",""trial"",""time""
""fullscreenenter"",""1"",""8864""
","
","
","""event"",""trial"",""time""
""fullscreenenter"",""1"",""8864""
","
","","","-1","","","13","9645","2224","&#9789;","elianto","#f73b6a7A"," ","-1","0","-10","[]","0","0","4","","","","","","","",""
"pit-trial","98","798140","0.0-2.0-17.2-3.2","battery-v0.2","","""event"",""trial"",""time""
""fullscreenenter"",""1"",""8864""
","
","
","""event"",""trial"",""time""
""fullscreenenter"",""1"",""8864""
","
","","","-1","","","13","9645","2224","&#9789;","elianto","#f73b6a7A"," ","-1","0","0","[]","0","0","4","","","","","","","",""
"pit-trial","99","802993","0.0-2.0-17.2-4.2","battery-v0.2","","""event"",""trial"",""time""
""fullscreenenter"",""1"",""8864""
","
","
","""event"",""trial"",""time""
""fullscreenenter"",""1"",""8864""
","
","","","-1","","","13","9645","2224","&#9789;","elianto","#f73b6a7A"," ","-1","0","-10","[]","0","0","4","","","","","","","",""
"pit-trial","100","807847","0.0-2.0-17.3-0.3","battery-v0.2","","""event"",""trial"",""time""
""fullscreenenter"",""1"",""8864""
","
","
","""event"",""trial"",""time""
""fullscreenenter"",""1"",""8864""
","
","","","-1","","","13","9645","2224","&#9789;","elianto","#f73b6a7A"," ","-1","0","-10","[]","0","0","4","","","","","","","",""
"pit-trial","101","812701","0.0-2.0-17.3-1.3","battery-v0.2","","""event"",""trial"",""time""
""fullscreenenter"",""1"",""8864""
","
","
","""event"",""trial"",""time""
""fullscreenenter"",""1"",""8864""
","
","","","-1","","","13","9645","2224","&#9789;","elianto","#f73b6a7A"," ","-1","0","-10","[]","0","0","4","","","","","","","",""
"pit-trial","102","817554","0.0-2.0-17.3-2.3","battery-v0.2","","""event"",""trial"",""time""
""fullscreenenter"",""1"",""8864""
","
","
","""event"",""trial"",""time""
""fullscreenenter"",""1"",""8864""
","
","","","-1","","","13","9645","2224","&#9789;","elianto","#f73b6a7A"," ","-1","0","-10","[]","0","0","4","","","","","","","",""
"pit-trial","103","822407","0.0-2.0-17.3-3.3","battery-v0.2","","""event"",""trial"",""time""
""fullscreenenter"",""1"",""8864""
","
","
","""event"",""trial"",""time""
""fullscreenenter"",""1"",""8864""
","
","","","-1","","","13","9645","2224","&#9789;","elianto","#f73b6a7A"," ","-1","0","0","[]","0","0","4","","","","","","","",""
"pit-trial","104","827260","0.0-2.0-17.3-4.3","battery-v0.2","","""event"",""trial"",""time""
""fullscreenenter"",""1"",""8864""
","
","
","""event"",""trial"",""time""
""fullscreenenter"",""1"",""8864""
","
","","","-1","","","13","9645","2224","&#9789;","elianto","#f73b6a7A"," ","-1","0","-10","[]","0","0","4","","","","","","","",""
"call-function","105","827261","0.0-2.0-18.0","battery-v0.2","","""event"",""trial"",""time""
""fullscreenenter"",""1"",""8864""
","
","
","""event"",""trial"",""time""
""fullscreenenter"",""1"",""8864""
","
","","","","","","","","","","","","","","","","","","","","","","","","","","",""
"pit-instructions","106","916210","0.0-2.0-19.0","battery-v0.2","","""event"",""trial"",""time""
""fullscreenenter"",""1"",""8864""
","
","
","""event"",""trial"",""time""
""fullscreenenter"",""1"",""8864""
","
","","[{""page_index"":0,""viewing_time"":7756.9000000059605},{""page_index"":1,""viewing_time"":9120.59999999404},{""page_index"":2,""viewing_time"":15200},{""page_index"":3,""viewing_time"":10352},{""page_index"":4,""viewing_time"":8399.59999999404},{""page_index"":5,""viewing_time"":9712.600000023842},{""page_index"":6,""viewing_time"":8559.799999982119},{""page_index"":7,""viewing_time"":9936},{""page_index"":8,""viewing_time"":9911.5}]","88949.09999999404","","","","","","","","","","","","","","","","","","","","","","","",""
"pit-comprehension","107","927059","0.0-2.0-20.0-0.0","battery-v0.2","","""event"",""trial"",""time""
""fullscreenenter"",""1"",""8864""
","
","
","""event"",""trial"",""time""
""fullscreenenter"",""1"",""8864""
","
","","","10846.699999988079","[""SPACE""]","0","13","9645","2224","","","","","","","","","","","","","","","","","","",""
"pit-instructions","108","939835","0.0-2.0-20.0-1.0","battery-v0.2","","""event"",""trial"",""time""
""fullscreenenter"",""1"",""8864""
","
","
","""event"",""trial"",""time""
""fullscreenenter"",""1"",""8864""
","
","","[{""page_index"":0,""viewing_time"":12749.90000000596}]","12750.09999999404","","","","","","","","","","","","","","","","","","","","","","","",""
"pit-comprehension","109","948139","0.0-2.0-21.0-0.0","battery-v0.2","","""event"",""trial"",""time""
""fullscreenenter"",""1"",""8864""
","
","
","""event"",""trial"",""time""
""fullscreenenter"",""1"",""8864""
","
","","","8301.799999982119","[""10""]","0","13","9645","2224","","","","","","","","","","","","","","","","","","",""
"pit-instructions","110","953795","0.0-2.0-21.0-1.0","battery-v0.2","","""event"",""trial"",""time""
""fullscreenenter"",""1"",""8864""
","
","
","""event"",""trial"",""time""
""fullscreenenter"",""1"",""8864""
","
","","[{""page_index"":0,""viewing_time"":5631.300000011921}]","5631.5","","","","","","","","","","","","","","","","","","","","","","","",""
"pit-comprehension","111","964828","0.0-2.0-22.0-0.0","battery-v0.2","","""event"",""trial"",""time""
""fullscreenenter"",""1"",""8864""
","
","
","""event"",""trial"",""time""
""fullscreenenter"",""1"",""8864""
","
","","","11030.699999988079","[""0""]","0","13","9645","2224","","","","","","","","","","","","","","","","","","",""
"pit-instructions","112","967043","0.0-2.0-22.0-1.0","battery-v0.2","","""event"",""trial"",""time""
""fullscreenenter"",""1"",""8864""
","
","
","""event"",""trial"",""time""
""fullscreenenter"",""1"",""8864""
","
","","[{""page_index"":0,""viewing_time"":2189.5999999940395}]","2189.9000000059605","","","","","","","","","","","","","","","","","","","","","","","",""
"pit-comprehension","113","976723","0.0-2.0-23.0-0.0","battery-v0.2","","""event"",""trial"",""time""
""fullscreenenter"",""1"",""8864""
","
","
","""event"",""trial"",""time""
""fullscreenenter"",""1"",""8864""
","
","","","9677.90000000596","[""True""]","0","13","9645","2224","","","","","","","","","","","","","","","","","","",""
"pit-instructions","114","985395","0.0-2.0-23.0-1.0","battery-v0.2","","""event"",""trial"",""time""
""fullscreenenter"",""1"",""8864""
","
","
","""event"",""trial"",""time""
""fullscreenenter"",""1"",""8864""
","
","","[{""page_index"":0,""viewing_time"":8646.800000011921}]","8646.90000000596","","","","","","","","","","","","","","","","","","","","","","","",""
"pit-comprehension","115","995970","0.0-2.0-24.0-0.0","battery-v0.2","","""event"",""trial"",""time""
""fullscreenenter"",""1"",""8864""
","
","
","""event"",""trial"",""time""
""fullscreenenter"",""1"",""8864""
","
","","","10574.5","[""True""]","0","13","9645","2224","","","","","","","","","","","","","","","","","","",""
"pit-instructions","116","999433","0.0-2.0-24.0-1.0","battery-v0.2","","""event"",""trial"",""time""
""fullscreenenter"",""1"",""8864""
","
","
","""event"",""trial"",""time""
""fullscreenenter"",""1"",""8864""
","
","","[{""page_index"":0,""viewing_time"":3438.199999988079}]","3438.399999976158","","","","","","","","","","","","","","","","","","","","","","","",""
"pit-comprehension","117","1008107","0.0-2.0-25.0-0.0","battery-v0.2","","""event"",""trial"",""time""
""fullscreenenter"",""1"",""8864""
","
","
","""event"",""trial"",""time""
""fullscreenenter"",""1"",""8864""
","
","","","8671.699999988079","[""True""]","0","13","9645","2224","","","","","","","","","","","","","","","","","","",""
"pit-instructions","118","1010010","0.0-2.0-25.0-1.0","battery-v0.2","","""event"",""trial"",""time""
""fullscreenenter"",""1"",""8864""
","
","
","""event"",""trial"",""time""
""fullscreenenter"",""1"",""8864""
","
","","[{""page_index"":0,""viewing_time"":1878.4000000059605}]","1878.5999999940395","","","","","","","","","","","","","","","","","","","","","","","",""
"pit-comprehension","119","1025290","0.0-2.0-26.0-0.0","battery-v0.2","","""event"",""trial"",""time""
""fullscreenenter"",""1"",""8864""
","
","
","""event"",""trial"",""time""
""fullscreenenter"",""1"",""8864""
","
","","","15278.59999999404","[""True""]","1","13","9645","2224","","","","","","","","","","","","","","","","","","",""
"pit-instructions","120","1028506","0.0-2.0-26.0-1.0","battery-v0.2","","""event"",""trial"",""time""
""fullscreenenter"",""1"",""8864""
","
","
","""event"",""trial"",""time""
""fullscreenenter"",""1"",""8864""
","
","","[{""page_index"":0,""viewing_time"":3190.4000000059605}]","3190.5999999940395","","","","","","","","","","","","","","","","","","","","","","","",""
"pit-instructions","121","1029218","0.0-2.0-26.0-2.0-0.0","battery-v0.2","","""event"",""trial"",""time""
""fullscreenenter"",""1"",""8864""
","
","
","""event"",""trial"",""time""
""fullscreenenter"",""1"",""8864""
","
","","[{""page_index"":0,""viewing_time"":711.2999999821186}]","711.4000000059605","","","","","","","","","","","","","","","","","","","","","","","",""
"pit-comprehension","122","1033834","0.0-2.0-26.1-0.1","battery-v0.2","","""event"",""trial"",""time""
""fullscreenenter"",""1"",""8864""
","
","
","""event"",""trial"",""time""
""fullscreenenter"",""1"",""8864""
","
","","","4614.699999988079","[""False""]","0","13","9645","2224","","","","","","","","","","","","","","","","","","",""
"pit-instructions","123","1035858","0.0-2.0-26.1-1.1","battery-v0.2","","""event"",""trial"",""time""
""fullscreenenter"",""1"",""8864""
","
","
","""event"",""trial"",""time""
""fullscreenenter"",""1"",""8864""
","
","","[{""page_index"":0,""viewing_time"":1995.7999999821186}]","1996.199999988079","","","","","","","","","","","","","","","","","","","","","","","",""
"pit-instructions","124","1054034","0.0-3.0","battery-v0.2","","""event"",""trial"",""time""
""fullscreenenter"",""1"",""8864""
","
","
","""event"",""trial"",""time""
""fullscreenenter"",""1"",""8864""
","
","","[{""page_index"":0,""viewing_time"":4423.0999999940395},{""page_index"":1,""viewing_time"":6071.799999982119},{""page_index"":2,""viewing_time"":7679.9000000059605}]","18174.899999976158","","","","","","","","","","","","","","","","","","","","","","","",""
"pit-trial","125","1057537","0.0-4.0","battery-v0.2","","""event"",""trial"",""time""
""fullscreenenter"",""1"",""8864""
","
","
","""event"",""trial"",""time""
""fullscreenenter"",""1"",""8864""
","
","","","645.5","","","13","9645","2224","&#9733;","elianto","#3366ff99","-1"," ","0","0","[1496.5999999940395]","1","1","","","9645","1","2","2","win","no-go","0"
"pit-trial","126","1062416","0.0-5.0","battery-v0.2","","""event"",""trial"",""time""
""fullscreenenter"",""1"",""8864""
","
","
","""event"",""trial"",""time""
""fullscreenenter"",""1"",""8864""
","
","","","-1","","","13","9645","2224","&#9728;","elianto","#f73b6a7A","-1","-1","1","0","[]","0","1","","","9645","2","0","4","lose","no-go","0"
"pit-trial","127","1067290","0.0-6.0","battery-v0.2","","""event"",""trial"",""time""
""fullscreenenter"",""1"",""8864""
","
","
","""event"",""trial"",""time""
""fullscreenenter"",""1"",""8864""
","
","","","-1","","","13","9645","2224","&#9752;","elianto","#f73b6a7A"," ","-1","0","0","[]","0","1","","","9645","3","3","3","lose","go","1"
"pit-trial","128","1071075","0.0-7.0","battery-v0.2","","""event"",""trial"",""time""
""fullscreenenter"",""1"",""8864""
","
","
","""event"",""trial"",""time""
""fullscreenenter"",""1"",""8864""
","
","","","926.6999999880791","","","13","9645","2224","&#9730;","elianto","#3366ff99"," "," ","1","+10","[1778]","1","1","","","9645","4","1","1","win","go","0"
"pit-trial","129","1075941","0.0-8.0","battery-v0.2","","""event"",""trial"",""time""
""fullscreenenter"",""1"",""8864""
","
","
","""event"",""trial"",""time""
""fullscreenenter"",""1"",""8864""
","
","","","-1","","","13","9645","2224","&#9752;","elianto","#f73b6a7A"," ","-1","0","-10","[]","0","1","","","9645","5","3","3","lose","go","0"
"pit-trial","130","1079638","0.0-9.0","battery-v0.2","","""event"",""trial"",""time""
""fullscreenenter"",""1"",""8864""
","
","
","""event"",""trial"",""time""
""fullscreenenter"",""1"",""8864""
","
","","","837.2000000178814","","","13","9645","2224","&#9730;","elianto","#3366ff99"," "," ","1","+10","[1687.2999999821186]","1","1","","","9645","6","1","1","win","go","0"
"pit-trial","131","1084497","0.0-10.0","battery-v0.2","","""event"",""trial"",""time""
""fullscreenenter"",""1"",""8864""
","
","
","""event"",""trial"",""time""
""fullscreenenter"",""1"",""8864""
","
","","","-1","","","13","9645","2224","&#9728;","elianto","#f73b6a7A","-1","-1","1","0","[]","0","1","","","9645","7","0","4","lose","no-go","0"
"pit-trial","132","1088110","0.0-11.0","battery-v0.2","","""event"",""trial"",""time""
""fullscreenenter"",""1"",""8864""
","
","
","""event"",""trial"",""time""
""fullscreenenter"",""1"",""8864""
","
","","","760.2000000178814","","","13","9645","2224","&#9733;","elianto","#3366ff99","-1"," ","0","0","[1610.9000000059605]","1","1","","","9645","8","2","2","win","no-go","0"
"pit-trial","133","1092230","0.0-12.0","battery-v0.2","","""event"",""trial"",""time""
""fullscreenenter"",""1"",""8864""
","
","
","""event"",""trial"",""time""
""fullscreenenter"",""1"",""8864""
","
","","","1267.0999999940395","","","13","9645","2224","&#9730;","elianto","#3366ff99"," "," ","1","+10","[2117.9000000059605]","1","1","","","9645","9","1","1","win","go","0"
"pit-trial","134","1097082","0.0-13.0","battery-v0.2","","""event"",""trial"",""time""
""fullscreenenter"",""1"",""8864""
","
","
","""event"",""trial"",""time""
""fullscreenenter"",""1"",""8864""
","
","","","-1","","","13","9645","2224","&#9752;","elianto","#f73b6a7A"," ","-1","0","0","[]","0","1","","","9645","10","3","3","lose","go","1"
"pit-trial","135","1101935","0.0-14.0","battery-v0.2","","""event"",""trial"",""time""
""fullscreenenter"",""1"",""8864""
","
","
","""event"",""trial"",""time""
""fullscreenenter"",""1"",""8864""
","
","","","-1","","","13","9645","2224","&#9728;","elianto","#f73b6a7A","-1","-1","1","0","[]","0","1","","","9645","11","0","4","lose","no-go","0"
"pit-trial","136","1105854","0.0-15.0","battery-v0.2","","""event"",""trial"",""time""
""fullscreenenter"",""1"",""8864""
","
","
","""event"",""trial"",""time""
""fullscreenenter"",""1"",""8864""
","
","","","1066.300000011921","","","13","9645","2224","&#9733;","elianto","#3366ff99","-1"," ","0","0","[1916.9000000059605]","1","1","","","9645","12","2","2","win","no-go","0"
"pit-trial","137","1109590","0.0-16.0","battery-v0.2","","""event"",""trial"",""time""
""fullscreenenter"",""1"",""8864""
","
","
","""event"",""trial"",""time""
""fullscreenenter"",""1"",""8864""
","
","","","882.8000000119209","","","13","9645","2224","&#9728;","elianto","#f73b6a7A","-1"," ","0","-10","[1733.2000000178814]","1","1","","","9645","13","0","4","lose","no-go","0"
"pit-trial","138","1113374","0.0-17.0","battery-v0.2","","""event"",""trial"",""time""
""fullscreenenter"",""1"",""8864""
","
","
","""event"",""trial"",""time""
""fullscreenenter"",""1"",""8864""
","
","","","931.5","","","13","9645","2224","&#9733;","elianto","#3366ff99","-1"," ","0","0","[1781.800000011921]","1","1","","","9645","14","2","2","win","no-go","0"
"pit-trial","139","1117030","0.0-18.0","battery-v0.2","","""event"",""trial"",""time""
""fullscreenenter"",""1"",""8864""
","
","
","""event"",""trial"",""time""
""fullscreenenter"",""1"",""8864""
","
","","","803.6999999880791","","","13","9645","2224","&#9730;","elianto","#3366ff99"," "," ","1","+10","[1653.699999988079,1677.199999988079]","2","1","","","9645","15","1","1","win","go","0"
"pit-trial","140","1121883","0.0-19.0","battery-v0.2","","""event"",""trial"",""time""
""fullscreenenter"",""1"",""8864""
","
","
","""event"",""trial"",""time""
""fullscreenenter"",""1"",""8864""
","
","","","-1","","","13","9645","2224","&#9752;","elianto","#f73b6a7A"," ","-1","0","-10","[]","0","1","","","9645","16","3","3","lose","go","0"
"pit-trial","141","1126736","0.0-20.0","battery-v0.2","","""event"",""trial"",""time""
""fullscreenenter"",""1"",""8864""
","
","
","""event"",""trial"",""time""
""fullscreenenter"",""1"",""8864""
","
","","","-1","","","13","9645","2224","&#9728;","elianto","#f73b6a7A","-1","-1","1","0","[]","0","1","","","9645","17","0","4","lose","no-go","0"
"pit-trial","142","1131589","0.0-21.0","battery-v0.2","","""event"",""trial"",""time""
""fullscreenenter"",""1"",""8864""
","
","
","""event"",""trial"",""time""
""fullscreenenter"",""1"",""8864""
","
","","","-1","","","13","9645","2224","&#9752;","elianto","#f73b6a7A"," ","-1","0","0","[]","0","1","","","9645","18","3","3","lose","go","1"
"pit-trial","143","1135069","0.0-22.0","battery-v0.2","","""event"",""trial"",""time""
""fullscreenenter"",""1"",""8864""
","
","
","""event"",""trial"",""time""
""fullscreenenter"",""1"",""8864""
","
","","","627.6999999880791","","","13","9645","2224","&#9730;","elianto","#3366ff99"," "," ","1","+10","[1478.3999999761581,2782.399999976158]","2","1","","","9645","19","1","1","win","go","0"
"pit-trial","144","1138613","0.0-23.0","battery-v0.2","","""event"",""trial"",""time""
""fullscreenenter"",""1"",""8864""
","
","
","""event"",""trial"",""time""
""fullscreenenter"",""1"",""8864""
","
","","","691.5999999940395","","","13","9645","2224","&#9733;","elianto","#3366ff99","-1"," ","0","+10","[1541.9000000059605]","1","1","","","9645","20","2","2","win","no-go","1"
"pit-instructions","145","1152338","0.0-24.0","battery-v0.2","","""event"",""trial"",""time""
""fullscreenenter"",""1"",""8864""
","
","
","""event"",""trial"",""time""
""fullscreenenter"",""1"",""8864""
","
","","[{""page_index"":0,""viewing_time"":5588},{""page_index"":1,""viewing_time"":8136.300000011921}]","13724.40000000596","","","","","","","","","","","","","","","","","","","","","","","",""
"pit-trial","146","1157192","0.0-25.0","battery-v0.2","","""event"",""trial"",""time""
""fullscreenenter"",""1"",""8864""
","
","
","""event"",""trial"",""time""
""fullscreenenter"",""1"",""8864""
","
","","","-1","","","13","9645","2224","e","elianto","#f73b6a7A"," ","-1","0","-10","[]","0","2","","","9645","21","2","3","lose","go","0"
"pit-trial","147","1162045","0.0-26.0","battery-v0.2","","""event"",""trial"",""time""
""fullscreenenter"",""1"",""8864""
","
","
","""event"",""trial"",""time""
""fullscreenenter"",""1"",""8864""
","
","","","-1","","","13","9645","2224","w","elianto","#f73b6a7A","-1","-1","1","-10","[]","0","2","","","9645","22","3","4","lose","no-go","1"
"pit-trial","148","1166899","0.0-27.0","battery-v0.2","","""event"",""trial"",""time""
""fullscreenenter"",""1"",""8864""
","
","
","""event"",""trial"",""time""
""fullscreenenter"",""1"",""8864""
","
","","","-1","","","13","9645","2224","j","elianto","#f73b6a7A"," ","-1","0","-10","[]","0","2","","","9645","23","0","3","lose","go","0"
"pit-trial","149","1170457","0.0-28.0","battery-v0.2","","""event"",""trial"",""time""
""fullscreenenter"",""1"",""8864""
","
","
","""event"",""trial"",""time""
""fullscreenenter"",""1"",""8864""
","
","","","694.5","","","13","9645","2224","d","elianto","#3366ff99","-1"," ","0","0","[1544.8999999761581]","1","2","","","9645","24","1","2","win","no-go","0"
"pit-trial","150","1175314","0.0-29.0","battery-v0.2","","""event"",""trial"",""time""
""fullscreenenter"",""1"",""8864""
","
","
","""event"",""trial"",""time""
""fullscreenenter"",""1"",""8864""
","
","","","-1","","","13","9645","2224","w","elianto","#f73b6a7A","-1","-1","1","0","[]","0","2","","","9645","25","3","4","lose","no-go","0"
"pit-trial","151","1178893","0.0-30.0","battery-v0.2","","""event"",""trial"",""time""
""fullscreenenter"",""1"",""8864""
","
","
","""event"",""trial"",""time""
""fullscreenenter"",""1"",""8864""
","
","","","725.4000000059605","","","13","9645","2224","d","elianto","#3366ff99","-1"," ","0","0","[1577.7999999821186]","1","2","","","9645","26","1","2","win","no-go","0"
"pit-trial","152","1183745","0.0-31.0","battery-v0.2","","""event"",""trial"",""time""
""fullscreenenter"",""1"",""8864""
","
","
","""event"",""trial"",""time""
""fullscreenenter"",""1"",""8864""
","
","","","-1","","","13","9645","2224","e","elianto","#f73b6a7A"," ","-1","0","-10","[]","0","2","","","9645","27","2","3","lose","go","0"
"pit-trial","153","1188598","0.0-32.0","battery-v0.2","","""event"",""trial"",""time""
""fullscreenenter"",""1"",""8864""
","
","
","""event"",""trial"",""time""
""fullscreenenter"",""1"",""8864""
","
","","","-1","","","13","9645","2224","j","elianto","#f73b6a7A"," ","-1","0","-10","[]","0","2","","","9645","28","0","3","lose","go","0"
"pit-trial","154","1193453","0.0-33.0","battery-v0.2","","""event"",""trial"",""time""
""fullscreenenter"",""1"",""8864""
","
","
","""event"",""trial"",""time""
""fullscreenenter"",""1"",""8864""
","
","","","-1","","","13","9645","2224","e","elianto","#f73b6a7A"," ","-1","0","-10","[]","0","2","","","9645","29","2","3","lose","go","0"
"pit-trial","155","1198306","0.0-34.0","battery-v0.2","","""event"",""trial"",""time""
""fullscreenenter"",""1"",""8864""
","
","
","""event"",""trial"",""time""
""fullscreenenter"",""1"",""8864""
","
","","","-1","","","13","9645","2224","w","elianto","#f73b6a7A","-1","-1","1","0","[]","0","2","","","9645","30","3","4","lose","no-go","0"
"pit-trial","156","1201789","0.0-35.0","battery-v0.2","","""event"",""trial"",""time""
""fullscreenenter"",""1"",""8864""
","
","
","""event"",""trial"",""time""
""fullscreenenter"",""1"",""8864""
","
","","","631.0999999940395","","","13","9645","2224","d","elianto","#3366ff99","-1"," ","0","+10","[1481.800000011921]","1","2","","","9645","31","1","2","win","no-go","1"
"pit-trial","157","1206645","0.0-36.0","battery-v0.2","","""event"",""trial"",""time""
""fullscreenenter"",""1"",""8864""
","
","
","""event"",""trial"",""time""
""fullscreenenter"",""1"",""8864""
","
","","","-1","","","13","9645","2224","j","elianto","#f73b6a7A"," ","-1","0","-10","[]","0","2","","","9645","32","0","3","lose","go","0"
"pit-trial","158","1210277","0.0-37.0","battery-v0.2","","""event"",""trial"",""time""
""fullscreenenter"",""1"",""8864""
","
","
","""event"",""trial"",""time""
""fullscreenenter"",""1"",""8864""
","
","","","779.3000000119209","","","13","9645","2224","d","elianto","#3366ff99","-1"," ","0","+10","[1630.1000000238419]","1","2","","","9645","33","1","2","win","no-go","1"
"pit-trial","159","1215129","0.0-38.0","battery-v0.2","","""event"",""trial"",""time""
""fullscreenenter"",""1"",""8864""
","
","
","""event"",""trial"",""time""
""fullscreenenter"",""1"",""8864""
","
","","","-1","","","13","9645","2224","w","elianto","#f73b6a7A","-1","-1","1","0","[]","0","2","","","9645","34","3","4","lose","no-go","0"
"pit-trial","160","1219982","0.0-39.0","battery-v0.2","","""event"",""trial"",""time""
""fullscreenenter"",""1"",""8864""
","
","
","""event"",""trial"",""time""
""fullscreenenter"",""1"",""8864""
","
","","","-1","","","13","9645","2224","e","elianto","#f73b6a7A"," ","-1","0","-10","[]","0","2","","","9645","35","2","3","lose","go","0"
"pit-trial","161","1224835","0.0-40.0","battery-v0.2","","""event"",""trial"",""time""
""fullscreenenter"",""1"",""8864""
","
","
","""event"",""trial"",""time""
""fullscreenenter"",""1"",""8864""
","
","","","-1","","","13","9645","2224","j","elianto","#f73b6a7A"," ","-1","0","-10","[]","0","2","","","9645","36","0","3","lose","go","0"
"pit-trial","162","1229687","0.0-41.0","battery-v0.2","","""event"",""trial"",""time""
""fullscreenenter"",""1"",""8864""
","
","
","""event"",""trial"",""time""
""fullscreenenter"",""1"",""8864""
","
","","","-1","","","13","9645","2224","w","elianto","#f73b6a7A","-1","-1","1","0","[]","0","2","","","9645","37","3","4","lose","no-go","0"
"pit-trial","163","1234539","0.0-42.0","battery-v0.2","","""event"",""trial"",""time""
""fullscreenenter"",""1"",""8864""
","
","
","""event"",""trial"",""time""
""fullscreenenter"",""1"",""8864""
","
","","","-1","","","13","9645","2224","e","elianto","#f73b6a7A"," ","-1","0","-10","[]","0","2","","","9645","38","2","3","lose","go","0"
"pit-trial","164","1237949","0.0-43.0","battery-v0.2","","""event"",""trial"",""time""
""fullscreenenter"",""1"",""8864""
","
","
","""event"",""trial"",""time""
""fullscreenenter"",""1"",""8864""
","
","","","556.9000000059605","","","13","9645","2224","d","elianto","#3366ff99","-1"," ","0","+10","[1407.0999999940395]","1","2","","","9645","39","1","2","win","no-go","1"
"pit-trial","165","1242802","0.0-44.0","battery-v0.2","","""event"",""trial"",""time""
""fullscreenenter"",""1"",""8864""
","
","
","""event"",""trial"",""time""
""fullscreenenter"",""1"",""8864""
","
","","","-1","","","13","9645","2224","j","elianto","#f73b6a7A"," ","-1","0","-10","[]","0","2","","","9645","40","0","3","lose","go","0"
"pit-trial","166","1247655","0.0-45.0","battery-v0.2","","""event"",""trial"",""time""
""fullscreenenter"",""1"",""8864""
","
","
","""event"",""trial"",""time""
""fullscreenenter"",""1"",""8864""
","
","","","-1","","","13","9645","2224","j","elianto","#f73b6a7A"," ","-1","0","0","[]","0","2","","","9645","41","0","3","lose","go","1"
"pit-trial","167","1251660","0.0-46.0","battery-v0.2","","""event"",""trial"",""time""
""fullscreenenter"",""1"",""8864""
","
","
","""event"",""trial"",""time""
""fullscreenenter"",""1"",""8864""
","
","","","1153.199999988079","","","13","9645","2224","d","elianto","#3366ff99","-1"," ","0","0","[2003.2000000178814]","1","2","","","9645","42","1","2","win","no-go","0"
"pit-trial","168","1256512","0.0-47.0","battery-v0.2","","""event"",""trial"",""time""
""fullscreenenter"",""1"",""8864""
","
","
","""event"",""trial"",""time""
""fullscreenenter"",""1"",""8864""
","
","","","-1","","","13","9645","2224","e","elianto","#f73b6a7A"," ","-1","0","-10","[]","0","2","","","9645","43","2","3","lose","go","0"
"pit-trial","169","1261365","0.0-48.0","battery-v0.2","","""event"",""trial"",""time""
""fullscreenenter"",""1"",""8864""
","
","
","""event"",""trial"",""time""
""fullscreenenter"",""1"",""8864""
","
","","","-1","","","13","9645","2224","w","elianto","#f73b6a7A","-1","-1","1","0","[]","0","2","","","9645","44","3","4","lose","no-go","0"
"pit-trial","170","1265052","0.0-49.0","battery-v0.2","","""event"",""trial"",""time""
""fullscreenenter"",""1"",""8864""
","
","
","""event"",""trial"",""time""
""fullscreenenter"",""1"",""8864""
","
","","","833.9000000059605","","","13","9645","2224","d","elianto","#3366ff99","-1"," ","0","0","[1684.9000000059605]","1","2","","","9645","45","1","2","win","no-go","0"
"pit-trial","171","1269904","0.0-50.0","battery-v0.2","","""event"",""trial"",""time""
""fullscreenenter"",""1"",""8864""
","
","
","""event"",""trial"",""time""
""fullscreenenter"",""1"",""8864""
","
","","","-1","","","13","9645","2224","j","elianto","#f73b6a7A"," ","-1","0","-10","[]","0","2","","","9645","46","0","3","lose","go","0"
"pit-trial","172","1274756","0.0-51.0","battery-v0.2","","""event"",""trial"",""time""
""fullscreenenter"",""1"",""8864""
","
","
","""event"",""trial"",""time""
""fullscreenenter"",""1"",""8864""
","
","","","-1","","","13","9645","2224","w","elianto","#f73b6a7A","-1","-1","1","0","[]","0","2","","","9645","47","3","4","lose","no-go","0"
"pit-trial","173","1279609","0.0-52.0","battery-v0.2","","""event"",""trial"",""time""
""fullscreenenter"",""1"",""8864""
","
","
","""event"",""trial"",""time""
""fullscreenenter"",""1"",""8864""
","
","","","-1","","","13","9645","2224","e","elianto","#f73b6a7A"," ","-1","0","-10","[]","0","2","","","9645","48","2","3","lose","go","0"
"pit-trial","174","1284461","0.0-53.0","battery-v0.2","","""event"",""trial"",""time""
""fullscreenenter"",""1"",""8864""
","
","
","""event"",""trial"",""time""
""fullscreenenter"",""1"",""8864""
","
","","","-1","","","13","9645","2224","w","elianto","#f73b6a7A","-1","-1","1","0","[]","0","2","","","9645","49","3","4","lose","no-go","0"
"pit-trial","175","1289314","0.0-54.0","battery-v0.2","","""event"",""trial"",""time""
""fullscreenenter"",""1"",""8864""
","
","
","""event"",""trial"",""time""
""fullscreenenter"",""1"",""8864""
","
","","","-1","","","13","9645","2224","e","elianto","#f73b6a7A"," ","-1","0","-10","[]","0","2","","","9645","50","2","3","lose","go","0"
"pit-trial","176","1293188","0.0-55.0","battery-v0.2","","""event"",""trial"",""time""
""fullscreenenter"",""1"",""8864""
","
","
","""event"",""trial"",""time""
""fullscreenenter"",""1"",""8864""
","
","","","1021.1999999880791","","","13","9645","2224","d","elianto","#3366ff99","-1"," ","0","0","[1872.199999988079]","1","2","","","9645","51","1","2","win","no-go","0"
"pit-trial","177","1298051","0.0-56.0","battery-v0.2","","""event"",""trial"",""time""
""fullscreenenter"",""1"",""8864""
","
","
","""event"",""trial"",""time""
""fullscreenenter"",""1"",""8864""
","
","","","-1","","","13","9645","2224","j","elianto","#f73b6a7A"," ","-1","0","-10","[]","0","2","","","9645","52","0","3","lose","go","0"
"pit-trial","178","1302904","0.0-57.0","battery-v0.2","","""event"",""trial"",""time""
""fullscreenenter"",""1"",""8864""
","
","
","""event"",""trial"",""time""
""fullscreenenter"",""1"",""8864""
","
","","","-1","","","13","9645","2224","e","elianto","#f73b6a7A"," ","-1","0","-10","[]","0","2","","","9645","53","2","3","lose","go","0"
"pit-trial","179","1307292","0.0-58.0","battery-v0.2","","""event"",""trial"",""time""
""fullscreenenter"",""1"",""8864""
","
","
","""event"",""trial"",""time""
""fullscreenenter"",""1"",""8864""
","
","","","1535.0999999940395","","","13","9645","2224","d","elianto","#3366ff99","-1"," ","0","0","[2386.0999999940395]","1","2","","","9645","54","1","2","win","no-go","0"
"pit-trial","180","1312145","0.0-59.0","battery-v0.2","","""event"",""trial"",""time""
""fullscreenenter"",""1"",""8864""
","
","
","""event"",""trial"",""time""
""fullscreenenter"",""1"",""8864""
","
","","","-1","","","13","9645","2224","w","elianto","#f73b6a7A","-1","-1","1","-10","[]","0","2","","","9645","55","3","4","lose","no-go","1"
"pit-trial","181","1316998","0.0-60.0","battery-v0.2","","""event"",""trial"",""time""
""fullscreenenter"",""1"",""8864""
","
","
","""event"",""trial"",""time""
""fullscreenenter"",""1"",""8864""
","
","","","-1","","","13","9645","2224","j","elianto","#f73b6a7A"," ","-1","0","-10","[]","0","2","","","9645","56","0","3","lose","go","0"
"pit-trial","182","1321850","0.0-61.0","battery-v0.2","","""event"",""trial"",""time""
""fullscreenenter"",""1"",""8864""
","
","
","""event"",""trial"",""time""
""fullscreenenter"",""1"",""8864""
","
","","","-1","","","13","9645","2224","e","elianto","#f73b6a7A"," ","-1","0","-10","[]","0","2","","","9645","57","2","3","lose","go","0"
"pit-trial","183","1325389","0.0-62.0","battery-v0.2","","""event"",""trial"",""time""
""fullscreenenter"",""1"",""8864""
","
","
","""event"",""trial"",""time""
""fullscreenenter"",""1"",""8864""
","
","","","685.1999999880791","","","13","9645","2224","s","elianto","#3366ff99"," "," ","1","+10","[1536]","1","2","","","9645","58","4","1","win","go","0"
"pit-trial","184","1330243","0.0-63.0","battery-v0.2","","""event"",""trial"",""time""
""fullscreenenter"",""1"",""8864""
","
","
","""event"",""trial"",""time""
""fullscreenenter"",""1"",""8864""
","
","","","-1","","","13","9645","2224","w","elianto","#f73b6a7A","-1","-1","1","0","[]","0","2","","","9645","59","3","4","lose","no-go","0"
"pit-trial","185","1335096","0.0-64.0","battery-v0.2","","""event"",""trial"",""time""
""fullscreenenter"",""1"",""8864""
","
","
","""event"",""trial"",""time""
""fullscreenenter"",""1"",""8864""
","
","","","-1","","","13","9645","2224","j","elianto","#f73b6a7A"," ","-1","0","-10","[]","0","2","","","9645","60","0","3","lose","go","0"
"pit-trial","186","1339101","0.0-65.0","battery-v0.2","","""event"",""trial"",""time""
""fullscreenenter"",""1"",""8864""
","
","
","""event"",""trial"",""time""
""fullscreenenter"",""1"",""8864""
","
","","","1152","","","13","9645","2224","s","elianto","#3366ff99"," "," ","1","0","[2002.5999999940395]","1","2","","","9645","61","4","1","win","go","1"
"pit-trial","187","1343953","0.0-66.0","battery-v0.2","","""event"",""trial"",""time""
""fullscreenenter"",""1"",""8864""
","
","
","""event"",""trial"",""time""
""fullscreenenter"",""1"",""8864""
","
","","","-1","","","13","9645","2224","e","elianto","#f73b6a7A"," ","-1","0","-10","[]","0","2","","","9645","62","2","3","lose","go","0"
"pit-trial","188","1348805","0.0-67.0","battery-v0.2","","""event"",""trial"",""time""
""fullscreenenter"",""1"",""8864""
","
","
","""event"",""trial"",""time""
""fullscreenenter"",""1"",""8864""
","
","","","-1","","","13","9645","2224","w","elianto","#f73b6a7A","-1","-1","1","0","[]","0","2","","","9645","63","3","4","lose","no-go","0"
"pit-trial","189","1352435","0.0-68.0","battery-v0.2","","""event"",""trial"",""time""
""fullscreenenter"",""1"",""8864""
","
","
","""event"",""trial"",""time""
""fullscreenenter"",""1"",""8864""
","
","","","778.0999999940395","","","13","9645","2224","d","elianto","#3366ff99","-1"," ","0","0","[1628.4000000059605]","1","2","","","9645","64","1","2","win","no-go","0"
"pit-trial","190","1356244","0.0-69.0","battery-v0.2","","""event"",""trial"",""time""
""fullscreenenter"",""1"",""8864""
","
","
","""event"",""trial"",""time""
""fullscreenenter"",""1"",""8864""
","
","","","955.9000000059605","","","13","9645","2224","s","elianto","#3366ff99"," "," ","1","0","[1806.4000000059605]","1","2","","","9645","65","4","1","win","go","1"
"pit-trial","191","1359660","0.0-70.0","battery-v0.2","","""event"",""trial"",""time""
""fullscreenenter"",""1"",""8864""
","
","
","""event"",""trial"",""time""
""fullscreenenter"",""1"",""8864""
","
","","","563.1000000238419","","","13","9645","2224","d","elianto","#3366ff99","-1"," ","0","0","[1414.1000000238419]","1","2","","","9645","66","1","2","win","no-go","0"
"pit-trial","192","1363220","0.0-71.0","battery-v0.2","","""event"",""trial"",""time""
""fullscreenenter"",""1"",""8864""
","
","
","""event"",""trial"",""time""
""fullscreenenter"",""1"",""8864""
","
","","","707.5","","","13","9645","2224","p","elianto","#3366ff99","-1"," ","0","0","[1558.4000000059605]","1","2","","","9645","67","5","2","win","no-go","0"
"pit-trial","193","1368073","0.0-72.0","battery-v0.2","","""event"",""trial"",""time""
""fullscreenenter"",""1"",""8864""
","
","
","""event"",""trial"",""time""
""fullscreenenter"",""1"",""8864""
","
","","","-1","","","13","9645","2224","w","elianto","#f73b6a7A","-1","-1","1","0","[]","0","2","","","9645","68","3","4","lose","no-go","0"
"pit-trial","194","1371364","0.0-73.0","battery-v0.2","","""event"",""trial"",""time""
""fullscreenenter"",""1"",""8864""
","
","
","""event"",""trial"",""time""
""fullscreenenter"",""1"",""8864""
","
","","","437.40000000596046","","","13","9645","2224","s","elianto","#3366ff99"," "," ","1","+10","[1288.5]","1","2","","","9645","69","4","1","win","go","0"
"pit-trial","195","1374820","0.0-74.0","battery-v0.2","","""event"",""trial"",""time""
""fullscreenenter"",""1"",""8864""
","
","
","""event"",""trial"",""time""
""fullscreenenter"",""1"",""8864""
","
","","","604.5999999940395","","","13","9645","2224","d","elianto","#3366ff99","-1"," ","0","0","[1454.7999999821186]","1","2","","","9645","70","1","2","win","no-go","0"
"pit-trial","196","1379673","0.0-75.0","battery-v0.2","","""event"",""trial"",""time""
""fullscreenenter"",""1"",""8864""
","
","
","""event"",""trial"",""time""
""fullscreenenter"",""1"",""8864""
","
","","","-1","","","13","9645","2224","e","elianto","#f73b6a7A"," ","-1","0","0","[]","0","2","","","9645","71","2","3","lose","go","1"
"pit-trial","197","1383084","0.0-76.0","battery-v0.2","","""event"",""trial"",""time""
""fullscreenenter"",""1"",""8864""
","
","
","""event"",""trial"",""time""
""fullscreenenter"",""1"",""8864""
","
","","","558.1999999880791","","","13","9645","2224","p","elianto","#3366ff99","-1"," ","0","0","[1408.4000000059605]","1","2","","","9645","72","5","2","win","no-go","0"
"pit-trial","198","1386964","0.0-77.0","battery-v0.2","","""event"",""trial"",""time""
""fullscreenenter"",""1"",""8864""
","
","
","""event"",""trial"",""time""
""fullscreenenter"",""1"",""8864""
","
","","","1026.5999999940395","","","13","9645","2224","d","elianto","#3366ff99","-1"," ","0","0","[1878.5]","1","2","","","9645","73","1","2","win","no-go","0"
"pit-trial","199","1390348","0.0-78.0","battery-v0.2","","""event"",""trial"",""time""
""fullscreenenter"",""1"",""8864""
","
","
","""event"",""trial"",""time""
""fullscreenenter"",""1"",""8864""
","
","","","531","","","13","9645","2224","s","elianto","#3366ff99"," "," ","1","+10","[1381.6000000238419]","1","2","","","9645","74","4","1","win","go","0"
"pit-trial","200","1395202","0.0-79.0","battery-v0.2","","""event"",""trial"",""time""
""fullscreenenter"",""1"",""8864""
","
","
","""event"",""trial"",""time""
""fullscreenenter"",""1"",""8864""
","
","","","-1","","","13","9645","2224","w","elianto","#f73b6a7A","-1","-1","1","0","[]","0","2","","","9645","75","3","4","lose","no-go","0"
"pit-trial","201","1398572","0.0-80.0","battery-v0.2","","""event"",""trial"",""time""
""fullscreenenter"",""1"",""8864""
","
","
","""event"",""trial"",""time""
""fullscreenenter"",""1"",""8864""
","
","","","516.9000000059605","","","13","9645","2224","p","elianto","#3366ff99","-1"," ","0","0","[1367.2000000178814]","1","2","","","9645","76","5","2","win","no-go","0"
"pit-trial","202","1403425","0.0-81.0","battery-v0.2","","""event"",""trial"",""time""
""fullscreenenter"",""1"",""8864""
","
","
","""event"",""trial"",""time""
""fullscreenenter"",""1"",""8864""
","
","","","-1","","","13","9645","2224","w","elianto","#f73b6a7A","-1","-1","1","-10","[]","0","2","","","9645","77","3","4","lose","no-go","1"
"pit-trial","203","1406827","0.0-82.0","battery-v0.2","","""event"",""trial"",""time""
""fullscreenenter"",""1"",""8864""
","
","
","""event"",""trial"",""time""
""fullscreenenter"",""1"",""8864""
","
","","","549.8999999761581","","","13","9645","2224","p","elianto","#3366ff99","-1"," ","0","0","[1400.2999999821186]","1","2","","","9645","78","5","2","win","no-go","0"
"pit-trial","204","1410292","0.0-83.0","battery-v0.2","","""event"",""trial"",""time""
""fullscreenenter"",""1"",""8864""
","
","
","""event"",""trial"",""time""
""fullscreenenter"",""1"",""8864""
","
","","","611","","","13","9645","2224","s","elianto","#3366ff99"," "," ","1","+10","[461.40000000596046,1461.7999999821186]","2","2","","","9645","79","4","1","win","go","0"
"pit-trial","205","1413779","0.0-84.0","battery-v0.2","","""event"",""trial"",""time""
""fullscreenenter"",""1"",""8864""
","
","
","""event"",""trial"",""time""
""fullscreenenter"",""1"",""8864""
","
","","","634.5","","","13","9645","2224","s","elianto","#3366ff99"," "," ","1","+10","[1485.300000011921]","1","2","","","9645","80","4","1","win","go","0"
"pit-trial","206","1417164","0.0-85.0","battery-v0.2","","""event"",""trial"",""time""
""fullscreenenter"",""1"",""8864""
","
","
","""event"",""trial"",""time""
""fullscreenenter"",""1"",""8864""
","
","","","531.4000000059605","","","13","9645","2224","s","elianto","#3366ff99"," "," ","1","0","[1383]","1","2","","","9645","81","4","1","win","go","1"
"pit-trial","207","1421187","0.0-86.0","battery-v0.2","","""event"",""trial"",""time""
""fullscreenenter"",""1"",""8864""
","
","
","""event"",""trial"",""time""
""fullscreenenter"",""1"",""8864""
","
","","","1171.199999988079","","","13","9645","2224","p","elianto","#3366ff99","-1"," ","0","0","[2021.800000011921]","1","2","","","9645","82","5","2","win","no-go","0"
"pit-trial","208","1426040","0.0-87.0","battery-v0.2","","""event"",""trial"",""time""
""fullscreenenter"",""1"",""8864""
","
","
","""event"",""trial"",""time""
""fullscreenenter"",""1"",""8864""
","
","","","-1","","","13","9645","2224","a","elianto","#f73b6a7A","-1","-1","1","0","[]","0","2","","","9645","83","7","4","lose","no-go","0"
"pit-trial","209","1430893","0.0-88.0","battery-v0.2","","""event"",""trial"",""time""
""fullscreenenter"",""1"",""8864""
","
","
","""event"",""trial"",""time""
""fullscreenenter"",""1"",""8864""
","
","","","-1","","","13","9645","2224","w","elianto","#f73b6a7A","-1","-1","1","0","[]","0","2","","","9645","84","3","4","lose","no-go","0"
"pit-trial","210","1435746","0.0-89.0","battery-v0.2","","""event"",""trial"",""time""
""fullscreenenter"",""1"",""8864""
","
","
","""event"",""trial"",""time""
""fullscreenenter"",""1"",""8864""
","
","","","-1","","","13","9645","2224","g","elianto","#f73b6a7A"," ","-1","0","0","[]","0","2","","","9645","85","6","3","lose","go","1"
"pit-trial","211","1439332","0.0-90.0","battery-v0.2","","""event"",""trial"",""time""
""fullscreenenter"",""1"",""8864""
","
","
","""event"",""trial"",""time""
""fullscreenenter"",""1"",""8864""
","
","","","732.0999999940395","","","13","9645","2224","p","elianto","#3366ff99","-1"," ","0","0","[1583.3999999761581]","1","2","","","9645","86","5","2","win","no-go","0"
"pit-trial","212","1444185","0.0-91.0","battery-v0.2","","""event"",""trial"",""time""
""fullscreenenter"",""1"",""8864""
","
","
","""event"",""trial"",""time""
""fullscreenenter"",""1"",""8864""
","
","","","-1","","","13","9645","2224","a","elianto","#f73b6a7A","-1","-1","1","0","[]","0","2","","","9645","87","7","4","lose","no-go","0"
"pit-trial","213","1447594","0.0-92.0","battery-v0.2","","""event"",""trial"",""time""
""fullscreenenter"",""1"",""8864""
","
","
","""event"",""trial"",""time""
""fullscreenenter"",""1"",""8864""
","
","","","557.9000000059605","","","13","9645","2224","s","elianto","#3366ff99"," "," ","1","+10","[1408]","1","2","","","9645","88","4","1","win","go","0"
"pit-trial","214","1452447","0.0-93.0","battery-v0.2","","""event"",""trial"",""time""
""fullscreenenter"",""1"",""8864""
","
","
","""event"",""trial"",""time""
""fullscreenenter"",""1"",""8864""
","
","","","-1","","","13","9645","2224","g","elianto","#f73b6a7A"," ","-1","0","-10","[]","0","2","","","9645","89","6","3","lose","go","0"
"pit-trial","215","1455979","0.0-94.0","battery-v0.2","","""event"",""trial"",""time""
""fullscreenenter"",""1"",""8864""
","
","
","""event"",""trial"",""time""
""fullscreenenter"",""1"",""8864""
","
","","","679.1000000238419","","","13","9645","2224","p","elianto","#3366ff99","-1"," ","0","0","[1529.9000000059605]","1","2","","","9645","90","5","2","win","no-go","0"
"pit-trial","216","1460833","0.0-95.0","battery-v0.2","","""event"",""trial"",""time""
""fullscreenenter"",""1"",""8864""
","
","
","""event"",""trial"",""time""
""fullscreenenter"",""1"",""8864""
","
","","","-1","","","13","9645","2224","a","elianto","#f73b6a7A","-1","-1","1","0","[]","0","2","","","9645","91","7","4","lose","no-go","0"
"pit-trial","217","1464187","0.0-96.0","battery-v0.2","","""event"",""trial"",""time""
""fullscreenenter"",""1"",""8864""
","
","
","""event"",""trial"",""time""
""fullscreenenter"",""1"",""8864""
","
","","","501.7000000178814","","","13","9645","2224","s","elianto","#3366ff99"," "," ","1","+10","[1351.8999999761581]","1","2","","","9645","92","4","1","win","go","0"
"pit-trial","218","1469047","0.0-97.0","battery-v0.2","","""event"",""trial"",""time""
""fullscreenenter"",""1"",""8864""
","
","
","""event"",""trial"",""time""
""fullscreenenter"",""1"",""8864""
","
","","","-1","","","13","9645","2224","a","elianto","#f73b6a7A","-1","-1","1","0","[]","0","2","","","9645","93","7","4","lose","no-go","0"
"pit-trial","219","1472427","0.0-98.0","battery-v0.2","","""event"",""trial"",""time""
""fullscreenenter"",""1"",""8864""
","
","
","""event"",""trial"",""time""
""fullscreenenter"",""1"",""8864""
","
","","","526.5","","","13","9645","2224","l","elianto","#3366ff99"," "," ","1","+10","[1377.5]","1","2","","","9645","94","8","1","win","go","0"
"pit-trial","220","1475875","0.0-99.0","battery-v0.2","","""event"",""trial"",""time""
""fullscreenenter"",""1"",""8864""
","
","
","""event"",""trial"",""time""
""fullscreenenter"",""1"",""8864""
","
","","","595.3000000119209","","","13","9645","2224","p","elianto","#3366ff99","-1"," ","0","0","[1445.7000000178814]","1","2","","","9645","95","5","2","win","no-go","0"
"pit-trial","221","1480728","0.0-100.0","battery-v0.2","","""event"",""trial"",""time""
""fullscreenenter"",""1"",""8864""
","
","
","""event"",""trial"",""time""
""fullscreenenter"",""1"",""8864""
","
","","","-1","","","13","9645","2224","g","elianto","#f73b6a7A"," ","-1","0","-10","[]","0","2","","","9645","96","6","3","lose","go","0"
"pit-trial","222","1484067","0.0-101.0","battery-v0.2","","""event"",""trial"",""time""
""fullscreenenter"",""1"",""8864""
","
","
","""event"",""trial"",""time""
""fullscreenenter"",""1"",""8864""
","
","","","486.2999999821186","","","13","9645","2224","l","elianto","#3366ff99"," "," ","1","+10","[1336.699999988079]","1","2","","","9645","97","8","1","win","go","0"
"pit-trial","223","1487586","0.0-102.0","battery-v0.2","","""event"",""trial"",""time""
""fullscreenenter"",""1"",""8864""
","
","
","""event"",""trial"",""time""
""fullscreenenter"",""1"",""8864""
","
","","","667.1999999880791","","","13","9645","2224","p","elianto","#3366ff99","-1"," ","0","0","[1517.7999999821186]","1","2","","","9645","98","5","2","win","no-go","0"
"pit-trial","224","1492440","0.0-103.0","battery-v0.2","","""event"",""trial"",""time""
""fullscreenenter"",""1"",""8864""
","
","
","""event"",""trial"",""time""
""fullscreenenter"",""1"",""8864""
","
","","","-1","","","13","9645","2224","a","elianto","#f73b6a7A","-1","-1","1","0","[]","0","2","","","9645","99","7","4","lose","no-go","0"
"pit-trial","225","1497293","0.0-104.0","battery-v0.2","","""event"",""trial"",""time""
""fullscreenenter"",""1"",""8864""
","
","
","""event"",""trial"",""time""
""fullscreenenter"",""1"",""8864""
","
","","","-1","","","13","9645","2224","g","elianto","#f73b6a7A"," ","-1","0","-10","[]","0","2","","","9645","100","6","3","lose","go","0"
"pit-trial","226","1500643","0.0-105.0","battery-v0.2","","""event"",""trial"",""time""
""fullscreenenter"",""1"",""8864""
","
","
","""event"",""trial"",""time""
""fullscreenenter"",""1"",""8864""
","
","","","497.59999999403954","","","13","9645","2224","l","elianto","#3366ff99"," "," ","1","+10","[1347.7999999821186]","1","2","","","9645","101","8","1","win","go","0"
"pit-trial","227","1505495","0.0-106.0","battery-v0.2","","""event"",""trial"",""time""
""fullscreenenter"",""1"",""8864""
","
","
","""event"",""trial"",""time""
""fullscreenenter"",""1"",""8864""
","
","","","-1","","","13","9645","2224","a","elianto","#f73b6a7A","-1","-1","1","0","[]","0","2","","","9645","102","7","4","lose","no-go","0"
"pit-trial","228","1508803","0.0-107.0","battery-v0.2","","""event"",""trial"",""time""
""fullscreenenter"",""1"",""8864""
","
","
","""event"",""trial"",""time""
""fullscreenenter"",""1"",""8864""
","
","","","454.2000000178814","","","13","9645","2224","u","elianto","#3366ff99"," "," ","1","+10","[1305]","1","2","","","9645","103","9","1","win","go","0"
"pit-trial","229","1512282","0.0-108.0","battery-v0.2","","""event"",""trial"",""time""
""fullscreenenter"",""1"",""8864""
","
","
","""event"",""trial"",""time""
""fullscreenenter"",""1"",""8864""
","
","","","626.5","","","13","9645","2224","p","elianto","#3366ff99","-1"," ","0","0","[1476.699999988079]","1","2","","","9645","104","5","2","win","no-go","0"
"pit-trial","230","1515738","0.0-109.0","battery-v0.2","","""event"",""trial"",""time""
""fullscreenenter"",""1"",""8864""
","
","
","""event"",""trial"",""time""
""fullscreenenter"",""1"",""8864""
","
","","","603.5","","","13","9645","2224","u","elianto","#3366ff99"," "," ","1","+10","[1453.699999988079]","1","2","","","9645","105","9","1","win","go","0"
"pit-trial","231","1520250","0.0-110.0","battery-v0.2","","""event"",""trial"",""time""
""fullscreenenter"",""1"",""8864""
","
","
","""event"",""trial"",""time""
""fullscreenenter"",""1"",""8864""
","
","","","1659.699999988079","","","13","9645","2224","l","elianto","#3366ff99"," "," ","1","+10","[2510.4000000059605]","1","2","","","9645","106","8","1","win","go","0"
"pit-trial","232","1525103","0.0-111.0","battery-v0.2","","""event"",""trial"",""time""
""fullscreenenter"",""1"",""8864""
","
","
","""event"",""trial"",""time""
""fullscreenenter"",""1"",""8864""
","
","","","-1","","","13","9645","2224","g","elianto","#f73b6a7A"," ","-1","0","-10","[]","0","2","","","9645","107","6","3","lose","go","0"
"pit-trial","233","1528954","0.0-112.0","battery-v0.2","","""event"",""trial"",""time""
""fullscreenenter"",""1"",""8864""
","
","
","""event"",""trial"",""time""
""fullscreenenter"",""1"",""8864""
","
","","","999","","","13","9645","2224","s","elianto","#3366ff99"," "," ","1","+10","[1849.2000000178814]","1","2","","","9645","108","4","1","win","go","0"
"pit-trial","234","1533808","0.0-113.0","battery-v0.2","","""event"",""trial"",""time""
""fullscreenenter"",""1"",""8864""
","
","
","""event"",""trial"",""time""
""fullscreenenter"",""1"",""8864""
","
","","","-1","","","13","9645","2224","g","elianto","#f73b6a7A"," ","-1","0","-10","[]","0","2","","","9645","109","6","3","lose","go","0"
"pit-trial","235","1538660","0.0-114.0","battery-v0.2","","""event"",""trial"",""time""
""fullscreenenter"",""1"",""8864""
","
","
","""event"",""trial"",""time""
""fullscreenenter"",""1"",""8864""
","
","","","-1","","","13","9645","2224","p","elianto","#3366ff99","-1","-1","1","+10","[]","0","2","","","9645","110","5","2","win","no-go","0"
"pit-trial","236","1542274","0.0-115.0","battery-v0.2","","""event"",""trial"",""time""
""fullscreenenter"",""1"",""8864""
","
","
","""event"",""trial"",""time""
""fullscreenenter"",""1"",""8864""
","
","","","760.9000000059605","","","13","9645","2224","u","elianto","#3366ff99"," "," ","1","+10","[1611]","1","2","","","9645","111","9","1","win","go","0"
"pit-trial","237","1545994","0.0-116.0","battery-v0.2","","""event"",""trial"",""time""
""fullscreenenter"",""1"",""8864""
","
","
","""event"",""trial"",""time""
""fullscreenenter"",""1"",""8864""
","
","","","868.1000000238419","","","13","9645","2224","l","elianto","#3366ff99"," "," ","1","+10","[1718.7000000178814]","1","2","","","9645","112","8","1","win","go","0"
"pit-trial","238","1549346","0.0-117.0","battery-v0.2","","""event"",""trial"",""time""
""fullscreenenter"",""1"",""8864""
","
","
","""event"",""trial"",""time""
""fullscreenenter"",""1"",""8864""
","
","","","498.39999997615814","","","13","9645","2224","p","elianto","#3366ff99","-1"," ","0","0","[1349.5999999940395]","1","2","","","9645","113","5","2","win","no-go","0"
"pit-trial","239","1552738","0.0-118.0","battery-v0.2","","""event"",""trial"",""time""
""fullscreenenter"",""1"",""8864""
","
","
","""event"",""trial"",""time""
""fullscreenenter"",""1"",""8864""
","
","","","539.5","","","13","9645","2224","u","elianto","#3366ff99"," "," ","1","0","[1390.9000000059605]","1","2","","","9645","114","9","1","win","go","1"
"pit-trial","240","1556154","0.0-119.0","battery-v0.2","","""event"",""trial"",""time""
""fullscreenenter"",""1"",""8864""
","
","
","""event"",""trial"",""time""
""fullscreenenter"",""1"",""8864""
","
","","","563.4000000059605","","","13","9645","2224","l","elianto","#3366ff99"," "," ","1","+10","[1413.800000011921]","1","2","","","9645","115","8","1","win","go","0"
"pit-trial","241","1561007","0.0-120.0","battery-v0.2","","""event"",""trial"",""time""
""fullscreenenter"",""1"",""8864""
","
","
","""event"",""trial"",""time""
""fullscreenenter"",""1"",""8864""
","
","","","-1","","","13","9645","2224","g","elianto","#f73b6a7A"," ","-1","0","-10","[]","0","2","","","9645","116","6","3","lose","go","0"
"pit-trial","242","1564491","0.0-121.0","battery-v0.2","","""event"",""trial"",""time""
""fullscreenenter"",""1"",""8864""
","
","
","""event"",""trial"",""time""
""fullscreenenter"",""1"",""8864""
","
","","","630.0999999940395","","","13","9645","2224","p","elianto","#3366ff99","-1"," ","0","+10","[1481.5]","1","2","","","9645","117","5","2","win","no-go","1"
"pit-trial","243","1569345","0.0-122.0","battery-v0.2","","""event"",""trial"",""time""
""fullscreenenter"",""1"",""8864""
","
","
","""event"",""trial"",""time""
""fullscreenenter"",""1"",""8864""
","
","","","-1","","","13","9645","2224","g","elianto","#f73b6a7A"," ","-1","0","-10","[]","0","2","","","9645","118","6","3","lose","go","0"
"pit-trial","244","1572762","0.0-123.0","battery-v0.2","","""event"",""trial"",""time""
""fullscreenenter"",""1"",""8864""
","
","
","""event"",""trial"",""time""
""fullscreenenter"",""1"",""8864""
","
","","","564.8000000119209","","","13","9645","2224","l","elianto","#3366ff99"," "," ","1","+10","[1415.5]","1","2","","","9645","119","8","1","win","go","0"
"pit-trial","245","1577616","0.0-124.0","battery-v0.2","","""event"",""trial"",""time""
""fullscreenenter"",""1"",""8864""
","
","
","""event"",""trial"",""time""
""fullscreenenter"",""1"",""8864""
","
","","","-1","","","13","9645","2224","u","elianto","#3366ff99"," ","-1","0","0","[]","0","2","","","9645","120","9","1","win","go","0"
"pit-trial","246","1581115","0.0-125.0","battery-v0.2","","""event"",""trial"",""time""
""fullscreenenter"",""1"",""8864""
","
","
","""event"",""trial"",""time""
""fullscreenenter"",""1"",""8864""
","
","","","646.8000000119209","","","13","9645","2224","l","elianto","#3366ff99"," "," ","1","+10","[1497]","1","2","","","9645","121","8","1","win","go","0"
"pit-trial","247","1584914","0.0-126.0","battery-v0.2","","""event"",""trial"",""time""
""fullscreenenter"",""1"",""8864""
","
","
","""event"",""trial"",""time""
""fullscreenenter"",""1"",""8864""
","
","","","946.9000000059605","","","13","9645","2224","u","elianto","#3366ff99"," "," ","1","+10","[1797.0999999940395]","1","2","","","9645","122","9","1","win","go","0"
"pit-trial","248","1589767","0.0-127.0","battery-v0.2","","""event"",""trial"",""time""
""fullscreenenter"",""1"",""8864""
","
","
","""event"",""trial"",""time""
""fullscreenenter"",""1"",""8864""
","
","","","-1","","","13","9645","2224","a","elianto","#f73b6a7A","-1","-1","1","-10","[]","0","2","","","9645","123","7","4","lose","no-go","1"
"pit-trial","249","1594621","0.0-128.0","battery-v0.2","","""event"",""trial"",""time""
""fullscreenenter"",""1"",""8864""
","
","
","""event"",""trial"",""time""
""fullscreenenter"",""1"",""8864""
","
","","","-1","","","13","9645","2224","g","elianto","#f73b6a7A"," ","-1","0","-10","[]","0","2","","","9645","124","6","3","lose","go","0"
"pit-trial","250","1598546","0.0-129.0","battery-v0.2","","""event"",""trial"",""time""
""fullscreenenter"",""1"",""8864""
","
","
","""event"",""trial"",""time""
""fullscreenenter"",""1"",""8864""
","
","","","1073.199999988079","","","13","9645","2224","u","elianto","#3366ff99"," "," ","1","+10","[1924]","1","2","","","9645","125","9","1","win","go","0"
"pit-trial","251","1603412","0.0-130.0","battery-v0.2","","""event"",""trial"",""time""
""fullscreenenter"",""1"",""8864""
","
","
","""event"",""trial"",""time""
""fullscreenenter"",""1"",""8864""
","
","","","-1","","","13","9645","2224","g","elianto","#f73b6a7A"," ","-1","0","0","[]","0","2","","","9645","126","6","3","lose","go","1"
"pit-trial","252","1606785","0.0-131.0","battery-v0.2","","""event"",""trial"",""time""
""fullscreenenter"",""1"",""8864""
","
","
","""event"",""trial"",""time""
""fullscreenenter"",""1"",""8864""
","
","","","520.5999999940395","","","13","9645","2224","l","elianto","#3366ff99"," "," ","1","+10","[1371.4000000059605]","1","2","","","9645","127","8","1","win","go","0"
"pit-trial","253","1611638","0.0-132.0","battery-v0.2","","""event"",""trial"",""time""
""fullscreenenter"",""1"",""8864""
","
","
","""event"",""trial"",""time""
""fullscreenenter"",""1"",""8864""
","
","","","-1","","","13","9645","2224","a","elianto","#f73b6a7A","-1","-1","1","0","[]","0","2","","","9645","128","7","4","lose","no-go","0"
"pit-trial","254","1616503","0.0-133.0","battery-v0.2","","""event"",""trial"",""time""
""fullscreenenter"",""1"",""8864""
","
","
","""event"",""trial"",""time""
""fullscreenenter"",""1"",""8864""
","
","","","-1","","","13","9645","2224","a","elianto","#f73b6a7A","-1","-1","1","0","[]","0","2","","","9645","129","7","4","lose","no-go","0"
"pit-trial","255","1620178","0.0-134.0","battery-v0.2","","""event"",""trial"",""time""
""fullscreenenter"",""1"",""8864""
","
","
","""event"",""trial"",""time""
""fullscreenenter"",""1"",""8864""
","
","","","822.6000000238419","","","13","9645","2224","l","elianto","#3366ff99"," "," ","1","+10","[1673.0999999940395]","1","2","","","9645","130","8","1","win","go","0"
"pit-trial","256","1623730","0.0-135.0","battery-v0.2","","""event"",""trial"",""time""
""fullscreenenter"",""1"",""8864""
","
","
","""event"",""trial"",""time""
""fullscreenenter"",""1"",""8864""
","
","","","699","","","13","9645","2224","u","elianto","#3366ff99"," "," ","1","+10","[1549.5]","1","2","","","9645","131","9","1","win","go","0"
"pit-trial","257","1626825","0.0-136.0","battery-v0.2","","""event"",""trial"",""time""
""fullscreenenter"",""1"",""8864""
","
","
","""event"",""trial"",""time""
""fullscreenenter"",""1"",""8864""
","
","","","237.40000000596046","","","13","9645","2224","g","elianto","#f73b6a7A"," "," ","1","0","[1093.4000000059605]","1","2","","","9645","132","6","3","lose","go","0"
"pit-trial","258","1630578","0.0-137.0","battery-v0.2","","""event"",""trial"",""time""
""fullscreenenter"",""1"",""8864""
","
","
","""event"",""trial"",""time""
""fullscreenenter"",""1"",""8864""
","
","","","900.2999999821186","","","13","9645","2224","l","elianto","#3366ff99"," "," ","1","+10","[1750.5]","1","2","","","9645","133","8","1","win","go","0"
"pit-trial","259","1634257","0.0-138.0","battery-v0.2","","""event"",""trial"",""time""
""fullscreenenter"",""1"",""8864""
","
","
","""event"",""trial"",""time""
""fullscreenenter"",""1"",""8864""
","
","","","825.8000000119209","","","13","9645","2224","u","elianto","#3366ff99"," "," ","1","+10","[1677.4000000059605]","1","2","","","9645","134","9","1","win","go","0"
"pit-trial","260","1639110","0.0-139.0","battery-v0.2","","""event"",""trial"",""time""
""fullscreenenter"",""1"",""8864""
","
","
","""event"",""trial"",""time""
""fullscreenenter"",""1"",""8864""
","
","","","-1","","","13","9645","2224","g","elianto","#f73b6a7A"," ","-1","0","-10","[]","0","2","","","9645","135","6","3","lose","go","0"
"pit-trial","261","1643963","0.0-140.0","battery-v0.2","","""event"",""trial"",""time""
""fullscreenenter"",""1"",""8864""
","
","
","""event"",""trial"",""time""
""fullscreenenter"",""1"",""8864""
","
","","","-1","","","13","9645","2224","a","elianto","#f73b6a7A","-1","-1","1","0","[]","0","2","","","9645","136","7","4","lose","no-go","0"
"pit-trial","262","1648816","0.0-141.0","battery-v0.2","","""event"",""trial"",""time""
""fullscreenenter"",""1"",""8864""
","
","
","""event"",""trial"",""time""
""fullscreenenter"",""1"",""8864""
","
","","","-1","","","13","9645","2224","g","elianto","#f73b6a7A"," ","-1","0","-10","[3652.4000000059605]","1","2","","","9645","137","6","3","lose","go","0"
"pit-trial","263","1653669","0.0-142.0","battery-v0.2","","""event"",""trial"",""time""
""fullscreenenter"",""1"",""8864""
","
","
","""event"",""trial"",""time""
""fullscreenenter"",""1"",""8864""
","
","","","-1","","","13","9645","2224","a","elianto","#f73b6a7A","-1","-1","1","-10","[3439.100000023842]","1","2","","","9645","138","7","4","lose","no-go","1"
"pit-trial","264","1657185","0.0-143.0","battery-v0.2","","""event"",""trial"",""time""
""fullscreenenter"",""1"",""8864""
","
","
","""event"",""trial"",""time""
""fullscreenenter"",""1"",""8864""
","
","","","662.9000000059605","","","13","9645","2224","l","elianto","#3366ff99"," "," ","1","0","[1514.0999999940395]","1","2","","","9645","139","8","1","win","go","1"
"pit-trial","265","1660913","0.0-144.0","battery-v0.2","","""event"",""trial"",""time""
""fullscreenenter"",""1"",""8864""
","
","
","""event"",""trial"",""time""
""fullscreenenter"",""1"",""8864""
","
","","","875.5","","","13","9645","2224","u","elianto","#3366ff99"," "," ","1","0","[1725.7000000178814]","1","2","","","9645","140","9","1","win","go","1"
"pit-instructions","266","1693091","0.0-145.0","battery-v0.2","","""event"",""trial"",""time""
""fullscreenenter"",""1"",""8864""
","
","
","""event"",""trial"",""time""
""fullscreenenter"",""1"",""8864""
","
","","[{""page_index"":0,""viewing_time"":23168.59999999404},{""page_index"":1,""viewing_time"":9008}]","32176.899999976158","","","","","","","","","","","","","","","","","","","","","","","",""
"pit-trial","267","1697961","0.0-146.0","battery-v0.2","","""event"",""trial"",""time""
""fullscreenenter"",""1"",""8864""
","
","
","""event"",""trial"",""time""
""fullscreenenter"",""1"",""8864""
","
","","","-1","","","13","9645","2224","n","elianto","#f73b6a7A","-1","-1","1","0","[]","0","3","","","9645","141","0","4","lose","no-go","0"
"pit-trial","268","1702819","0.0-147.0","battery-v0.2","","""event"",""trial"",""time""
""fullscreenenter"",""1"",""8864""
","
","
","""event"",""trial"",""time""
""fullscreenenter"",""1"",""8864""
","
","","","-1","","","13","9645","2224","t","elianto","#f73b6a7A","-1","-1","1","0","[]","0","3","","","9645","142","2","4","lose","no-go","0"
"pit-trial","269","1706545","0.0-148.0","battery-v0.2","","""event"",""trial"",""time""
""fullscreenenter"",""1"",""8864""
","
","
","""event"",""trial"",""time""
""fullscreenenter"",""1"",""8864""
","
