"trial_type","trial_index","time_elapsed","internal_node_id","task_version","subject_id","interactions","blur_events","focus_events","fullscreenenter_events","fullscreenexit_events","success","view_history","rt","responses","num_errors","age","subject","participantId","rune","rune_set","hex","correct","choice","accuracy","outcome","keys","total_keys","block","practice","value","sub","trial","stimulus","robot","valence","action","sham"
"pavlovia","0","17","0.0-0.0","battery-v0.2","","""event"",""trial"",""time""
""focus"",""0"",""1""
""fullscreenenter"",""1"",""3427""
","
","""event"",""trial"",""time""
""focus"",""0"",""1""
","""event"",""trial"",""time""
""fullscreenenter"",""1"",""3427""
","
","","","","","","","","","","","","","","","","","","","","","","","","","","",""
"fullscreen","1","4381","0.0-1.0","battery-v0.2","","""event"",""trial"",""time""
""focus"",""0"",""1""
""fullscreenenter"",""1"",""3427""
","
","""event"",""trial"",""time""
""focus"",""0"",""1""
","""event"",""trial"",""time""
""fullscreenenter"",""1"",""3427""
","
","true","","","","","","","","","","","","","","","","","","","","","","","","","",""
"pit-instructions","2","22014","0.0-2.0-0.0","battery-v0.2","","""event"",""trial"",""time""
""focus"",""0"",""1""
""fullscreenenter"",""1"",""3427""
","
","""event"",""trial"",""time""
""focus"",""0"",""1""
","""event"",""trial"",""time""
""fullscreenenter"",""1"",""3427""
","
","","[{""page_index"":0,""viewing_time"":17630}]","17630","","","","","","","","","","","","","","","","","","","","","","","",""
"pit-comprehension","3","27106","0.0-2.0-1.0-0.0","battery-v0.2","","""event"",""trial"",""time""
""focus"",""0"",""1""
""fullscreenenter"",""1"",""3427""
","
","""event"",""trial"",""time""
""focus"",""0"",""1""
","""event"",""trial"",""time""
""fullscreenenter"",""1"",""3427""
","
","","","5087","[""shark""]","0","13","14661","6045","","","","","","","","","","","","","","","","","","",""
"pit-instructions","4","34263","0.0-2.0-1.0-1.0","battery-v0.2","","""event"",""trial"",""time""
""focus"",""0"",""1""
""fullscreenenter"",""1"",""3427""
","
","""event"",""trial"",""time""
""focus"",""0"",""1""
","""event"",""trial"",""time""
""fullscreenenter"",""1"",""3427""
","
","","[{""page_index"":0,""viewing_time"":7149}]","7149","","","","","","","","","","","","","","","","","","","","","","","",""
"pit-comprehension","5","37876","0.0-2.0-2.0-0.0","battery-v0.2","","""event"",""trial"",""time""
""focus"",""0"",""1""
""fullscreenenter"",""1"",""3427""
","
","""event"",""trial"",""time""
""focus"",""0"",""1""
","""event"",""trial"",""time""
""fullscreenenter"",""1"",""3427""
","
","","","3608","[""tiger""]","0","13","14661","6045","","","","","","","","","","","","","","","","","","",""
"pit-instructions","6","40016","0.0-2.0-2.0-1.0","battery-v0.2","","""event"",""trial"",""time""
""focus"",""0"",""1""
""fullscreenenter"",""1"",""3427""
","
","""event"",""trial"",""time""
""focus"",""0"",""1""
","""event"",""trial"",""time""
""fullscreenenter"",""1"",""3427""
","
","","[{""page_index"":0,""viewing_time"":2137}]","2137","","","","","","","","","","","","","","","","","","","","","","","",""
"pit-instructions","7","148195","0.0-2.0-3.0","battery-v0.2","","""event"",""trial"",""time""
""focus"",""0"",""1""
""fullscreenenter"",""1"",""3427""
","
","""event"",""trial"",""time""
""focus"",""0"",""1""
","""event"",""trial"",""time""
""fullscreenenter"",""1"",""3427""
","
","","[{""page_index"":0,""viewing_time"":11213},{""page_index"":1,""viewing_time"":7141},{""page_index"":2,""viewing_time"":6619},{""page_index"":3,""viewing_time"":5121},{""page_index"":4,""viewing_time"":5991},{""page_index"":5,""viewing_time"":5711},{""page_index"":6,""viewing_time"":7152},{""page_index"":7,""viewing_time"":8655},{""page_index"":8,""viewing_time"":9226},{""page_index"":9,""viewing_time"":10704},{""page_index"":10,""viewing_time"":9963},{""page_index"":11,""viewing_time"":7914},{""page_index"":12,""viewing_time"":7499},{""page_index"":13,""viewing_time"":5267}]","108176","","","","","","","","","","","","","","","","","","","","","","","",""
"pit-trial","8","151335","0.0-2.0-4.0-0.0","battery-v0.2","","""event"",""trial"",""time""
""focus"",""0"",""1""
""fullscreenenter"",""1"",""3427""
","
","""event"",""trial"",""time""
""focus"",""0"",""1""
","""event"",""trial"",""time""
""fullscreenenter"",""1"",""3427""
","
","","","275","","","13","14661","6045","&#9784;","elianto","#FFFFF080"," "," ","1","&#10004","[1132]","1","0","0","","","","","","","",""
"pit-trial","9","154423","0.0-2.0-4.1-0.1","battery-v0.2","","""event"",""trial"",""time""
""focus"",""0"",""1""
""fullscreenenter"",""1"",""3427""
","
","""event"",""trial"",""time""
""focus"",""0"",""1""
","""event"",""trial"",""time""
""fullscreenenter"",""1"",""3427""
","
","","","219","","","13","14661","6045","&#9784;","elianto","#FFFFF080"," "," ","1","&#10004","[1083,3054]","2","0","0","","","","","","","",""
"pit-trial","10","157575","0.0-2.0-4.2-0.2","battery-v0.2","","""event"",""trial"",""time""
""focus"",""0"",""1""
""fullscreenenter"",""1"",""3427""
","
","""event"",""trial"",""time""
""focus"",""0"",""1""
","""event"",""trial"",""time""
""fullscreenenter"",""1"",""3427""
","
","","","297","","","13","14661","6045","&#9784;","elianto","#FFFFF080"," "," ","1","&#10004","[1149]","1","0","0","","","","","","","",""
"pit-trial","11","161046","0.0-2.0-4.3-0.3","battery-v0.2","","""event"",""trial"",""time""
""focus"",""0"",""1""
""fullscreenenter"",""1"",""3427""
","
","""event"",""trial"",""time""
""focus"",""0"",""1""
","""event"",""trial"",""time""
""fullscreenenter"",""1"",""3427""
","
","","","610","","","13","14661","6045","&#9784;","elianto","#FFFFF080"," "," ","1","&#10004","[314,1464]","2","0","0","","","","","","","",""
"pit-trial","12","164727","0.0-2.0-4.4-0.4","battery-v0.2","","""event"",""trial"",""time""
""focus"",""0"",""1""
""fullscreenenter"",""1"",""3427""
","
","""event"",""trial"",""time""
""focus"",""0"",""1""
","""event"",""trial"",""time""
""fullscreenenter"",""1"",""3427""
","
","","","822","","","13","14661","6045","&#9784;","elianto","#FFFFF080"," "," ","1","&#10004","[403,1675]","2","0","0","","","","","","","",""
"pit-instructions","13","190294","0.0-2.0-5.0","battery-v0.2","","""event"",""trial"",""time""
""focus"",""0"",""1""
""fullscreenenter"",""1"",""3427""
","
","""event"",""trial"",""time""
""focus"",""0"",""1""
","""event"",""trial"",""time""
""fullscreenenter"",""1"",""3427""
","
","","[{""page_index"":0,""viewing_time"":5973},{""page_index"":1,""viewing_time"":7808},{""page_index"":2,""viewing_time"":5394},{""page_index"":3,""viewing_time"":6389}]","25564","","","","","","","","","","","","","","","","","","","","","","","",""
"pit-trial","14","195156","0.0-2.0-6.0-0.0","battery-v0.2","","""event"",""trial"",""time""
""focus"",""0"",""1""
""fullscreenenter"",""1"",""3427""
","
","""event"",""trial"",""time""
""focus"",""0"",""1""
","""event"",""trial"",""time""
""fullscreenenter"",""1"",""3427""
","
","","","-1","","","13","14661","6045","&#9854;","elianto","#FFFFF080","-1","-1","1","&#10004","[]","0","0","1","","","","","","","",""
"pit-trial","15","200016","0.0-2.0-6.1-0.1","battery-v0.2","","""event"",""trial"",""time""
""focus"",""0"",""1""
""fullscreenenter"",""1"",""3427""
","
","""event"",""trial"",""time""
""focus"",""0"",""1""
","""event"",""trial"",""time""
""fullscreenenter"",""1"",""3427""
","
","","","-1","","","13","14661","6045","&#9854;","elianto","#FFFFF080","-1","-1","1","&#10004","[]","0","0","1","","","","","","","",""
"pit-trial","16","204875","0.0-2.0-6.2-0.2","battery-v0.2","","""event"",""trial"",""time""
""focus"",""0"",""1""
""fullscreenenter"",""1"",""3427""
","
","""event"",""trial"",""time""
""focus"",""0"",""1""
","""event"",""trial"",""time""
""fullscreenenter"",""1"",""3427""
","
","","","-1","","","13","14661","6045","&#9854;","elianto","#FFFFF080","-1","-1","1","&#10004","[]","0","0","1","","","","","","","",""
"pit-trial","17","209733","0.0-2.0-6.3-0.3","battery-v0.2","","""event"",""trial"",""time""
""focus"",""0"",""1""
""fullscreenenter"",""1"",""3427""
","
","""event"",""trial"",""time""
""focus"",""0"",""1""
","""event"",""trial"",""time""
""fullscreenenter"",""1"",""3427""
","
","","","-1","","","13","14661","6045","&#9854;","elianto","#FFFFF080","-1","-1","1","&#10004","[]","0","0","1","","","","","","","",""
"pit-trial","18","214592","0.0-2.0-6.4-0.4","battery-v0.2","","""event"",""trial"",""time""
""focus"",""0"",""1""
""fullscreenenter"",""1"",""3427""
","
","""event"",""trial"",""time""
""focus"",""0"",""1""
","""event"",""trial"",""time""
""fullscreenenter"",""1"",""3427""
","
","","","-1","","","13","14661","6045","&#9854;","elianto","#FFFFF080","-1","-1","1","&#10004","[]","0","0","1","","","","","","","",""
"pit-instructions","19","366138","0.0-2.0-7.0","battery-v0.2","","""event"",""trial"",""time""
""focus"",""0"",""1""
""fullscreenenter"",""1"",""3427""
","
","""event"",""trial"",""time""
""focus"",""0"",""1""
","""event"",""trial"",""time""
""fullscreenenter"",""1"",""3427""
","
","","[{""page_index"":0,""viewing_time"":7147},{""page_index"":1,""viewing_time"":6781},{""page_index"":2,""viewing_time"":8950},{""page_index"":3,""viewing_time"":6949},{""page_index"":4,""viewing_time"":5488},{""page_index"":5,""viewing_time"":6263},{""page_index"":6,""viewing_time"":6009},{""page_index"":7,""viewing_time"":8637},{""page_index"":8,""viewing_time"":10097},{""page_index"":9,""viewing_time"":8993},{""page_index"":10,""viewing_time"":7433},{""page_index"":11,""viewing_time"":8652},{""page_index"":12,""viewing_time"":8224},{""page_index"":13,""viewing_time"":8092},{""page_index"":14,""viewing_time"":10547},{""page_index"":15,""viewing_time"":12215},{""page_index"":16,""viewing_time"":11529},{""page_index"":17,""viewing_time"":9534}]","151540","","","","","","","","","","","","","","","","","","","","","","","",""
"pit-trial","20","369285","0.0-2.0-8.0-0.0","battery-v0.2","","""event"",""trial"",""time""
""focus"",""0"",""1""
""fullscreenenter"",""1"",""3427""
","
","""event"",""trial"",""time""
""focus"",""0"",""1""
","""event"",""trial"",""time""
""fullscreenenter"",""1"",""3427""
","
","","","289","","","13","14661","6045","&#9776;","elianto","#3366ff99"," "," ","1","+10","[1141]","1","0","1","","","","","","","",""
"pit-trial","21","372429","0.0-2.0-8.0-1.0","battery-v0.2","","""event"",""trial"",""time""
""focus"",""0"",""1""
""fullscreenenter"",""1"",""3427""
","
","""event"",""trial"",""time""
""focus"",""0"",""1""
","""event"",""trial"",""time""
""fullscreenenter"",""1"",""3427""
","
","","","289","","","13","14661","6045","&#9776;","elianto","#3366ff99"," "," ","1","+10","[1142]","1","0","1","","","","","","","",""
"pit-trial","22","375378","0.0-2.0-8.0-2.0","battery-v0.2","","""event"",""trial"",""time""
""focus"",""0"",""1""
""fullscreenenter"",""1"",""3427""
","
","""event"",""trial"",""time""
""focus"",""0"",""1""
","""event"",""trial"",""time""
""fullscreenenter"",""1"",""3427""
","
","","","92","","","13","14661","6045","&#9776;","elianto","#3366ff99"," "," ","1","+10","[946]","1","0","1","","","","","","","",""
"pit-trial","23","380235","0.0-2.0-8.0-3.0","battery-v0.2","","""event"",""trial"",""time""
""focus"",""0"",""1""
""fullscreenenter"",""1"",""3427""
","
","""event"",""trial"",""time""
""focus"",""0"",""1""
","""event"",""trial"",""time""
""fullscreenenter"",""1"",""3427""
","
","","","-1","","","13","14661","6045","&#9776;","elianto","#3366ff99"," ","-1","0","+10","[868]","1","0","1","","","","","","","",""
"pit-trial","24","384515","0.0-2.0-8.0-4.0","battery-v0.2","","""event"",""trial"",""time""
""focus"",""0"",""1""
""fullscreenenter"",""1"",""3427""
","
","""event"",""trial"",""time""
""focus"",""0"",""1""
","""event"",""trial"",""time""
""fullscreenenter"",""1"",""3427""
","
","","","1419","","","13","14661","6045","&#9776;","elianto","#3366ff99"," "," ","1","+10","[2276]","1","0","1","","","","","","","",""
"pit-trial","25","388300","0.0-2.0-8.1-0.1","battery-v0.2","","""event"",""trial"",""time""
""focus"",""0"",""1""
""fullscreenenter"",""1"",""3427""
","
","""event"",""trial"",""time""
""focus"",""0"",""1""
","""event"",""trial"",""time""
""fullscreenenter"",""1"",""3427""
","
","","","688","","","13","14661","6045","&#9776;","elianto","#3366ff99"," "," ","1","+10","[1539]","1","0","1","","","","","","","",""
"pit-trial","26","391408","0.0-2.0-8.1-1.1","battery-v0.2","","""event"",""trial"",""time""
""focus"",""0"",""1""
""fullscreenenter"",""1"",""3427""
","
","""event"",""trial"",""time""
""focus"",""0"",""1""
","""event"",""trial"",""time""
""fullscreenenter"",""1"",""3427""
","
","","","249","","","13","14661","6045","&#9776;","elianto","#3366ff99"," "," ","1","+10","[1102]","1","0","1","","","","","","","",""
"pit-trial","27","395987","0.0-2.0-8.1-2.1","battery-v0.2","","""event"",""trial"",""time""
""focus"",""0"",""1""
""fullscreenenter"",""1"",""3427""
","
","""event"",""trial"",""time""
""focus"",""0"",""1""
","""event"",""trial"",""time""
""fullscreenenter"",""1"",""3427""
","
","","","1723","","","13","14661","6045","&#9776;","elianto","#3366ff99"," "," ","1","+10","[817,2576]","2","0","1","","","","","","","",""
"pit-trial","28","399264","0.0-2.0-8.1-3.1","battery-v0.2","","""event"",""trial"",""time""
""focus"",""0"",""1""
""fullscreenenter"",""1"",""3427""
","
","""event"",""trial"",""time""
""focus"",""0"",""1""
","""event"",""trial"",""time""
""fullscreenenter"",""1"",""3427""
","
","","","419","","","13","14661","6045","&#9776;","elianto","#3366ff99"," "," ","1","0","[1274]","1","0","1","","","","","","","",""
"pit-trial","29","404119","0.0-2.0-8.1-4.1","battery-v0.2","","""event"",""trial"",""time""
""focus"",""0"",""1""
""fullscreenenter"",""1"",""3427""
","
","""event"",""trial"",""time""
""focus"",""0"",""1""
","""event"",""trial"",""time""
""fullscreenenter"",""1"",""3427""
","
","","","-1","","","13","14661","6045","&#9776;","elianto","#3366ff99"," ","-1","0","0","[]","0","0","1","","","","","","","",""
"pit-trial","30","407285","0.0-2.0-8.2-0.2","battery-v0.2","","""event"",""trial"",""time""
""focus"",""0"",""1""
""fullscreenenter"",""1"",""3427""
","
","""event"",""trial"",""time""
""focus"",""0"",""1""
","""event"",""trial"",""time""
""fullscreenenter"",""1"",""3427""
","
","","","310","","","13","14661","6045","&#9776;","elianto","#3366ff99"," "," ","1","+10","[1162]","1","0","1","","","","","","","",""
"pit-trial","31","410487","0.0-2.0-8.2-1.2","battery-v0.2","","""event"",""trial"",""time""
""focus"",""0"",""1""
""fullscreenenter"",""1"",""3427""
","
","""event"",""trial"",""time""
""focus"",""0"",""1""
","""event"",""trial"",""time""
""fullscreenenter"",""1"",""3427""
","
","","","152","","","13","14661","6045","&#9776;","elianto","#3366ff99"," "," ","1","+10","[1003]","1","0","1","","","","","","","",""
"pit-trial","32","413471","0.0-2.0-8.2-2.2","battery-v0.2","","""event"",""trial"",""time""
""focus"",""0"",""1""
""fullscreenenter"",""1"",""3427""
","
","""event"",""trial"",""time""
""focus"",""0"",""1""
","""event"",""trial"",""time""
""fullscreenenter"",""1"",""3427""
","
","","","127","","","13","14661","6045","&#9776;","elianto","#3366ff99"," "," ","1","+10","[981]","1","0","1","","","","","","","",""
"pit-trial","33","416524","0.0-2.0-8.2-3.2","battery-v0.2","","""event"",""trial"",""time""
""focus"",""0"",""1""
""fullscreenenter"",""1"",""3427""
","
","""event"",""trial"",""time""
""focus"",""0"",""1""
","""event"",""trial"",""time""
""fullscreenenter"",""1"",""3427""
","
","","","170","","","13","14661","6045","&#9776;","elianto","#3366ff99"," "," ","1","0","[1024]","1","0","1","","","","","","","",""
"pit-trial","34","420083","0.0-2.0-8.2-4.2","battery-v0.2","","""event"",""trial"",""time""
""focus"",""0"",""1""
""fullscreenenter"",""1"",""3427""
","
","""event"",""trial"",""time""
""focus"",""0"",""1""
","""event"",""trial"",""time""
""fullscreenenter"",""1"",""3427""
","
","","","700","","","13","14661","6045","&#9776;","elianto","#3366ff99"," "," ","1","+10","[1552]","1","0","1","","","","","","","",""
"call-function","35","420085","0.0-2.0-9.0","battery-v0.2","","""event"",""trial"",""time""
""focus"",""0"",""1""
""fullscreenenter"",""1"",""3427""
","
","""event"",""trial"",""time""
""focus"",""0"",""1""
","""event"",""trial"",""time""
""fullscreenenter"",""1"",""3427""
","
","","","","","","","","","","","","","","","","","","","","","","","","","","",""
"pit-instructions","36","466715","0.0-2.0-10.0","battery-v0.2","","""event"",""trial"",""time""
""focus"",""0"",""1""
""fullscreenenter"",""1"",""3427""
","
","""event"",""trial"",""time""
""focus"",""0"",""1""
","""event"",""trial"",""time""
""fullscreenenter"",""1"",""3427""
","
","","[{""page_index"":0,""viewing_time"":7025},{""page_index"":1,""viewing_time"":8831},{""page_index"":2,""viewing_time"":12252},{""page_index"":3,""viewing_time"":9397},{""page_index"":4,""viewing_time"":9125}]","46630","","","","","","","","","","","","","","","","","","","","","","","",""
"pit-trial","37","470107","0.0-2.0-11.0-0.0","battery-v0.2","","""event"",""trial"",""time""
""focus"",""0"",""1""
""fullscreenenter"",""1"",""3427""
","
","""event"",""trial"",""time""
""focus"",""0"",""1""
","""event"",""trial"",""time""
""fullscreenenter"",""1"",""3427""
","
","","","532","","","13","14661","6045","&#9761;","elianto","#3366ff99","-1"," ","0","0","[1385]","1","0","2","","","","","","","",""
"pit-trial","38","474963","0.0-2.0-11.0-1.0","battery-v0.2","","""event"",""trial"",""time""
""focus"",""0"",""1""
""fullscreenenter"",""1"",""3427""
","
","""event"",""trial"",""time""
""focus"",""0"",""1""
","""event"",""trial"",""time""
""fullscreenenter"",""1"",""3427""
","
","","","-1","","","13","14661","6045","&#9761;","elianto","#3366ff99","-1","-1","1","+10","[]","0","0","2","","","","","","","",""
"pit-trial","39","479821","0.0-2.0-11.0-2.0","battery-v0.2","","""event"",""trial"",""time""
""focus"",""0"",""1""
""fullscreenenter"",""1"",""3427""
","
","""event"",""trial"",""time""
""focus"",""0"",""1""
","""event"",""trial"",""time""
""fullscreenenter"",""1"",""3427""
","
","","","-1","","","13","14661","6045","&#9761;","elianto","#3366ff99","-1","-1","1","+10","[2955]","1","0","2","","","","","","","",""
"pit-trial","40","483391","0.0-2.0-11.0-3.0","battery-v0.2","","""event"",""trial"",""time""
""focus"",""0"",""1""
""fullscreenenter"",""1"",""3427""
","
","""event"",""trial"",""time""
""focus"",""0"",""1""
","""event"",""trial"",""time""
""fullscreenenter"",""1"",""3427""
","
","","","604","","","13","14661","6045","&#9761;","elianto","#3366ff99","-1"," ","0","+10","[1459]","1","0","2","","","","","","","",""
"pit-trial","41","486911","0.0-2.0-11.0-4.0","battery-v0.2","","""event"",""trial"",""time""
""focus"",""0"",""1""
""fullscreenenter"",""1"",""3427""
","
","""event"",""trial"",""time""
""focus"",""0"",""1""
","""event"",""trial"",""time""
""fullscreenenter"",""1"",""3427""
","
","","","453","","","13","14661","6045","&#9761;","elianto","#3366ff99","-1"," ","0","0","[1307]","1","0","2","","","","","","","",""
"pit-trial","42","491826","0.0-2.0-11.1-0.1","battery-v0.2","","""event"",""trial"",""time""
""focus"",""0"",""1""
""fullscreenenter"",""1"",""3427""
","
","""event"",""trial"",""time""
""focus"",""0"",""1""
","""event"",""trial"",""time""
""fullscreenenter"",""1"",""3427""
","
","","","-1","","","13","14661","6045","&#9761;","elianto","#3366ff99","-1","-1","1","+10","[]","0","0","2","","","","","","","",""
"pit-trial","43","495182","0.0-2.0-11.1-1.1","battery-v0.2","","""event"",""trial"",""time""
""focus"",""0"",""1""
""fullscreenenter"",""1"",""3427""
","
","""event"",""trial"",""time""
""focus"",""0"",""1""
","""event"",""trial"",""time""
""fullscreenenter"",""1"",""3427""
","
","","","497","","","13","14661","6045","&#9761;","elianto","#3366ff99","-1"," ","0","0","[1351]","1","0","2","","","","","","","",""
"pit-trial","44","500041","0.0-2.0-11.1-2.1","battery-v0.2","","""event"",""trial"",""time""
""focus"",""0"",""1""
""fullscreenenter"",""1"",""3427""
","
","""event"",""trial"",""time""
""focus"",""0"",""1""
","""event"",""trial"",""time""
""fullscreenenter"",""1"",""3427""
","
","","","-1","","","13","14661","6045","&#9761;","elianto","#3366ff99","-1","-1","1","+10","[2935]","1","0","2","","","","","","","",""
"pit-trial","45","503763","0.0-2.0-11.1-3.1","battery-v0.2","","""event"",""trial"",""time""
""focus"",""0"",""1""
""fullscreenenter"",""1"",""3427""
","
","""event"",""trial"",""time""
""focus"",""0"",""1""
","""event"",""trial"",""time""
""fullscreenenter"",""1"",""3427""
","
","","","863","","","13","14661","6045","&#9761;","elianto","#3366ff99","-1"," ","0","+10","[1718]","1","0","2","","","","","","","",""
"pit-trial","46","507564","0.0-2.0-11.1-4.1","battery-v0.2","","""event"",""trial"",""time""
""focus"",""0"",""1""
""fullscreenenter"",""1"",""3427""
","
","""event"",""trial"",""time""
""focus"",""0"",""1""
","""event"",""trial"",""time""
""fullscreenenter"",""1"",""3427""
","
","","","944","","","13","14661","6045","&#9761;","elianto","#3366ff99","-1"," ","0","0","[1794]","1","0","2","","","","","","","",""
"pit-trial","47","510897","0.0-2.0-11.2-0.2","battery-v0.2","","""event"",""trial"",""time""
""focus"",""0"",""1""
""fullscreenenter"",""1"",""3427""
","
","""event"",""trial"",""time""
""focus"",""0"",""1""
","""event"",""trial"",""time""
""fullscreenenter"",""1"",""3427""
","
","","","476","","","13","14661","6045","&#9761;","elianto","#3366ff99","-1"," ","0","0","[582,1329]","2","0","2","","","","","","","",""
"pit-trial","48","515772","0.0-2.0-11.2-1.2","battery-v0.2","","""event"",""trial"",""time""
""focus"",""0"",""1""
""fullscreenenter"",""1"",""3427""
","
","""event"",""trial"",""time""
""focus"",""0"",""1""
","""event"",""trial"",""time""
""fullscreenenter"",""1"",""3427""
","
","","","-1","","","13","14661","6045","&#9761;","elianto","#3366ff99","-1","-1","1","+10","[3326]","1","0","2","","","","","","","",""
"pit-trial","49","519516","0.0-2.0-11.2-2.2","battery-v0.2","","""event"",""trial"",""time""
""focus"",""0"",""1""
""fullscreenenter"",""1"",""3427""
","
","""event"",""trial"",""time""
""focus"",""0"",""1""
","""event"",""trial"",""time""
""fullscreenenter"",""1"",""3427""
","
","","","887","","","13","14661","6045","&#9761;","elianto","#3366ff99","-1"," ","0","0","[1742]","1","0","2","","","","","","","",""
"pit-trial","50","524539","0.0-2.0-11.2-3.2","battery-v0.2","","""event"",""trial"",""time""
""focus"",""0"",""1""
""fullscreenenter"",""1"",""3427""
","
","""event"",""trial"",""time""
""focus"",""0"",""1""
","""event"",""trial"",""time""
""fullscreenenter"",""1"",""3427""
","
","","","-1","","","13","14661","6045","&#9761;","elianto","#3366ff99","-1","-1","1","0","[3576]","1","0","2","","","","","","","",""
"pit-trial","51","529396","0.0-2.0-11.2-4.2","battery-v0.2","","""event"",""trial"",""time""
""focus"",""0"",""1""
""fullscreenenter"",""1"",""3427""
","
","""event"",""trial"",""time""
""focus"",""0"",""1""
","""event"",""trial"",""time""
""fullscreenenter"",""1"",""3427""
","
","","","-1","","","13","14661","6045","&#9761;","elianto","#3366ff99","-1","-1","1","+10","[]","0","0","2","","","","","","","",""
"pit-trial","52","533221","0.0-2.0-11.3-0.3","battery-v0.2","","""event"",""trial"",""time""
""focus"",""0"",""1""
""fullscreenenter"",""1"",""3427""
","
","""event"",""trial"",""time""
""focus"",""0"",""1""
","""event"",""trial"",""time""
""fullscreenenter"",""1"",""3427""
","
","","","970","","","13","14661","6045","&#9761;","elianto","#3366ff99","-1"," ","0","0","[1822]","1","0","2","","","","","","","",""
"pit-trial","53","538082","0.0-2.0-11.3-1.3","battery-v0.2","","""event"",""trial"",""time""
""focus"",""0"",""1""
""fullscreenenter"",""1"",""3427""
","
","""event"",""trial"",""time""
""focus"",""0"",""1""
","""event"",""trial"",""time""
""fullscreenenter"",""1"",""3427""
","
","","","-1","","","13","14661","6045","&#9761;","elianto","#3366ff99","-1","-1","1","+10","[]","0","0","2","","","","","","","",""
"pit-trial","54","542939","0.0-2.0-11.3-2.3","battery-v0.2","","""event"",""trial"",""time""
""focus"",""0"",""1""
""fullscreenenter"",""1"",""3427""
","
","""event"",""trial"",""time""
""focus"",""0"",""1""
","""event"",""trial"",""time""
""fullscreenenter"",""1"",""3427""
","
","","","-1","","","13","14661","6045","&#9761;","elianto","#3366ff99","-1","-1","1","+10","[]","0","0","2","","","","","","","",""
"pit-trial","55","547798","0.0-2.0-11.3-3.3","battery-v0.2","","""event"",""trial"",""time""
""focus"",""0"",""1""
""fullscreenenter"",""1"",""3427""
","
","""event"",""trial"",""time""
""focus"",""0"",""1""
","""event"",""trial"",""time""
""fullscreenenter"",""1"",""3427""
","
","","","-1","","","13","14661","6045","&#9761;","elianto","#3366ff99","-1","-1","1","0","[]","0","0","2","","","","","","","",""
"pit-trial","56","552655","0.0-2.0-11.3-4.3","battery-v0.2","","""event"",""trial"",""time""
""focus"",""0"",""1""
""fullscreenenter"",""1"",""3427""
","
","""event"",""trial"",""time""
""focus"",""0"",""1""
","""event"",""trial"",""time""
""fullscreenenter"",""1"",""3427""
","
","","","-1","","","13","14661","6045","&#9761;","elianto","#3366ff99","-1","-1","1","+10","[]","0","0","2","","","","","","","",""
"call-function","57","552656","0.0-2.0-12.0","battery-v0.2","","""event"",""trial"",""time""
""focus"",""0"",""1""
""fullscreenenter"",""1"",""3427""
","
","""event"",""trial"",""time""
""focus"",""0"",""1""
","""event"",""trial"",""time""
""fullscreenenter"",""1"",""3427""
","
","","","","","","","","","","","","","","","","","","","","","","","","","","",""
"pit-instructions","58","598749","0.0-2.0-13.0","battery-v0.2","","""event"",""trial"",""time""
""focus"",""0"",""1""
""fullscreenenter"",""1"",""3427""
","
","""event"",""trial"",""time""
""focus"",""0"",""1""
","""event"",""trial"",""time""
""fullscreenenter"",""1"",""3427""
","
","","[{""page_index"":0,""viewing_time"":6818},{""page_index"":1,""viewing_time"":8918},{""page_index"":2,""viewing_time"":4858},{""page_index"":3,""viewing_time"":17998},{""page_index"":4,""viewing_time"":7500}]","46092","","","","","","","","","","","","","","","","","","","","","","","",""
"pit-trial","59","603607","0.0-2.0-14.0-0.0","battery-v0.2","","""event"",""trial"",""time""
""focus"",""0"",""1""
""fullscreenenter"",""1"",""3427""
","
","""event"",""trial"",""time""
""focus"",""0"",""1""
","""event"",""trial"",""time""
""fullscreenenter"",""1"",""3427""
","
","","","-1","","","13","14661","6045","&#9826;","elianto","#f73b6a7A","-1","-1","1","0","[2950]","1","0","3","","","","","","","",""
"pit-trial","60","608466","0.0-2.0-14.0-1.0","battery-v0.2","","""event"",""trial"",""time""
""focus"",""0"",""1""
""fullscreenenter"",""1"",""3427""
","
","""event"",""trial"",""time""
""focus"",""0"",""1""
","""event"",""trial"",""time""
""fullscreenenter"",""1"",""3427""
","
","","","-1","","","13","14661","6045","&#9826;","elianto","#f73b6a7A","-1","-1","1","0","[3452]","1","0","3","","","","","","","",""
"pit-trial","61","611561","0.0-2.0-14.0-2.0","battery-v0.2","","""event"",""trial"",""time""
""focus"",""0"",""1""
""fullscreenenter"",""1"",""3427""
","
","""event"",""trial"",""time""
""focus"",""0"",""1""
","""event"",""trial"",""time""
""fullscreenenter"",""1"",""3427""
","
","","","239","","","13","14661","6045","&#9826;","elianto","#f73b6a7A","-1"," ","0","-10","[1092]","1","0","3","","","","","","","",""
"pit-trial","62","616564","0.0-2.0-14.0-3.0","battery-v0.2","","""event"",""trial"",""time""
""focus"",""0"",""1""
""fullscreenenter"",""1"",""3427""
","
","""event"",""trial"",""time""
""focus"",""0"",""1""
","""event"",""trial"",""time""
""fullscreenenter"",""1"",""3427""
","
","","","-1","","","13","14661","6045","&#9826;","elianto","#f73b6a7A","-1","-1","1","-10","[]","0","0","3","","","","","","","",""
"pit-trial","63","619658","0.0-2.0-14.0-4.0","battery-v0.2","","""event"",""trial"",""time""
""focus"",""0"",""1""
""fullscreenenter"",""1"",""3427""
","
","""event"",""trial"",""time""
""focus"",""0"",""1""
","""event"",""trial"",""time""
""fullscreenenter"",""1"",""3427""
","
","","","237","","","13","14661","6045","&#9826;","elianto","#f73b6a7A","-1"," ","0","-10","[1091]","1","0","3","","","","","","","",""
"pit-trial","64","624665","0.0-2.0-14.1-0.1","battery-v0.2","","""event"",""trial"",""time""
""focus"",""0"",""1""
""fullscreenenter"",""1"",""3427""
","
","""event"",""trial"",""time""
""focus"",""0"",""1""
","""event"",""trial"",""time""
""fullscreenenter"",""1"",""3427""
","
","","","-1","","","13","14661","6045","&#9826;","elianto","#f73b6a7A","-1","-1","1","0","[]","0","0","3","","","","","","","",""
"pit-trial","65","629668","0.0-2.0-14.1-1.1","battery-v0.2","","""event"",""trial"",""time""
""focus"",""0"",""1""
""fullscreenenter"",""1"",""3427""
","
","""event"",""trial"",""time""
""focus"",""0"",""1""
","""event"",""trial"",""time""
""fullscreenenter"",""1"",""3427""
","
","","","-1","","","13","14661","6045","&#9826;","elianto","#f73b6a7A","-1","-1","1","0","[]","0","0","3","","","","","","","",""
"pit-trial","66","632858","0.0-2.0-14.1-2.1","battery-v0.2","","""event"",""trial"",""time""
""focus"",""0"",""1""
""fullscreenenter"",""1"",""3427""
","
","""event"",""trial"",""time""
""focus"",""0"",""1""
","""event"",""trial"",""time""
""fullscreenenter"",""1"",""3427""
","
","","","335","","","13","14661","6045","&#9826;","elianto","#f73b6a7A","-1"," ","0","-10","[1188]","1","0","3","","","","","","","",""
"pit-trial","67","637863","0.0-2.0-14.1-3.1","battery-v0.2","","""event"",""trial"",""time""
""focus"",""0"",""1""
""fullscreenenter"",""1"",""3427""
","
","""event"",""trial"",""time""
""focus"",""0"",""1""
","""event"",""trial"",""time""
""fullscreenenter"",""1"",""3427""
","
","","","-1","","","13","14661","6045","&#9826;","elianto","#f73b6a7A","-1","-1","1","-10","[]","0","0","3","","","","","","","",""
"pit-trial","68","640940","0.0-2.0-14.1-4.1","battery-v0.2","","""event"",""trial"",""time""
""focus"",""0"",""1""
""fullscreenenter"",""1"",""3427""
","
","""event"",""trial"",""time""
""focus"",""0"",""1""
","""event"",""trial"",""time""
""fullscreenenter"",""1"",""3427""
","
","","","221","","","13","14661","6045","&#9826;","elianto","#f73b6a7A","-1"," ","0","-10","[1073]","1","0","3","","","","","","","",""
"pit-trial","69","643905","0.0-2.0-14.2-0.2","battery-v0.2","","""event"",""trial"",""time""
""focus"",""0"",""1""
""fullscreenenter"",""1"",""3427""
","
","""event"",""trial"",""time""
""focus"",""0"",""1""
","""event"",""trial"",""time""
""fullscreenenter"",""1"",""3427""
","
","","","112","","","13","14661","6045","&#9826;","elianto","#f73b6a7A","-1"," ","0","-10","[962]","1","0","3","","","","","","","",""
"pit-trial","70","648869","0.0-2.0-14.2-1.2","battery-v0.2","","""event"",""trial"",""time""
""focus"",""0"",""1""
""fullscreenenter"",""1"",""3427""
","
","""event"",""trial"",""time""
""focus"",""0"",""1""
","""event"",""trial"",""time""
""fullscreenenter"",""1"",""3427""
","
","","","-1","","","13","14661","6045","&#9826;","elianto","#f73b6a7A","-1","-1","1","0","[]","0","0","3","","","","","","","",""
"pit-trial","71","652909","0.0-2.0-14.2-2.2","battery-v0.2","","""event"",""trial"",""time""
""focus"",""0"",""1""
""fullscreenenter"",""1"",""3427""
","
","""event"",""trial"",""time""
""focus"",""0"",""1""
","""event"",""trial"",""time""
""fullscreenenter"",""1"",""3427""
","
","","","962","","","13","14661","6045","&#9826;","elianto","#f73b6a7A","-1"," ","0","-10","[1816]","1","0","3","","","","","","","",""
"pit-trial","72","657999","0.0-2.0-14.2-3.2","battery-v0.2","","""event"",""trial"",""time""
""focus"",""0"",""1""
""fullscreenenter"",""1"",""3427""
","
","""event"",""trial"",""time""
""focus"",""0"",""1""
","""event"",""trial"",""time""
""fullscreenenter"",""1"",""3427""
","
","","","-1","","","13","14661","6045","&#9826;","elianto","#f73b6a7A","-1","-1","1","-10","[]","0","0","3","","","","","","","",""
"pit-trial","73","662911","0.0-2.0-14.2-4.2","battery-v0.2","","""event"",""trial"",""time""
""focus"",""0"",""1""
""fullscreenenter"",""1"",""3427""
","
","""event"",""trial"",""time""
""focus"",""0"",""1""
","""event"",""trial"",""time""
""fullscreenenter"",""1"",""3427""
","
","","","1875","","","13","14661","6045","&#9826;","elianto","#f73b6a7A","-1"," ","0","-10","[236,2728]","2","0","3","","","","","","","",""
"pit-trial","74","668006","0.0-2.0-14.3-0.3","battery-v0.2","","""event"",""trial"",""time""
""focus"",""0"",""1""
""fullscreenenter"",""1"",""3427""
","
","""event"",""trial"",""time""
""focus"",""0"",""1""
","""event"",""trial"",""time""
""fullscreenenter"",""1"",""3427""
","
","","","-1","","","13","14661","6045","&#9826;","elianto","#f73b6a7A","-1","-1","1","0","[]","0","0","3","","","","","","","",""
"pit-trial","75","673018","0.0-2.0-14.3-1.3","battery-v0.2","","""event"",""trial"",""time""
""focus"",""0"",""1""
""fullscreenenter"",""1"",""3427""
","
","""event"",""trial"",""time""
""focus"",""0"",""1""
","""event"",""trial"",""time""
""fullscreenenter"",""1"",""3427""
","
","","","-1","","","13","14661","6045","&#9826;","elianto","#f73b6a7A","-1","-1","1","0","[]","0","0","3","","","","","","","",""
"pit-trial","76","678008","0.0-2.0-14.3-2.3","battery-v0.2","","""event"",""trial"",""time""
""focus"",""0"",""1""
""fullscreenenter"",""1"",""3427""
","
","""event"",""trial"",""time""
""focus"",""0"",""1""
","""event"",""trial"",""time""
""fullscreenenter"",""1"",""3427""
","
","","","-1","","","13","14661","6045","&#9826;","elianto","#f73b6a7A","-1","-1","1","0","[]","0","0","3","","","","","","","",""
"pit-trial","77","681525","0.0-2.0-14.3-3.3","battery-v0.2","","""event"",""trial"",""time""
""focus"",""0"",""1""
""fullscreenenter"",""1"",""3427""
","
","""event"",""trial"",""time""
""focus"",""0"",""1""
","""event"",""trial"",""time""
""fullscreenenter"",""1"",""3427""
","
","","","661","","","13","14661","6045","&#9826;","elianto","#f73b6a7A","-1"," ","0","0","[1512]","1","0","3","","","","","","","",""
"pit-trial","78","685115","0.0-2.0-14.3-4.3","battery-v0.2","","""event"",""trial"",""time""
""focus"",""0"",""1""
""fullscreenenter"",""1"",""3427""
","
","""event"",""trial"",""time""
""focus"",""0"",""1""
","""event"",""trial"",""time""
""fullscreenenter"",""1"",""3427""
","
","","","714","","","13","14661","6045","&#9826;","elianto","#f73b6a7A","-1"," ","0","-10","[1567]","1","0","3","","","","","","","",""
"call-function","79","685116","0.0-2.0-15.0","battery-v0.2","","""event"",""trial"",""time""
""focus"",""0"",""1""
""fullscreenenter"",""1"",""3427""
","
","""event"",""trial"",""time""
""focus"",""0"",""1""
","""event"",""trial"",""time""
""fullscreenenter"",""1"",""3427""
","
","","","","","","","","","","","","","","","","","","","","","","","","","","",""
"pit-instructions","80","761340","0.0-2.0-16.0","battery-v0.2","","""event"",""trial"",""time""
""focus"",""0"",""1""
""fullscreenenter"",""1"",""3427""
","
","""event"",""trial"",""time""
""focus"",""0"",""1""
","""event"",""trial"",""time""
""fullscreenenter"",""1"",""3427""
","
","","[{""page_index"":0,""viewing_time"":9577},{""page_index"":1,""viewing_time"":55438},{""page_index"":2,""viewing_time"":4405},{""page_index"":3,""viewing_time"":6802}]","76223","","","","","","","","","","","","","","","","","","","","","","","",""
"pit-trial","81","766201","0.0-2.0-17.0-0.0","battery-v0.2","","""event"",""trial"",""time""
""focus"",""0"",""1""
""fullscreenenter"",""1"",""3427""
","
","""event"",""trial"",""time""
""focus"",""0"",""1""
","""event"",""trial"",""time""
""fullscreenenter"",""1"",""3427""
","
","","","-1","","","13","14661","6045","&#9789;","elianto","#f73b6a7A"," ","-1","0","-10","[]","0","0","4","","","","","","","",""
"pit-trial","82","771060","0.0-2.0-17.0-1.0","battery-v0.2","","""event"",""trial"",""time""
""focus"",""0"",""1""
""fullscreenenter"",""1"",""3427""
","
","""event"",""trial"",""time""
""focus"",""0"",""1""
","""event"",""trial"",""time""
""fullscreenenter"",""1"",""3427""
","
","","","-1","","","13","14661","6045","&#9789;","elianto","#f73b6a7A"," ","-1","0","-10","[]","0","0","4","","","","","","","",""
"pit-trial","83","775916","0.0-2.0-17.0-2.0","battery-v0.2","","""event"",""trial"",""time""
""focus"",""0"",""1""
""fullscreenenter"",""1"",""3427""
","
","""event"",""trial"",""time""
""focus"",""0"",""1""
","""event"",""trial"",""time""
""fullscreenenter"",""1"",""3427""
","
","","","-1","","","13","14661","6045","&#9789;","elianto","#f73b6a7A"," ","-1","0","-10","[]","0","0","4","","","","","","","",""
"pit-trial","84","778844","0.0-2.0-17.0-3.0","battery-v0.2","","""event"",""trial"",""time""
""focus"",""0"",""1""
""fullscreenenter"",""1"",""3427""
","
","""event"",""trial"",""time""
""focus"",""0"",""1""
","""event"",""trial"",""time""
""fullscreenenter"",""1"",""3427""
","
","","","28","","","13","14661","6045","&#9789;","elianto","#f73b6a7A"," "," ","1","-10","[879]","1","0","4","","","","","","","",""
"pit-trial","85","781799","0.0-2.0-17.0-4.0","battery-v0.2","","""event"",""trial"",""time""
""focus"",""0"",""1""
""fullscreenenter"",""1"",""3427""
","
","""event"",""trial"",""time""
""focus"",""0"",""1""
","""event"",""trial"",""time""
""fullscreenenter"",""1"",""3427""
","
","","","31","","","13","14661","6045","&#9789;","elianto","#f73b6a7A"," "," ","1","0","[884]","1","0","4","","","","","","","",""
"pit-trial","86","785460","0.0-2.0-17.1-0.1","battery-v0.2","","""event"",""trial"",""time""
""focus"",""0"",""1""
""fullscreenenter"",""1"",""3427""
","
","""event"",""trial"",""time""
""focus"",""0"",""1""
","""event"",""trial"",""time""
""fullscreenenter"",""1"",""3427""
","
","","","804","","","13","14661","6045","&#9789;","elianto","#f73b6a7A"," "," ","1","0","[1654]","1","0","4","","","","","","","",""
"pit-trial","87","788537","0.0-2.0-17.1-1.1","battery-v0.2","","""event"",""trial"",""time""
""focus"",""0"",""1""
""fullscreenenter"",""1"",""3427""
","
","""event"",""trial"",""time""
""focus"",""0"",""1""
","""event"",""trial"",""time""
""fullscreenenter"",""1"",""3427""
","
","","","218","","","13","14661","6045","&#9789;","elianto","#f73b6a7A"," "," ","1","0","[1071]","1","0","4","","","","","","","",""
"pit-trial","88","791988","0.0-2.0-17.1-2.1","battery-v0.2","","""event"",""trial"",""time""
""focus"",""0"",""1""
""fullscreenenter"",""1"",""3427""
","
","""event"",""trial"",""time""
""focus"",""0"",""1""
","""event"",""trial"",""time""
""fullscreenenter"",""1"",""3427""
","
","","","594","","","13","14661","6045","&#9789;","elianto","#f73b6a7A"," "," ","1","0","[400,1447]","2","0","4","","","","","","","",""
"pit-trial","89","795277","0.0-2.0-17.1-3.1","battery-v0.2","","""event"",""trial"",""time""
""focus"",""0"",""1""
""fullscreenenter"",""1"",""3427""
","
","""event"",""trial"",""time""
""focus"",""0"",""1""
","""event"",""trial"",""time""
""fullscreenenter"",""1"",""3427""
","
","","","431","","","13","14661","6045","&#9789;","elianto","#f73b6a7A"," "," ","1","-10","[497,1286]","2","0","4","","","","","","","",""
"pit-trial","90","799215","0.0-2.0-17.1-4.1","battery-v0.2","","""event"",""trial"",""time""
""focus"",""0"",""1""
""fullscreenenter"",""1"",""3427""
","
","""event"",""trial"",""time""
""focus"",""0"",""1""
","""event"",""trial"",""time""
""fullscreenenter"",""1"",""3427""
","
","","","1083","","","13","14661","6045","&#9789;","elianto","#f73b6a7A"," "," ","1","0","[1937]","1","0","4","","","","","","","",""
"pit-trial","91","804286","0.0-2.0-17.2-0.2","battery-v0.2","","""event"",""trial"",""time""
""focus"",""0"",""1""
""fullscreenenter"",""1"",""3427""
","
","""event"",""trial"",""time""
""focus"",""0"",""1""
","""event"",""trial"",""time""
""fullscreenenter"",""1"",""3427""
","
","","","-1","","","13","14661","6045","&#9789;","elianto","#f73b6a7A"," ","-1","0","-10","[]","0","0","4","","","","","","","",""
"pit-trial","92","809289","0.0-2.0-17.2-1.2","battery-v0.2","","""event"",""trial"",""time""
""focus"",""0"",""1""
""fullscreenenter"",""1"",""3427""
","
","""event"",""trial"",""time""
""focus"",""0"",""1""
","""event"",""trial"",""time""
""fullscreenenter"",""1"",""3427""
","
","","","-1","","","13","14661","6045","&#9789;","elianto","#f73b6a7A"," ","-1","0","-10","[3364]","1","0","4","","","","","","","",""
"pit-trial","93","813219","0.0-2.0-17.2-2.2","battery-v0.2","","""event"",""trial"",""time""
""focus"",""0"",""1""
""fullscreenenter"",""1"",""3427""
","
","""event"",""trial"",""time""
""focus"",""0"",""1""
","""event"",""trial"",""time""
""fullscreenenter"",""1"",""3427""
","
","","","1075","","","13","14661","6045","&#9789;","elianto","#f73b6a7A"," "," ","1","0","[1927]","1","0","4","","","","","","","",""
"pit-trial","94","818078","0.0-2.0-17.2-3.2","battery-v0.2","","""event"",""trial"",""time""
""focus"",""0"",""1""
""fullscreenenter"",""1"",""3427""
","
","""event"",""trial"",""time""
""focus"",""0"",""1""
","""event"",""trial"",""time""
""fullscreenenter"",""1"",""3427""
","
","","","-1","","","13","14661","6045","&#9789;","elianto","#f73b6a7A"," ","-1","0","0","[]","0","0","4","","","","","","","",""
"pit-trial","95","822939","0.0-2.0-17.2-4.2","battery-v0.2","","""event"",""trial"",""time""
""focus"",""0"",""1""
""fullscreenenter"",""1"",""3427""
","
","""event"",""trial"",""time""
""focus"",""0"",""1""
","""event"",""trial"",""time""
""fullscreenenter"",""1"",""3427""
","
","","","-1","","","13","14661","6045","&#9789;","elianto","#f73b6a7A"," ","-1","0","-10","[]","0","0","4","","","","","","","",""
"pit-trial","96","827794","0.0-2.0-17.3-0.3","battery-v0.2","","""event"",""trial"",""time""
""focus"",""0"",""1""
""fullscreenenter"",""1"",""3427""
","
","""event"",""trial"",""time""
""focus"",""0"",""1""
","""event"",""trial"",""time""
""fullscreenenter"",""1"",""3427""
","
","","","-1","","","13","14661","6045","&#9789;","elianto","#f73b6a7A"," ","-1","0","-10","[]","0","0","4","","","","","","","",""
"pit-trial","97","832652","0.0-2.0-17.3-1.3","battery-v0.2","","""event"",""trial"",""time""
""focus"",""0"",""1""
""fullscreenenter"",""1"",""3427""
","
","""event"",""trial"",""time""
""focus"",""0"",""1""
","""event"",""trial"",""time""
""fullscreenenter"",""1"",""3427""
","
","","","-1","","","13","14661","6045","&#9789;","elianto","#f73b6a7A"," ","-1","0","-10","[]","0","0","4","","","","","","","",""
"pit-trial","98","837507","0.0-2.0-17.3-2.3","battery-v0.2","","""event"",""trial"",""time""
""focus"",""0"",""1""
""fullscreenenter"",""1"",""3427""
","
","""event"",""trial"",""time""
""focus"",""0"",""1""
","""event"",""trial"",""time""
""fullscreenenter"",""1"",""3427""
","
","","","-1","","","13","14661","6045","&#9789;","elianto","#f73b6a7A"," ","-1","0","-10","[]","0","0","4","","","","","","","",""
"pit-trial","99","842367","0.0-2.0-17.3-3.3","battery-v0.2","","""event"",""trial"",""time""
""focus"",""0"",""1""
""fullscreenenter"",""1"",""3427""
","
","""event"",""trial"",""time""
""focus"",""0"",""1""
","""event"",""trial"",""time""
""fullscreenenter"",""1"",""3427""
","
","","","-1","","","13","14661","6045","&#9789;","elianto","#f73b6a7A"," ","-1","0","0","[]","0","0","4","","","","","","","",""
"pit-trial","100","847225","0.0-2.0-17.3-4.3","battery-v0.2","","""event"",""trial"",""time""
""focus"",""0"",""1""
""fullscreenenter"",""1"",""3427""
","
","""event"",""trial"",""time""
""focus"",""0"",""1""
","""event"",""trial"",""time""
""fullscreenenter"",""1"",""3427""
","
","","","-1","","","13","14661","6045","&#9789;","elianto","#f73b6a7A"," ","-1","0","-10","[692,3554,4342,4754]","4","0","4","","","","","","","",""
"call-function","101","847226","0.0-2.0-18.0","battery-v0.2","","""event"",""trial"",""time""
""focus"",""0"",""1""
""fullscreenenter"",""1"",""3427""
","
","""event"",""trial"",""time""
""focus"",""0"",""1""
","""event"",""trial"",""time""
""fullscreenenter"",""1"",""3427""
","
","","","","","","","","","","","","","","","","","","","","","","","","","","",""
"pit-instructions","102","929519","0.0-2.0-19.0","battery-v0.2","","""event"",""trial"",""time""
""focus"",""0"",""1""
""fullscreenenter"",""1"",""3427""
","
","""event"",""trial"",""time""
""focus"",""0"",""1""
","""event"",""trial"",""time""
""fullscreenenter"",""1"",""3427""
","
","","[{""page_index"":0,""viewing_time"":11800},{""page_index"":1,""viewing_time"":5868},{""page_index"":2,""viewing_time"":16901},{""page_index"":3,""viewing_time"":7862},{""page_index"":4,""viewing_time"":8723},{""page_index"":5,""viewing_time"":9395},{""page_index"":6,""viewing_time"":10899},{""page_index"":7,""viewing_time"":6493},{""page_index"":8,""viewing_time"":4351}]","82292","","","","","","","","","","","","","","","","","","","","","","","",""
"pit-comprehension","103","934324","0.0-2.0-20.0-0.0","battery-v0.2","","""event"",""trial"",""time""
""focus"",""0"",""1""
""fullscreenenter"",""1"",""3427""
","
","""event"",""trial"",""time""
""focus"",""0"",""1""
","""event"",""trial"",""time""
""fullscreenenter"",""1"",""3427""
","
","","","4803","[""SPACE""]","0","13","14661","6045","","","","","","","","","","","","","","","","","","",""
"pit-instructions","104","938302","0.0-2.0-20.0-1.0","battery-v0.2","","""event"",""trial"",""time""
""focus"",""0"",""1""
""fullscreenenter"",""1"",""3427""
","
","""event"",""trial"",""time""
""focus"",""0"",""1""
","""event"",""trial"",""time""
""fullscreenenter"",""1"",""3427""
","
","","[{""page_index"":0,""viewing_time"":3957}]","3957","","","","","","","","","","","","","","","","","","","","","","","",""
"pit-comprehension","105","945232","0.0-2.0-21.0-0.0","battery-v0.2","","""event"",""trial"",""time""
""focus"",""0"",""1""
""fullscreenenter"",""1"",""3427""
","
","""event"",""trial"",""time""
""focus"",""0"",""1""
","""event"",""trial"",""time""
""fullscreenenter"",""1"",""3427""
","
","","","6926","[""10""]","0","13","14661","6045","","","","","","","","","","","","","","","","","","",""
"pit-instructions","106","947980","0.0-2.0-21.0-1.0","battery-v0.2","","""event"",""trial"",""time""
""focus"",""0"",""1""
""fullscreenenter"",""1"",""3427""
","
","""event"",""trial"",""time""
""focus"",""0"",""1""
","""event"",""trial"",""time""
""fullscreenenter"",""1"",""3427""
","
","","[{""page_index"":0,""viewing_time"":2727}]","2728","","","","","","","","","","","","","","","","","","","","","","","",""
"pit-comprehension","107","956112","0.0-2.0-22.0-0.0","battery-v0.2","","""event"",""trial"",""time""
""focus"",""0"",""1""
""fullscreenenter"",""1"",""3427""
","
","""event"",""trial"",""time""
""focus"",""0"",""1""
","""event"",""trial"",""time""
""fullscreenenter"",""1"",""3427""
","
","","","8129","[""-10""]","1","13","14661","6045","","","","","","","","","","","","","","","","","","",""
"pit-instructions","108","966064","0.0-2.0-22.0-1.0","battery-v0.2","","""event"",""trial"",""time""
""focus"",""0"",""1""
""fullscreenenter"",""1"",""3427""
","
","""event"",""trial"",""time""
""focus"",""0"",""1""
","""event"",""trial"",""time""
""fullscreenenter"",""1"",""3427""
","
","","[{""page_index"":0,""viewing_time"":9930}]","9931","","","","","","","","","","","","","","","","","","","","","","","",""
"pit-instructions","109","967262","0.0-2.0-22.0-2.0-0.0","battery-v0.2","","""event"",""trial"",""time""
""focus"",""0"",""1""
""fullscreenenter"",""1"",""3427""
","
","""event"",""trial"",""time""
""focus"",""0"",""1""
","""event"",""trial"",""time""
""fullscreenenter"",""1"",""3427""
","
","","[{""page_index"":0,""viewing_time"":1195}]","1196","","","","","","","","","","","","","","","","","","","","","","","",""
"pit-comprehension","110","977868","0.0-2.0-22.1-0.1","battery-v0.2","","""event"",""trial"",""time""
""focus"",""0"",""1""
""fullscreenenter"",""1"",""3427""
","
","""event"",""trial"",""time""
""focus"",""0"",""1""
","""event"",""trial"",""time""
""fullscreenenter"",""1"",""3427""
","
","","","10603","[""0""]","0","13","14661","6045","","","","","","","","","","","","","","","","","","",""
"pit-instructions","111","981420","0.0-2.0-22.1-1.1","battery-v0.2","","""event"",""trial"",""time""
""focus"",""0"",""1""
""fullscreenenter"",""1"",""3427""
","
","""event"",""trial"",""time""
""focus"",""0"",""1""
","""event"",""trial"",""time""
""fullscreenenter"",""1"",""3427""
","
","","[{""page_index"":0,""viewing_time"":3529}]","3530","","","","","","","","","","","","","","","","","","","","","","","",""
"pit-comprehension","112","1000346","0.0-2.0-23.0-0.0","battery-v0.2","","""event"",""trial"",""time""
""focus"",""0"",""1""
""fullscreenenter"",""1"",""3427""
","
","""event"",""trial"",""time""
""focus"",""0"",""1""
","""event"",""trial"",""time""
""fullscreenenter"",""1"",""3427""
","
","","","18923","[""True""]","0","13","14661","6045","","","","","","","","","","","","","","","","","","",""
"pit-instructions","113","1003735","0.0-2.0-23.0-1.0","battery-v0.2","","""event"",""trial"",""time""
""focus"",""0"",""1""
""fullscreenenter"",""1"",""3427""
","
","""event"",""trial"",""time""
""focus"",""0"",""1""
","""event"",""trial"",""time""
""fullscreenenter"",""1"",""3427""
","
","","[{""page_index"":0,""viewing_time"":3367}]","3367","","","","","","","","","","","","","","","","","","","","","","","",""
"pit-comprehension","114","1013828","0.0-2.0-24.0-0.0","battery-v0.2","","""event"",""trial"",""time""
""focus"",""0"",""1""
""fullscreenenter"",""1"",""3427""
","
","""event"",""trial"",""time""
""focus"",""0"",""1""
","""event"",""trial"",""time""
""fullscreenenter"",""1"",""3427""
","
","","","10090","[""True""]","0","13","14661","6045","","","","","","","","","","","","","","","","","","",""
"pit-instructions","115","1016513","0.0-2.0-24.0-1.0","battery-v0.2","","""event"",""trial"",""time""
""focus"",""0"",""1""
""fullscreenenter"",""1"",""3427""
","
","""event"",""trial"",""time""
""focus"",""0"",""1""
","""event"",""trial"",""time""
""fullscreenenter"",""1"",""3427""
","
","","[{""page_index"":0,""viewing_time"":2664}]","2664","","","","","","","","","","","","","","","","","","","","","","","",""
"pit-comprehension","116","1023294","0.0-2.0-25.0-0.0","battery-v0.2","","""event"",""trial"",""time""
""focus"",""0"",""1""
""fullscreenenter"",""1"",""3427""
","
","""event"",""trial"",""time""
""focus"",""0"",""1""
","""event"",""trial"",""time""
""fullscreenenter"",""1"",""3427""
","
","","","6777","[""True""]","0","13","14661","6045","","","","","","","","","","","","","","","","","","",""
"pit-instructions","117","1026586","0.0-2.0-25.0-1.0","battery-v0.2","","""event"",""trial"",""time""
""focus"",""0"",""1""
""fullscreenenter"",""1"",""3427""
","
","""event"",""trial"",""time""
""focus"",""0"",""1""
","""event"",""trial"",""time""
""fullscreenenter"",""1"",""3427""
","
","","[{""page_index"":0,""viewing_time"":3271}]","3271","","","","","","","","","","","","","","","","","","","","","","","",""
"pit-comprehension","118","1031641","0.0-2.0-26.0-0.0","battery-v0.2","","""event"",""trial"",""time""
""focus"",""0"",""1""
""fullscreenenter"",""1"",""3427""
","
","""event"",""trial"",""time""
""focus"",""0"",""1""
","""event"",""trial"",""time""
""fullscreenenter"",""1"",""3427""
","
","","","5052","[""True""]","1","13","14661","6045","","","","","","","","","","","","","","","","","","",""
"pit-instructions","119","1034647","0.0-2.0-26.0-1.0","battery-v0.2","","""event"",""trial"",""time""
""focus"",""0"",""1""
""fullscreenenter"",""1"",""3427""
","
","""event"",""trial"",""time""
""focus"",""0"",""1""
","""event"",""trial"",""time""
""fullscreenenter"",""1"",""3427""
","
","","[{""page_index"":0,""viewing_time"":2983}]","2984","","","","","","","","","","","","","","","","","","","","","","","",""
"pit-instructions","120","1040964","0.0-2.0-26.0-2.0-0.0","battery-v0.2","","""event"",""trial"",""time""
""focus"",""0"",""1""
""fullscreenenter"",""1"",""3427""
","
","""event"",""trial"",""time""
""focus"",""0"",""1""
","""event"",""trial"",""time""
""fullscreenenter"",""1"",""3427""
","
","","[{""page_index"":0,""viewing_time"":6316}]","6316","","","","","","","","","","","","","","","","","","","","","","","",""
"pit-comprehension","121","1045978","0.0-2.0-26.1-0.1","battery-v0.2","","""event"",""trial"",""time""
""focus"",""0"",""1""
""fullscreenenter"",""1"",""3427""
","
","""event"",""trial"",""time""
""focus"",""0"",""1""
","""event"",""trial"",""time""
""fullscreenenter"",""1"",""3427""
","
","","","5011","[""False""]","0","13","14661","6045","","","","","","","","","","","","","","","","","","",""
"pit-instructions","122","1049544","0.0-2.0-26.1-1.1","battery-v0.2","","""event"",""trial"",""time""
""focus"",""0"",""1""
""fullscreenenter"",""1"",""3427""
","
","""event"",""trial"",""time""
""focus"",""0"",""1""
","""event"",""trial"",""time""
""fullscreenenter"",""1"",""3427""
","
","","[{""page_index"":0,""viewing_time"":3543}]","3543","","","","","","","","","","","","","","","","","","","","","","","",""
"pit-instructions","123","1070971","0.0-3.0","battery-v0.2","","""event"",""trial"",""time""
""focus"",""0"",""1""
""fullscreenenter"",""1"",""3427""
","
","""event"",""trial"",""time""
""focus"",""0"",""1""
","""event"",""trial"",""time""
""fullscreenenter"",""1"",""3427""
","
","","[{""page_index"":0,""viewing_time"":4694},{""page_index"":1,""viewing_time"":8616},{""page_index"":2,""viewing_time"":8115}]","21426","","","","","","","","","","","","","","","","","","","","","","","",""
"pit-trial","124","1074258","0.0-4.0","battery-v0.2","","""event"",""trial"",""time""
""focus"",""0"",""1""
""fullscreenenter"",""1"",""3427""
","
","""event"",""trial"",""time""
""focus"",""0"",""1""
","""event"",""trial"",""time""
""fullscreenenter"",""1"",""3427""
","
","","","331","","","13","14661","6045","&#9728;","elianto","#f73b6a7A","-1"," ","0","-10","[1184]","1","1","","","14661","1","0","4","lose","no-go","0"
"pit-trial","125","1079112","0.0-5.0","battery-v0.2","","""event"",""trial"",""time""
""focus"",""0"",""1""
""fullscreenenter"",""1"",""3427""
","
","""event"",""trial"",""time""
""focus"",""0"",""1""
","""event"",""trial"",""time""
""fullscreenenter"",""1"",""3427""
","
","","","-1","","","13","14661","6045","&#9752;","elianto","#f73b6a7A"," ","-1","0","-10","[]","0","1","","","14661","2","3","3","lose","go","0"
"pit-trial","126","1082450","0.0-6.0","battery-v0.2","","""event"",""trial"",""time""
""focus"",""0"",""1""
""fullscreenenter"",""1"",""3427""
","
","""event"",""trial"",""time""
""focus"",""0"",""1""
","""event"",""trial"",""time""
""fullscreenenter"",""1"",""3427""
","
","","","484","","","13","14661","6045","&#9733;","elianto","#3366ff99","-1"," ","0","0","[1336]","1","1","","","14661","3","2","2","win","no-go","0"
"pit-trial","127","1085816","0.0-7.0","battery-v0.2","","""event"",""trial"",""time""
""focus"",""0"",""1""
""fullscreenenter"",""1"",""3427""
","
","""event"",""trial"",""time""
""focus"",""0"",""1""
","""event"",""trial"",""time""
""fullscreenenter"",""1"",""3427""
","
","","","506","","","13","14661","6045","&#9730;","elianto","#3366ff99"," "," ","1","+10","[1360]","1","1","","","14661","4","1","1","win","go","0"
"pit-trial","128","1089113","0.0-8.0","battery-v0.2","","""event"",""trial"",""time""
""focus"",""0"",""1""
""fullscreenenter"",""1"",""3427""
","
","""event"",""trial"",""time""
""focus"",""0"",""1""
","""event"",""trial"",""time""
""fullscreenenter"",""1"",""3427""
","
","","","268","","","13","14661","6045","&#9728;","elianto","#f73b6a7A","-1"," ","0","-10","[1119]","1","1","","","14661","5","0","4","lose","no-go","0"
"pit-trial","129","1093974","0.0-9.0","battery-v0.2","","""event"",""trial"",""time""
""focus"",""0"",""1""
""fullscreenenter"",""1"",""3427""
","
","""event"",""trial"",""time""
""focus"",""0"",""1""
","""event"",""trial"",""time""
""fullscreenenter"",""1"",""3427""
","
","","","-1","","","13","14661","6045","&#9752;","elianto","#f73b6a7A"," ","-1","0","-10","[]","0","1","","","14661","6","3","3","lose","go","0"
"pit-trial","130","1097255","0.0-10.0","battery-v0.2","","""event"",""trial"",""time""
""focus"",""0"",""1""
""fullscreenenter"",""1"",""3427""
","
","""event"",""trial"",""time""
""focus"",""0"",""1""
","""event"",""trial"",""time""
""fullscreenenter"",""1"",""3427""
","
","","","423","","","13","14661","6045","&#9730;","elianto","#3366ff99"," "," ","1","+10","[1276]","1","1","","","14661","7","1","1","win","go","0"
"pit-trial","131","1100594","0.0-11.0","battery-v0.2","","""event"",""trial"",""time""
""focus"",""0"",""1""
""fullscreenenter"",""1"",""3427""
","
","""event"",""trial"",""time""
""focus"",""0"",""1""
","""event"",""trial"",""time""
""fullscreenenter"",""1"",""3427""
","
","","","485","","","13","14661","6045","&#9733;","elianto","#3366ff99","-1"," ","0","0","[1336]","1","1","","","14661","8","2","2","win","no-go","0"
"pit-trial","132","1105451","0.0-12.0","battery-v0.2","","""event"",""trial"",""time""
""focus"",""0"",""1""
""fullscreenenter"",""1"",""3427""
","
","""event"",""trial"",""time""
""focus"",""0"",""1""
","""event"",""trial"",""time""
""fullscreenenter"",""1"",""3427""
","
","","","-1","","","13","14661","6045","&#9752;","elianto","#f73b6a7A"," ","-1","0","-10","[]","0","1","","","14661","9","3","3","lose","go","0"
"pit-trial","133","1109727","0.0-13.0","battery-v0.2","","""event"",""trial"",""time""
""focus"",""0"",""1""
""fullscreenenter"",""1"",""3427""
","
","""event"",""trial"",""time""
""focus"",""0"",""1""
","""event"",""trial"",""time""
""fullscreenenter"",""1"",""3427""
","
","","","1414","","","13","14661","6045","&#9730;","elianto","#3366ff99"," "," ","1","+10","[2268]","1","1","","","14661","10","1","1","win","go","0"
"pit-trial","134","1113593","0.0-14.0","battery-v0.2","","""event"",""trial"",""time""
""focus"",""0"",""1""
""fullscreenenter"",""1"",""3427""
","
","""event"",""trial"",""time""
""focus"",""0"",""1""
","""event"",""trial"",""time""
""fullscreenenter"",""1"",""3427""
","
","","","1009","","","13","14661","6045","&#9728;","elianto","#f73b6a7A","-1"," ","0","-10","[1860]","1","1","","","14661","11","0","4","lose","no-go","0"
"pit-trial","135","1117175","0.0-15.0","battery-v0.2","","""event"",""trial"",""time""
""focus"",""0"",""1""
""fullscreenenter"",""1"",""3427""
","
","""event"",""trial"",""time""
""focus"",""0"",""1""
","""event"",""trial"",""time""
""fullscreenenter"",""1"",""3427""
","
","","","726","","","13","14661","6045","&#9733;","elianto","#3366ff99","-1"," ","0","0","[1578]","1","1","","","14661","12","2","2","win","no-go","0"
"pit-trial","136","1121963","0.0-16.0","battery-v0.2","","""event"",""trial"",""time""
""focus"",""0"",""1""
""fullscreenenter"",""1"",""3427""
","
","""event"",""trial"",""time""
""focus"",""0"",""1""
","""event"",""trial"",""time""
""fullscreenenter"",""1"",""3427""
","
","","","1932","","","13","14661","6045","&#9728;","elianto","#f73b6a7A","-1"," ","0","0","[2785]","1","1","","","14661","13","0","4","lose","no-go","1"
"pit-trial","137","1125459","0.0-17.0","battery-v0.2","","""event"",""trial"",""time""
""focus"",""0"",""1""
""fullscreenenter"",""1"",""3427""
","
","""event"",""trial"",""time""
""focus"",""0"",""1""
","""event"",""trial"",""time""
""fullscreenenter"",""1"",""3427""
","
","","","637","","","13","14661","6045","&#9730;","elianto","#3366ff99"," "," ","1","+10","[1494]","1","1","","","14661","14","1","1","win","go","0"
"pit-trial","138","1130315","0.0-18.0","battery-v0.2","","""event"",""trial"",""time""
""focus"",""0"",""1""
""fullscreenenter"",""1"",""3427""
","
","""event"",""trial"",""time""
""focus"",""0"",""1""
","""event"",""trial"",""time""
""fullscreenenter"",""1"",""3427""
","
","","","-1","","","13","14661","6045","&#9752;","elianto","#f73b6a7A"," ","-1","0","-10","[]","0","1","","","14661","15","3","3","lose","go","0"
"pit-trial","139","1133861","0.0-19.0","battery-v0.2","","""event"",""trial"",""time""
""focus"",""0"",""1""
""fullscreenenter"",""1"",""3427""
","
","""event"",""trial"",""time""
""focus"",""0"",""1""
","""event"",""trial"",""time""
""fullscreenenter"",""1"",""3427""
","
","","","685","","","13","14661","6045","&#9733;","elianto","#3366ff99","-1"," ","0","0","[1539]","1","1","","","14661","16","2","2","win","no-go","0"
"pit-trial","140","1137312","0.0-20.0","battery-v0.2","","""event"",""trial"",""time""
""focus"",""0"",""1""
""fullscreenenter"",""1"",""3427""
","
","""event"",""trial"",""time""
""focus"",""0"",""1""
","""event"",""trial"",""time""
""fullscreenenter"",""1"",""3427""
","
","","","595","","","13","14661","6045","&#9733;","elianto","#3366ff99","-1"," ","0","0","[1446]","1","1","","","14661","17","2","2","win","no-go","0"
"pit-trial","141","1141195","0.0-21.0","battery-v0.2","","""event"",""trial"",""time""
""focus"",""0"",""1""
""fullscreenenter"",""1"",""3427""
","
","""event"",""trial"",""time""
""focus"",""0"",""1""
","""event"",""trial"",""time""
""fullscreenenter"",""1"",""3427""
","
","","","1025","","","13","14661","6045","&#9730;","elianto","#3366ff99"," "," ","1","+10","[1879]","1","1","","","14661","18","1","1","win","go","0"
"pit-trial","142","1145058","0.0-22.0","battery-v0.2","","""event"",""trial"",""time""
""focus"",""0"",""1""
""fullscreenenter"",""1"",""3427""
","
","""event"",""trial"",""time""
""focus"",""0"",""1""
","""event"",""trial"",""time""
""fullscreenenter"",""1"",""3427""
","
","","","1006","","","13","14661","6045","&#9752;","elianto","#f73b6a7A"," "," ","1","0","[1860]","1","1","","","14661","19","3","3","lose","go","0"
"pit-trial","143","1149915","0.0-23.0","battery-v0.2","","""event"",""trial"",""time""
""focus"",""0"",""1""
""fullscreenenter"",""1"",""3427""
","
","""event"",""trial"",""time""
""focus"",""0"",""1""
","""event"",""trial"",""time""
""fullscreenenter"",""1"",""3427""
","
","","","-1","","","13","14661","6045","&#9728;","elianto","#f73b6a7A","-1","-1","1","0","[]","0","1","","","14661","20","0","4","lose","no-go","0"
"pit-instructions","144","1334671","0.0-24.0","battery-v0.2","","""event"",""trial"",""time""
""focus"",""0"",""1""
""fullscreenenter"",""1"",""3427""
","
","""event"",""trial"",""time""
""focus"",""0"",""1""
","""event"",""trial"",""time""
""fullscreenenter"",""1"",""3427""
","
","","[{""page_index"":0,""viewing_time"":176104},{""page_index"":1,""viewing_time"":8652}]","184756","","","","","","","","","","","","","","","","","","","","","","","",""
"pit-trial","145","1339527","0.0-25.0","battery-v0.2","","""event"",""trial"",""time""
""focus"",""0"",""1""
""fullscreenenter"",""1"",""3427""
","
","""event"",""trial"",""time""
""focus"",""0"",""1""
","""event"",""trial"",""time""
""fullscreenenter"",""1"",""3427""
","
","","","-1","","","13","14661","6045","n","elianto","#f73b6a7A"," ","-1","0","-10","[]","0","2","","","14661","21","0","3","lose","go","0"
"pit-trial","146","1342724","0.0-26.0","battery-v0.2","","""event"",""trial"",""time""
""focus"",""0"",""1""
""fullscreenenter"",""1"",""3427""
","
","""event"",""trial"",""time""
""focus"",""0"",""1""
","""event"",""trial"",""time""
""fullscreenenter"",""1"",""3427""
","
","","","337","","","13","14661","6045","b","elianto","#f73b6a7A","-1"," ","0","-10","[1192]","1","2","","","14661","22","3","4","lose","no-go","0"
"pit-trial","147","1345960","0.0-27.0","battery-v0.2","","""event"",""trial"",""time""
""focus"",""0"",""1""
""fullscreenenter"",""1"",""3427""
","
","""event"",""trial"",""time""
""focus"",""0"",""1""
","""event"",""trial"",""time""
""fullscreenenter"",""1"",""3427""
","
","","","382","","","13","14661","6045","f","elianto","#3366ff99","-1"," ","0","0","[1233]","1","2","","","14661","23","1","2","win","no-go","0"
"pit-trial","148","1350855","0.0-28.0","battery-v0.2","","""event"",""trial"",""time""
""focus"",""0"",""1""
""fullscreenenter"",""1"",""3427""
","
","""event"",""trial"",""time""
""focus"",""0"",""1""
","""event"",""trial"",""time""
""fullscreenenter"",""1"",""3427""
","
","","","-1","","","13","14661","6045","t","elianto","#f73b6a7A"," ","-1","0","-10","[]","0","2","","","14661","24","2","3","lose","go","0"
"pit-trial","149","1354216","0.0-29.0","battery-v0.2","","""event"",""trial"",""time""
""focus"",""0"",""1""
""fullscreenenter"",""1"",""3427""
","
","""event"",""trial"",""time""
""focus"",""0"",""1""
","""event"",""trial"",""time""
""fullscreenenter"",""1"",""3427""
","
","","","504","","","13","14661","6045","n","elianto","#f73b6a7A"," "," ","1","0","[611,1357]","2","2","","","14661","25","0","3","lose","go","0"
"pit-trial","150","1359074","0.0-30.0","battery-v0.2","","""event"",""trial"",""time""
""focus"",""0"",""1""
""fullscreenenter"",""1"",""3427""
","
","""event"",""trial"",""time""
""focus"",""0"",""1""
","""event"",""trial"",""time""
""fullscreenenter"",""1"",""3427""
","
","","","-1","","","13","14661","6045","b","elianto","#f73b6a7A","-1","-1","1","0","[843]","1","2","","","14661","26","3","4","lose","no-go","0"
"pit-trial","151","1362529","0.0-31.0","battery-v0.2","","""event"",""trial"",""time""
""focus"",""0"",""1""
""fullscreenenter"",""1"",""3427""
","
","""event"",""trial"",""time""
""focus"",""0"",""1""
","""event"",""trial"",""time""
""fullscreenenter"",""1"",""3427""
","
","","","595","","","13","14661","6045","f","elianto","#3366ff99","-1"," ","0","0","[1447]","1","2","","","14661","27","1","2","win","no-go","0"
"pit-trial","152","1367532","0.0-32.0","battery-v0.2","","""event"",""trial"",""time""
""focus"",""0"",""1""
""fullscreenenter"",""1"",""3427""
","
","""event"",""trial"",""time""
""focus"",""0"",""1""
","""event"",""trial"",""time""
""fullscreenenter"",""1"",""3427""
","
","","","-1","","","13","14661","6045","t","elianto","#f73b6a7A"," ","-1","0","-10","[]","0","2","","","14661","28","2","3","lose","go","0"
"pit-trial","153","1371084","0.0-33.0","battery-v0.2","","""event"",""trial"",""time""
""focus"",""0"",""1""
""fullscreenenter"",""1"",""3427""
","
","""event"",""trial"",""time""
""focus"",""0"",""1""
","""event"",""trial"",""time""
""fullscreenenter"",""1"",""3427""
","
","","","698","","","13","14661","6045","n","elianto","#f73b6a7A"," "," ","1","0","[1549]","1","2","","","14661","29","0","3","lose","go","0"
"pit-trial","154","1374939","0.0-34.0","battery-v0.2","","""event"",""trial"",""time""
""focus"",""0"",""1""
""fullscreenenter"",""1"",""3427""
","
","""event"",""trial"",""time""
""focus"",""0"",""1""
","""event"",""trial"",""time""
""fullscreenenter"",""1"",""3427""
","
","","","996","","","13","14661","6045","b","elianto","#f73b6a7A","-1"," ","0","-10","[1850]","1","2","","","14661","30","3","4","lose","no-go","0"
"pit-trial","155","1378137","0.0-35.0","battery-v0.2","","""event"",""trial"",""time""
""focus"",""0"",""1""
""fullscreenenter"",""1"",""3427""
","
","""event"",""trial"",""time""
""focus"",""0"",""1""
","""event"",""trial"",""time""
""fullscreenenter"",""1"",""3427""
","
","","","338","","","13","14661","6045","f","elianto","#3366ff99","-1"," ","0","0","[1193]","1","2","","","14661","31","1","2","win","no-go","0"
"pit-trial","156","1382999","0.0-36.0","battery-v0.2","","""event"",""trial"",""time""
""focus"",""0"",""1""
""fullscreenenter"",""1"",""3427""
","
","""event"",""trial"",""time""
""focus"",""0"",""1""
","""event"",""trial"",""time""
""fullscreenenter"",""1"",""3427""
","
","","","-1","","","13","14661","6045","t","elianto","#f73b6a7A"," ","-1","0","0","[]","0","2","","","14661","32","2","3","lose","go","1"
"pit-trial","157","1386535","0.0-37.0","battery-v0.2","","""event"",""trial"",""time""
""focus"",""0"",""1""
""fullscreenenter"",""1"",""3427""
","
","""event"",""trial"",""time""
""focus"",""0"",""1""
","""event"",""trial"",""time""
""fullscreenenter"",""1"",""3427""
","
","","","679","","","13","14661","6045","n","elianto","#f73b6a7A"," "," ","1","0","[1531]","1","2","","","14661","33","0","3","lose","go","0"
"pit-trial","158","1389964","0.0-38.0","battery-v0.2","","""event"",""trial"",""time""
""focus"",""0"",""1""
""fullscreenenter"",""1"",""3427""
","
","""event"",""trial"",""time""
""focus"",""0"",""1""
","""event"",""trial"",""time""
""fullscreenenter"",""1"",""3427""
","
","","","570","","","13","14661","6045","f","elianto","#3366ff99","-1"," ","0","+10","[1426]","1","2","","","14661","34","1","2","win","no-go","1"
"pit-trial","159","1394044","0.0-39.0","battery-v0.2","","""event"",""trial"",""time""
""focus"",""0"",""1""
""fullscreenenter"",""1"",""3427""
","
","""event"",""trial"",""time""
""focus"",""0"",""1""
","""event"",""trial"",""time""
""fullscreenenter"",""1"",""3427""
","
","","","1224","","","13","14661","6045","t","elianto","#f73b6a7A"," "," ","1","0","[2078]","1","2","","","14661","35","2","3","lose","go","0"
"pit-trial","160","1397654","0.0-40.0","battery-v0.2","","""event"",""trial"",""time""
""focus"",""0"",""1""
""fullscreenenter"",""1"",""3427""
","
","""event"",""trial"",""time""
""focus"",""0"",""1""
","""event"",""trial"",""time""
""fullscreenenter"",""1"",""3427""
","
","","","751","","","13","14661","6045","b","elianto","#f73b6a7A","-1"," ","0","-10","[1603]","1","2","","","14661","36","3","4","lose","no-go","0"
"pit-trial","161","1401106","0.0-41.0","battery-v0.2","","""event"",""trial"",""time""
""focus"",""0"",""1""
""fullscreenenter"",""1"",""3427""
","
","""event"",""trial"",""time""
""focus"",""0"",""1""
","""event"",""trial"",""time""
""fullscreenenter"",""1"",""3427""
","
","","","596","","","13","14661","6045","f","elianto","#3366ff99","-1"," ","0","0","[1449]","1","2","","","14661","37","1","2","win","no-go","0"
"pit-trial","162","1404570","0.0-42.0","battery-v0.2","","""event"",""trial"",""time""
""focus"",""0"",""1""
""fullscreenenter"",""1"",""3427""
","
","""event"",""trial"",""time""
""focus"",""0"",""1""
","""event"",""trial"",""time""
""fullscreenenter"",""1"",""3427""
","
","","","609","","","13","14661","6045","n","elianto","#f73b6a7A"," "," ","1","-10","[1459]","1","2","","","14661","38","0","3","lose","go","1"
"pit-trial","163","1409425","0.0-43.0","battery-v0.2","","""event"",""trial"",""time""
""focus"",""0"",""1""
""fullscreenenter"",""1"",""3427""
","
","""event"",""trial"",""time""
""focus"",""0"",""1""
","""event"",""trial"",""time""
""fullscreenenter"",""1"",""3427""
","
","","","-1","","","13","14661","6045","b","elianto","#f73b6a7A","-1","-1","1","0","[3997]","1","2","","","14661","39","3","4","lose","no-go","0"
"pit-trial","164","1412737","0.0-44.0","battery-v0.2","","""event"",""trial"",""time""
""focus"",""0"",""1""
""fullscreenenter"",""1"",""3427""
","
","""event"",""trial"",""time""
""focus"",""0"",""1""
","""event"",""trial"",""time""
""fullscreenenter"",""1"",""3427""
","
","","","453","","","13","14661","6045","t","elianto","#f73b6a7A"," "," ","1","0","[1307]","1","2","","","14661","40","2","3","lose","go","0"
"pit-trial","165","1416254","0.0-45.0","battery-v0.2","","""event"",""trial"",""time""
""focus"",""0"",""1""
""fullscreenenter"",""1"",""3427""
","
","""event"",""trial"",""time""
""focus"",""0"",""1""
","""event"",""trial"",""time""
""fullscreenenter"",""1"",""3427""
","
","","","662","","","13","14661","6045","n","elianto","#f73b6a7A"," "," ","1","0","[683,1513,1926,2305,2536]","5","2","","","14661","41","0","3","lose","go","0"
"pit-trial","166","1419673","0.0-46.0","battery-v0.2","","""event"",""trial"",""time""
""focus"",""0"",""1""
""fullscreenenter"",""1"",""3427""
","
","""event"",""trial"",""time""
""focus"",""0"",""1""
","""event"",""trial"",""time""
""fullscreenenter"",""1"",""3427""
","
","","","557","","","13","14661","6045","f","elianto","#3366ff99","-1"," ","0","+10","[1413]","1","2","","","14661","42","1","2","win","no-go","1"
"pit-trial","167","1423370","0.0-47.0","battery-v0.2","","""event"",""trial"",""time""
""focus"",""0"",""1""
""fullscreenenter"",""1"",""3427""
","
","""event"",""trial"",""time""
""focus"",""0"",""1""
","""event"",""trial"",""time""
""fullscreenenter"",""1"",""3427""
","
","","","838","","","13","14661","6045","t","elianto","#f73b6a7A"," "," ","1","-10","[1692]","1","2","","","14661","43","2","3","lose","go","1"
"pit-trial","168","1428231","0.0-48.0","battery-v0.2","","""event"",""trial"",""time""
""focus"",""0"",""1""
""fullscreenenter"",""1"",""3427""
","
","""event"",""trial"",""time""
""focus"",""0"",""1""
","""event"",""trial"",""time""
""fullscreenenter"",""1"",""3427""
","
","","","-1","","","13","14661","6045","b","elianto","#f73b6a7A","-1","-1","1","0","[]","0","2","","","14661","44","3","4","lose","no-go","0"
"pit-trial","169","1432705","0.0-49.0","battery-v0.2","","""event"",""trial"",""time""
""focus"",""0"",""1""
""fullscreenenter"",""1"",""3427""
","
","""event"",""trial"",""time""
""focus"",""0"",""1""
","""event"",""trial"",""time""
""fullscreenenter"",""1"",""3427""
","
","","","1616","","","13","14661","6045","n","elianto","#f73b6a7A"," "," ","1","0","[2470]","1","2","","","14661","45","0","3","lose","go","0"
"pit-trial","170","1437708","0.0-50.0","battery-v0.2","","""event"",""trial"",""time""
""focus"",""0"",""1""
""fullscreenenter"",""1"",""3427""
","
","""event"",""trial"",""time""
""focus"",""0"",""1""
","""event"",""trial"",""time""
""fullscreenenter"",""1"",""3427""
","
","","","-1","","","13","14661","6045","t","elianto","#f73b6a7A"," ","-1","0","0","[]","0","2","","","14661","46","2","3","lose","go","1"
"pit-trial","171","1442715","0.0-51.0","battery-v0.2","","""event"",""trial"",""time""
""focus"",""0"",""1""
""fullscreenenter"",""1"",""3427""
","
","""event"",""trial"",""time""
""focus"",""0"",""1""
","""event"",""trial"",""time""
""fullscreenenter"",""1"",""3427""
","
","","","-1","","","13","14661","6045","b","elianto","#f73b6a7A","-1","-1","1","0","[]","0","2","","","14661","47","3","4","lose","no-go","0"
"pit-trial","172","1445983","0.0-52.0","battery-v0.2","","""event"",""trial"",""time""
""focus"",""0"",""1""
""fullscreenenter"",""1"",""3427""
","
","""event"",""trial"",""time""
""focus"",""0"",""1""
","""event"",""trial"",""time""
""fullscreenenter"",""1"",""3427""
","
","","","408","","","13","14661","6045","f","elianto","#3366ff99","-1"," ","0","0","[1264]","1","2","","","14661","48","1","2","win","no-go","0"
"pit-trial","173","1450990","0.0-53.0","battery-v0.2","","""event"",""trial"",""time""
""focus"",""0"",""1""
""fullscreenenter"",""1"",""3427""
","
","""event"",""trial"",""time""
""focus"",""0"",""1""
","""event"",""trial"",""time""
""fullscreenenter"",""1"",""3427""
","
","","","-1","","","13","14661","6045","n","elianto","#f73b6a7A"," ","-1","0","0","[]","0","2","","","14661","49","0","3","lose","go","1"
"pit-trial","174","1455996","0.0-54.0","battery-v0.2","","""event"",""trial"",""time""
""focus"",""0"",""1""
""fullscreenenter"",""1"",""3427""
","
","""event"",""trial"",""time""
""focus"",""0"",""1""
","""event"",""trial"",""time""
""fullscreenenter"",""1"",""3427""
","
","","","-1","","","13","14661","6045","b","elianto","#f73b6a7A","-1","-1","1","0","[]","0","2","","","14661","50","3","4","lose","no-go","0"
"pit-trial","175","1459420","0.0-55.0","battery-v0.2","","""event"",""trial"",""time""
""focus"",""0"",""1""
""fullscreenenter"",""1"",""3427""
","
","""event"",""trial"",""time""
""focus"",""0"",""1""
","""event"",""trial"",""time""
""fullscreenenter"",""1"",""3427""
","
","","","564","","","13","14661","6045","t","elianto","#f73b6a7A"," "," ","1","0","[1416]","1","2","","","14661","51","2","3","lose","go","0"
"pit-trial","176","1462853","0.0-56.0","battery-v0.2","","""event"",""trial"",""time""
""focus"",""0"",""1""
""fullscreenenter"",""1"",""3427""
","
","""event"",""trial"",""time""
""focus"",""0"",""1""
","""event"",""trial"",""time""
""fullscreenenter"",""1"",""3427""
","
","","","576","","","13","14661","6045","f","elianto","#3366ff99","-1"," ","0","0","[1426]","1","2","","","14661","52","1","2","win","no-go","0"
"pit-trial","177","1466664","0.0-57.0","battery-v0.2","","""event"",""trial"",""time""
""focus"",""0"",""1""
""fullscreenenter"",""1"",""3427""
","
","""event"",""trial"",""time""
""focus"",""0"",""1""
","""event"",""trial"",""time""
""fullscreenenter"",""1"",""3427""
","
","","","952","","","13","14661","6045","t","elianto","#f73b6a7A"," "," ","1","0","[1806]","1","2","","","14661","53","2","3","lose","go","0"
"pit-trial","178","1470101","0.0-58.0","battery-v0.2","","""event"",""trial"",""time""
""focus"",""0"",""1""
""fullscreenenter"",""1"",""3427""
","
","""event"",""trial"",""time""
""focus"",""0"",""1""
","""event"",""trial"",""time""
""fullscreenenter"",""1"",""3427""
","
","","","578","","","13","14661","6045","f","elianto","#3366ff99","-1"," ","0","+10","[1432]","1","2","","","14661","54","1","2","win","no-go","1"
"pit-trial","179","1475163","0.0-59.0","battery-v0.2","","""event"",""trial"",""time""
""focus"",""0"",""1""
""fullscreenenter"",""1"",""3427""
","
","""event"",""trial"",""time""
""focus"",""0"",""1""
","""event"",""trial"",""time""
""fullscreenenter"",""1"",""3427""
","
","","","-1","","","13","14661","6045","n","elianto","#f73b6a7A"," ","-1","0","0","[]","0","2","","","14661","55","0","3","lose","go","1"
"pit-trial","180","1480151","0.0-60.0","battery-v0.2","","""event"",""trial"",""time""
""focus"",""0"",""1""
""fullscreenenter"",""1"",""3427""
","
","""event"",""trial"",""time""
""focus"",""0"",""1""
","""event"",""trial"",""time""
""fullscreenenter"",""1"",""3427""
","
","","","-1","","","13","14661","6045","b","elianto","#f73b6a7A","-1","-1","1","0","[]","0","2","","","14661","56","3","4","lose","no-go","0"
"pit-trial","181","1485153","0.0-61.0","battery-v0.2","","""event"",""trial"",""time""
""focus"",""0"",""1""
""fullscreenenter"",""1"",""3427""
","
","""event"",""trial"",""time""
""focus"",""0"",""1""
","""event"",""trial"",""time""
""fullscreenenter"",""1"",""3427""
","
","","","-1","","","13","14661","6045","t","elianto","#f73b6a7A"," ","-1","0","-10","[]","0","2","","","14661","57","2","3","lose","go","0"
"pit-trial","182","1490214","0.0-62.0","battery-v0.2","","""event"",""trial"",""time""
""focus"",""0"",""1""
""fullscreenenter"",""1"",""3427""
","
","""event"",""trial"",""time""
""focus"",""0"",""1""
","""event"",""trial"",""time""
""fullscreenenter"",""1"",""3427""
","
","","","-1","","","13","14661","6045","n","elianto","#f73b6a7A"," ","-1","0","-10","[]","0","2","","","14661","58","0","3","lose","go","0"
"pit-trial","183","1495068","0.0-63.0","battery-v0.2","","""event"",""trial"",""time""
""focus"",""0"",""1""
""fullscreenenter"",""1"",""3427""
","
","""event"",""trial"",""time""
""focus"",""0"",""1""
","""event"",""trial"",""time""
""fullscreenenter"",""1"",""3427""
","
","","","-1","","","13","14661","6045","b","elianto","#f73b6a7A","-1","-1","1","0","[]","0","2","","","14661","59","3","4","lose","no-go","0"
"pit-trial","184","1499927","0.0-64.0","battery-v0.2","","""event"",""trial"",""time""
""focus"",""0"",""1""
""fullscreenenter"",""1"",""3427""
","
","""event"",""trial"",""time""
""focus"",""0"",""1""
","""event"",""trial"",""time""
""fullscreenenter"",""1"",""3427""
","
","","","-1","","","13","14661","6045","c","elianto","#3366ff99"," ","-1","0","+10","[]","0","2","","","14661","60","4","1","win","go","1"
"pit-trial","185","1504960","0.0-65.0","battery-v0.2","","""event"",""trial"",""time""
""focus"",""0"",""1""
""fullscreenenter"",""1"",""3427""
","
","""event"",""trial"",""time""
""focus"",""0"",""1""
","""event"",""trial"",""time""
""fullscreenenter"",""1"",""3427""
","
","","","2175","","","13","14661","6045","c","elianto","#3366ff99"," "," ","1","+10","[3029]","1","2","","","14661","61","4","1","win","go","0"
"pit-trial","186","1509818","0.0-66.0","battery-v0.2","","""event"",""trial"",""time""
""focus"",""0"",""1""
""fullscreenenter"",""1"",""3427""
","
","""event"",""trial"",""time""
""focus"",""0"",""1""
","""event"",""trial"",""time""
""fullscreenenter"",""1"",""3427""
","
","","","-1","","","13","14661","6045","b","elianto","#f73b6a7A","-1","-1","1","0","[]","0","2","","","14661","62","3","4","lose","no-go","0"
"pit-trial","187","1513284","0.0-67.0","battery-v0.2","","""event"",""trial"",""time""
""focus"",""0"",""1""
""fullscreenenter"",""1"",""3427""
","
","""event"",""trial"",""time""
""focus"",""0"",""1""
","""event"",""trial"",""time""
""fullscreenenter"",""1"",""3427""
","
","","","610","","","13","14661","6045","f","elianto","#3366ff99","-1"," ","0","0","[1462]","1","2","","","14661","63","1","2","win","no-go","0"
"pit-trial","188","1516901","0.0-68.0","battery-v0.2","","""event"",""trial"",""time""
""focus"",""0"",""1""
""fullscreenenter"",""1"",""3427""
","
","""event"",""trial"",""time""
""focus"",""0"",""1""
","""event"",""trial"",""time""
""fullscreenenter"",""1"",""3427""
","
","","","758","","","13","14661","6045","t","elianto","#f73b6a7A"," "," ","1","0","[1613]","1","2","","","14661","64","2","3","lose","go","0"
"pit-trial","189","1521758","0.0-69.0","battery-v0.2","","""event"",""trial"",""time""
""focus"",""0"",""1""
""fullscreenenter"",""1"",""3427""
","
","""event"",""trial"",""time""
""focus"",""0"",""1""
","""event"",""trial"",""time""
""fullscreenenter"",""1"",""3427""
","
","","","-1","","","13","14661","6045","b","elianto","#f73b6a7A","-1","-1","1","-10","[]","0","2","","","14661","65","3","4","lose","no-go","1"
"pit-trial","190","1525196","0.0-70.0","battery-v0.2","","""event"",""trial"",""time""
""focus"",""0"",""1""
""fullscreenenter"",""1"",""3427""
","
","""event"",""trial"",""time""
""focus"",""0"",""1""
","""event"",""trial"",""time""
""fullscreenenter"",""1"",""3427""
","
","","","577","","","13","14661","6045","z","elianto","#3366ff99","-1"," ","0","0","[1430]","1","2","","","14661","66","5","2","win","no-go","0"
"pit-trial","191","1528719","0.0-71.0","battery-v0.2","","""event"",""trial"",""time""
""focus"",""0"",""1""
""fullscreenenter"",""1"",""3427""
","
","""event"",""trial"",""time""
""focus"",""0"",""1""
","""event"",""trial"",""time""
""fullscreenenter"",""1"",""3427""
","
","","","665","","","13","14661","6045","c","elianto","#3366ff99"," "," ","1","+10","[1518]","1","2","","","14661","67","4","1","win","go","0"
"pit-trial","192","1532145","0.0-72.0","battery-v0.2","","""event"",""trial"",""time""
""focus"",""0"",""1""
""fullscreenenter"",""1"",""3427""
","
","""event"",""trial"",""time""
""focus"",""0"",""1""
","""event"",""trial"",""time""
""fullscreenenter"",""1"",""3427""
","
","","","567","","","13","14661","6045","f","elianto","#3366ff99","-1"," ","0","+10","[1419]","1","2","","","14661","68","1","2","win","no-go","1"
"pit-trial","193","1535886","0.0-73.0","battery-v0.2","","""event"",""trial"",""time""
""focus"",""0"",""1""
""fullscreenenter"",""1"",""3427""
","
","""event"",""trial"",""time""
""focus"",""0"",""1""
","""event"",""trial"",""time""
""fullscreenenter"",""1"",""3427""
","
","","","656","","","13","14661","6045","z","elianto","#3366ff99","-1"," ","0","0","[1515]","1","2","","","14661","69","5","2","win","no-go","0"
"pit-trial","194","1539269","0.0-74.0","battery-v0.2","","""event"",""trial"",""time""
""focus"",""0"",""1""
""fullscreenenter"",""1"",""3427""
","
","""event"",""trial"",""time""
""focus"",""0"",""1""
","""event"",""trial"",""time""
""fullscreenenter"",""1"",""3427""
","
","","","527","","","13","14661","6045","f","elianto","#3366ff99","-1"," ","0","+10","[1381]","1","2","","","14661","70","1","2","win","no-go","1"
"pit-trial","195","1542638","0.0-75.0","battery-v0.2","","""event"",""trial"",""time""
""focus"",""0"",""1""
""fullscreenenter"",""1"",""3427""
","
","""event"",""trial"",""time""
""focus"",""0"",""1""
","""event"",""trial"",""time""
""fullscreenenter"",""1"",""3427""
","
","","","518","","","13","14661","6045","c","elianto","#3366ff99"," "," ","1","+10","[1369]","1","2","","","14661","71","4","1","win","go","0"
"pit-trial","196","1547497","0.0-76.0","battery-v0.2","","""event"",""trial"",""time""
""focus"",""0"",""1""
""fullscreenenter"",""1"",""3427""
","
","""event"",""trial"",""time""
""focus"",""0"",""1""
","""event"",""trial"",""time""
""fullscreenenter"",""1"",""3427""
","
","","","-1","","","13","14661","6045","t","elianto","#f73b6a7A"," ","-1","0","-10","[]","0","2","","","14661","72","2","3","lose","go","0"
"pit-trial","197","1550894","0.0-77.0","battery-v0.2","","""event"",""trial"",""time""
""focus"",""0"",""1""
""fullscreenenter"",""1"",""3427""
","
","""event"",""trial"",""time""
""focus"",""0"",""1""
","""event"",""trial"",""time""
""fullscreenenter"",""1"",""3427""
","
","","","541","","","13","14661","6045","b","elianto","#f73b6a7A","-1"," ","0","0","[1393]","1","2","","","14661","73","3","4","lose","no-go","1"
"pit-trial","198","1554267","0.0-78.0","battery-v0.2","","""event"",""trial"",""time""
""focus"",""0"",""1""
""fullscreenenter"",""1"",""3427""
","
","""event"",""trial"",""time""
""focus"",""0"",""1""
","""event"",""trial"",""time""
""fullscreenenter"",""1"",""3427""
","
","","","516","","","13","14661","6045","z","elianto","#3366ff99","-1"," ","0","0","[1368]","1","2","","","14661","74","5","2","win","no-go","0"
"pit-trial","199","1557744","0.0-79.0","battery-v0.2","","""event"",""trial"",""time""
""focus"",""0"",""1""
""fullscreenenter"",""1"",""3427""
","
","""event"",""trial"",""time""
""focus"",""0"",""1""
","""event"",""trial"",""time""
""fullscreenenter"",""1"",""3427""
","
","","","622","","","13","14661","6045","c","elianto","#3366ff99"," "," ","1","0","[1473]","1","2","","","14661","75","4","1","win","go","1"
"pit-trial","200","1561133","0.0-80.0","battery-v0.2","","""event"",""trial"",""time""
""focus"",""0"",""1""
""fullscreenenter"",""1"",""3427""
","
","""event"",""trial"",""time""
""focus"",""0"",""1""
","""event"",""trial"",""time""
""fullscreenenter"",""1"",""3427""
","
","","","533","","","13","14661","6045","f","elianto","#3366ff99","-1"," ","0","0","[1386]","1","2","","","14661","76","1","2","win","no-go","0"
"pit-trial","201","1565995","0.0-81.0","battery-v0.2","","""event"",""trial"",""time""
""focus"",""0"",""1""
""fullscreenenter"",""1"",""3427""
","
","""event"",""trial"",""time""
""focus"",""0"",""1""
","""event"",""trial"",""time""
""fullscreenenter"",""1"",""3427""
","
","","","-1","","","13","14661","6045","b","elianto","#f73b6a7A","-1","-1","1","0","[]","0","2","","","14661","77","3","4","lose","no-go","0"
"pit-trial","202","1569491","0.0-82.0","battery-v0.2","","""event"",""trial"",""time""
""focus"",""0"",""1""
""fullscreenenter"",""1"",""3427""
","
","""event"",""trial"",""time""
""focus"",""0"",""1""
","""event"",""trial"",""time""
""fullscreenenter"",""1"",""3427""
","
","","","637","","","13","14661","6045","c","elianto","#3366ff99"," "," ","1","+10","[563,1490]","2","2","","","14661","78","4","1","win","go","0"
"pit-trial","203","1573196","0.0-83.0","battery-v0.2","","""event"",""trial"",""time""
""focus"",""0"",""1""
""fullscreenenter"",""1"",""3427""
","
","""event"",""trial"",""time""
""focus"",""0"",""1""
","""event"",""trial"",""time""
""fullscreenenter"",""1"",""3427""
","
","","","805","","","13","14661","6045","c","elianto","#3366ff99"," "," ","1","+10","[1700]","1","2","","","14661","79","4","1","win","go","0"
"pit-trial","204","1577046","0.0-84.0","battery-v0.2","","""event"",""trial"",""time""
""focus"",""0"",""1""
""fullscreenenter"",""1"",""3427""
","
","""event"",""trial"",""time""
""focus"",""0"",""1""
","""event"",""trial"",""time""
""fullscreenenter"",""1"",""3427""
","
","","","991","","","13","14661","6045","z","elianto","#3366ff99","-1"," ","0","0","[1845]","1","2","","","14661","80","5","2","win","no-go","0"
"pit-trial","205","1581907","0.0-85.0","battery-v0.2","","""event"",""trial"",""time""
""focus"",""0"",""1""
""fullscreenenter"",""1"",""3427""
","
","""event"",""trial"",""time""
""focus"",""0"",""1""
","""event"",""trial"",""time""
""fullscreenenter"",""1"",""3427""
","
","","","-1","","","13","14661","6045","b","elianto","#f73b6a7A","-1","-1","1","0","[]","0","2","","","14661","81","3","4","lose","no-go","0"
"pit-trial","206","1586908","0.0-86.0","battery-v0.2","","""event"",""trial"",""time""
""focus"",""0"",""1""
""fullscreenenter"",""1"",""3427""
","
","""event"",""trial"",""time""
""focus"",""0"",""1""
","""event"",""trial"",""time""
""fullscreenenter"",""1"",""3427""
","
","","","-1","","","13","14661","6045","y","elianto","#f73b6a7A","-1","-1","1","-10","[]","0","2","","","14661","82","7","4","lose","no-go","1"
"pit-trial","207","1591570","0.0-87.0","battery-v0.2","","""event"",""trial"",""time""
""focus"",""0"",""1""
""fullscreenenter"",""1"",""3427""
","
","""event"",""trial"",""time""
""focus"",""0"",""1""
","""event"",""trial"",""time""
""fullscreenenter"",""1"",""3427""
","
","","","1804","","","13","14661","6045","c","elianto","#3366ff99"," "," ","1","+10","[2657]","1","2","","","14661","83","4","1","win","go","0"
"pit-trial","208","1595157","0.0-88.0","battery-v0.2","","""event"",""trial"",""time""
""focus"",""0"",""1""
""fullscreenenter"",""1"",""3427""
","
","""event"",""trial"",""time""
""focus"",""0"",""1""
","""event"",""trial"",""time""
""fullscreenenter"",""1"",""3427""
","
","","","728","","","13","14661","6045","z","elianto","#3366ff99","-1"," ","0","0","[1583]","1","2","","","14661","84","5","2","win","no-go","0"
"pit-trial","209","1598756","0.0-89.0","battery-v0.2","","""event"",""trial"",""time""
""focus"",""0"",""1""
""fullscreenenter"",""1"",""3427""
","
","""event"",""trial"",""time""
""focus"",""0"",""1""
","""event"",""trial"",""time""
""fullscreenenter"",""1"",""3427""
","
","","","739","","","13","14661","6045","c","elianto","#3366ff99"," "," ","1","+10","[1594]","1","2","","","14661","85","4","1","win","go","0"
"pit-trial","210","1602396","0.0-90.0","battery-v0.2","","""event"",""trial"",""time""
""focus"",""0"",""1""
""fullscreenenter"",""1"",""3427""
","
","""event"",""trial"",""time""
""focus"",""0"",""1""
","""event"",""trial"",""time""
""fullscreenenter"",""1"",""3427""
","
","","","779","","","13","14661","6045","z","elianto","#3366ff99","-1"," ","0","+10","[1634]","1","2","","","14661","86","5","2","win","no-go","1"
"pit-trial","211","1606376","0.0-91.0","battery-v0.2","","""event"",""trial"",""time""
""focus"",""0"",""1""
""fullscreenenter"",""1"",""3427""
","
","""event"",""trial"",""time""
""focus"",""0"",""1""
","""event"",""trial"",""time""
""fullscreenenter"",""1"",""3427""
","
","","","1120","","","13","14661","6045","h","elianto","#f73b6a7A"," "," ","1","0","[1976]","1","2","","","14661","87","6","3","lose","go","0"
"pit-trial","212","1610169","0.0-92.0","battery-v0.2","","""event"",""trial"",""time""
""focus"",""0"",""1""
""fullscreenenter"",""1"",""3427""
","
","""event"",""trial"",""time""
""focus"",""0"",""1""
","""event"",""trial"",""time""
""fullscreenenter"",""1"",""3427""
","
","","","799","","","13","14661","6045","y","elianto","#f73b6a7A","-1"," ","0","-10","[1652]","1","2","","","14661","88","7","4","lose","no-go","0"
"pit-trial","213","1613311","0.0-93.0","battery-v0.2","","""event"",""trial"",""time""
""focus"",""0"",""1""
""fullscreenenter"",""1"",""3427""
","
","""event"",""trial"",""time""
""focus"",""0"",""1""
","""event"",""trial"",""time""
""fullscreenenter"",""1"",""3427""
","
","","","287","","","13","14661","6045","c","elianto","#3366ff99"," "," ","1","+10","[1138]","1","2","","","14661","89","4","1","win","go","0"
"pit-trial","214","1618168","0.0-94.0","battery-v0.2","","""event"",""trial"",""time""
""focus"",""0"",""1""
""fullscreenenter"",""1"",""3427""
","
","""event"",""trial"",""time""
""focus"",""0"",""1""
","""event"",""trial"",""time""
""fullscreenenter"",""1"",""3427""
","
","","","-1","","","13","14661","6045","y","elianto","#f73b6a7A","-1","-1","1","-10","[]","0","2","","","14661","90","7","4","lose","no-go","1"
"pit-trial","215","1622601","0.0-95.0","battery-v0.2","","""event"",""trial"",""time""
""focus"",""0"",""1""
""fullscreenenter"",""1"",""3427""
","
","""event"",""trial"",""time""
""focus"",""0"",""1""
","""event"",""trial"",""time""
""fullscreenenter"",""1"",""3427""
","
","","","1574","","","13","14661","6045","h","elianto","#f73b6a7A"," "," ","1","0","[2428]","1","2","","","14661","91","6","3","lose","go","0"
"pit-trial","216","1625753","0.0-96.0","battery-v0.2","","""event"",""trial"",""time""
""focus"",""0"",""1""
""fullscreenenter"",""1"",""3427""
","
","""event"",""trial"",""time""
""focus"",""0"",""1""
","""event"",""trial"",""time""
""fullscreenenter"",""1"",""3427""
","
","","","292","","","13","14661","6045","z","elianto","#3366ff99","-1"," ","0","0","[1147]","1","2","","","14661","92","5","2","win","no-go","0"
"pit-trial","217","1630754","0.0-97.0","battery-v0.2","","""event"",""trial"",""time""
""focus"",""0"",""1""
""fullscreenenter"",""1"",""3427""
","
","""event"",""trial"",""time""
""focus"",""0"",""1""
","""event"",""trial"",""time""
""fullscreenenter"",""1"",""3427""
","
","","","-1","","","13","14661","6045","r","elianto","#3366ff99"," ","-1","0","0","[3638,4231]","2","2","","","14661","93","8","1","win","go","0"
"pit-trial","218","1635763","0.0-98.0","battery-v0.2","","""event"",""trial"",""time""
""focus"",""0"",""1""
""fullscreenenter"",""1"",""3427""
","
","""event"",""trial"",""time""
""focus"",""0"",""1""
","""event"",""trial"",""time""
""fullscreenenter"",""1"",""3427""
","
","","","-1","","","13","14661","6045","z","elianto","#3366ff99","-1","-1","1","+10","[3413,4086]","2","2","","","14661","94","5","2","win","no-go","0"
"pit-trial","219","1639000","0.0-99.0","battery-v0.2","","""event"",""trial"",""time""
""focus"",""0"",""1""
""fullscreenenter"",""1"",""3427""
","
","""event"",""trial"",""time""
""focus"",""0"",""1""
","""event"",""trial"",""time""
""fullscreenenter"",""1"",""3427""
","
","","","378","","","13","14661","6045","y","elianto","#f73b6a7A","-1"," ","0","0","[1231]","1","2","","","14661","95","7","4","lose","no-go","1"
"pit-trial","220","1643853","0.0-100.0","battery-v0.2","","""event"",""trial"",""time""
""focus"",""0"",""1""
""fullscreenenter"",""1"",""3427""
","
","""event"",""trial"",""time""
""focus"",""0"",""1""
","""event"",""trial"",""time""
""fullscreenenter"",""1"",""3427""
","
","","","-1","","","13","14661","6045","h","elianto","#f73b6a7A"," ","-1","0","0","[3671]","1","2","","","14661","96","6","3","lose","go","1"
"pit-trial","221","1647358","0.0-101.0","battery-v0.2","","""event"",""trial"",""time""
""focus"",""0"",""1""
""fullscreenenter"",""1"",""3427""
","
","""event"",""trial"",""time""
""focus"",""0"",""1""
","""event"",""trial"",""time""
""fullscreenenter"",""1"",""3427""
","
","","","646","","","13","14661","6045","z","elianto","#3366ff99","-1"," ","0","0","[1501]","1","2","","","14661","97","5","2","win","no-go","0"
"pit-trial","222","1652215","0.0-102.0","battery-v0.2","","""event"",""trial"",""time""
""focus"",""0"",""1""
""fullscreenenter"",""1"",""3427""
","
","""event"",""trial"",""time""
""focus"",""0"",""1""
","""event"",""trial"",""time""
""fullscreenenter"",""1"",""3427""
","
","","","-1","","","13","14661","6045","y","elianto","#f73b6a7A","-1","-1","1","0","[]","0","2","","","14661","98","7","4","lose","no-go","0"
"pit-trial","223","1655401","0.0-103.0","battery-v0.2","","""event"",""trial"",""time""
""focus"",""0"",""1""
""fullscreenenter"",""1"",""3427""
","
","""event"",""trial"",""time""
""focus"",""0"",""1""
","""event"",""trial"",""time""
""fullscreenenter"",""1"",""3427""
","
","","","329","","","13","14661","6045","h","elianto","#f73b6a7A"," "," ","1","0","[577,1182]","2","2","","","14661","99","6","3","lose","go","0"
"pit-trial","224","1658781","0.0-104.0","battery-v0.2","","""event"",""trial"",""time""
""focus"",""0"",""1""
""fullscreenenter"",""1"",""3427""
","
","""event"",""trial"",""time""
""focus"",""0"",""1""
","""event"",""trial"",""time""
""fullscreenenter"",""1"",""3427""
","
","","","522","","","13","14661","6045","r","elianto","#3366ff99"," "," ","1","+10","[1375]","1","2","","","14661","100","8","1","win","go","0"
"pit-trial","225","1662309","0.0-105.0","battery-v0.2","","""event"",""trial"",""time""
""focus"",""0"",""1""
""fullscreenenter"",""1"",""3427""
","
","""event"",""trial"",""time""
""focus"",""0"",""1""
","""event"",""trial"",""time""
""fullscreenenter"",""1"",""3427""
","
","","","589","","","13","14661","6045","r","elianto","#3366ff99"," "," ","1","+10","[1521]","1","2","","","14661","101","8","1","win","go","0"
"pit-trial","226","1667140","0.0-106.0","battery-v0.2","","""event"",""trial"",""time""
""focus"",""0"",""1""
""fullscreenenter"",""1"",""3427""
","
","""event"",""trial"",""time""
""focus"",""0"",""1""
","""event"",""trial"",""time""
""fullscreenenter"",""1"",""3427""
","
","","","1972","","","13","14661","6045","m","elianto","#3366ff99"," "," ","1","+10","[2824]","1","2","","","14661","102","9","1","win","go","0"
"pit-trial","227","1672000","0.0-107.0","battery-v0.2","","""event"",""trial"",""time""
""focus"",""0"",""1""
""fullscreenenter"",""1"",""3427""
","
","""event"",""trial"",""time""
""focus"",""0"",""1""
","""event"",""trial"",""time""
""fullscreenenter"",""1"",""3427""
","
","","","-1","","","13","14661","6045","y","elianto","#f73b6a7A","-1","-1","1","0","[3618,4351]","2","2","","","14661","103","7","4","lose","no-go","0"
"pit-trial","228","1675412","0.0-108.0","battery-v0.2","","""event"",""trial"",""time""
""focus"",""0"",""1""
""fullscreenenter"",""1"",""3427""
","
","""event"",""trial"",""time""
""focus"",""0"",""1""
","""event"",""trial"",""time""
""fullscreenenter"",""1"",""3427""
","
","","","554","","","13","14661","6045","z","elianto","#3366ff99","-1"," ","0","0","[1407]","1","2","","","14661","104","5","2","win","no-go","0"
"pit-trial","229","1679243","0.0-109.0","battery-v0.2","","""event"",""trial"",""time""
""focus"",""0"",""1""
""fullscreenenter"",""1"",""3427""
","
","""event"",""trial"",""time""
""focus"",""0"",""1""
","""event"",""trial"",""time""
""fullscreenenter"",""1"",""3427""
","
