"trial_type","trial_index","time_elapsed","internal_node_id","task_version","subject_id","interactions","blur_events","focus_events","fullscreenenter_events","fullscreenexit_events","success","view_history","rt","responses","num_errors","age","subject","participantId","rune","rune_set","hex","correct","choice","accuracy","outcome","keys","total_keys","block","practice","value","sub","trial","stimulus","robot","valence","action","sham"
"pavlovia","0","12","0.0-0.0","battery-v0.2","","""event"",""trial"",""time""
""fullscreenenter"",""1"",""1999""
","
","
","""event"",""trial"",""time""
""fullscreenenter"",""1"",""1999""
","
","","","","","","","","","","","","","","","","","","","","","","","","","","",""
"fullscreen","1","2982","0.0-1.0","battery-v0.2","","""event"",""trial"",""time""
""fullscreenenter"",""1"",""1999""
","
","
","""event"",""trial"",""time""
""fullscreenenter"",""1"",""1999""
","
","true","","","","","","","","","","","","","","","","","","","","","","","","","",""
"pit-instructions","2","6950","0.0-2.0-0.0","battery-v0.2","","""event"",""trial"",""time""
""fullscreenenter"",""1"",""1999""
","
","
","""event"",""trial"",""time""
""fullscreenenter"",""1"",""1999""
","
","","[{""page_index"":0,""viewing_time"":3964.899999856949}]","3965.2000000476837","","","","","","","","","","","","","","","","","","","","","","","",""
"pit-comprehension","3","10326","0.0-2.0-1.0-0.0","battery-v0.2","","""event"",""trial"",""time""
""fullscreenenter"",""1"",""1999""
","
","
","""event"",""trial"",""time""
""fullscreenenter"",""1"",""1999""
","
","","","3373.5","[""shark""]","0","24","10584","949","","","","","","","","","","","","","","","","","","",""
"pit-instructions","4","12117","0.0-2.0-1.0-1.0","battery-v0.2","","""event"",""trial"",""time""
""fullscreenenter"",""1"",""1999""
","
","
","""event"",""trial"",""time""
""fullscreenenter"",""1"",""1999""
","
","","[{""page_index"":0,""viewing_time"":1774.1000001430511}]","1774.4000000953674","","","","","","","","","","","","","","","","","","","","","","","",""
"pit-comprehension","5","15534","0.0-2.0-2.0-0.0","battery-v0.2","","""event"",""trial"",""time""
""fullscreenenter"",""1"",""1999""
","
","
","""event"",""trial"",""time""
""fullscreenenter"",""1"",""1999""
","
","","","3413.5999999046326","[""tiger""]","0","24","10584","949","","","","","","","","","","","","","","","","","","",""
"pit-instructions","6","23949","0.0-2.0-2.0-1.0","battery-v0.2","","""event"",""trial"",""time""
""fullscreenenter"",""1"",""1999""
","
","
","""event"",""trial"",""time""
""fullscreenenter"",""1"",""1999""
","
","","[{""page_index"":0,""viewing_time"":8412}]","8412.200000047684","","","","","","","","","","","","","","","","","","","","","","","",""
"pit-instructions","7","122270","0.0-2.0-3.0","battery-v0.2","","""event"",""trial"",""time""
""fullscreenenter"",""1"",""1999""
","
","
","""event"",""trial"",""time""
""fullscreenenter"",""1"",""1999""
","
","","[{""page_index"":0,""viewing_time"":8197.5},{""page_index"":1,""viewing_time"":6127.900000095367},{""page_index"":2,""viewing_time"":7256.200000047684},{""page_index"":3,""viewing_time"":5232.200000047684},{""page_index"":4,""viewing_time"":6111.699999809265},{""page_index"":5,""viewing_time"":5648},{""page_index"":6,""viewing_time"":7328.100000143051},{""page_index"":7,""viewing_time"":6321.599999904633},{""page_index"":8,""viewing_time"":6150.400000095367},{""page_index"":9,""viewing_time"":7952.099999904633},{""page_index"":10,""viewing_time"":7111.799999952316},{""page_index"":11,""viewing_time"":10322.100000143051},{""page_index"":12,""viewing_time"":9229.899999856949},{""page_index"":13,""viewing_time"":5328.100000143051}]","98317.90000009537","","","","","","","","","","","","","","","","","","","","","","","",""
"pit-trial","8","126213","0.0-2.0-4.0-0.0","battery-v0.2","","""event"",""trial"",""time""
""fullscreenenter"",""1"",""1999""
","
","
","""event"",""trial"",""time""
""fullscreenenter"",""1"",""1999""
","
","","","1083.5999999046326","","","24","10584","949","&#9784;","elianto","#FFFFF080"," "," ","1","&#10004","[1933.8999998569489]","1","0","0","","","","","","","",""
"pit-trial","9","129710","0.0-2.0-4.1-0.1","battery-v0.2","","""event"",""trial"",""time""
""fullscreenenter"",""1"",""1999""
","
","
","""event"",""trial"",""time""
""fullscreenenter"",""1"",""1999""
","
","","","631.9000000953674","","","24","10584","949","&#9784;","elianto","#FFFFF080"," "," ","1","&#10004","[1484.5999999046326]","1","0","0","","","","","","","",""
"pit-trial","10","133172","0.0-2.0-4.2-0.2","battery-v0.2","","""event"",""trial"",""time""
""fullscreenenter"",""1"",""1999""
","
","
","""event"",""trial"",""time""
""fullscreenenter"",""1"",""1999""
","
","","","587","","","24","10584","949","&#9784;","elianto","#FFFFF080"," "," ","1","&#10004","[1447.4000000953674]","1","0","0","","","","","","","",""
"pit-trial","11","136617","0.0-2.0-4.3-0.3","battery-v0.2","","""event"",""trial"",""time""
""fullscreenenter"",""1"",""1999""
","
","
","""event"",""trial"",""time""
""fullscreenenter"",""1"",""1999""
","
","","","582.7999999523163","","","24","10584","949","&#9784;","elianto","#FFFFF080"," "," ","1","&#10004","[1433.2999999523163]","1","0","0","","","","","","","",""
"pit-trial","12","140089","0.0-2.0-4.4-0.4","battery-v0.2","","""event"",""trial"",""time""
""fullscreenenter"",""1"",""1999""
","
","
","""event"",""trial"",""time""
""fullscreenenter"",""1"",""1999""
","
","","","608.7000000476837","","","24","10584","949","&#9784;","elianto","#FFFFF080"," "," ","1","&#10004","[1461]","1","0","0","","","","","","","",""
"pit-instructions","13","162029","0.0-2.0-5.0","battery-v0.2","","""event"",""trial"",""time""
""fullscreenenter"",""1"",""1999""
","
","
","""event"",""trial"",""time""
""fullscreenenter"",""1"",""1999""
","
","","[{""page_index"":0,""viewing_time"":4665.799999952316},{""page_index"":1,""viewing_time"":6240},{""page_index"":2,""viewing_time"":4864.100000143051},{""page_index"":3,""viewing_time"":6167.899999856949}]","21938","","","","","","","","","","","","","","","","","","","","","","","",""
"pit-trial","14","166883","0.0-2.0-6.0-0.0","battery-v0.2","","""event"",""trial"",""time""
""fullscreenenter"",""1"",""1999""
","
","
","""event"",""trial"",""time""
""fullscreenenter"",""1"",""1999""
","
","","","-1","","","24","10584","949","&#9854;","elianto","#FFFFF080","-1","-1","1","&#10004","[]","0","0","1","","","","","","","",""
"pit-trial","15","171761","0.0-2.0-6.1-0.1","battery-v0.2","","""event"",""trial"",""time""
""fullscreenenter"",""1"",""1999""
","
","
","""event"",""trial"",""time""
""fullscreenenter"",""1"",""1999""
","
","","","-1","","","24","10584","949","&#9854;","elianto","#FFFFF080","-1","-1","1","&#10004","[]","0","0","1","","","","","","","",""
"pit-trial","16","176629","0.0-2.0-6.2-0.2","battery-v0.2","","""event"",""trial"",""time""
""fullscreenenter"",""1"",""1999""
","
","
","""event"",""trial"",""time""
""fullscreenenter"",""1"",""1999""
","
","","","-1","","","24","10584","949","&#9854;","elianto","#FFFFF080","-1","-1","1","&#10004","[]","0","0","1","","","","","","","",""
"pit-trial","17","181492","0.0-2.0-6.3-0.3","battery-v0.2","","""event"",""trial"",""time""
""fullscreenenter"",""1"",""1999""
","
","
","""event"",""trial"",""time""
""fullscreenenter"",""1"",""1999""
","
","","","-1","","","24","10584","949","&#9854;","elianto","#FFFFF080","-1","-1","1","&#10004","[]","0","0","1","","","","","","","",""
"pit-trial","18","186376","0.0-2.0-6.4-0.4","battery-v0.2","","""event"",""trial"",""time""
""fullscreenenter"",""1"",""1999""
","
","
","""event"",""trial"",""time""
""fullscreenenter"",""1"",""1999""
","
","","","-1","","","24","10584","949","&#9854;","elianto","#FFFFF080","-1","-1","1","&#10004","[]","0","0","1","","","","","","","",""
"pit-instructions","19","315685","0.0-2.0-7.0","battery-v0.2","","""event"",""trial"",""time""
""fullscreenenter"",""1"",""1999""
","
","
","""event"",""trial"",""time""
""fullscreenenter"",""1"",""1999""
","
","","[{""page_index"":0,""viewing_time"":16536.400000095367},{""page_index"":1,""viewing_time"":7015.799999952316},{""page_index"":2,""viewing_time"":6423.900000095367},{""page_index"":3,""viewing_time"":6888},{""page_index"":4,""viewing_time"":6304.099999904633},{""page_index"":5,""viewing_time"":5288.100000143051},{""page_index"":6,""viewing_time"":4751.899999856949},{""page_index"":7,""viewing_time"":8952.200000047684},{""page_index"":8,""viewing_time"":7471.799999952316},{""page_index"":9,""viewing_time"":6136},{""page_index"":10,""viewing_time"":6904},{""page_index"":11,""viewing_time"":4232},{""page_index"":12,""viewing_time"":7160},{""page_index"":13,""viewing_time"":7608.100000143051},{""page_index"":14,""viewing_time"":7223.899999856949},{""page_index"":15,""viewing_time"":6312.100000143051},{""page_index"":16,""viewing_time"":7007.899999856949},{""page_index"":17,""viewing_time"":7088}]","129304.5","","","","","","","","","","","","","","","","","","","","","","","",""
"pit-trial","20","319833","0.0-2.0-8.0-0.0","battery-v0.2","","""event"",""trial"",""time""
""fullscreenenter"",""1"",""1999""
","
","
","""event"",""trial"",""time""
""fullscreenenter"",""1"",""1999""
","
","","","1287.7000000476837","","","24","10584","949","&#9776;","elianto","#3366ff99"," "," ","1","+10","[2138.0999999046326]","1","0","1","","","","","","","",""
"pit-trial","21","323482","0.0-2.0-8.0-1.0","battery-v0.2","","""event"",""trial"",""time""
""fullscreenenter"",""1"",""1999""
","
","
","""event"",""trial"",""time""
""fullscreenenter"",""1"",""1999""
","
","","","780.2000000476837","","","24","10584","949","&#9776;","elianto","#3366ff99"," "," ","1","+10","[1630.4000000953674]","1","0","1","","","","","","","",""
"pit-trial","22","326964","0.0-2.0-8.0-2.0","battery-v0.2","","""event"",""trial"",""time""
""fullscreenenter"",""1"",""1999""
","
","
","""event"",""trial"",""time""
""fullscreenenter"",""1"",""1999""
","
","","","613.6000001430511","","","24","10584","949","&#9776;","elianto","#3366ff99"," "," ","1","+10","[1469.9000000953674]","1","0","1","","","","","","","",""
"pit-trial","23","330366","0.0-2.0-8.0-3.0","battery-v0.2","","""event"",""trial"",""time""
""fullscreenenter"",""1"",""1999""
","
","
","""event"",""trial"",""time""
""fullscreenenter"",""1"",""1999""
","
","","","531.0999999046326","","","24","10584","949","&#9776;","elianto","#3366ff99"," "," ","1","0","[1389.2000000476837]","1","0","1","","","","","","","",""
"pit-trial","24","333832","0.0-2.0-8.0-4.0","battery-v0.2","","""event"",""trial"",""time""
""fullscreenenter"",""1"",""1999""
","
","
","""event"",""trial"",""time""
""fullscreenenter"",""1"",""1999""
","
","","","603.0999999046326","","","24","10584","949","&#9776;","elianto","#3366ff99"," "," ","1","+10","[1455.7999999523163]","1","0","1","","","","","","","",""
"pit-trial","25","337145","0.0-2.0-8.1-0.1","battery-v0.2","","""event"",""trial"",""time""
""fullscreenenter"",""1"",""1999""
","
","
","""event"",""trial"",""time""
""fullscreenenter"",""1"",""1999""
","
","","","445.80000019073486","","","24","10584","949","&#9776;","elianto","#3366ff99"," "," ","1","+10","[1304.3999998569489]","1","0","1","","","","","","","",""
"pit-trial","26","340489","0.0-2.0-8.1-1.1","battery-v0.2","","""event"",""trial"",""time""
""fullscreenenter"",""1"",""1999""
","
","
","""event"",""trial"",""time""
""fullscreenenter"",""1"",""1999""
","
","","","480.5","","","24","10584","949","&#9776;","elianto","#3366ff99"," "," ","1","+10","[1330.8999998569489]","1","0","1","","","","","","","",""
"pit-trial","27","343849","0.0-2.0-8.1-2.1","battery-v0.2","","""event"",""trial"",""time""
""fullscreenenter"",""1"",""1999""
","
","
","""event"",""trial"",""time""
""fullscreenenter"",""1"",""1999""
","
","","","504.5","","","24","10584","949","&#9776;","elianto","#3366ff99"," "," ","1","+10","[1356.2000000476837]","1","0","1","","","","","","","",""
"pit-trial","28","347211","0.0-2.0-8.1-3.1","battery-v0.2","","""event"",""trial"",""time""
""fullscreenenter"",""1"",""1999""
","
","
","""event"",""trial"",""time""
""fullscreenenter"",""1"",""1999""
","
","","","502.69999980926514","","","24","10584","949","&#9776;","elianto","#3366ff99"," "," ","1","0","[1357]","1","0","1","","","","","","","",""
"pit-trial","29","350620","0.0-2.0-8.1-4.1","battery-v0.2","","""event"",""trial"",""time""
""fullscreenenter"",""1"",""1999""
","
","
","""event"",""trial"",""time""
""fullscreenenter"",""1"",""1999""
","
","","","553.5","","","24","10584","949","&#9776;","elianto","#3366ff99"," "," ","1","+10","[1405.1000001430511]","1","0","1","","","","","","","",""
"pit-trial","30","354036","0.0-2.0-8.2-0.2","battery-v0.2","","""event"",""trial"",""time""
""fullscreenenter"",""1"",""1999""
","
","
","""event"",""trial"",""time""
""fullscreenenter"",""1"",""1999""
","
","","","553.2999999523163","","","24","10584","949","&#9776;","elianto","#3366ff99"," "," ","1","+10","[1404.5999999046326]","1","0","1","","","","","","","",""
"pit-trial","31","357373","0.0-2.0-8.2-1.2","battery-v0.2","","""event"",""trial"",""time""
""fullscreenenter"",""1"",""1999""
","
","
","""event"",""trial"",""time""
""fullscreenenter"",""1"",""1999""
","
","","","483.40000009536743","","","24","10584","949","&#9776;","elianto","#3366ff99"," "," ","1","+10","[1333.7999999523163]","1","0","1","","","","","","","",""
"pit-trial","32","360644","0.0-2.0-8.2-2.2","battery-v0.2","","""event"",""trial"",""time""
""fullscreenenter"",""1"",""1999""
","
","
","""event"",""trial"",""time""
""fullscreenenter"",""1"",""1999""
","
","","","417","","","24","10584","949","&#9776;","elianto","#3366ff99"," "," ","1","+10","[1267.5999999046326]","1","0","1","","","","","","","",""
"pit-trial","33","363926","0.0-2.0-8.2-3.2","battery-v0.2","","""event"",""trial"",""time""
""fullscreenenter"",""1"",""1999""
","
","
","""event"",""trial"",""time""
""fullscreenenter"",""1"",""1999""
","
","","","426.59999990463257","","","24","10584","949","&#9776;","elianto","#3366ff99"," "," ","1","0","[1279.1999998092651]","1","0","1","","","","","","","",""
"pit-trial","34","367088","0.0-2.0-8.2-4.2","battery-v0.2","","""event"",""trial"",""time""
""fullscreenenter"",""1"",""1999""
","
","
","""event"",""trial"",""time""
""fullscreenenter"",""1"",""1999""
","
","","","309.2000000476837","","","24","10584","949","&#9776;","elianto","#3366ff99"," "," ","1","+10","[1160.9000000953674]","1","0","1","","","","","","","",""
"call-function","35","367090","0.0-2.0-9.0","battery-v0.2","","""event"",""trial"",""time""
""fullscreenenter"",""1"",""1999""
","
","
","""event"",""trial"",""time""
""fullscreenenter"",""1"",""1999""
","
","","","","","","","","","","","","","","","","","","","","","","","","","","",""
"pit-instructions","36","406005","0.0-2.0-10.0","battery-v0.2","","""event"",""trial"",""time""
""fullscreenenter"",""1"",""1999""
","
","
","""event"",""trial"",""time""
""fullscreenenter"",""1"",""1999""
","
","","[{""page_index"":0,""viewing_time"":5626},{""page_index"":1,""viewing_time"":7376},{""page_index"":2,""viewing_time"":9456},{""page_index"":3,""viewing_time"":8688.099999904633},{""page_index"":4,""viewing_time"":7767.900000095367}]","38914.199999809265","","","","","","","","","","","","","","","","","","","","","","","",""
"pit-trial","37","410877","0.0-2.0-11.0-0.0","battery-v0.2","","""event"",""trial"",""time""
""fullscreenenter"",""1"",""1999""
","
","
","""event"",""trial"",""time""
""fullscreenenter"",""1"",""1999""
","
","","","-1","","","24","10584","949","&#9761;","elianto","#3366ff99","-1","-1","1","+10","[]","0","0","2","","","","","","","",""
"pit-trial","38","415741","0.0-2.0-11.0-1.0","battery-v0.2","","""event"",""trial"",""time""
""fullscreenenter"",""1"",""1999""
","
","
","""event"",""trial"",""time""
""fullscreenenter"",""1"",""1999""
","
","","","-1","","","24","10584","949","&#9761;","elianto","#3366ff99","-1","-1","1","+10","[]","0","0","2","","","","","","","",""
"pit-trial","39","420604","0.0-2.0-11.0-2.0","battery-v0.2","","""event"",""trial"",""time""
""fullscreenenter"",""1"",""1999""
","
","
","""event"",""trial"",""time""
""fullscreenenter"",""1"",""1999""
","
","","","-1","","","24","10584","949","&#9761;","elianto","#3366ff99","-1","-1","1","+10","[]","0","0","2","","","","","","","",""
"pit-trial","40","425461","0.0-2.0-11.0-3.0","battery-v0.2","","""event"",""trial"",""time""
""fullscreenenter"",""1"",""1999""
","
","
","""event"",""trial"",""time""
""fullscreenenter"",""1"",""1999""
","
","","","-1","","","24","10584","949","&#9761;","elianto","#3366ff99","-1","-1","1","0","[]","0","0","2","","","","","","","",""
"pit-trial","41","430319","0.0-2.0-11.0-4.0","battery-v0.2","","""event"",""trial"",""time""
""fullscreenenter"",""1"",""1999""
","
","
","""event"",""trial"",""time""
""fullscreenenter"",""1"",""1999""
","
","","","-1","","","24","10584","949","&#9761;","elianto","#3366ff99","-1","-1","1","+10","[]","0","0","2","","","","","","","",""
"pit-trial","42","435186","0.0-2.0-11.1-0.1","battery-v0.2","","""event"",""trial"",""time""
""fullscreenenter"",""1"",""1999""
","
","
","""event"",""trial"",""time""
""fullscreenenter"",""1"",""1999""
","
","","","-1","","","24","10584","949","&#9761;","elianto","#3366ff99","-1","-1","1","+10","[]","0","0","2","","","","","","","",""
"pit-trial","43","440039","0.0-2.0-11.1-1.1","battery-v0.2","","""event"",""trial"",""time""
""fullscreenenter"",""1"",""1999""
","
","
","""event"",""trial"",""time""
""fullscreenenter"",""1"",""1999""
","
","","","-1","","","24","10584","949","&#9761;","elianto","#3366ff99","-1","-1","1","+10","[]","0","0","2","","","","","","","",""
"pit-trial","44","444892","0.0-2.0-11.1-2.1","battery-v0.2","","""event"",""trial"",""time""
""fullscreenenter"",""1"",""1999""
","
","
","""event"",""trial"",""time""
""fullscreenenter"",""1"",""1999""
","
","","","-1","","","24","10584","949","&#9761;","elianto","#3366ff99","-1","-1","1","+10","[]","0","0","2","","","","","","","",""
"pit-trial","45","449746","0.0-2.0-11.1-3.1","battery-v0.2","","""event"",""trial"",""time""
""fullscreenenter"",""1"",""1999""
","
","
","""event"",""trial"",""time""
""fullscreenenter"",""1"",""1999""
","
","","","-1","","","24","10584","949","&#9761;","elianto","#3366ff99","-1","-1","1","0","[]","0","0","2","","","","","","","",""
"pit-trial","46","454599","0.0-2.0-11.1-4.1","battery-v0.2","","""event"",""trial"",""time""
""fullscreenenter"",""1"",""1999""
","
","
","""event"",""trial"",""time""
""fullscreenenter"",""1"",""1999""
","
","","","-1","","","24","10584","949","&#9761;","elianto","#3366ff99","-1","-1","1","+10","[]","0","0","2","","","","","","","",""
"pit-trial","47","459453","0.0-2.0-11.2-0.2","battery-v0.2","","""event"",""trial"",""time""
""fullscreenenter"",""1"",""1999""
","
","
","""event"",""trial"",""time""
""fullscreenenter"",""1"",""1999""
","
","","","-1","","","24","10584","949","&#9761;","elianto","#3366ff99","-1","-1","1","+10","[]","0","0","2","","","","","","","",""
"pit-trial","48","464320","0.0-2.0-11.2-1.2","battery-v0.2","","""event"",""trial"",""time""
""fullscreenenter"",""1"",""1999""
","
","
","""event"",""trial"",""time""
""fullscreenenter"",""1"",""1999""
","
","","","-1","","","24","10584","949","&#9761;","elianto","#3366ff99","-1","-1","1","+10","[]","0","0","2","","","","","","","",""
"pit-trial","49","469173","0.0-2.0-11.2-2.2","battery-v0.2","","""event"",""trial"",""time""
""fullscreenenter"",""1"",""1999""
","
","
","""event"",""trial"",""time""
""fullscreenenter"",""1"",""1999""
","
","","","-1","","","24","10584","949","&#9761;","elianto","#3366ff99","-1","-1","1","+10","[]","0","0","2","","","","","","","",""
"pit-trial","50","474025","0.0-2.0-11.2-3.2","battery-v0.2","","""event"",""trial"",""time""
""fullscreenenter"",""1"",""1999""
","
","
","""event"",""trial"",""time""
""fullscreenenter"",""1"",""1999""
","
","","","-1","","","24","10584","949","&#9761;","elianto","#3366ff99","-1","-1","1","0","[]","0","0","2","","","","","","","",""
"pit-trial","51","478882","0.0-2.0-11.2-4.2","battery-v0.2","","""event"",""trial"",""time""
""fullscreenenter"",""1"",""1999""
","
","
","""event"",""trial"",""time""
""fullscreenenter"",""1"",""1999""
","
","","","-1","","","24","10584","949","&#9761;","elianto","#3366ff99","-1","-1","1","+10","[]","0","0","2","","","","","","","",""
"pit-trial","52","483737","0.0-2.0-11.3-0.3","battery-v0.2","","""event"",""trial"",""time""
""fullscreenenter"",""1"",""1999""
","
","
","""event"",""trial"",""time""
""fullscreenenter"",""1"",""1999""
","
","","","-1","","","24","10584","949","&#9761;","elianto","#3366ff99","-1","-1","1","+10","[]","0","0","2","","","","","","","",""
"pit-trial","53","488592","0.0-2.0-11.3-1.3","battery-v0.2","","""event"",""trial"",""time""
""fullscreenenter"",""1"",""1999""
","
","
","""event"",""trial"",""time""
""fullscreenenter"",""1"",""1999""
","
","","","-1","","","24","10584","949","&#9761;","elianto","#3366ff99","-1","-1","1","+10","[]","0","0","2","","","","","","","",""
"pit-trial","54","493446","0.0-2.0-11.3-2.3","battery-v0.2","","""event"",""trial"",""time""
""fullscreenenter"",""1"",""1999""
","
","
","""event"",""trial"",""time""
""fullscreenenter"",""1"",""1999""
","
","","","-1","","","24","10584","949","&#9761;","elianto","#3366ff99","-1","-1","1","+10","[]","0","0","2","","","","","","","",""
"pit-trial","55","498300","0.0-2.0-11.3-3.3","battery-v0.2","","""event"",""trial"",""time""
""fullscreenenter"",""1"",""1999""
","
","
","""event"",""trial"",""time""
""fullscreenenter"",""1"",""1999""
","
","","","-1","","","24","10584","949","&#9761;","elianto","#3366ff99","-1","-1","1","0","[]","0","0","2","","","","","","","",""
"pit-trial","56","503153","0.0-2.0-11.3-4.3","battery-v0.2","","""event"",""trial"",""time""
""fullscreenenter"",""1"",""1999""
","
","
","""event"",""trial"",""time""
""fullscreenenter"",""1"",""1999""
","
","","","-1","","","24","10584","949","&#9761;","elianto","#3366ff99","-1","-1","1","+10","[]","0","0","2","","","","","","","",""
"call-function","57","503154","0.0-2.0-12.0","battery-v0.2","","""event"",""trial"",""time""
""fullscreenenter"",""1"",""1999""
","
","
","""event"",""trial"",""time""
""fullscreenenter"",""1"",""1999""
","
","","","","","","","","","","","","","","","","","","","","","","","","","","",""
"pit-instructions","58","536741","0.0-2.0-13.0","battery-v0.2","","""event"",""trial"",""time""
""fullscreenenter"",""1"",""1999""
","
","
","""event"",""trial"",""time""
""fullscreenenter"",""1"",""1999""
","
","","[{""page_index"":0,""viewing_time"":6395.200000047684},{""page_index"":1,""viewing_time"":7344},{""page_index"":2,""viewing_time"":4607.799999952316},{""page_index"":3,""viewing_time"":10353.400000095367},{""page_index"":4,""viewing_time"":4886.799999952316}]","33587.40000009537","","","","","","","","","","","","","","","","","","","","","","","",""
"pit-trial","59","540385","0.0-2.0-14.0-0.0","battery-v0.2","","""event"",""trial"",""time""
""fullscreenenter"",""1"",""1999""
","
","
","""event"",""trial"",""time""
""fullscreenenter"",""1"",""1999""
","
","","","779.7999999523163","","","24","10584","949","&#9826;","elianto","#f73b6a7A","-1"," ","0","-10","[1632.1000001430511]","1","0","3","","","","","","","",""
"pit-trial","60","545243","0.0-2.0-14.0-1.0","battery-v0.2","","""event"",""trial"",""time""
""fullscreenenter"",""1"",""1999""
","
","
","""event"",""trial"",""time""
""fullscreenenter"",""1"",""1999""
","
","","","-1","","","24","10584","949","&#9826;","elianto","#f73b6a7A","-1","-1","1","0","[]","0","0","3","","","","","","","",""
"pit-trial","61","550107","0.0-2.0-14.0-2.0","battery-v0.2","","""event"",""trial"",""time""
""fullscreenenter"",""1"",""1999""
","
","
","""event"",""trial"",""time""
""fullscreenenter"",""1"",""1999""
","
","","","-1","","","24","10584","949","&#9826;","elianto","#f73b6a7A","-1","-1","1","0","[]","0","0","3","","","","","","","",""
"pit-trial","62","554975","0.0-2.0-14.0-3.0","battery-v0.2","","""event"",""trial"",""time""
""fullscreenenter"",""1"",""1999""
","
","
","""event"",""trial"",""time""
""fullscreenenter"",""1"",""1999""
","
","","","-1","","","24","10584","949","&#9826;","elianto","#f73b6a7A","-1","-1","1","-10","[]","0","0","3","","","","","","","",""
"pit-trial","63","559843","0.0-2.0-14.0-4.0","battery-v0.2","","""event"",""trial"",""time""
""fullscreenenter"",""1"",""1999""
","
","
","""event"",""trial"",""time""
""fullscreenenter"",""1"",""1999""
","
","","","-1","","","24","10584","949","&#9826;","elianto","#f73b6a7A","-1","-1","1","0","[]","0","0","3","","","","","","","",""
"pit-trial","64","564709","0.0-2.0-14.1-0.1","battery-v0.2","","""event"",""trial"",""time""
""fullscreenenter"",""1"",""1999""
","
","
","""event"",""trial"",""time""
""fullscreenenter"",""1"",""1999""
","
","","","-1","","","24","10584","949","&#9826;","elianto","#f73b6a7A","-1","-1","1","0","[]","0","0","3","","","","","","","",""
"pit-trial","65","569564","0.0-2.0-14.1-1.1","battery-v0.2","","""event"",""trial"",""time""
""fullscreenenter"",""1"",""1999""
","
","
","""event"",""trial"",""time""
""fullscreenenter"",""1"",""1999""
","
","","","-1","","","24","10584","949","&#9826;","elianto","#f73b6a7A","-1","-1","1","0","[]","0","0","3","","","","","","","",""
"pit-trial","66","574417","0.0-2.0-14.1-2.1","battery-v0.2","","""event"",""trial"",""time""
""fullscreenenter"",""1"",""1999""
","
","
","""event"",""trial"",""time""
""fullscreenenter"",""1"",""1999""
","
","","","-1","","","24","10584","949","&#9826;","elianto","#f73b6a7A","-1","-1","1","0","[]","0","0","3","","","","","","","",""
"pit-trial","67","579272","0.0-2.0-14.1-3.1","battery-v0.2","","""event"",""trial"",""time""
""fullscreenenter"",""1"",""1999""
","
","
","""event"",""trial"",""time""
""fullscreenenter"",""1"",""1999""
","
","","","-1","","","24","10584","949","&#9826;","elianto","#f73b6a7A","-1","-1","1","-10","[]","0","0","3","","","","","","","",""
"pit-trial","68","584125","0.0-2.0-14.1-4.1","battery-v0.2","","""event"",""trial"",""time""
""fullscreenenter"",""1"",""1999""
","
","
","""event"",""trial"",""time""
""fullscreenenter"",""1"",""1999""
","
","","","-1","","","24","10584","949","&#9826;","elianto","#f73b6a7A","-1","-1","1","0","[]","0","0","3","","","","","","","",""
"pit-trial","69","588979","0.0-2.0-14.2-0.2","battery-v0.2","","""event"",""trial"",""time""
""fullscreenenter"",""1"",""1999""
","
","
","""event"",""trial"",""time""
""fullscreenenter"",""1"",""1999""
","
","","","-1","","","24","10584","949","&#9826;","elianto","#f73b6a7A","-1","-1","1","0","[]","0","0","3","","","","","","","",""
"pit-trial","70","593832","0.0-2.0-14.2-1.2","battery-v0.2","","""event"",""trial"",""time""
""fullscreenenter"",""1"",""1999""
","
","
","""event"",""trial"",""time""
""fullscreenenter"",""1"",""1999""
","
","","","-1","","","24","10584","949","&#9826;","elianto","#f73b6a7A","-1","-1","1","0","[]","0","0","3","","","","","","","",""
"pit-trial","71","598685","0.0-2.0-14.2-2.2","battery-v0.2","","""event"",""trial"",""time""
""fullscreenenter"",""1"",""1999""
","
","
","""event"",""trial"",""time""
""fullscreenenter"",""1"",""1999""
","
","","","-1","","","24","10584","949","&#9826;","elianto","#f73b6a7A","-1","-1","1","0","[]","0","0","3","","","","","","","",""
"pit-trial","72","603538","0.0-2.0-14.2-3.2","battery-v0.2","","""event"",""trial"",""time""
""fullscreenenter"",""1"",""1999""
","
","
","""event"",""trial"",""time""
""fullscreenenter"",""1"",""1999""
","
","","","-1","","","24","10584","949","&#9826;","elianto","#f73b6a7A","-1","-1","1","-10","[]","0","0","3","","","","","","","",""
"pit-trial","73","608391","0.0-2.0-14.2-4.2","battery-v0.2","","""event"",""trial"",""time""
""fullscreenenter"",""1"",""1999""
","
","
","""event"",""trial"",""time""
""fullscreenenter"",""1"",""1999""
","
","","","-1","","","24","10584","949","&#9826;","elianto","#f73b6a7A","-1","-1","1","0","[]","0","0","3","","","","","","","",""
"pit-trial","74","613244","0.0-2.0-14.3-0.3","battery-v0.2","","""event"",""trial"",""time""
""fullscreenenter"",""1"",""1999""
","
","
","""event"",""trial"",""time""
""fullscreenenter"",""1"",""1999""
","
","","","-1","","","24","10584","949","&#9826;","elianto","#f73b6a7A","-1","-1","1","0","[]","0","0","3","","","","","","","",""
"pit-trial","75","618099","0.0-2.0-14.3-1.3","battery-v0.2","","""event"",""trial"",""time""
""fullscreenenter"",""1"",""1999""
","
","
","""event"",""trial"",""time""
""fullscreenenter"",""1"",""1999""
","
","","","-1","","","24","10584","949","&#9826;","elianto","#f73b6a7A","-1","-1","1","0","[]","0","0","3","","","","","","","",""
"pit-trial","76","622954","0.0-2.0-14.3-2.3","battery-v0.2","","""event"",""trial"",""time""
""fullscreenenter"",""1"",""1999""
","
","
","""event"",""trial"",""time""
""fullscreenenter"",""1"",""1999""
","
","","","-1","","","24","10584","949","&#9826;","elianto","#f73b6a7A","-1","-1","1","0","[]","0","0","3","","","","","","","",""
"pit-trial","77","627806","0.0-2.0-14.3-3.3","battery-v0.2","","""event"",""trial"",""time""
""fullscreenenter"",""1"",""1999""
","
","
","""event"",""trial"",""time""
""fullscreenenter"",""1"",""1999""
","
","","","-1","","","24","10584","949","&#9826;","elianto","#f73b6a7A","-1","-1","1","-10","[]","0","0","3","","","","","","","",""
"pit-trial","78","632658","0.0-2.0-14.3-4.3","battery-v0.2","","""event"",""trial"",""time""
""fullscreenenter"",""1"",""1999""
","
","
","""event"",""trial"",""time""
""fullscreenenter"",""1"",""1999""
","
","","","-1","","","24","10584","949","&#9826;","elianto","#f73b6a7A","-1","-1","1","0","[]","0","0","3","","","","","","","",""
"call-function","79","632659","0.0-2.0-15.0","battery-v0.2","","""event"",""trial"",""time""
""fullscreenenter"",""1"",""1999""
","
","
","""event"",""trial"",""time""
""fullscreenenter"",""1"",""1999""
","
","","","","","","","","","","","","","","","","","","","","","","","","","","",""
"pit-instructions","80","663542","0.0-2.0-16.0","battery-v0.2","","""event"",""trial"",""time""
""fullscreenenter"",""1"",""1999""
","
","
","""event"",""trial"",""time""
""fullscreenenter"",""1"",""1999""
","
","","[{""page_index"":0,""viewing_time"":10339.399999856949},{""page_index"":1,""viewing_time"":10527.900000095367},{""page_index"":2,""viewing_time"":4727.299999952316},{""page_index"":3,""viewing_time"":5287.799999952316}]","30882.700000047684","","","","","","","","","","","","","","","","","","","","","","","",""
"pit-trial","81","667388","0.0-2.0-17.0-0.0","battery-v0.2","","""event"",""trial"",""time""
""fullscreenenter"",""1"",""1999""
","
","
","""event"",""trial"",""time""
""fullscreenenter"",""1"",""1999""
","
","","","992.3999998569489","","","24","10584","949","&#9789;","elianto","#f73b6a7A"," "," ","1","0","[1842.8999998569489]","1","0","4","","","","","","","",""
"pit-trial","82","670812","0.0-2.0-17.0-1.0","battery-v0.2","","""event"",""trial"",""time""
""fullscreenenter"",""1"",""1999""
","
","
","""event"",""trial"",""time""
""fullscreenenter"",""1"",""1999""
","
","","","558.5999999046326","","","24","10584","949","&#9789;","elianto","#f73b6a7A"," "," ","1","0","[1411.0999999046326]","1","0","4","","","","","","","",""
"pit-trial","83","673920","0.0-2.0-17.0-2.0","battery-v0.2","","""event"",""trial"",""time""
""fullscreenenter"",""1"",""1999""
","
","
","""event"",""trial"",""time""
""fullscreenenter"",""1"",""1999""
","
","","","245.5","","","24","10584","949","&#9789;","elianto","#f73b6a7A"," "," ","1","0","[1095.5999999046326]","1","0","4","","","","","","","",""
"pit-trial","84","676967","0.0-2.0-17.0-3.0","battery-v0.2","","""event"",""trial"",""time""
""fullscreenenter"",""1"",""1999""
","
","
","""event"",""trial"",""time""
""fullscreenenter"",""1"",""1999""
","
","","","179","","","24","10584","949","&#9789;","elianto","#f73b6a7A"," "," ","1","-10","[1033.8999998569489]","1","0","4","","","","","","","",""
"pit-trial","85","680047","0.0-2.0-17.0-4.0","battery-v0.2","","""event"",""trial"",""time""
""fullscreenenter"",""1"",""1999""
","
","
","""event"",""trial"",""time""
""fullscreenenter"",""1"",""1999""
","
","","","214.80000019073486","","","24","10584","949","&#9789;","elianto","#f73b6a7A"," "," ","1","0","[1067.6000001430511]","1","0","4","","","","","","","",""
"pit-trial","86","683134","0.0-2.0-17.1-0.1","battery-v0.2","","""event"",""trial"",""time""
""fullscreenenter"",""1"",""1999""
","
","
","""event"",""trial"",""time""
""fullscreenenter"",""1"",""1999""
","
","","","226","","","24","10584","949","&#9789;","elianto","#f73b6a7A"," "," ","1","0","[1076.1000001430511]","1","0","4","","","","","","","",""
"pit-trial","87","686122","0.0-2.0-17.1-1.1","battery-v0.2","","""event"",""trial"",""time""
""fullscreenenter"",""1"",""1999""
","
","
","""event"",""trial"",""time""
""fullscreenenter"",""1"",""1999""
","
","","","124","","","24","10584","949","&#9789;","elianto","#f73b6a7A"," "," ","1","0","[974.7999999523163]","1","0","4","","","","","","","",""
"pit-trial","88","689319","0.0-2.0-17.1-2.1","battery-v0.2","","""event"",""trial"",""time""
""fullscreenenter"",""1"",""1999""
","
","
","""event"",""trial"",""time""
""fullscreenenter"",""1"",""1999""
","
","","","335.7999999523163","","","24","10584","949","&#9789;","elianto","#f73b6a7A"," "," ","1","0","[1192.1000001430511]","1","0","4","","","","","","","",""
"pit-trial","89","692427","0.0-2.0-17.1-3.1","battery-v0.2","","""event"",""trial"",""time""
""fullscreenenter"",""1"",""1999""
","
","
","""event"",""trial"",""time""
""fullscreenenter"",""1"",""1999""
","
","","","243.70000004768372","","","24","10584","949","&#9789;","elianto","#f73b6a7A"," "," ","1","-10","[1104.2000000476837]","1","0","4","","","","","","","",""
"pit-trial","90","695545","0.0-2.0-17.1-4.1","battery-v0.2","","""event"",""trial"",""time""
""fullscreenenter"",""1"",""1999""
","
","
","""event"",""trial"",""time""
""fullscreenenter"",""1"",""1999""
","
","","","263.5","","","24","10584","949","&#9789;","elianto","#f73b6a7A"," "," ","1","0","[1116.2000000476837]","1","0","4","","","","","","","",""
"pit-trial","91","698656","0.0-2.0-17.2-0.2","battery-v0.2","","""event"",""trial"",""time""
""fullscreenenter"",""1"",""1999""
","
","
","""event"",""trial"",""time""
""fullscreenenter"",""1"",""1999""
","
","","","256.5","","","24","10584","949","&#9789;","elianto","#f73b6a7A"," "," ","1","0","[1108.2000000476837]","1","0","4","","","","","","","",""
"pit-trial","92","701734","0.0-2.0-17.2-1.2","battery-v0.2","","""event"",""trial"",""time""
""fullscreenenter"",""1"",""1999""
","
","
","""event"",""trial"",""time""
""fullscreenenter"",""1"",""1999""
","
","","","224.5","","","24","10584","949","&#9789;","elianto","#f73b6a7A"," "," ","1","0","[1076]","1","0","4","","","","","","","",""
"pit-trial","93","704975","0.0-2.0-17.2-2.2","battery-v0.2","","""event"",""trial"",""time""
""fullscreenenter"",""1"",""1999""
","
","
","""event"",""trial"",""time""
""fullscreenenter"",""1"",""1999""
","
","","","388","","","24","10584","949","&#9789;","elianto","#f73b6a7A"," "," ","1","0","[1239.5999999046326]","1","0","4","","","","","","","",""
"pit-trial","94","708079","0.0-2.0-17.2-3.2","battery-v0.2","","""event"",""trial"",""time""
""fullscreenenter"",""1"",""1999""
","
","
","""event"",""trial"",""time""
""fullscreenenter"",""1"",""1999""
","
","","","250.60000014305115","","","24","10584","949","&#9789;","elianto","#f73b6a7A"," "," ","1","-10","[1101.7000000476837]","1","0","4","","","","","","","",""
"pit-trial","95","711140","0.0-2.0-17.2-4.2","battery-v0.2","","""event"",""trial"",""time""
""fullscreenenter"",""1"",""1999""
","
","
","""event"",""trial"",""time""
""fullscreenenter"",""1"",""1999""
","
","","","207.29999995231628","","","24","10584","949","&#9789;","elianto","#f73b6a7A"," "," ","1","0","[1058.7000000476837]","1","0","4","","","","","","","",""
"pit-trial","96","714243","0.0-2.0-17.3-0.3","battery-v0.2","","""event"",""trial"",""time""
""fullscreenenter"",""1"",""1999""
","
","
","""event"",""trial"",""time""
""fullscreenenter"",""1"",""1999""
","
","","","249.70000004768372","","","24","10584","949","&#9789;","elianto","#f73b6a7A"," "," ","1","0","[1100.9000000953674]","1","0","4","","","","","","","",""
"pit-trial","97","717282","0.0-2.0-17.3-1.3","battery-v0.2","","""event"",""trial"",""time""
""fullscreenenter"",""1"",""1999""
","
","
","""event"",""trial"",""time""
""fullscreenenter"",""1"",""1999""
","
","","","186.40000009536743","","","24","10584","949","&#9789;","elianto","#f73b6a7A"," "," ","1","0","[1036.5]","1","0","4","","","","","","","",""
"pit-trial","98","720309","0.0-2.0-17.3-2.3","battery-v0.2","","""event"",""trial"",""time""
""fullscreenenter"",""1"",""1999""
","
","
","""event"",""trial"",""time""
""fullscreenenter"",""1"",""1999""
","
","","","173.90000009536743","","","24","10584","949","&#9789;","elianto","#f73b6a7A"," "," ","1","0","[1024.8999998569489]","1","0","4","","","","","","","",""
"pit-trial","99","723394","0.0-2.0-17.3-3.3","battery-v0.2","","""event"",""trial"",""time""
""fullscreenenter"",""1"",""1999""
","
","
","""event"",""trial"",""time""
""fullscreenenter"",""1"",""1999""
","
","","","232.20000004768372","","","24","10584","949","&#9789;","elianto","#f73b6a7A"," "," ","1","-10","[1083.3999998569489]","1","0","4","","","","","","","",""
"pit-trial","100","726548","0.0-2.0-17.3-4.3","battery-v0.2","","""event"",""trial"",""time""
""fullscreenenter"",""1"",""1999""
","
","
","""event"",""trial"",""time""
""fullscreenenter"",""1"",""1999""
","
","","","300.7999999523163","","","24","10584","949","&#9789;","elianto","#f73b6a7A"," "," ","1","0","[1152.5]","1","0","4","","","","","","","",""
"call-function","101","726549","0.0-2.0-18.0","battery-v0.2","","""event"",""trial"",""time""
""fullscreenenter"",""1"",""1999""
","
","
","""event"",""trial"",""time""
""fullscreenenter"",""1"",""1999""
","
","","","","","","","","","","","","","","","","","","","","","","","","","","",""
"pit-instructions","102","794046","0.0-2.0-19.0","battery-v0.2","","""event"",""trial"",""time""
""fullscreenenter"",""1"",""1999""
","
","
","""event"",""trial"",""time""
""fullscreenenter"",""1"",""1999""
","
","","[{""page_index"":0,""viewing_time"":6583.799999952316},{""page_index"":1,""viewing_time"":6064.099999904633},{""page_index"":2,""viewing_time"":9472},{""page_index"":3,""viewing_time"":7599.700000047684},{""page_index"":4,""viewing_time"":9880.299999952316},{""page_index"":5,""viewing_time"":9248.100000143051},{""page_index"":6,""viewing_time"":8079.899999856949},{""page_index"":7,""viewing_time"":6184},{""page_index"":8,""viewing_time"":4384}]","67496.19999980927","","","","","","","","","","","","","","","","","","","","","","","",""
"pit-comprehension","103","798535","0.0-2.0-20.0-0.0","battery-v0.2","","""event"",""trial"",""time""
""fullscreenenter"",""1"",""1999""
","
","
","""event"",""trial"",""time""
""fullscreenenter"",""1"",""1999""
","
","","","4486.599999904633","[""SPACE""]","0","24","10584","949","","","","","","","","","","","","","","","","","","",""
"pit-instructions","104","801510","0.0-2.0-20.0-1.0","battery-v0.2","","""event"",""trial"",""time""
""fullscreenenter"",""1"",""1999""
","
","
","""event"",""trial"",""time""
""fullscreenenter"",""1"",""1999""
","
","","[{""page_index"":0,""viewing_time"":2941}]","2941.199999809265","","","","","","","","","","","","","","","","","","","","","","","",""
"pit-comprehension","105","806127","0.0-2.0-21.0-0.0","battery-v0.2","","""event"",""trial"",""time""
""fullscreenenter"",""1"",""1999""
","
","
","""event"",""trial"",""time""
""fullscreenenter"",""1"",""1999""
","
","","","4614","[""10""]","0","24","10584","949","","","","","","","","","","","","","","","","","","",""
"pit-instructions","106","807879","0.0-2.0-21.0-1.0","battery-v0.2","","""event"",""trial"",""time""
""fullscreenenter"",""1"",""1999""
","
","
","""event"",""trial"",""time""
""fullscreenenter"",""1"",""1999""
","
","","[{""page_index"":0,""viewing_time"":1696.5}]","1696.7999999523163","","","","","","","","","","","","","","","","","","","","","","","",""
"pit-comprehension","107","814343","0.0-2.0-22.0-0.0","battery-v0.2","","""event"",""trial"",""time""
""fullscreenenter"",""1"",""1999""
","
","
","""event"",""trial"",""time""
""fullscreenenter"",""1"",""1999""
","
","","","6460.5","[""0""]","0","24","10584","949","","","","","","","","","","","","","","","","","","",""
"pit-instructions","108","816094","0.0-2.0-22.0-1.0","battery-v0.2","","""event"",""trial"",""time""
""fullscreenenter"",""1"",""1999""
","
","
","""event"",""trial"",""time""
""fullscreenenter"",""1"",""1999""
","
","","[{""page_index"":0,""viewing_time"":1698.3000001907349}]","1698.6000001430511","","","","","","","","","","","","","","","","","","","","","","","",""
"pit-comprehension","109","831335","0.0-2.0-23.0-0.0","battery-v0.2","","""event"",""trial"",""time""
""fullscreenenter"",""1"",""1999""
","
","
","""event"",""trial"",""time""
""fullscreenenter"",""1"",""1999""
","
","","","15238.200000047684","[""True""]","0","24","10584","949","","","","","","","","","","","","","","","","","","",""
"pit-instructions","110","834677","0.0-2.0-23.0-1.0","battery-v0.2","","""event"",""trial"",""time""
""fullscreenenter"",""1"",""1999""
","
","
","""event"",""trial"",""time""
""fullscreenenter"",""1"",""1999""
","
","","[{""page_index"":0,""viewing_time"":3299.7000000476837}]","3300","","","","","","","","","","","","","","","","","","","","","","","",""
"pit-comprehension","111","842094","0.0-2.0-24.0-0.0","battery-v0.2","","""event"",""trial"",""time""
""fullscreenenter"",""1"",""1999""
","
","
","""event"",""trial"",""time""
""fullscreenenter"",""1"",""1999""
","
","","","7414.200000047684","[""True""]","0","24","10584","949","","","","","","","","","","","","","","","","","","",""
"pit-instructions","112","843605","0.0-2.0-24.0-1.0","battery-v0.2","","""event"",""trial"",""time""
""fullscreenenter"",""1"",""1999""
","
","
","""event"",""trial"",""time""
""fullscreenenter"",""1"",""1999""
","
","","[{""page_index"":0,""viewing_time"":1478.7000000476837}]","1479","","","","","","","","","","","","","","","","","","","","","","","",""
"pit-comprehension","113","849950","0.0-2.0-25.0-0.0","battery-v0.2","","""event"",""trial"",""time""
""fullscreenenter"",""1"",""1999""
","
","
","""event"",""trial"",""time""
""fullscreenenter"",""1"",""1999""
","
","","","6342.800000190735","[""True""]","0","24","10584","949","","","","","","","","","","","","","","","","","","",""
"pit-instructions","114","851486","0.0-2.0-25.0-1.0","battery-v0.2","","""event"",""trial"",""time""
""fullscreenenter"",""1"",""1999""
","
","
","""event"",""trial"",""time""
""fullscreenenter"",""1"",""1999""
","
","","[{""page_index"":0,""viewing_time"":1503.4000000953674}]","1503.6000001430511","","","","","","","","","","","","","","","","","","","","","","","",""
"pit-comprehension","115","856119","0.0-2.0-26.0-0.0","battery-v0.2","","""event"",""trial"",""time""
""fullscreenenter"",""1"",""1999""
","
","
","""event"",""trial"",""time""
""fullscreenenter"",""1"",""1999""
","
","","","4630.099999904633","[""False""]","0","24","10584","949","","","","","","","","","","","","","","","","","","",""
"pit-instructions","116","857606","0.0-2.0-26.0-1.0","battery-v0.2","","""event"",""trial"",""time""
""fullscreenenter"",""1"",""1999""
","
","
","""event"",""trial"",""time""
""fullscreenenter"",""1"",""1999""
","
","","[{""page_index"":0,""viewing_time"":1451}]","1451.3000001907349","","","","","","","","","","","","","","","","","","","","","","","",""
"pit-instructions","117","885894","0.0-3.0","battery-v0.2","","""event"",""trial"",""time""
""fullscreenenter"",""1"",""1999""
","
","
","""event"",""trial"",""time""
""fullscreenenter"",""1"",""1999""
","
","","[{""page_index"":0,""viewing_time"":4831.100000143051},{""page_index"":1,""viewing_time"":7607.700000047684},{""page_index"":2,""viewing_time"":15848.199999809265}]","28287.300000190735","","","","","","","","","","","","","","","","","","","","","","","",""
"pit-trial","118","889743","0.0-4.0","battery-v0.2","","""event"",""trial"",""time""
""fullscreenenter"",""1"",""1999""
","
","
","""event"",""trial"",""time""
""fullscreenenter"",""1"",""1999""
","
","","","991.2999999523163","","","24","10584","949","&#9728;","elianto","#f73b6a7A","-1"," ","0","-10","[1841.7000000476837]","1","1","","","10584","1","0","4","lose","no-go","0"
"pit-trial","119","893250","0.0-5.0","battery-v0.2","","""event"",""trial"",""time""
""fullscreenenter"",""1"",""1999""
","
","
","""event"",""trial"",""time""
""fullscreenenter"",""1"",""1999""
","
","","","646.2999999523163","","","24","10584","949","&#9733;","elianto","#3366ff99","-1"," ","0","+10","[1500.2999999523163]","1","1","","","10584","2","2","2","win","no-go","1"
"pit-trial","120","896967","0.0-6.0","battery-v0.2","","""event"",""trial"",""time""
""fullscreenenter"",""1"",""1999""
","
","
","""event"",""trial"",""time""
""fullscreenenter"",""1"",""1999""
","
","","","857.2000000476837","","","24","10584","949","&#9752;","elianto","#f73b6a7A"," "," ","1","0","[1708.1000001430511]","1","1","","","10584","3","3","3","lose","go","0"
"pit-trial","121","900729","0.0-7.0","battery-v0.2","","""event"",""trial"",""time""
""fullscreenenter"",""1"",""1999""
","
","
","""event"",""trial"",""time""
""fullscreenenter"",""1"",""1999""
","
","","","892.7999999523163","","","24","10584","949","&#9730;","elianto","#3366ff99"," "," ","1","+10","[1745]","1","1","","","10584","4","1","1","win","go","0"
"pit-trial","122","905599","0.0-8.0","battery-v0.2","","""event"",""trial"",""time""
""fullscreenenter"",""1"",""1999""
","
","
","""event"",""trial"",""time""
""fullscreenenter"",""1"",""1999""
","
","","","-1","","","24","10584","949","&#9728;","elianto","#f73b6a7A","-1","-1","1","0","[]","0","1","","","10584","5","0","4","lose","no-go","0"
"pit-trial","123","909212","0.0-9.0","battery-v0.2","","""event"",""trial"",""time""
""fullscreenenter"",""1"",""1999""
","
","
","""event"",""trial"",""time""
""fullscreenenter"",""1"",""1999""
","
","","","756.1000001430511","","","24","10584","949","&#9733;","elianto","#3366ff99","-1"," ","0","0","[1611.3000001907349]","1","1","","","10584","6","2","2","win","no-go","0"
"pit-trial","124","912994","0.0-10.0","battery-v0.2","","""event"",""trial"",""time""
""fullscreenenter"",""1"",""1999""
","
","
","""event"",""trial"",""time""
""fullscreenenter"",""1"",""1999""
","
","","","929.2000000476837","","","24","10584","949","&#9752;","elianto","#f73b6a7A"," "," ","1","0","[1779.7000000476837]","1","1","","","10584","7","3","3","lose","go","0"
"pit-trial","125","917294","0.0-11.0","battery-v0.2","","""event"",""trial"",""time""
""fullscreenenter"",""1"",""1999""
","
","
","""event"",""trial"",""time""
""fullscreenenter"",""1"",""1999""
","
","","","1445.7999999523163","","","24","10584","949","&#9730;","elianto","#3366ff99"," "," ","1","+10","[2296.7999999523163]","1","1","","","10584","8","1","1","win","go","0"
"pit-trial","126","920999","0.0-12.0","battery-v0.2","","""event"",""trial"",""time""
""fullscreenenter"",""1"",""1999""
","
","
","""event"",""trial"",""time""
""fullscreenenter"",""1"",""1999""
","
","","","852.9000000953674","","","24","10584","949","&#9730;","elianto","#3366ff99"," "," ","1","0","[1703.5]","1","1","","","10584","9","1","1","win","go","1"
"pit-trial","127","924679","0.0-13.0","battery-v0.2","","""event"",""trial"",""time""
""fullscreenenter"",""1"",""1999""
","
","
","""event"",""trial"",""time""
""fullscreenenter"",""1"",""1999""
","
","","","827.2999999523163","","","24","10584","949","&#9733;","elianto","#3366ff99","-1"," ","0","0","[1677.3999998569489]","1","1","","","10584","10","2","2","win","no-go","0"
"pit-trial","128","929533","0.0-14.0","battery-v0.2","","""event"",""trial"",""time""
""fullscreenenter"",""1"",""1999""
","
","
","""event"",""trial"",""time""
""fullscreenenter"",""1"",""1999""
","
","","","-1","","","24","10584","949","&#9728;","elianto","#f73b6a7A","-1","-1","1","0","[]","0","1","","","10584","11","0","4","lose","no-go","0"
"pit-trial","129","933345","0.0-15.0","battery-v0.2","","""event"",""trial"",""time""
""fullscreenenter"",""1"",""1999""
","
","
","""event"",""trial"",""time""
""fullscreenenter"",""1"",""1999""
","
","","","958.9000000953674","","","24","10584","949","&#9752;","elianto","#f73b6a7A"," "," ","1","0","[1809.2000000476837]","1","1","","","10584","12","3","3","lose","go","0"
"pit-trial","130","937055","0.0-16.0","battery-v0.2","","""event"",""trial"",""time""
""fullscreenenter"",""1"",""1999""
","
","
","""event"",""trial"",""time""
""fullscreenenter"",""1"",""1999""
","
","","","858","","","24","10584","949","&#9730;","elianto","#3366ff99"," "," ","1","+10","[1708.0999999046326]","1","1","","","10584","13","1","1","win","go","0"
"pit-trial","131","941908","0.0-17.0","battery-v0.2","","""event"",""trial"",""time""
""fullscreenenter"",""1"",""1999""
","
","
","""event"",""trial"",""time""
""fullscreenenter"",""1"",""1999""
","
","","","-1","","","24","10584","949","&#9728;","elianto","#f73b6a7A","-1","-1","1","-10","[]","0","1","","","10584","14","0","4","lose","no-go","1"
"pit-trial","132","946761","0.0-18.0","battery-v0.2","","""event"",""trial"",""time""
""fullscreenenter"",""1"",""1999""
","
","
","""event"",""trial"",""time""
""fullscreenenter"",""1"",""1999""
","
","","","-1","","","24","10584","949","&#9733;","elianto","#3366ff99","-1","-1","1","+10","[]","0","1","","","10584","15","2","2","win","no-go","0"
"pit-trial","133","950418","0.0-19.0","battery-v0.2","","""event"",""trial"",""time""
""fullscreenenter"",""1"",""1999""
","
","
","""event"",""trial"",""time""
""fullscreenenter"",""1"",""1999""
","
","","","804","","","24","10584","949","&#9752;","elianto","#f73b6a7A"," "," ","1","0","[1654.0999999046326]","1","1","","","10584","16","3","3","lose","go","0"
"pit-trial","134","955270","0.0-20.0","battery-v0.2","","""event"",""trial"",""time""
""fullscreenenter"",""1"",""1999""
","
","
","""event"",""trial"",""time""
""fullscreenenter"",""1"",""1999""
","
","","","-1","","","24","10584","949","&#9733;","elianto","#3366ff99","-1","-1","1","+10","[]","0","1","","","10584","17","2","2","win","no-go","0"
"pit-trial","135","959387","0.0-21.0","battery-v0.2","","""event"",""trial"",""time""
""fullscreenenter"",""1"",""1999""
","
","
","""event"",""trial"",""time""
""fullscreenenter"",""1"",""1999""
","
","","","1255.0999999046326","","","24","10584","949","&#9730;","elianto","#3366ff99"," "," ","1","0","[2106.300000190735]","1","1","","","10584","18","1","1","win","go","1"
"pit-trial","136","964240","0.0-22.0","battery-v0.2","","""event"",""trial"",""time""
""fullscreenenter"",""1"",""1999""
","
","
","""event"",""trial"",""time""
""fullscreenenter"",""1"",""1999""
","
","","","-1","","","24","10584","949","&#9728;","elianto","#f73b6a7A","-1","-1","1","0","[]","0","1","","","10584","19","0","4","lose","no-go","0"
"pit-trial","137","968044","0.0-23.0","battery-v0.2","","""event"",""trial"",""time""
""fullscreenenter"",""1"",""1999""
","
","
","""event"",""trial"",""time""
""fullscreenenter"",""1"",""1999""
","
","","","950.6000001430511","","","24","10584","949","&#9752;","elianto","#f73b6a7A"," "," ","1","-10","[1802.6000001430511]","1","1","","","10584","20","3","3","lose","go","1"
"pit-instructions","138","988134","0.0-24.0","battery-v0.2","","""event"",""trial"",""time""
""fullscreenenter"",""1"",""1999""
","
","
","""event"",""trial"",""time""
""fullscreenenter"",""1"",""1999""
","
","","[{""page_index"":0,""viewing_time"":5561.100000143051},{""page_index"":1,""viewing_time"":14527.899999856949}]","20089.400000095367","","","","","","","","","","","","","","","","","","","","","","","",""
"pit-trial","139","992151","0.0-25.0","battery-v0.2","","""event"",""trial"",""time""
""fullscreenenter"",""1"",""1999""
","
","
","""event"",""trial"",""time""
""fullscreenenter"",""1"",""1999""
","
","","","1147.7000000476837","","","24","10584","949","n","elianto","#f73b6a7A","-1"," ","0","-10","[2002.4000000953674]","1","2","","","10584","21","0","4","lose","no-go","0"
"pit-trial","140","995847","0.0-26.0","battery-v0.2","","""event"",""trial"",""time""
""fullscreenenter"",""1"",""1999""
","
","
","""event"",""trial"",""time""
""fullscreenenter"",""1"",""1999""
","
","","","836.7000000476837","","","24","10584","949","b","elianto","#f73b6a7A"," "," ","1","0","[1693.7999999523163]","1","2","","","10584","22","3","3","lose","go","0"
"pit-trial","141","999539","0.0-27.0","battery-v0.2","","""event"",""trial"",""time""
""fullscreenenter"",""1"",""1999""
","
","
","""event"",""trial"",""time""
""fullscreenenter"",""1"",""1999""
","
","","","826.5","","","24","10584","949","t","elianto","#f73b6a7A","-1"," ","0","-10","[1684.7999999523163]","1","2","","","10584","23","2","4","lose","no-go","0"
"pit-trial","142","1003231","0.0-28.0","battery-v0.2","","""event"",""trial"",""time""
""fullscreenenter"",""1"",""1999""
","
","
","""event"",""trial"",""time""
""fullscreenenter"",""1"",""1999""
","
","","","833.5999999046326","","","24","10584","949","f","elianto","#3366ff99"," "," ","1","+10","[1690.2000000476837]","1","2","","","10584","24","1","1","win","go","0"
"pit-trial","143","1006882","0.0-29.0","battery-v0.2","","""event"",""trial"",""time""
""fullscreenenter"",""1"",""1999""
","
","
","""event"",""trial"",""time""
""fullscreenenter"",""1"",""1999""
","
","","","790.5999999046326","","","24","10584","949","b","elianto","#f73b6a7A"," "," ","1","0","[1642.5999999046326]","1","2","","","10584","25","3","3","lose","go","0"
"pit-trial","144","1011736","0.0-30.0","battery-v0.2","","""event"",""trial"",""time""
""fullscreenenter"",""1"",""1999""
","
","
","""event"",""trial"",""time""
""fullscreenenter"",""1"",""1999""
","
","","","-1","","","24","10584","949","t","elianto","#f73b6a7A","-1","-1","1","0","[]","0","2","","","10584","26","2","4","lose","no-go","0"
"pit-trial","145","1016589","0.0-31.0","battery-v0.2","","""event"",""trial"",""time""
""fullscreenenter"",""1"",""1999""
","
","
","""event"",""trial"",""time""
""fullscreenenter"",""1"",""1999""
","
","","","-1","","","24","10584","949","n","elianto","#f73b6a7A","-1","-1","1","0","[]","0","2","","","10584","27","0","4","lose","no-go","0"
"pit-trial","146","1020410","0.0-32.0","battery-v0.2","","""event"",""trial"",""time""
""fullscreenenter"",""1"",""1999""
","
","
","""event"",""trial"",""time""
""fullscreenenter"",""1"",""1999""
","
","","","967.9000000953674","","","24","10584","949","f","elianto","#3366ff99"," "," ","1","0","[1818.9000000953674]","1","2","","","10584","28","1","1","win","go","1"
"pit-trial","147","1023962","0.0-33.0","battery-v0.2","","""event"",""trial"",""time""
""fullscreenenter"",""1"",""1999""
","
","
","""event"",""trial"",""time""
""fullscreenenter"",""1"",""1999""
","
","","","698.1999998092651","","","24","10584","949","b","elianto","#f73b6a7A"," "," ","1","-10","[1549.1999998092651]","1","2","","","10584","29","3","3","lose","go","1"
"pit-trial","148","1027858","0.0-34.0","battery-v0.2","","""event"",""trial"",""time""
""fullscreenenter"",""1"",""1999""
","
","
","""event"",""trial"",""time""
""fullscreenenter"",""1"",""1999""
","
","","","1042.3999998569489","","","24","10584","949","f","elianto","#3366ff99"," "," ","1","0","[1893.4000000953674]","1","2","","","10584","30","1","1","win","go","1"
"pit-trial","149","1032711","0.0-35.0","battery-v0.2","","""event"",""trial"",""time""
""fullscreenenter"",""1"",""1999""
","
","
","""event"",""trial"",""time""
""fullscreenenter"",""1"",""1999""
","
","","","-1","","","24","10584","949","n","elianto","#f73b6a7A","-1","-1","1","0","[]","0","2","","","10584","31","0","4","lose","no-go","0"
"pit-trial","150","1037575","0.0-36.0","battery-v0.2","","""event"",""trial"",""time""
""fullscreenenter"",""1"",""1999""
","
","
","""event"",""trial"",""time""
""fullscreenenter"",""1"",""1999""
","
","","","-1","","","24","10584","949","t","elianto","#f73b6a7A","-1","-1","1","0","[]","0","2","","","10584","32","2","4","lose","no-go","0"
"pit-trial","151","1042443","0.0-37.0","battery-v0.2","","""event"",""trial"",""time""
""fullscreenenter"",""1"",""1999""
","
","
","""event"",""trial"",""time""
""fullscreenenter"",""1"",""1999""
","
","","","-1","","","24","10584","949","t","elianto","#f73b6a7A","-1","-1","1","0","[]","0","2","","","10584","33","2","4","lose","no-go","0"
"pit-trial","152","1046258","0.0-38.0","battery-v0.2","","""event"",""trial"",""time""
""fullscreenenter"",""1"",""1999""
","
","
","""event"",""trial"",""time""
""fullscreenenter"",""1"",""1999""
","
","","","960.7999999523163","","","24","10584","949","f","elianto","#3366ff99"," "," ","1","0","[1811.5]","1","2","","","10584","34","1","1","win","go","1"
"pit-trial","153","1049798","0.0-39.0","battery-v0.2","","""event"",""trial"",""time""
""fullscreenenter"",""1"",""1999""
","
","
","""event"",""trial"",""time""
""fullscreenenter"",""1"",""1999""
","
","","","686.5","","","24","10584","949","b","elianto","#f73b6a7A"," "," ","1","-10","[1538.0999999046326]","1","2","","","10584","35","3","3","lose","go","1"
"pit-trial","154","1053559","0.0-40.0","battery-v0.2","","""event"",""trial"",""time""
""fullscreenenter"",""1"",""1999""
","
","
","""event"",""trial"",""time""
""fullscreenenter"",""1"",""1999""
","
","","","909","","","24","10584","949","n","elianto","#f73b6a7A","-1"," ","0","-10","[1759.0999999046326]","1","2","","","10584","36","0","4","lose","no-go","0"
"pit-trial","155","1057523","0.0-41.0","battery-v0.2","","""event"",""trial"",""time""
""fullscreenenter"",""1"",""1999""
","
","
","""event"",""trial"",""time""
""fullscreenenter"",""1"",""1999""
","
","","","1110.7000000476837","","","24","10584","949","f","elianto","#3366ff99"," "," ","1","+10","[1960.9000000953674]","1","2","","","10584","37","1","1","win","go","0"
"pit-trial","156","1061058","0.0-42.0","battery-v0.2","","""event"",""trial"",""time""
""fullscreenenter"",""1"",""1999""
","
","
","""event"",""trial"",""time""
""fullscreenenter"",""1"",""1999""
","
","","","682.3999998569489","","","24","10584","949","b","elianto","#f73b6a7A"," "," ","1","0","[1532.7999999523163]","1","2","","","10584","38","3","3","lose","go","0"
"pit-trial","157","1065911","0.0-43.0","battery-v0.2","","""event"",""trial"",""time""
""fullscreenenter"",""1"",""1999""
","
","
","""event"",""trial"",""time""
""fullscreenenter"",""1"",""1999""
","
","","","-1","","","24","10584","949","t","elianto","#f73b6a7A","-1","-1","1","0","[]","0","2","","","10584","39","2","4","lose","no-go","0"
"pit-trial","158","1070775","0.0-44.0","battery-v0.2","","""event"",""trial"",""time""
""fullscreenenter"",""1"",""1999""
","
","
","""event"",""trial"",""time""
""fullscreenenter"",""1"",""1999""
","
","","","-1","","","24","10584","949","n","elianto","#f73b6a7A","-1","-1","1","0","[]","0","2","","","10584","40","0","4","lose","no-go","0"
"pit-trial","159","1075628","0.0-45.0","battery-v0.2","","""event"",""trial"",""time""
""fullscreenenter"",""1"",""1999""
","
","
","""event"",""trial"",""time""
""fullscreenenter"",""1"",""1999""
","
","","","-1","","","24","10584","949","n","elianto","#f73b6a7A","-1","-1","1","0","[]","0","2","","","10584","41","0","4","lose","no-go","0"
"pit-trial","160","1079249","0.0-46.0","battery-v0.2","","""event"",""trial"",""time""
""fullscreenenter"",""1"",""1999""
","
","
","""event"",""trial"",""time""
""fullscreenenter"",""1"",""1999""
","
","","","767.8000001907349","","","24","10584","949","b","elianto","#f73b6a7A"," "," ","1","0","[1618.7000000476837]","1","2","","","10584","42","3","3","lose","go","0"
"pit-trial","161","1084102","0.0-47.0","battery-v0.2","","""event"",""trial"",""time""
""fullscreenenter"",""1"",""1999""
","
","
","""event"",""trial"",""time""
""fullscreenenter"",""1"",""1999""
","
","","","-1","","","24","10584","949","t","elianto","#f73b6a7A","-1","-1","1","-10","[]","0","2","","","10584","43","2","4","lose","no-go","1"
"pit-trial","162","1087826","0.0-48.0","battery-v0.2","","""event"",""trial"",""time""
""fullscreenenter"",""1"",""1999""
","
","
","""event"",""trial"",""time""
""fullscreenenter"",""1"",""1999""
","
","","","870.5999999046326","","","24","10584","949","f","elianto","#3366ff99"," "," ","1","+10","[1721.6000001430511]","1","2","","","10584","44","1","1","win","go","0"
"pit-trial","163","1092689","0.0-49.0","battery-v0.2","","""event"",""trial"",""time""
""fullscreenenter"",""1"",""1999""
","
","
","""event"",""trial"",""time""
""fullscreenenter"",""1"",""1999""
","
","","","-1","","","24","10584","949","t","elianto","#f73b6a7A","-1","-1","1","0","[]","0","2","","","10584","45","2","4","lose","no-go","0"
"pit-trial","164","1097542","0.0-50.0","battery-v0.2","","""event"",""trial"",""time""
""fullscreenenter"",""1"",""1999""
","
","
","""event"",""trial"",""time""
""fullscreenenter"",""1"",""1999""
","
","","","-1","","","24","10584","949","n","elianto","#f73b6a7A","-1","-1","1","0","[]","0","2","","","10584","46","0","4","lose","no-go","0"
"pit-trial","165","1101369","0.0-51.0","battery-v0.2","","""event"",""trial"",""time""
""fullscreenenter"",""1"",""1999""
","
","
","""event"",""trial"",""time""
""fullscreenenter"",""1"",""1999""
","
","","","973.9000000953674","","","24","10584","949","b","elianto","#f73b6a7A"," "," ","1","-10","[1824.4000000953674]","1","2","","","10584","47","3","3","lose","go","1"
"pit-trial","166","1105768","0.0-52.0","battery-v0.2","","""event"",""trial"",""time""
""fullscreenenter"",""1"",""1999""
","
","
","""event"",""trial"",""time""
""fullscreenenter"",""1"",""1999""
","
","","","1543.9000000953674","","","24","10584","949","c","elianto","#3366ff99","-1"," ","0","0","[2396.9000000953674]","1","2","","","10584","48","4","2","win","no-go","0"
"pit-trial","167","1110622","0.0-53.0","battery-v0.2","","""event"",""trial"",""time""
""fullscreenenter"",""1"",""1999""
","
","
","""event"",""trial"",""time""
""fullscreenenter"",""1"",""1999""
","
","","","-1","","","24","10584","949","n","elianto","#f73b6a7A","-1","-1","1","0","[]","0","2","","","10584","49","0","4","lose","no-go","0"
"pit-trial","168","1114508","0.0-54.0","battery-v0.2","","""event"",""trial"",""time""
""fullscreenenter"",""1"",""1999""
","
","
","""event"",""trial"",""time""
""fullscreenenter"",""1"",""1999""
","
","","","1031.9000000953674","","","24","10584","949","f","elianto","#3366ff99"," "," ","1","+10","[1884.6000001430511]","1","2","","","10584","50","1","1","win","go","0"
"pit-trial","169","1118217","0.0-55.0","battery-v0.2","","""event"",""trial"",""time""
""fullscreenenter"",""1"",""1999""
","
","
","""event"",""trial"",""time""
""fullscreenenter"",""1"",""1999""
","
","","","855.8000001907349","","","24","10584","949","b","elianto","#f73b6a7A"," "," ","1","0","[1706.5]","1","2","","","10584","51","3","3","lose","go","0"
"pit-trial","170","1123071","0.0-56.0","battery-v0.2","","""event"",""trial"",""time""
""fullscreenenter"",""1"",""1999""
","
","
","""event"",""trial"",""time""
""fullscreenenter"",""1"",""1999""
","
","","","-1","","","24","10584","949","c","elianto","#3366ff99","-1","-1","1","+10","[]","0","2","","","10584","52","4","2","win","no-go","0"
"pit-trial","171","1126765","0.0-57.0","battery-v0.2","","""event"",""trial"",""time""
""fullscreenenter"",""1"",""1999""
","
","
","""event"",""trial"",""time""
""fullscreenenter"",""1"",""1999""
","
","","","840.4000000953674","","","24","10584","949","f","elianto","#3366ff99"," "," ","1","0","[1691.6000001430511]","1","2","","","10584","53","1","1","win","go","1"
"pit-trial","172","1131619","0.0-58.0","battery-v0.2","","""event"",""trial"",""time""
""fullscreenenter"",""1"",""1999""
","
","
","""event"",""trial"",""time""
""fullscreenenter"",""1"",""1999""
","
","","","-1","","","24","10584","949","c","elianto","#3366ff99","-1","-1","1","+10","[]","0","2","","","10584","54","4","2","win","no-go","0"
"pit-trial","173","1136472","0.0-59.0","battery-v0.2","","""event"",""trial"",""time""
""fullscreenenter"",""1"",""1999""
","
","
","""event"",""trial"",""time""
""fullscreenenter"",""1"",""1999""
","
","","","-1","","","24","10584","949","n","elianto","#f73b6a7A","-1","-1","1","0","[]","0","2","","","10584","55","0","4","lose","no-go","0"
"pit-trial","174","1141325","0.0-60.0","battery-v0.2","","""event"",""trial"",""time""
""fullscreenenter"",""1"",""1999""
","
","
","""event"",""trial"",""time""
""fullscreenenter"",""1"",""1999""
","
","","","-1","","","24","10584","949","t","elianto","#f73b6a7A","-1","-1","1","0","[]","0","2","","","10584","56","2","4","lose","no-go","0"
"pit-trial","175","1146178","0.0-61.0","battery-v0.2","","""event"",""trial"",""time""
""fullscreenenter"",""1"",""1999""
","
","
","""event"",""trial"",""time""
""fullscreenenter"",""1"",""1999""
","
","","","-1","","","24","10584","949","c","elianto","#3366ff99","-1","-1","1","0","[]","0","2","","","10584","57","4","2","win","no-go","1"
"pit-trial","176","1151034","0.0-62.0","battery-v0.2","","""event"",""trial"",""time""
""fullscreenenter"",""1"",""1999""
","
","
","""event"",""trial"",""time""
""fullscreenenter"",""1"",""1999""
","
","","","-1","","","24","10584","949","n","elianto","#f73b6a7A","-1","-1","1","-10","[]","0","2","","","10584","58","0","4","lose","no-go","1"
"pit-trial","177","1154923","0.0-63.0","battery-v0.2","","""event"",""trial"",""time""
""fullscreenenter"",""1"",""1999""
","
","
","""event"",""trial"",""time""
""fullscreenenter"",""1"",""1999""
","
","","","1036.7999999523163","","","24","10584","949","b","elianto","#f73b6a7A"," "," ","1","0","[1887.7000000476837]","1","2","","","10584","59","3","3","lose","go","0"
"pit-trial","178","1159406","0.0-64.0","battery-v0.2","","""event"",""trial"",""time""
""fullscreenenter"",""1"",""1999""
","
","
","""event"",""trial"",""time""
""fullscreenenter"",""1"",""1999""
","
","","","1629.7999999523163","","","24","10584","949","f","elianto","#3366ff99"," "," ","1","+10","[2480.9000000953674]","1","2","","","10584","60","1","1","win","go","0"
"pit-trial","179","1163229","0.0-65.0","battery-v0.2","","""event"",""trial"",""time""
""fullscreenenter"",""1"",""1999""
","
","
","""event"",""trial"",""time""
""fullscreenenter"",""1"",""1999""
","
","","","970.3000001907349","","","24","10584","949","b","elianto","#f73b6a7A"," "," ","1","-10","[1820.4000000953674]","1","2","","","10584","61","3","3","lose","go","1"
"pit-trial","180","1166959","0.0-66.0","battery-v0.2","","""event"",""trial"",""time""
""fullscreenenter"",""1"",""1999""
","
","
","""event"",""trial"",""time""
""fullscreenenter"",""1"",""1999""
","
","","","877.3000001907349","","","24","10584","949","f","elianto","#3366ff99"," "," ","1","+10","[1727.7000000476837]","1","2","","","10584","62","1","1","win","go","0"
"pit-trial","181","1171812","0.0-67.0","battery-v0.2","","""event"",""trial"",""time""
""fullscreenenter"",""1"",""1999""
","
","
","""event"",""trial"",""time""
""fullscreenenter"",""1"",""1999""
","
","","","-1","","","24","10584","949","t","elianto","#f73b6a7A","-1","-1","1","0","[]","0","2","","","10584","63","2","4","lose","no-go","0"
"pit-trial","182","1176665","0.0-68.0","battery-v0.2","","""event"",""trial"",""time""
""fullscreenenter"",""1"",""1999""
","
","
","""event"",""trial"",""time""
""fullscreenenter"",""1"",""1999""
","
","","","-1","","","24","10584","949","c","elianto","#3366ff99","-1","-1","1","+10","[]","0","2","","","10584","64","4","2","win","no-go","0"
"pit-trial","183","1180543","0.0-69.0","battery-v0.2","","""event"",""trial"",""time""
""fullscreenenter"",""1"",""1999""
","
","
","""event"",""trial"",""time""
""fullscreenenter"",""1"",""1999""
","
","","","1024.7999999523163","","","24","10584","949","b","elianto","#f73b6a7A"," "," ","1","0","[1875.0999999046326]","1","2","","","10584","65","3","3","lose","go","0"
"pit-trial","184","1185396","0.0-70.0","battery-v0.2","","""event"",""trial"",""time""
""fullscreenenter"",""1"",""1999""
","
","
","""event"",""trial"",""time""
""fullscreenenter"",""1"",""1999""
","
","","","-1","","","24","10584","949","c","elianto","#3366ff99","-1","-1","1","0","[]","0","2","","","10584","66","4","2","win","no-go","1"
"pit-trial","185","1190250","0.0-71.0","battery-v0.2","","""event"",""trial"",""time""
""fullscreenenter"",""1"",""1999""
","
","
","""event"",""trial"",""time""
""fullscreenenter"",""1"",""1999""
","
","","","-1","","","24","10584","949","t","elianto","#f73b6a7A","-1","-1","1","-10","[]","0","2","","","10584","67","2","4","lose","no-go","1"
"pit-trial","186","1194253","0.0-72.0","battery-v0.2","","""event"",""trial"",""time""
""fullscreenenter"",""1"",""1999""
","
","
","""event"",""trial"",""time""
""fullscreenenter"",""1"",""1999""
","
","","","1150.6999998092651","","","24","10584","949","f","elianto","#3366ff99"," "," ","1","+10","[2001]","1","2","","","10584","68","1","1","win","go","0"
"pit-trial","187","1197916","0.0-73.0","battery-v0.2","","""event"",""trial"",""time""
""fullscreenenter"",""1"",""1999""
","
","
","""event"",""trial"",""time""
""fullscreenenter"",""1"",""1999""
","
","","","810.1999998092651","","","24","10584","949","f","elianto","#3366ff99"," "," ","1","+10","[1660.4000000953674]","1","2","","","10584","69","1","1","win","go","0"
"pit-trial","188","1201634","0.0-74.0","battery-v0.2","","""event"",""trial"",""time""
""fullscreenenter"",""1"",""1999""
","
","
","""event"",""trial"",""time""
""fullscreenenter"",""1"",""1999""
","
","","","864","","","24","10584","949","b","elianto","#f73b6a7A"," "," ","1","0","[1715.6999998092651]","1","2","","","10584","70","3","3","lose","go","0"
"pit-trial","189","1206487","0.0-75.0","battery-v0.2","","""event"",""trial"",""time""
""fullscreenenter"",""1"",""1999""
","
","
","""event"",""trial"",""time""
""fullscreenenter"",""1"",""1999""
","
","","","-1","","","24","10584","949","c","elianto","#3366ff99","-1","-1","1","+10","[]","0","2","","","10584","71","4","2","win","no-go","0"
"pit-trial","190","1210919","0.0-76.0","battery-v0.2","","""event"",""trial"",""time""
""fullscreenenter"",""1"",""1999""
","
","
","""event"",""trial"",""time""
""fullscreenenter"",""1"",""1999""
","
","","","1578.7000000476837","","","24","10584","949","z","elianto","#3366ff99"," "," ","1","+10","[2429.100000143051]","1","2","","","10584","72","5","1","win","go","0"
"pit-trial","191","1214609","0.0-77.0","battery-v0.2","","""event"",""trial"",""time""
""fullscreenenter"",""1"",""1999""
","
","
","""event"",""trial"",""time""
""fullscreenenter"",""1"",""1999""
","
","","","834.7999999523163","","","24","10584","949","b","elianto","#f73b6a7A"," "," ","1","0","[1686.8999998569489]","1","2","","","10584","73","3","3","lose","go","0"
"pit-trial","192","1219463","0.0-78.0","battery-v0.2","","""event"",""trial"",""time""
""fullscreenenter"",""1"",""1999""
","
","
","""event"",""trial"",""time""
""fullscreenenter"",""1"",""1999""
","
","","","-1","","","24","10584","949","c","elianto","#3366ff99","-1","-1","1","+10","[]","0","2","","","10584","74","4","2","win","no-go","0"
"pit-trial","193","1223140","0.0-79.0","battery-v0.2","","""event"",""trial"",""time""
""fullscreenenter"",""1"",""1999""
","
","
","""event"",""trial"",""time""
""fullscreenenter"",""1"",""1999""
","
","","","825.5999999046326","","","24","10584","949","z","elianto","#3366ff99"," "," ","1","+10","[1675.6999998092651]","1","2","","","10584","75","5","1","win","go","0"
"pit-trial","194","1226752","0.0-80.0","battery-v0.2","","""event"",""trial"",""time""
""fullscreenenter"",""1"",""1999""
","
","
","""event"",""trial"",""time""
""fullscreenenter"",""1"",""1999""
","
","","","759.5999999046326","","","24","10584","949","f","elianto","#3366ff99"," "," ","1","+10","[1609.9000000953674]","1","2","","","10584","76","1","1","win","go","0"
"pit-trial","195","1230548","0.0-81.0","battery-v0.2","","""event"",""trial"",""time""
""fullscreenenter"",""1"",""1999""
","
","
","""event"",""trial"",""time""
""fullscreenenter"",""1"",""1999""
","
","","","939.1999998092651","","","24","10584","949","z","elianto","#3366ff99"," "," ","1","+10","[1792.4000000953674]","1","2","","","10584","77","5","1","win","go","0"
"pit-trial","196","1234872","0.0-82.0","battery-v0.2","","""event"",""trial"",""time""
""fullscreenenter"",""1"",""1999""
","
","
","""event"",""trial"",""time""
""fullscreenenter"",""1"",""1999""
","
","","","1472.2999999523163","","","24","10584","949","h","elianto","#f73b6a7A","-1"," ","0","0","[2322.2999999523163]","1","2","","","10584","78","6","4","lose","no-go","1"
"pit-trial","197","1238684","0.0-83.0","battery-v0.2","","""event"",""trial"",""time""
""fullscreenenter"",""1"",""1999""
","
","
","""event"",""trial"",""time""
""fullscreenenter"",""1"",""1999""
","
","","","958.2999999523163","","","24","10584","949","b","elianto","#f73b6a7A"," "," ","1","0","[1809.5999999046326]","1","2","","","10584","79","3","3","lose","go","0"
"pit-trial","198","1243537","0.0-84.0","battery-v0.2","","""event"",""trial"",""time""
""fullscreenenter"",""1"",""1999""
","
","
","""event"",""trial"",""time""
""fullscreenenter"",""1"",""1999""
","
","","","-1","","","24","10584","949","c","elianto","#3366ff99","-1","-1","1","0","[]","0","2","","","10584","80","4","2","win","no-go","1"
"pit-trial","199","1247580","0.0-85.0","battery-v0.2","","""event"",""trial"",""time""
""fullscreenenter"",""1"",""1999""
","
","
","""event"",""trial"",""time""
""fullscreenenter"",""1"",""1999""
","
","","","1190.9000000953674","","","24","10584","949","y","elianto","#f73b6a7A"," "," ","1","0","[2041.7000000476837]","1","2","","","10584","81","7","3","lose","go","0"
"pit-trial","200","1251793","0.0-86.0","battery-v0.2","","""event"",""trial"",""time""
""fullscreenenter"",""1"",""1999""
","
","
","""event"",""trial"",""time""
""fullscreenenter"",""1"",""1999""
","
","","","1359.7999999523163","","","24","10584","949","z","elianto","#3366ff99"," "," ","1","+10","[2209.9000000953674]","1","2","","","10584","82","5","1","win","go","0"
"pit-trial","201","1255580","0.0-87.0","battery-v0.2","","""event"",""trial"",""time""
""fullscreenenter"",""1"",""1999""
","
","
","""event"",""trial"",""time""
""fullscreenenter"",""1"",""1999""
","
","","","933.9000000953674","","","24","10584","949","h","elianto","#f73b6a7A","-1"," ","0","-10","[1785.6000001430511]","1","2","","","10584","83","6","4","lose","no-go","0"
"pit-trial","202","1260434","0.0-88.0","battery-v0.2","","""event"",""trial"",""time""
""fullscreenenter"",""1"",""1999""
","
","
","""event"",""trial"",""time""
""fullscreenenter"",""1"",""1999""
","
","","","-1","","","24","10584","949","c","elianto","#3366ff99","-1","-1","1","0","[]","0","2","","","10584","84","4","2","win","no-go","1"
"pit-trial","203","1264295","0.0-89.0","battery-v0.2","","""event"",""trial"",""time""
""fullscreenenter"",""1"",""1999""
","
","
","""event"",""trial"",""time""
""fullscreenenter"",""1"",""1999""
","
","","","1009.0999999046326","","","24","10584","949","z","elianto","#3366ff99"," "," ","1","+10","[1859.5]","1","2","","","10584","85","5","1","win","go","0"
"pit-trial","204","1268012","0.0-90.0","battery-v0.2","","""event"",""trial"",""time""
""fullscreenenter"",""1"",""1999""
","
","
","""event"",""trial"",""time""
""fullscreenenter"",""1"",""1999""
","
","","","861.2999999523163","","","24","10584","949","h","elianto","#f73b6a7A","-1"," ","0","-10","[1714.0999999046326]","1","2","","","10584","86","6","4","lose","no-go","0"
"pit-trial","205","1271780","0.0-91.0","battery-v0.2","","""event"",""trial"",""time""
""fullscreenenter"",""1"",""1999""
","
","
","""event"",""trial"",""time""
""fullscreenenter"",""1"",""1999""
","
","","","915.6000001430511","","","24","10584","949","y","elianto","#f73b6a7A"," "," ","1","0","[1766.2000000476837]","1","2","","","10584","87","7","3","lose","go","0"
"pit-trial","206","1276633","0.0-92.0","battery-v0.2","","""event"",""trial"",""time""
""fullscreenenter"",""1"",""1999""
","
","
","""event"",""trial"",""time""
""fullscreenenter"",""1"",""1999""
","
","","","-1","","","24","10584","949","c","elianto","#3366ff99","-1","-1","1","0","[]","0","2","","","10584","88","4","2","win","no-go","1"
"pit-trial","207","1281486","0.0-93.0","battery-v0.2","","""event"",""trial"",""time""
""fullscreenenter"",""1"",""1999""
","
","
","""event"",""trial"",""time""
""fullscreenenter"",""1"",""1999""
","
","","","-1","","","24","10584","949","h","elianto","#f73b6a7A","-1","-1","1","0","[]","0","2","","","10584","89","6","4","lose","no-go","0"
"pit-trial","208","1285123","0.0-94.0","battery-v0.2","","""event"",""trial"",""time""
""fullscreenenter"",""1"",""1999""
","
","
","""event"",""trial"",""time""
""fullscreenenter"",""1"",""1999""
","
","","","784.5","","","24","10584","949","y","elianto","#f73b6a7A"," "," ","1","0","[1635.1000001430511]","1","2","","","10584","90","7","3","lose","go","0"
"pit-trial","209","1288737","0.0-95.0","battery-v0.2","","""event"",""trial"",""time""
""fullscreenenter"",""1"",""1999""
","
","
","""event"",""trial"",""time""
""fullscreenenter"",""1"",""1999""
","
","","","761.5","","","24","10584","949","z","elianto","#3366ff99"," "," ","1","+10","[1612]","1","2","","","10584","91","5","1","win","go","0"
"pit-trial","210","1293590","0.0-96.0","battery-v0.2","","""event"",""trial"",""time""
""fullscreenenter"",""1"",""1999""
","
","
","""event"",""trial"",""time""
""fullscreenenter"",""1"",""1999""
","
","","","-1","","","24","10584","949","c","elianto","#3366ff99","-1","-1","1","+10","[]","0","2","","","10584","92","4","2","win","no-go","0"
"pit-trial","211","1298443","0.0-97.0","battery-v0.2","","""event"",""trial"",""time""
""fullscreenenter"",""1"",""1999""
","
","
","""event"",""trial"",""time""
""fullscreenenter"",""1"",""1999""
","
","","","-1","","","24","10584","949","h","elianto","#f73b6a7A","-1","-1","1","0","[]","0","2","","","10584","93","6","4","lose","no-go","0"
"pit-trial","212","1302165","0.0-98.0","battery-v0.2","","""event"",""trial"",""time""
""fullscreenenter"",""1"",""1999""
","
","
","""event"",""trial"",""time""
""fullscreenenter"",""1"",""1999""
","
","","","869","","","24","10584","949","z","elianto","#3366ff99"," "," ","1","0","[1719.6999998092651]","1","2","","","10584","94","5","1","win","go","1"
"pit-trial","213","1305694","0.0-99.0","battery-v0.2","","""event"",""trial"",""time""
""fullscreenenter"",""1"",""1999""
","
","
","""event"",""trial"",""time""
""fullscreenenter"",""1"",""1999""
","
","","","677.5","","","24","10584","949","y","elianto","#f73b6a7A"," "," ","1","0","[1527.7999999523163]","1","2","","","10584","95","7","3","lose","go","0"
"pit-trial","214","1309630","0.0-100.0","battery-v0.2","","""event"",""trial"",""time""
""fullscreenenter"",""1"",""1999""
","
","
","""event"",""trial"",""time""
""fullscreenenter"",""1"",""1999""
","
","","","1083.3000001907349","","","24","10584","949","r","elianto","#3366ff99","-1"," ","0","0","[1933.9000000953674]","1","2","","","10584","96","8","2","win","no-go","0"
"pit-trial","215","1314483","0.0-101.0","battery-v0.2","","""event"",""trial"",""time""
""fullscreenenter"",""1"",""1999""
","
","
","""event"",""trial"",""time""
""fullscreenenter"",""1"",""1999""
","
","","","-1","","","24","10584","949","h","elianto","#f73b6a7A","-1","-1","1","0","[]","0","2","","","10584","97","6","4","lose","no-go","0"
"pit-trial","216","1318583","0.0-102.0","battery-v0.2","","""event"",""trial"",""time""
""fullscreenenter"",""1"",""1999""
","
","
","""event"",""trial"",""time""
""fullscreenenter"",""1"",""1999""
","
","","","1247.2999999523163","","","24","10584","949","z","elianto","#3366ff99"," "," ","1","+10","[2097.7999999523163]","1","2","","","10584","98","5","1","win","go","0"
"pit-trial","217","1323437","0.0-103.0","battery-v0.2","","""event"",""trial"",""time""
""fullscreenenter"",""1"",""1999""
","
","
","""event"",""trial"",""time""
""fullscreenenter"",""1"",""1999""
","
","","","-1","","","24","10584","949","r","elianto","#3366ff99","-1","-1","1","+10","[]","0","2","","","10584","99","8","2","win","no-go","0"
"pit-trial","218","1328290","0.0-104.0","battery-v0.2","","""event"",""trial"",""time""
""fullscreenenter"",""1"",""1999""
","
","
","""event"",""trial"",""time""
""fullscreenenter"",""1"",""1999""
","
","","","-1","","","24","10584","949","y","elianto","#f73b6a7A"," ","-1","0","-10","[2907.600000143051]","1","2","","","10584","100","7","3","lose","go","0"
"pit-trial","219","1332428","0.0-105.0","battery-v0.2","","""event"",""trial"",""time""
""fullscreenenter"",""1"",""1999""
","
","
","""event"",""trial"",""time""
""fullscreenenter"",""1"",""1999""
","
","","","1285.3999998569489","","","24","10584","949","m","elianto","#3366ff99","-1"," ","0","0","[2135.7999999523163]","1","2","","","10584","101","9","2","win","no-go","0"
"pit-trial","220","1336241","0.0-106.0","battery-v0.2","","""event"",""trial"",""time""
""fullscreenenter"",""1"",""1999""
","
","
","""event"",""trial"",""time""
""fullscreenenter"",""1"",""1999""
","
","","","959.5999999046326","","","24","10584","949","z","elianto","#3366ff99"," "," ","1","+10","[1810]","1","2","","","10584","102","5","1","win","go","0"
"pit-trial","221","1341094","0.0-107.0","battery-v0.2","","""event"",""trial"",""time""
""fullscreenenter"",""1"",""1999""
","
","
","""event"",""trial"",""time""
""fullscreenenter"",""1"",""1999""
","
","","","-1","","","24","10584","949","h","elianto","#f73b6a7A","-1","-1","1","0","[]","0","2","","","10584","103","6","4","lose","no-go","0"
"pit-trial","222","1345948","0.0-108.0","battery-v0.2","","""event"",""trial"",""time""
""fullscreenenter"",""1"",""1999""
","
","
","""event"",""trial"",""time""
""fullscreenenter"",""1"",""1999""
","
","","","-1","","","24","10584","949","r","elianto","#3366ff99","-1","-1","1","0","[]","0","2","","","10584","104","8","2","win","no-go","1"
"pit-trial","223","1350802","0.0-109.0","battery-v0.2","","""event"",""trial"",""time""
""fullscreenenter"",""1"",""1999""
","
","
","""event"",""trial"",""time""
""fullscreenenter"",""1"",""1999""
","
","","","-1","","","24","10584","949","h","elianto","#f73b6a7A","-1","-1","1","0","[]","0","2","","","10584","105","6","4","lose","no-go","0"
"pit-trial","224","1355656","0.0-110.0","battery-v0.2","","""event"",""trial"",""time""
""fullscreenenter"",""1"",""1999""
","
","
","""event"",""trial"",""time""
""fullscreenenter"",""1"",""1999""
","
","","","-1","","","24","10584","949","r","elianto","#3366ff99","-1","-1","1","+10","[]","0","2","","","10584","106","8","2","win","no-go","0"
"pit-trial","225","1359395","0.0-111.0","battery-v0.2","","""event"",""trial"",""time""
""fullscreenenter"",""1"",""1999""
","
","
","""event"",""trial"",""time""
""fullscreenenter"",""1"",""1999""
","
","","","885.2999999523163","","","24","10584","949","z","elianto","#3366ff99"," "," ","1","+10","[1736.5999999046326]","1","2","","","10584","107","5","1","win","go","0"
"pit-trial","226","1363719","0.0-112.0","battery-v0.2","","""event"",""trial"",""time""
""fullscreenenter"",""1"",""1999""
","
","
","""event"",""trial"",""time""
""fullscreenenter"",""1"",""1999""
","
","","","1472.1000001430511","","","24","10584","949","m","elianto","#3366ff99","-1"," ","0","0","[2322.4000000953674]","1","2","","","10584","108","9","2","win","no-go","0"
"pit-trial","227","1367355","0.0-113.0","battery-v0.2","","""event"",""trial"",""time""
""fullscreenenter"",""1"",""1999""
","
","
","""event"",""trial"",""time""
""fullscreenenter"",""1"",""1999""
","
","","","782.4000000953674","","","24","10584","949","z","elianto","#3366ff99"," "," ","1","+10","[1632.8999998569489]","1","2","","","10584","109","5","1","win","go","0"
"pit-trial","228","1372209","0.0-114.0","battery-v0.2","","""event"",""trial"",""time""
""fullscreenenter"",""1"",""1999""
","
","
","""event"",""trial"",""time""
""fullscreenenter"",""1"",""1999""
","
","","","-1","","","24","10584","949","h","elianto","#f73b6a7A","-1","-1","1","0","[]","0","2","","","10584","110","6","4","lose","no-go","0"
"pit-trial","229","1377068","0.0-115.0","battery-v0.2","","""event"",""trial"",""time""
""fullscreenenter"",""1"",""1999""
","
","
","""event"",""trial"",""time""
""fullscreenenter"",""1"",""1999""
","
","","","-1","","","24","10584","949","r","elianto","#3366ff99","-1","-1","1","0","[]","0","2","","","10584","111","8","2","win","no-go","1"
"pit-trial","230","1381922","0.0-116.0","battery-v0.2","","""event"",""trial"",""time""
""fullscreenenter"",""1"",""1999""
","
","
","""event"",""trial"",""time""
""fullscreenenter"",""1"",""1999""
","
","","","-1","","","24","10584","949","m","elianto","#3366ff99","-1","-1","1","+10","[]","0","2","","","10584","112","9","2","win","no-go","0"
"pit-trial","231","1385590","0.0-117.0","battery-v0.2","","""event"",""trial"",""time""
""fullscreenenter"",""1"",""1999""
","
","
","""event"",""trial"",""time""
""fullscreenenter"",""1"",""1999""
","
","","","815.7999999523163","","","24","10584","949","r","elianto","#3366ff99","-1"," ","0","0","[1666.6000001430511]","1","2","","","10584","113","8","2","win","no-go","0"
"pit-trial","232","1389280","0.0-118.0","battery-v0.2","","""event"",""trial"",""time""
""fullscreenenter"",""1"",""1999""
","
","
","""event"",""trial"",""time""
""fullscreenenter"",""1"",""1999""
","
","","","836.1999998092651","","","24","10584","949","z","elianto","#3366ff99"," "," ","1","+10","[1686.7999999523163]","1","2","","","10584","114","5","1","win","go","0"
"pit-trial","233","1394134","0.0-119.0","battery-v0.2","","""event"",""trial"",""time""
""fullscreenenter"",""1"",""1999""
","
","
","""event"",""trial"",""time""
""fullscreenenter"",""1"",""1999""
","
","","","-1","","","24","10584","949","m","elianto","#3366ff99","-1","-1","1","+10","[]","0","2","","","10584","115","9","2","win","no-go","0"
"pit-trial","234","1397979","0.0-120.0","battery-v0.2","","""event"",""trial"",""time""
""fullscreenenter"",""1"",""1999""
","
","
","""event"",""trial"",""time""
""fullscreenenter"",""1"",""1999""
","
","","","990.9000000953674","","","24","10584","949","y","elianto","#f73b6a7A"," "," ","1","0","[1842.5]","1","2","","","10584","116","7","3","lose","go","0"
"pit-trial","235","1402833","0.0-121.0","battery-v0.2","","""event"",""trial"",""time""
""fullscreenenter"",""1"",""1999""
","
","
","""event"",""trial"",""time""
""fullscreenenter"",""1"",""1999""
","
","","","-1","","","24","10584","949","r","elianto","#3366ff99","-1","-1","1","+10","[]","0","2","","","10584","117","8","2","win","no-go","0"
"pit-trial","236","1407698","0.0-122.0","battery-v0.2","","""event"",""trial"",""time""
""fullscreenenter"",""1"",""1999""
","
","
","""event"",""trial"",""time""
""fullscreenenter"",""1"",""1999""
","
","","","-1","","","24","10584","949","m","elianto","#3366ff99","-1","-1","1","+10","[]","0","2","","","10584","118","9","2","win","no-go","0"
"pit-trial","237","1411275","0.0-123.0","battery-v0.2","","""event"",""trial"",""time""
""fullscreenenter"",""1"",""1999""
","
","
","""event"",""trial"",""time""
""fullscreenenter"",""1"",""1999""
","
","","","724.0999999046326","","","24","10584","949","z","elianto","#3366ff99"," "," ","1","+10","[1574.5]","1","2","","","10584","119","5","1","win","go","0"
"pit-trial","238","1416128","0.0-124.0","battery-v0.2","","""event"",""trial"",""time""
""fullscreenenter"",""1"",""1999""
","
","
","""event"",""trial"",""time""
""fullscreenenter"",""1"",""1999""
","
","","","-1","","","24","10584","949","h","elianto","#f73b6a7A","-1","-1","1","0","[]","0","2","","","10584","120","6","4","lose","no-go","0"
"pit-trial","239","1420982","0.0-125.0","battery-v0.2","","""event"",""trial"",""time""
""fullscreenenter"",""1"",""1999""
","
","
","""event"",""trial"",""time""
""fullscreenenter"",""1"",""1999""
","
","","","-1","","","24","10584","949","r","elianto","#3366ff99","-1","-1","1","+10","[]","0","2","","","10584","121","8","2","win","no-go","0"
"pit-trial","240","1425835","0.0-126.0","battery-v0.2","","""event"",""trial"",""time""
""fullscreenenter"",""1"",""1999""
","
","
","""event"",""trial"",""time""
""fullscreenenter"",""1"",""1999""
","
","","","-1","","","24","10584","949","m","elianto","#3366ff99","-1","-1","1","0","[]","0","2","","","10584","122","9","2","win","no-go","1"
"pit-trial","241","1429469","0.0-127.0","battery-v0.2","","""event"",""trial"",""time""
""fullscreenenter"",""1"",""1999""
","
","
","""event"",""trial"",""time""
""fullscreenenter"",""1"",""1999""
","
","","","780.9000000953674","","","24","10584","949","y","elianto","#f73b6a7A"," "," ","1","0","[1631.5]","1","2","","","10584","123","7","3","lose","go","0"
"pit-trial","242","1432950","0.0-128.0","battery-v0.2","","""event"",""trial"",""time""
""fullscreenenter"",""1"",""1999""
","
","
","""event"",""trial"",""time""
""fullscreenenter"",""1"",""1999""
","
","","","627.2000000476837","","","24","10584","949","z","elianto","#3366ff99"," "," ","1","0","[1477.9000000953674]","1","2","","","10584","124","5","1","win","go","1"
"pit-trial","243","1437803","0.0-129.0","battery-v0.2","","""event"",""trial"",""time""
""fullscreenenter"",""1"",""1999""
","
","
","""event"",""trial"",""time""
""fullscreenenter"",""1"",""1999""
","
","","","-1","","","24","10584","949","m","elianto","#3366ff99","-1","-1","1","+10","[]","0","2","","","10584","125","9","2","win","no-go","0"
"pit-trial","244","1441777","0.0-130.0","battery-v0.2","","""event"",""trial"",""time""
""fullscreenenter"",""1"",""1999""
","
","
","""event"",""trial"",""time""
""fullscreenenter"",""1"",""1999""
","
","","","1120","","","24","10584","949","y","elianto","#f73b6a7A"," "," ","1","0","[1971.3000001907349]","1","2","","","10584","126","7","3","lose","go","0"
"pit-trial","245","1446633","0.0-131.0","battery-v0.2","","""event"",""trial"",""time""
""fullscreenenter"",""1"",""1999""
","
","
","""event"",""trial"",""time""
""fullscreenenter"",""1"",""1999""
","
","","","-1","","","24","10584","949","r","elianto","#3366ff99","-1","-1","1","+10","[]","0","2","","","10584","127","8","2","win","no-go","0"
"pit-trial","246","1451486","0.0-132.0","battery-v0.2","","""event"",""trial"",""time""
""fullscreenenter"",""1"",""1999""
","
","
","""event"",""trial"",""time""
""fullscreenenter"",""1"",""1999""
","
","","","-1","","","24","10584","949","h","elianto","#f73b6a7A","-1","-1","1","0","[]","0","2","","","10584","128","6","4","lose","no-go","0"
"pit-trial","247","1456347","0.0-133.0","battery-v0.2","","""event"",""trial"",""time""
""fullscreenenter"",""1"",""1999""
","
","
","""event"",""trial"",""time""
""fullscreenenter"",""1"",""1999""
","
","","","-1","","","24","10584","949","r","elianto","#3366ff99","-1","-1","1","+10","[]","0","2","","","10584","129","8","2","win","no-go","0"
"pit-trial","248","1461200","0.0-134.0","battery-v0.2","","""event"",""trial"",""time""
""fullscreenenter"",""1"",""1999""
","
","
","""event"",""trial"",""time""
""fullscreenenter"",""1"",""1999""
","
","","","-1","","","24","10584","949","m","elianto","#3366ff99","-1","-1","1","+10","[]","0","2","","","10584","130","9","2","win","no-go","0"
"pit-trial","249","1464741","0.0-135.0","battery-v0.2","","""event"",""trial"",""time""
""fullscreenenter"",""1"",""1999""
","
","
","""event"",""trial"",""time""
""fullscreenenter"",""1"",""1999""
","
","","","687.7000000476837","","","24","10584","949","y","elianto","#f73b6a7A"," "," ","1","0","[1539.3000001907349]","1","2","","","10584","131","7","3","lose","go","0"
"pit-trial","250","1469595","0.0-136.0","battery-v0.2","","""event"",""trial"",""time""
""fullscreenenter"",""1"",""1999""
","
","
","""event"",""trial"",""time""
""fullscreenenter"",""1"",""1999""
","
","","","-1","","","24","10584","949","h","elianto","#f73b6a7A","-1","-1","1","0","[]","0","2","","","10584","132","6","4","lose","no-go","0"
"pit-trial","251","1473237","0.0-137.0","battery-v0.2","","""event"",""trial"",""time""
""fullscreenenter"",""1"",""1999""
","
","
","""event"",""trial"",""time""
""fullscreenenter"",""1"",""1999""
","
","","","789","","","24","10584","949","y","elianto","#f73b6a7A"," "," ","1","-10","[1639.9000000953674]","1","2","","","10584","133","7","3","lose","go","1"
"pit-trial","252","1478095","0.0-138.0","battery-v0.2","","""event"",""trial"",""time""
""fullscreenenter"",""1"",""1999""
","
","
","""event"",""trial"",""time""
""fullscreenenter"",""1"",""1999""
","
","","","-1","","","24","10584","949","h","elianto","#f73b6a7A","-1","-1","1","0","[]","0","2","","","10584","134","6","4","lose","no-go","0"
"pit-trial","253","1482948","0.0-139.0","battery-v0.2","","""event"",""trial"",""time""
""fullscreenenter"",""1"",""1999""
","
","
","""event"",""trial"",""time""
""fullscreenenter"",""1"",""1999""
","
","","","-1","","","24","10584","949","r","elianto","#3366ff99","-1","-1","1","+10","[]","0","2","","","10584","135","8","2","win","no-go","0"
"pit-trial","254","1487802","0.0-140.0","battery-v0.2","","""event"",""trial"",""time""
""fullscreenenter"",""1"",""1999""
","
","
","""event"",""trial"",""time""
""fullscreenenter"",""1"",""1999""
","
","","","-1","","","24","10584","949","m","elianto","#3366ff99","-1","-1","1","+10","[]","0","2","","","10584","136","9","2","win","no-go","0"
"pit-trial","255","1492655","0.0-141.0","battery-v0.2","","""event"",""trial"",""time""
""fullscreenenter"",""1"",""1999""
","
","
","""event"",""trial"",""time""
""fullscreenenter"",""1"",""1999""
","
","","","-1","","","24","10584","949","r","elianto","#3366ff99","-1","-1","1","+10","[]","0","2","","","10584","137","8","2","win","no-go","0"
"pit-trial","256","1497509","0.0-142.0","battery-v0.2","","""event"",""trial"",""time""
""fullscreenenter"",""1"",""1999""
","
","
","""event"",""trial"",""time""
""fullscreenenter"",""1"",""1999""
","
","","","-1","","","24","10584","949","m","elianto","#3366ff99","-1","-1","1","+10","[]","0","2","","","10584","138","9","2","win","no-go","0"
"pit-trial","257","1502363","0.0-143.0","battery-v0.2","","""event"",""trial"",""time""
""fullscreenenter"",""1"",""1999""
","
","
","""event"",""trial"",""time""
""fullscreenenter"",""1"",""1999""
","
","","","-1","","","24","10584","949","h","elianto","#f73b6a7A","-1","-1","1","-10","[]","0","2","","","10584","139","6","4","lose","no-go","1"
"pit-trial","258","1506057","0.0-144.0","battery-v0.2","","""event"",""trial"",""time""
""fullscreenenter"",""1"",""1999""
","
","
","""event"",""trial"",""time""
""fullscreenenter"",""1"",""1999""
","
","","","842.2999999523163","","","24","10584","949","y","elianto","#f73b6a7A"," "," ","1","0","[1692.5]","1","2","","","10584","140","7","3","lose","go","0"
"pit-instructions","259","1540207","0.0-145.0","battery-v0.2","","""event"",""trial"",""time""
""fullscreenenter"",""1"",""1999""
","
","
","""event"",""trial"",""time""
""fullscreenenter"",""1"",""1999""
","
","","[{""page_index"":0,""viewing_time"":25004.200000047684},{""page_index"":1,""viewing_time"":9144.5}]","34149","","","","","","","","","","","","","","","","","","","","","","","",""
"pit-trial","260","1544031","0.0-146.0","battery-v0.2","","""event"",""trial"",""time""
""fullscreenenter"",""1"",""1999""
","
","
","""event"",""trial"",""time""
""fullscreenenter"",""1"",""1999""
","
","","","964.2000000476837","","","24","10584","949","j","elianto","#f73b6a7A"," "," ","1","0","[1814.7999999523163]","1","3","","","10584","141","0","3","lose","go","0"
"pit-trial","261","1547595","0.0-147.0","battery-v0.2","","""event"",""trial"",""time""
""fullscreenenter"",""1"",""1999""
","
","
","""event"",""trial"",""time""
""fullscreenenter"",""1"",""1999""
","
","","","696.5","","","24","10584","949","e","elianto","#f73b6a7A"," "," ","1","0","[1549.9000000953674]","1","3","","","10584","142","2","3","lose","go","0"
"pit-trial","262","1551081","0.0-148.0","battery-v0.2","","""event"",""trial"",""time""
""fullscreenenter"",""1"",""1999""
","
","
","""event"",""trial"",""time""
""fullscreenenter"",""1"",""1999""
","
","","","617","","","24","10584","949","w","elianto","#f73b6a7A","-1"," ","0","-10","[1474.2999999523163]","1","3","","","10584","143","3","4","lose","no-go","0"
"pit-trial","263","1554975","0.0-149.0","battery-v0.2","","""event"",""trial"",""time""
""fullscreenenter"",""1"",""1999""
","
","
","""event"",""trial"",""time""
""fullscreenenter"",""1"",""1999""
","
","","","1034.2999999523163","","","24","10584","949","d","elianto","#3366ff99","-1"," ","0","0","[1889.5999999046326]","1","3","","","10584","144","1","2","win","no-go","0"
"pit-trial","264","1559837","0.0-150.0","battery-v0.2","","""event"",""trial"",""time""
""fullscreenenter"",""1"",""1999""
","
","
","""event"",""trial"",""time""
""fullscreenenter"",""1"",""1999""
","
","","","-1","","","24","10584","949","w","elianto","#f73b6a7A","-1","-1","1","-10","[]","0","3","","","10584","145","3","4","lose","no-go","1"
"pit-trial","265","1563621","0.0-151.0","battery-v0.2","","""event"",""trial"",""time""
""fullscreenenter"",""1"",""1999""
","
","
","""event"",""trial"",""time""
""fullscreenenter"",""1"",""1999""
","
","","","927.5","","","24","10584","949","j","elianto","#f73b6a7A"," "," ","1","0","[1782.2999999523163]","1","3","","","10584","146","0","3","lose","go","0"
"pit-trial","266","1567407","0.0-152.0","battery-v0.2","","""event"",""trial"",""time""
""fullscreenenter"",""1"",""1999""
","
","
","""event"",""trial"",""time""
""fullscreenenter"",""1"",""1999""
","
","","","926.3999998569489","","","24","10584","949","e","elianto","#f73b6a7A"," "," ","1","0","[1780.7000000476837]","1","3","","","10584","147","2","3","lose","go","0"
"pit-trial","267","1572260","0.0-153.0","battery-v0.2","","""event"",""trial"",""time""
""fullscreenenter"",""1"",""1999""
","
","
","""event"",""trial"",""time""
""fullscreenenter"",""1"",""1999""
","
","","","-1","","","24","10584","949","d","elianto","#3366ff99","-1","-1","1","+10","[]","0","3","","","10584","148","1","2","win","no-go","0"
