"trial_type","trial_index","time_elapsed","internal_node_id","task_version","subject_id","interactions","blur_events","focus_events","fullscreenenter_events","fullscreenexit_events","success","view_history","rt","responses","num_errors","age","subject","participantId","rune","rune_set","hex","correct","choice","accuracy","outcome","keys","total_keys","block","practice","value","sub","trial","stimulus","robot","valence","action","sham"
"pavlovia","0","12","0.0-0.0","battery-v0.2","","""event"",""trial"",""time""
""fullscreenenter"",""1"",""1850""
","
","
","""event"",""trial"",""time""
""fullscreenenter"",""1"",""1850""
","
","","","","","","","","","","","","","","","","","","","","","","","","","","",""
"fullscreen","1","2756","0.0-1.0","battery-v0.2","","""event"",""trial"",""time""
""fullscreenenter"",""1"",""1850""
","
","
","""event"",""trial"",""time""
""fullscreenenter"",""1"",""1850""
","
","true","","","","","","","","","","","","","","","","","","","","","","","","","",""
"pit-instructions","2","7180","0.0-2.0-0.0","battery-v0.2","","""event"",""trial"",""time""
""fullscreenenter"",""1"",""1850""
","
","
","""event"",""trial"",""time""
""fullscreenenter"",""1"",""1850""
","
","","[{""page_index"":0,""viewing_time"":4419.5}]","4419.900000000023","","","","","","","","","","","","","","","","","","","","","","","",""
"pit-comprehension","3","9501","0.0-2.0-1.0-0.0","battery-v0.2","","""event"",""trial"",""time""
""fullscreenenter"",""1"",""1850""
","
","
","""event"",""trial"",""time""
""fullscreenenter"",""1"",""1850""
","
","","","2317.2000000000116","[""shark""]","0","19","15341","5770","","","","","","","","","","","","","","","","","","",""
"pit-instructions","4","15732","0.0-2.0-1.0-1.0","battery-v0.2","","""event"",""trial"",""time""
""fullscreenenter"",""1"",""1850""
","
","
","""event"",""trial"",""time""
""fullscreenenter"",""1"",""1850""
","
","","[{""page_index"":0,""viewing_time"":6202.100000000035}]","6202.400000000023","","","","","","","","","","","","","","","","","","","","","","","",""
"pit-comprehension","5","18332","0.0-2.0-2.0-0.0","battery-v0.2","","""event"",""trial"",""time""
""fullscreenenter"",""1"",""1850""
","
","
","""event"",""trial"",""time""
""fullscreenenter"",""1"",""1850""
","
","","","2597.6999999999534","[""tiger""]","0","19","15341","5770","","","","","","","","","","","","","","","","","","",""
"pit-instructions","6","19140","0.0-2.0-2.0-1.0","battery-v0.2","","""event"",""trial"",""time""
""fullscreenenter"",""1"",""1850""
","
","
","""event"",""trial"",""time""
""fullscreenenter"",""1"",""1850""
","
","","[{""page_index"":0,""viewing_time"":804.7000000000116}]","805","","","","","","","","","","","","","","","","","","","","","","","",""
"pit-instructions","7","109714","0.0-2.0-3.0","battery-v0.2","","""event"",""trial"",""time""
""fullscreenenter"",""1"",""1850""
","
","
","""event"",""trial"",""time""
""fullscreenenter"",""1"",""1850""
","
","","[{""page_index"":0,""viewing_time"":8045.600000000035},{""page_index"":1,""viewing_time"":5768},{""page_index"":2,""viewing_time"":6632.599999999977},{""page_index"":3,""viewing_time"":5423.200000000012},{""page_index"":4,""viewing_time"":5752.099999999977},{""page_index"":5,""viewing_time"":5031.700000000012},{""page_index"":6,""viewing_time"":6744.099999999977},{""page_index"":7,""viewing_time"":6247.900000000023},{""page_index"":8,""viewing_time"":6296},{""page_index"":9,""viewing_time"":8280},{""page_index"":10,""viewing_time"":8085.799999999988},{""page_index"":11,""viewing_time"":6111.900000000023},{""page_index"":12,""viewing_time"":7306},{""page_index"":13,""viewing_time"":4846.299999999988}]","90571.70000000001","","","","","","","","","","","","","","","","","","","","","","","",""
"pit-trial","8","113558","0.0-2.0-4.0-0.0","battery-v0.2","","""event"",""trial"",""time""
""fullscreenenter"",""1"",""1850""
","
","
","""event"",""trial"",""time""
""fullscreenenter"",""1"",""1850""
","
","","","970","","","19","15341","5770","&#9784;","elianto","#FFFFF080"," "," ","1","&#10004","[1828.7999999999884]","1","0","0","","","","","","","",""
"pit-trial","9","117485","0.0-2.0-4.1-0.1","battery-v0.2","","""event"",""trial"",""time""
""fullscreenenter"",""1"",""1850""
","
","
","""event"",""trial"",""time""
""fullscreenenter"",""1"",""1850""
","
","","","1062.2000000000116","","","19","15341","5770","&#9784;","elianto","#FFFFF080"," "," ","1","&#10004","[1913.5]","1","0","0","","","","","","","",""
"pit-trial","10","121199","0.0-2.0-4.2-0.2","battery-v0.2","","""event"",""trial"",""time""
""fullscreenenter"",""1"",""1850""
","
","
","""event"",""trial"",""time""
""fullscreenenter"",""1"",""1850""
","
","","","852","","","19","15341","5770","&#9784;","elianto","#FFFFF080"," "," ","1","&#10004","[1706.5999999999767]","1","0","0","","","","","","","",""
"pit-trial","11","124756","0.0-2.0-4.3-0.3","battery-v0.2","","""event"",""trial"",""time""
""fullscreenenter"",""1"",""1850""
","
","
","""event"",""trial"",""time""
""fullscreenenter"",""1"",""1850""
","
","","","701.7999999999884","","","19","15341","5770","&#9784;","elianto","#FFFFF080"," "," ","1","&#10004","[1552.7999999999884]","1","0","0","","","","","","","",""
"pit-trial","12","128382","0.0-2.0-4.4-0.4","battery-v0.2","","""event"",""trial"",""time""
""fullscreenenter"",""1"",""1850""
","
","
","""event"",""trial"",""time""
""fullscreenenter"",""1"",""1850""
","
","","","768.7999999999884","","","19","15341","5770","&#9784;","elianto","#FFFFF080"," "," ","1","&#10004","[1620.2999999999884]","1","0","0","","","","","","","",""
"pit-instructions","13","150450","0.0-2.0-5.0","battery-v0.2","","""event"",""trial"",""time""
""fullscreenenter"",""1"",""1850""
","
","
","""event"",""trial"",""time""
""fullscreenenter"",""1"",""1850""
","
","","[{""page_index"":0,""viewing_time"":4730.5},{""page_index"":1,""viewing_time"":6240.199999999953},{""page_index"":2,""viewing_time"":4623.800000000047},{""page_index"":3,""viewing_time"":6470.199999999953}]","22065.29999999993","","","","","","","","","","","","","","","","","","","","","","","",""
"pit-trial","14","155321","0.0-2.0-6.0-0.0","battery-v0.2","","""event"",""trial"",""time""
""fullscreenenter"",""1"",""1850""
","
","
","""event"",""trial"",""time""
""fullscreenenter"",""1"",""1850""
","
","","","-1","","","19","15341","5770","&#9854;","elianto","#FFFFF080","-1","-1","1","&#10004","[]","0","0","1","","","","","","","",""
"pit-trial","15","160193","0.0-2.0-6.1-0.1","battery-v0.2","","""event"",""trial"",""time""
""fullscreenenter"",""1"",""1850""
","
","
","""event"",""trial"",""time""
""fullscreenenter"",""1"",""1850""
","
","","","-1","","","19","15341","5770","&#9854;","elianto","#FFFFF080","-1","-1","1","&#10004","[]","0","0","1","","","","","","","",""
"pit-trial","16","165058","0.0-2.0-6.2-0.2","battery-v0.2","","""event"",""trial"",""time""
""fullscreenenter"",""1"",""1850""
","
","
","""event"",""trial"",""time""
""fullscreenenter"",""1"",""1850""
","
","","","-1","","","19","15341","5770","&#9854;","elianto","#FFFFF080","-1","-1","1","&#10004","[]","0","0","1","","","","","","","",""
"pit-trial","17","169932","0.0-2.0-6.3-0.3","battery-v0.2","","""event"",""trial"",""time""
""fullscreenenter"",""1"",""1850""
","
","
","""event"",""trial"",""time""
""fullscreenenter"",""1"",""1850""
","
","","","-1","","","19","15341","5770","&#9854;","elianto","#FFFFF080","-1","-1","1","&#10004","[]","0","0","1","","","","","","","",""
"pit-trial","18","174806","0.0-2.0-6.4-0.4","battery-v0.2","","""event"",""trial"",""time""
""fullscreenenter"",""1"",""1850""
","
","
","""event"",""trial"",""time""
""fullscreenenter"",""1"",""1850""
","
","","","-1","","","19","15341","5770","&#9854;","elianto","#FFFFF080","-1","-1","1","&#10004","[]","0","0","1","","","","","","","",""
"pit-instructions","19","316522","0.0-2.0-7.0","battery-v0.2","","""event"",""trial"",""time""
""fullscreenenter"",""1"",""1850""
","
","
","""event"",""trial"",""time""
""fullscreenenter"",""1"",""1850""
","
","","[{""page_index"":0,""viewing_time"":7345.600000000093},{""page_index"":1,""viewing_time"":11871.899999999907},{""page_index"":2,""viewing_time"":7576},{""page_index"":3,""viewing_time"":9816},{""page_index"":4,""viewing_time"":7815.900000000023},{""page_index"":5,""viewing_time"":5728},{""page_index"":6,""viewing_time"":4647.900000000023},{""page_index"":7,""viewing_time"":7607.900000000023},{""page_index"":8,""viewing_time"":7104},{""page_index"":9,""viewing_time"":6319.900000000023},{""page_index"":10,""viewing_time"":12000},{""page_index"":11,""viewing_time"":8328},{""page_index"":12,""viewing_time"":9231.899999999907},{""page_index"":13,""viewing_time"":8575.900000000023},{""page_index"":14,""viewing_time"":7064},{""page_index"":15,""viewing_time"":7047.900000000023},{""page_index"":16,""viewing_time"":6680},{""page_index"":17,""viewing_time"":6951.800000000047}]","141712.90000000002","","","","","","","","","","","","","","","","","","","","","","","",""
"pit-trial","20","320120","0.0-2.0-8.0-0.0","battery-v0.2","","""event"",""trial"",""time""
""fullscreenenter"",""1"",""1850""
","
","
","""event"",""trial"",""time""
""fullscreenenter"",""1"",""1850""
","
","","","730.1999999999534","","","19","15341","5770","&#9776;","elianto","#3366ff99"," "," ","1","+10","[1581.2000000000698]","1","0","1","","","","","","","",""
"pit-trial","21","323881","0.0-2.0-8.0-1.0","battery-v0.2","","""event"",""trial"",""time""
""fullscreenenter"",""1"",""1850""
","
","
","""event"",""trial"",""time""
""fullscreenenter"",""1"",""1850""
","
","","","898.6999999999534","","","19","15341","5770","&#9776;","elianto","#3366ff99"," "," ","1","+10","[1751.1999999999534]","1","0","1","","","","","","","",""
"pit-trial","22","327454","0.0-2.0-8.0-2.0","battery-v0.2","","""event"",""trial"",""time""
""fullscreenenter"",""1"",""1850""
","
","
","""event"",""trial"",""time""
""fullscreenenter"",""1"",""1850""
","
","","","707.9000000000233","","","19","15341","5770","&#9776;","elianto","#3366ff99"," "," ","1","+10","[1566.1999999999534]","1","0","1","","","","","","","",""
"pit-trial","23","332319","0.0-2.0-8.0-3.0","battery-v0.2","","""event"",""trial"",""time""
""fullscreenenter"",""1"",""1850""
","
","
","""event"",""trial"",""time""
""fullscreenenter"",""1"",""1850""
","
","","","-1","","","19","15341","5770","&#9776;","elianto","#3366ff99"," ","-1","0","+10","[]","0","0","1","","","","","","","",""
"pit-trial","24","335764","0.0-2.0-8.0-4.0","battery-v0.2","","""event"",""trial"",""time""
""fullscreenenter"",""1"",""1850""
","
","
","""event"",""trial"",""time""
""fullscreenenter"",""1"",""1850""
","
","","","578.8000000000466","","","19","15341","5770","&#9776;","elianto","#3366ff99"," "," ","1","+10","[1431.6000000000931]","1","0","1","","","","","","","",""
"pit-trial","25","339082","0.0-2.0-8.1-0.1","battery-v0.2","","""event"",""trial"",""time""
""fullscreenenter"",""1"",""1850""
","
","
","""event"",""trial"",""time""
""fullscreenenter"",""1"",""1850""
","
","","","456.69999999995343","","","19","15341","5770","&#9776;","elianto","#3366ff99"," "," ","1","+10","[1313.9000000000233]","1","0","1","","","","","","","",""
"pit-trial","26","342685","0.0-2.0-8.1-1.1","battery-v0.2","","""event"",""trial"",""time""
""fullscreenenter"",""1"",""1850""
","
","
","""event"",""trial"",""time""
""fullscreenenter"",""1"",""1850""
","
","","","739.8000000000466","","","19","15341","5770","&#9776;","elianto","#3366ff99"," "," ","1","+10","[1596.4000000000233]","1","0","1","","","","","","","",""
"pit-trial","27","346289","0.0-2.0-8.1-2.1","battery-v0.2","","""event"",""trial"",""time""
""fullscreenenter"",""1"",""1850""
","
","
","""event"",""trial"",""time""
""fullscreenenter"",""1"",""1850""
","
","","","748.5","","","19","15341","5770","&#9776;","elianto","#3366ff99"," "," ","1","+10","[1601.5]","1","0","1","","","","","","","",""
"pit-trial","28","349890","0.0-2.0-8.1-3.1","battery-v0.2","","""event"",""trial"",""time""
""fullscreenenter"",""1"",""1850""
","
","
","""event"",""trial"",""time""
""fullscreenenter"",""1"",""1850""
","
","","","744.3000000000466","","","19","15341","5770","&#9776;","elianto","#3366ff99"," "," ","1","0","[1597.0999999999767]","1","0","1","","","","","","","",""
"pit-trial","29","354743","0.0-2.0-8.1-4.1","battery-v0.2","","""event"",""trial"",""time""
""fullscreenenter"",""1"",""1850""
","
","
","""event"",""trial"",""time""
""fullscreenenter"",""1"",""1850""
","
","","","-1","","","19","15341","5770","&#9776;","elianto","#3366ff99"," ","-1","0","0","[2876.9000000000233]","1","0","1","","","","","","","",""
"pit-trial","30","358209","0.0-2.0-8.2-0.2","battery-v0.2","","""event"",""trial"",""time""
""fullscreenenter"",""1"",""1850""
","
","
","""event"",""trial"",""time""
""fullscreenenter"",""1"",""1850""
","
","","","611.9000000000233","","","19","15341","5770","&#9776;","elianto","#3366ff99"," "," ","1","+10","[1463.5]","1","0","1","","","","","","","",""
"pit-trial","31","361745","0.0-2.0-8.2-1.2","battery-v0.2","","""event"",""trial"",""time""
""fullscreenenter"",""1"",""1850""
","
","
","""event"",""trial"",""time""
""fullscreenenter"",""1"",""1850""
","
","","","681.2000000000698","","","19","15341","5770","&#9776;","elianto","#3366ff99"," "," ","1","+10","[1533.1000000000931]","1","0","1","","","","","","","",""
"pit-trial","32","366597","0.0-2.0-8.2-2.2","battery-v0.2","","""event"",""trial"",""time""
""fullscreenenter"",""1"",""1850""
","
","
","""event"",""trial"",""time""
""fullscreenenter"",""1"",""1850""
","
","","","-1","","","19","15341","5770","&#9776;","elianto","#3366ff99"," ","-1","0","0","[]","0","0","1","","","","","","","",""
"pit-trial","33","370681","0.0-2.0-8.2-3.2","battery-v0.2","","""event"",""trial"",""time""
""fullscreenenter"",""1"",""1850""
","
","
","""event"",""trial"",""time""
""fullscreenenter"",""1"",""1850""
","
","","","1230.5999999999767","","","19","15341","5770","&#9776;","elianto","#3366ff99"," "," ","1","0","[2081.0999999999767]","1","0","1","","","","","","","",""
"pit-trial","34","375534","0.0-2.0-8.2-4.2","battery-v0.2","","""event"",""trial"",""time""
""fullscreenenter"",""1"",""1850""
","
","
","""event"",""trial"",""time""
""fullscreenenter"",""1"",""1850""
","
","","","-1","","","19","15341","5770","&#9776;","elianto","#3366ff99"," ","-1","0","0","[]","0","0","1","","","","","","","",""
"call-function","35","375537","0.0-2.0-9.0","battery-v0.2","","""event"",""trial"",""time""
""fullscreenenter"",""1"",""1850""
","
","
","""event"",""trial"",""time""
""fullscreenenter"",""1"",""1850""
","
","","","","","","","","","","","","","","","","","","","","","","","","","","",""
"pit-instructions","36","424513","0.0-2.0-10.0","battery-v0.2","","""event"",""trial"",""time""
""fullscreenenter"",""1"",""1850""
","
","
","""event"",""trial"",""time""
""fullscreenenter"",""1"",""1850""
","
","","[{""page_index"":0,""viewing_time"":7456.300000000047},{""page_index"":1,""viewing_time"":6039.800000000047},{""page_index"":2,""viewing_time"":15720},{""page_index"":3,""viewing_time"":11863.899999999907},{""page_index"":4,""viewing_time"":7895.900000000023}]","48976.20000000007","","","","","","","","","","","","","","","","","","","","","","","",""
"pit-trial","37","427943","0.0-2.0-11.0-0.0","battery-v0.2","","""event"",""trial"",""time""
""fullscreenenter"",""1"",""1850""
","
","
","""event"",""trial"",""time""
""fullscreenenter"",""1"",""1850""
","
","","","562.8000000000466","","","19","15341","5770","&#9761;","elianto","#3366ff99","-1"," ","0","0","[1421]","1","0","2","","","","","","","",""
"pit-trial","38","431060","0.0-2.0-11.0-1.0","battery-v0.2","","""event"",""trial"",""time""
""fullscreenenter"",""1"",""1850""
","
","
","""event"",""trial"",""time""
""fullscreenenter"",""1"",""1850""
","
","","","251.69999999995343","","","19","15341","5770","&#9761;","elianto","#3366ff99","-1"," ","0","0","[1110.4000000000233]","1","0","2","","","","","","","",""
"pit-trial","39","434058","0.0-2.0-11.0-2.0","battery-v0.2","","""event"",""trial"",""time""
""fullscreenenter"",""1"",""1850""
","
","
","""event"",""trial"",""time""
""fullscreenenter"",""1"",""1850""
","
","","","125.19999999995343","","","19","15341","5770","&#9761;","elianto","#3366ff99","-1"," ","0","0","[985.4000000000233]","1","0","2","","","","","","","",""
"pit-trial","40","437261","0.0-2.0-11.0-3.0","battery-v0.2","","""event"",""trial"",""time""
""fullscreenenter"",""1"",""1850""
","
","
","""event"",""trial"",""time""
""fullscreenenter"",""1"",""1850""
","
","","","324.5999999999767","","","19","15341","5770","&#9761;","elianto","#3366ff99","-1"," ","0","+10","[1187]","1","0","2","","","","","","","",""
"pit-trial","41","440321","0.0-2.0-11.0-4.0","battery-v0.2","","""event"",""trial"",""time""
""fullscreenenter"",""1"",""1850""
","
","
","""event"",""trial"",""time""
""fullscreenenter"",""1"",""1850""
","
","","","188.5","","","19","15341","5770","&#9761;","elianto","#3366ff99","-1"," ","0","0","[1049.2999999999302]","1","0","2","","","","","","","",""
"pit-trial","42","443711","0.0-2.0-11.1-0.1","battery-v0.2","","""event"",""trial"",""time""
""fullscreenenter"",""1"",""1850""
","
","
","""event"",""trial"",""time""
""fullscreenenter"",""1"",""1850""
","
","","","520.5999999999767","","","19","15341","5770","&#9761;","elianto","#3366ff99","-1"," ","0","0","[1372.2999999999302]","1","0","2","","","","","","","",""
"pit-trial","43","447246","0.0-2.0-11.1-1.1","battery-v0.2","","""event"",""trial"",""time""
""fullscreenenter"",""1"",""1850""
","
","
","""event"",""trial"",""time""
""fullscreenenter"",""1"",""1850""
","
","","","667.2999999999302","","","19","15341","5770","&#9761;","elianto","#3366ff99","-1"," ","0","0","[1526.1999999999534]","1","0","2","","","","","","","",""
"pit-trial","44","450423","0.0-2.0-11.1-2.1","battery-v0.2","","""event"",""trial"",""time""
""fullscreenenter"",""1"",""1850""
","
","
","""event"",""trial"",""time""
""fullscreenenter"",""1"",""1850""
","
","","","302.10000000009313","","","19","15341","5770","&#9761;","elianto","#3366ff99","-1"," ","0","0","[1159.2999999999302]","1","0","2","","","","","","","",""
"pit-trial","45","453481","0.0-2.0-11.1-3.1","battery-v0.2","","""event"",""trial"",""time""
""fullscreenenter"",""1"",""1850""
","
","
","""event"",""trial"",""time""
""fullscreenenter"",""1"",""1850""
","
","","","194.80000000004657","","","19","15341","5770","&#9761;","elianto","#3366ff99","-1"," ","0","+10","[1046]","1","0","2","","","","","","","",""
"pit-trial","46","456816","0.0-2.0-11.1-4.1","battery-v0.2","","""event"",""trial"",""time""
""fullscreenenter"",""1"",""1850""
","
","
","""event"",""trial"",""time""
""fullscreenenter"",""1"",""1850""
","
","","","482.30000000004657","","","19","15341","5770","&#9761;","elianto","#3366ff99","-1"," ","0","0","[1333]","1","0","2","","","","","","","",""
"pit-trial","47","461017","0.0-2.0-11.2-0.2","battery-v0.2","","""event"",""trial"",""time""
""fullscreenenter"",""1"",""1850""
","
","
","""event"",""trial"",""time""
""fullscreenenter"",""1"",""1850""
","
","","","1346","","","19","15341","5770","&#9761;","elianto","#3366ff99","-1"," ","0","0","[2196.5999999999767]","1","0","2","","","","","","","",""
"pit-trial","48","464264","0.0-2.0-11.2-1.2","battery-v0.2","","""event"",""trial"",""time""
""fullscreenenter"",""1"",""1850""
","
","
","""event"",""trial"",""time""
""fullscreenenter"",""1"",""1850""
","
","","","394.79999999993015","","","19","15341","5770","&#9761;","elianto","#3366ff99","-1"," ","0","0","[1245.6999999999534]","1","0","2","","","","","","","",""
"pit-trial","49","467761","0.0-2.0-11.2-2.2","battery-v0.2","","""event"",""trial"",""time""
""fullscreenenter"",""1"",""1850""
","
","
","""event"",""trial"",""time""
""fullscreenenter"",""1"",""1850""
","
","","","643.3000000000466","","","19","15341","5770","&#9761;","elianto","#3366ff99","-1"," ","0","0","[1494.1999999999534]","1","0","2","","","","","","","",""
"pit-trial","50","471177","0.0-2.0-11.2-3.2","battery-v0.2","","""event"",""trial"",""time""
""fullscreenenter"",""1"",""1850""
","
","
","""event"",""trial"",""time""
""fullscreenenter"",""1"",""1850""
","
","","","555.6999999999534","","","19","15341","5770","&#9761;","elianto","#3366ff99","-1"," ","0","+10","[1413.3999999999069]","1","0","2","","","","","","","",""
"pit-trial","51","474472","0.0-2.0-11.2-4.2","battery-v0.2","","""event"",""trial"",""time""
""fullscreenenter"",""1"",""1850""
","
","
","""event"",""trial"",""time""
""fullscreenenter"",""1"",""1850""
","
","","","442","","","19","15341","5770","&#9761;","elianto","#3366ff99","-1"," ","0","0","[1293]","1","0","2","","","","","","","",""
"pit-trial","52","478233","0.0-2.0-11.3-0.3","battery-v0.2","","""event"",""trial"",""time""
""fullscreenenter"",""1"",""1850""
","
","
","""event"",""trial"",""time""
""fullscreenenter"",""1"",""1850""
","
","","","904.6999999999534","","","19","15341","5770","&#9761;","elianto","#3366ff99","-1"," ","0","0","[1757.0999999999767]","1","0","2","","","","","","","",""
"pit-trial","53","483087","0.0-2.0-11.3-1.3","battery-v0.2","","""event"",""trial"",""time""
""fullscreenenter"",""1"",""1850""
","
","
","""event"",""trial"",""time""
""fullscreenenter"",""1"",""1850""
","
","","","-1","","","19","15341","5770","&#9761;","elianto","#3366ff99","-1","-1","1","+10","[3517]","1","0","2","","","","","","","",""
"pit-trial","54","486504","0.0-2.0-11.3-2.3","battery-v0.2","","""event"",""trial"",""time""
""fullscreenenter"",""1"",""1850""
","
","
","""event"",""trial"",""time""
""fullscreenenter"",""1"",""1850""
","
","","","564.9000000000233","","","19","15341","5770","&#9761;","elianto","#3366ff99","-1"," ","0","0","[1415.3000000000466]","1","0","2","","","","","","","",""
"pit-trial","55","489688","0.0-2.0-11.3-3.3","battery-v0.2","","""event"",""trial"",""time""
""fullscreenenter"",""1"",""1850""
","
","
","""event"",""trial"",""time""
""fullscreenenter"",""1"",""1850""
","
","","","331.29999999993015","","","19","15341","5770","&#9761;","elianto","#3366ff99","-1"," ","0","+10","[1181.6999999999534]","1","0","2","","","","","","","",""
"pit-trial","56","493152","0.0-2.0-11.3-4.3","battery-v0.2","","""event"",""trial"",""time""
""fullscreenenter"",""1"",""1850""
","
","
","""event"",""trial"",""time""
""fullscreenenter"",""1"",""1850""
","
","","","608.1999999999534","","","19","15341","5770","&#9761;","elianto","#3366ff99","-1"," ","0","0","[1461.6999999999534]","1","0","2","","","","","","","",""
"call-function","57","493154","0.0-2.0-12.0","battery-v0.2","","""event"",""trial"",""time""
""fullscreenenter"",""1"",""1850""
","
","
","""event"",""trial"",""time""
""fullscreenenter"",""1"",""1850""
","
","","","","","","","","","","","","","","","","","","","","","","","","","","",""
"pit-instructions","58","527929","0.0-2.0-13.0","battery-v0.2","","""event"",""trial"",""time""
""fullscreenenter"",""1"",""1850""
","
","
","""event"",""trial"",""time""
""fullscreenenter"",""1"",""1850""
","
","","[{""page_index"":0,""viewing_time"":6214.399999999907},{""page_index"":1,""viewing_time"":8423.900000000023},{""page_index"":2,""viewing_time"":4848},{""page_index"":3,""viewing_time"":11103.900000000023},{""page_index"":4,""viewing_time"":4184}]","34774.5","","","","","","","","","","","","","","","","","","","","","","","",""
"pit-trial","59","531054","0.0-2.0-14.0-0.0","battery-v0.2","","""event"",""trial"",""time""
""fullscreenenter"",""1"",""1850""
","
","
","""event"",""trial"",""time""
""fullscreenenter"",""1"",""1850""
","
","","","261.9000000000233","","","19","15341","5770","&#9826;","elianto","#f73b6a7A","-1"," ","0","-10","[1117]","1","0","3","","","","","","","",""
"pit-trial","60","535921","0.0-2.0-14.0-1.0","battery-v0.2","","""event"",""trial"",""time""
""fullscreenenter"",""1"",""1850""
","
","
","""event"",""trial"",""time""
""fullscreenenter"",""1"",""1850""
","
","","","-1","","","19","15341","5770","&#9826;","elianto","#f73b6a7A","-1","-1","1","0","[]","0","0","3","","","","","","","",""
"pit-trial","61","540556","0.0-2.0-14.0-2.0","battery-v0.2","","""event"",""trial"",""time""
""fullscreenenter"",""1"",""1850""
","
","
","""event"",""trial"",""time""
""fullscreenenter"",""1"",""1850""
","
","","","1771.4000000000233","","","19","15341","5770","&#9826;","elianto","#f73b6a7A","-1"," ","0","-10","[2621.6999999999534]","1","0","3","","","","","","","",""
"pit-trial","62","545423","0.0-2.0-14.0-3.0","battery-v0.2","","""event"",""trial"",""time""
""fullscreenenter"",""1"",""1850""
","
","
","""event"",""trial"",""time""
""fullscreenenter"",""1"",""1850""
","
","","","-1","","","19","15341","5770","&#9826;","elianto","#f73b6a7A","-1","-1","1","-10","[]","0","0","3","","","","","","","",""
"pit-trial","63","549115","0.0-2.0-14.0-4.0","battery-v0.2","","""event"",""trial"",""time""
""fullscreenenter"",""1"",""1850""
","
","
","""event"",""trial"",""time""
""fullscreenenter"",""1"",""1850""
","
","","","828.4000000000233","","","19","15341","5770","&#9826;","elianto","#f73b6a7A","-1"," ","0","-10","[1678.6999999999534]","1","0","3","","","","","","","",""
"pit-trial","64","553971","0.0-2.0-14.1-0.1","battery-v0.2","","""event"",""trial"",""time""
""fullscreenenter"",""1"",""1850""
","
","
","""event"",""trial"",""time""
""fullscreenenter"",""1"",""1850""
","
","","","-1","","","19","15341","5770","&#9826;","elianto","#f73b6a7A","-1","-1","1","0","[]","0","0","3","","","","","","","",""
"pit-trial","65","558827","0.0-2.0-14.1-1.1","battery-v0.2","","""event"",""trial"",""time""
""fullscreenenter"",""1"",""1850""
","
","
","""event"",""trial"",""time""
""fullscreenenter"",""1"",""1850""
","
","","","-1","","","19","15341","5770","&#9826;","elianto","#f73b6a7A","-1","-1","1","0","[]","0","0","3","","","","","","","",""
"pit-trial","66","563328","0.0-2.0-14.1-2.1","battery-v0.2","","""event"",""trial"",""time""
""fullscreenenter"",""1"",""1850""
","
","
","""event"",""trial"",""time""
""fullscreenenter"",""1"",""1850""
","
","","","1648.1000000000931","","","19","15341","5770","&#9826;","elianto","#f73b6a7A","-1"," ","0","-10","[2499]","1","0","3","","","","","","","",""
"pit-trial","67","568181","0.0-2.0-14.1-3.1","battery-v0.2","","""event"",""trial"",""time""
""fullscreenenter"",""1"",""1850""
","
","
","""event"",""trial"",""time""
""fullscreenenter"",""1"",""1850""
","
","","","-1","","","19","15341","5770","&#9826;","elianto","#f73b6a7A","-1","-1","1","-10","[]","0","0","3","","","","","","","",""
"pit-trial","68","573041","0.0-2.0-14.1-4.1","battery-v0.2","","""event"",""trial"",""time""
""fullscreenenter"",""1"",""1850""
","
","
","""event"",""trial"",""time""
""fullscreenenter"",""1"",""1850""
","
","","","-1","","","19","15341","5770","&#9826;","elianto","#f73b6a7A","-1","-1","1","0","[]","0","0","3","","","","","","","",""
"pit-trial","69","577895","0.0-2.0-14.2-0.2","battery-v0.2","","""event"",""trial"",""time""
""fullscreenenter"",""1"",""1850""
","
","
","""event"",""trial"",""time""
""fullscreenenter"",""1"",""1850""
","
","","","-1","","","19","15341","5770","&#9826;","elianto","#f73b6a7A","-1","-1","1","0","[]","0","0","3","","","","","","","",""
"pit-trial","70","582748","0.0-2.0-14.2-1.2","battery-v0.2","","""event"",""trial"",""time""
""fullscreenenter"",""1"",""1850""
","
","
","""event"",""trial"",""time""
""fullscreenenter"",""1"",""1850""
","
","","","-1","","","19","15341","5770","&#9826;","elianto","#f73b6a7A","-1","-1","1","0","[]","0","0","3","","","","","","","",""
"pit-trial","71","587610","0.0-2.0-14.2-2.2","battery-v0.2","","""event"",""trial"",""time""
""fullscreenenter"",""1"",""1850""
","
","
","""event"",""trial"",""time""
""fullscreenenter"",""1"",""1850""
","
","","","-1","","","19","15341","5770","&#9826;","elianto","#f73b6a7A","-1","-1","1","0","[]","0","0","3","","","","","","","",""
"pit-trial","72","592463","0.0-2.0-14.2-3.2","battery-v0.2","","""event"",""trial"",""time""
""fullscreenenter"",""1"",""1850""
","
","
","""event"",""trial"",""time""
""fullscreenenter"",""1"",""1850""
","
","","","-1","","","19","15341","5770","&#9826;","elianto","#f73b6a7A","-1","-1","1","-10","[]","0","0","3","","","","","","","",""
"pit-trial","73","597317","0.0-2.0-14.2-4.2","battery-v0.2","","""event"",""trial"",""time""
""fullscreenenter"",""1"",""1850""
","
","
","""event"",""trial"",""time""
""fullscreenenter"",""1"",""1850""
","
","","","-1","","","19","15341","5770","&#9826;","elianto","#f73b6a7A","-1","-1","1","0","[]","0","0","3","","","","","","","",""
"pit-trial","74","602171","0.0-2.0-14.3-0.3","battery-v0.2","","""event"",""trial"",""time""
""fullscreenenter"",""1"",""1850""
","
","
","""event"",""trial"",""time""
""fullscreenenter"",""1"",""1850""
","
","","","-1","","","19","15341","5770","&#9826;","elianto","#f73b6a7A","-1","-1","1","0","[]","0","0","3","","","","","","","",""
"pit-trial","75","607025","0.0-2.0-14.3-1.3","battery-v0.2","","""event"",""trial"",""time""
""fullscreenenter"",""1"",""1850""
","
","
","""event"",""trial"",""time""
""fullscreenenter"",""1"",""1850""
","
","","","-1","","","19","15341","5770","&#9826;","elianto","#f73b6a7A","-1","-1","1","0","[]","0","0","3","","","","","","","",""
"pit-trial","76","611878","0.0-2.0-14.3-2.3","battery-v0.2","","""event"",""trial"",""time""
""fullscreenenter"",""1"",""1850""
","
","
","""event"",""trial"",""time""
""fullscreenenter"",""1"",""1850""
","
","","","-1","","","19","15341","5770","&#9826;","elianto","#f73b6a7A","-1","-1","1","0","[]","0","0","3","","","","","","","",""
"pit-trial","77","616731","0.0-2.0-14.3-3.3","battery-v0.2","","""event"",""trial"",""time""
""fullscreenenter"",""1"",""1850""
","
","
","""event"",""trial"",""time""
""fullscreenenter"",""1"",""1850""
","
","","","-1","","","19","15341","5770","&#9826;","elianto","#f73b6a7A","-1","-1","1","-10","[]","0","0","3","","","","","","","",""
"pit-trial","78","621584","0.0-2.0-14.3-4.3","battery-v0.2","","""event"",""trial"",""time""
""fullscreenenter"",""1"",""1850""
","
","
","""event"",""trial"",""time""
""fullscreenenter"",""1"",""1850""
","
","","","-1","","","19","15341","5770","&#9826;","elianto","#f73b6a7A","-1","-1","1","0","[]","0","0","3","","","","","","","",""
"call-function","79","621586","0.0-2.0-15.0","battery-v0.2","","""event"",""trial"",""time""
""fullscreenenter"",""1"",""1850""
","
","
","""event"",""trial"",""time""
""fullscreenenter"",""1"",""1850""
","
","","","","","","","","","","","","","","","","","","","","","","","","","","",""
"pit-instructions","80","663720","0.0-2.0-16.0","battery-v0.2","","""event"",""trial"",""time""
""fullscreenenter"",""1"",""1850""
","
","
","""event"",""trial"",""time""
""fullscreenenter"",""1"",""1850""
","
","","[{""page_index"":0,""viewing_time"":7149.100000000093},{""page_index"":1,""viewing_time"":17479.899999999907},{""page_index"":2,""viewing_time"":10200},{""page_index"":3,""viewing_time"":7303.90000000014}]","42133.10000000009","","","","","","","","","","","","","","","","","","","","","","","",""
"pit-trial","81","668591","0.0-2.0-17.0-0.0","battery-v0.2","","""event"",""trial"",""time""
""fullscreenenter"",""1"",""1850""
","
","
","""event"",""trial"",""time""
""fullscreenenter"",""1"",""1850""
","
","","","-1","","","19","15341","5770","&#9789;","elianto","#f73b6a7A"," ","-1","0","-10","[]","0","0","4","","","","","","","",""
"pit-trial","82","673471","0.0-2.0-17.0-1.0","battery-v0.2","","""event"",""trial"",""time""
""fullscreenenter"",""1"",""1850""
","
","
","""event"",""trial"",""time""
""fullscreenenter"",""1"",""1850""
","
","","","-1","","","19","15341","5770","&#9789;","elianto","#f73b6a7A"," ","-1","0","-10","[]","0","0","4","","","","","","","",""
"pit-trial","83","678345","0.0-2.0-17.0-2.0","battery-v0.2","","""event"",""trial"",""time""
""fullscreenenter"",""1"",""1850""
","
","
","""event"",""trial"",""time""
""fullscreenenter"",""1"",""1850""
","
","","","-1","","","19","15341","5770","&#9789;","elianto","#f73b6a7A"," ","-1","0","-10","[]","0","0","4","","","","","","","",""
"pit-trial","84","683210","0.0-2.0-17.0-3.0","battery-v0.2","","""event"",""trial"",""time""
""fullscreenenter"",""1"",""1850""
","
","
","""event"",""trial"",""time""
""fullscreenenter"",""1"",""1850""
","
","","","-1","","","19","15341","5770","&#9789;","elianto","#f73b6a7A"," ","-1","0","0","[]","0","0","4","","","","","","","",""
"pit-trial","85","688083","0.0-2.0-17.0-4.0","battery-v0.2","","""event"",""trial"",""time""
""fullscreenenter"",""1"",""1850""
","
","
","""event"",""trial"",""time""
""fullscreenenter"",""1"",""1850""
","
","","","-1","","","19","15341","5770","&#9789;","elianto","#f73b6a7A"," ","-1","0","-10","[]","0","0","4","","","","","","","",""
"pit-trial","86","692948","0.0-2.0-17.1-0.1","battery-v0.2","","""event"",""trial"",""time""
""fullscreenenter"",""1"",""1850""
","
","
","""event"",""trial"",""time""
""fullscreenenter"",""1"",""1850""
","
","","","-1","","","19","15341","5770","&#9789;","elianto","#f73b6a7A"," ","-1","0","-10","[]","0","0","4","","","","","","","",""
"pit-trial","87","697802","0.0-2.0-17.1-1.1","battery-v0.2","","""event"",""trial"",""time""
""fullscreenenter"",""1"",""1850""
","
","
","""event"",""trial"",""time""
""fullscreenenter"",""1"",""1850""
","
","","","-1","","","19","15341","5770","&#9789;","elianto","#f73b6a7A"," ","-1","0","-10","[]","0","0","4","","","","","","","",""
"pit-trial","88","702655","0.0-2.0-17.1-2.1","battery-v0.2","","""event"",""trial"",""time""
""fullscreenenter"",""1"",""1850""
","
","
","""event"",""trial"",""time""
""fullscreenenter"",""1"",""1850""
","
","","","-1","","","19","15341","5770","&#9789;","elianto","#f73b6a7A"," ","-1","0","-10","[]","0","0","4","","","","","","","",""
"pit-trial","89","707508","0.0-2.0-17.1-3.1","battery-v0.2","","""event"",""trial"",""time""
""fullscreenenter"",""1"",""1850""
","
","
","""event"",""trial"",""time""
""fullscreenenter"",""1"",""1850""
","
","","","-1","","","19","15341","5770","&#9789;","elianto","#f73b6a7A"," ","-1","0","0","[]","0","0","4","","","","","","","",""
"pit-trial","90","712362","0.0-2.0-17.1-4.1","battery-v0.2","","""event"",""trial"",""time""
""fullscreenenter"",""1"",""1850""
","
","
","""event"",""trial"",""time""
""fullscreenenter"",""1"",""1850""
","
","","","-1","","","19","15341","5770","&#9789;","elianto","#f73b6a7A"," ","-1","0","-10","[]","0","0","4","","","","","","","",""
"pit-trial","91","717216","0.0-2.0-17.2-0.2","battery-v0.2","","""event"",""trial"",""time""
""fullscreenenter"",""1"",""1850""
","
","
","""event"",""trial"",""time""
""fullscreenenter"",""1"",""1850""
","
","","","-1","","","19","15341","5770","&#9789;","elianto","#f73b6a7A"," ","-1","0","-10","[]","0","0","4","","","","","","","",""
"pit-trial","92","722068","0.0-2.0-17.2-1.2","battery-v0.2","","""event"",""trial"",""time""
""fullscreenenter"",""1"",""1850""
","
","
","""event"",""trial"",""time""
""fullscreenenter"",""1"",""1850""
","
","","","-1","","","19","15341","5770","&#9789;","elianto","#f73b6a7A"," ","-1","0","-10","[]","0","0","4","","","","","","","",""
"pit-trial","93","726921","0.0-2.0-17.2-2.2","battery-v0.2","","""event"",""trial"",""time""
""fullscreenenter"",""1"",""1850""
","
","
","""event"",""trial"",""time""
""fullscreenenter"",""1"",""1850""
","
","","","-1","","","19","15341","5770","&#9789;","elianto","#f73b6a7A"," ","-1","0","-10","[]","0","0","4","","","","","","","",""
"pit-trial","94","731774","0.0-2.0-17.2-3.2","battery-v0.2","","""event"",""trial"",""time""
""fullscreenenter"",""1"",""1850""
","
","
","""event"",""trial"",""time""
""fullscreenenter"",""1"",""1850""
","
","","","-1","","","19","15341","5770","&#9789;","elianto","#f73b6a7A"," ","-1","0","0","[]","0","0","4","","","","","","","",""
"pit-trial","95","736628","0.0-2.0-17.2-4.2","battery-v0.2","","""event"",""trial"",""time""
""fullscreenenter"",""1"",""1850""
","
","
","""event"",""trial"",""time""
""fullscreenenter"",""1"",""1850""
","
","","","-1","","","19","15341","5770","&#9789;","elianto","#f73b6a7A"," ","-1","0","-10","[]","0","0","4","","","","","","","",""
"pit-trial","96","741481","0.0-2.0-17.3-0.3","battery-v0.2","","""event"",""trial"",""time""
""fullscreenenter"",""1"",""1850""
","
","
","""event"",""trial"",""time""
""fullscreenenter"",""1"",""1850""
","
","","","-1","","","19","15341","5770","&#9789;","elianto","#f73b6a7A"," ","-1","0","-10","[]","0","0","4","","","","","","","",""
"pit-trial","97","746335","0.0-2.0-17.3-1.3","battery-v0.2","","""event"",""trial"",""time""
""fullscreenenter"",""1"",""1850""
","
","
","""event"",""trial"",""time""
""fullscreenenter"",""1"",""1850""
","
","","","-1","","","19","15341","5770","&#9789;","elianto","#f73b6a7A"," ","-1","0","-10","[]","0","0","4","","","","","","","",""
"pit-trial","98","751188","0.0-2.0-17.3-2.3","battery-v0.2","","""event"",""trial"",""time""
""fullscreenenter"",""1"",""1850""
","
","
","""event"",""trial"",""time""
""fullscreenenter"",""1"",""1850""
","
","","","-1","","","19","15341","5770","&#9789;","elianto","#f73b6a7A"," ","-1","0","-10","[]","0","0","4","","","","","","","",""
"pit-trial","99","756042","0.0-2.0-17.3-3.3","battery-v0.2","","""event"",""trial"",""time""
""fullscreenenter"",""1"",""1850""
","
","
","""event"",""trial"",""time""
""fullscreenenter"",""1"",""1850""
","
","","","-1","","","19","15341","5770","&#9789;","elianto","#f73b6a7A"," ","-1","0","0","[]","0","0","4","","","","","","","",""
"pit-trial","100","760895","0.0-2.0-17.3-4.3","battery-v0.2","","""event"",""trial"",""time""
""fullscreenenter"",""1"",""1850""
","
","
","""event"",""trial"",""time""
""fullscreenenter"",""1"",""1850""
","
","","","-1","","","19","15341","5770","&#9789;","elianto","#f73b6a7A"," ","-1","0","-10","[]","0","0","4","","","","","","","",""
"call-function","101","760897","0.0-2.0-18.0","battery-v0.2","","""event"",""trial"",""time""
""fullscreenenter"",""1"",""1850""
","
","
","""event"",""trial"",""time""
""fullscreenenter"",""1"",""1850""
","
","","","","","","","","","","","","","","","","","","","","","","","","","","",""
"pit-instructions","102","846895","0.0-2.0-19.0","battery-v0.2","","""event"",""trial"",""time""
""fullscreenenter"",""1"",""1850""
","
","
","""event"",""trial"",""time""
""fullscreenenter"",""1"",""1850""
","
","","[{""page_index"":0,""viewing_time"":7589.09999999986},{""page_index"":1,""viewing_time"":11407.90000000014},{""page_index"":2,""viewing_time"":13959.800000000047},{""page_index"":3,""viewing_time"":6464.09999999986},{""page_index"":4,""viewing_time"":6647.90000000014},{""page_index"":5,""viewing_time"":8871.899999999907},{""page_index"":6,""viewing_time"":9216},{""page_index"":7,""viewing_time"":10232},{""page_index"":8,""viewing_time"":11607.899999999907}]","85996.80000000005","","","","","","","","","","","","","","","","","","","","","","","",""
"pit-comprehension","103","851311","0.0-2.0-20.0-0.0","battery-v0.2","","""event"",""trial"",""time""
""fullscreenenter"",""1"",""1850""
","
","
","""event"",""trial"",""time""
""fullscreenenter"",""1"",""1850""
","
","","","4413.699999999953","[""SPACE""]","0","19","15341","5770","","","","","","","","","","","","","","","","","","",""
"pit-instructions","104","857719","0.0-2.0-20.0-1.0","battery-v0.2","","""event"",""trial"",""time""
""fullscreenenter"",""1"",""1850""
","
","
","""event"",""trial"",""time""
""fullscreenenter"",""1"",""1850""
","
","","[{""page_index"":0,""viewing_time"":6367.399999999907}]","6367.59999999986","","","","","","","","","","","","","","","","","","","","","","","",""
"pit-comprehension","105","862767","0.0-2.0-21.0-0.0","battery-v0.2","","""event"",""trial"",""time""
""fullscreenenter"",""1"",""1850""
","
","
","""event"",""trial"",""time""
""fullscreenenter"",""1"",""1850""
","
","","","5045.700000000186","[""10""]","0","19","15341","5770","","","","","","","","","","","","","","","","","","",""
"pit-instructions","106","867447","0.0-2.0-21.0-1.0","battery-v0.2","","""event"",""trial"",""time""
""fullscreenenter"",""1"",""1850""
","
","
","""event"",""trial"",""time""
""fullscreenenter"",""1"",""1850""
","
","","[{""page_index"":0,""viewing_time"":4642.800000000047}]","4643.100000000093","","","","","","","","","","","","","","","","","","","","","","","",""
"pit-comprehension","107","873967","0.0-2.0-22.0-0.0","battery-v0.2","","""event"",""trial"",""time""
""fullscreenenter"",""1"",""1850""
","
","
","""event"",""trial"",""time""
""fullscreenenter"",""1"",""1850""
","
","","","6517.699999999953","[""-10""]","1","19","15341","5770","","","","","","","","","","","","","","","","","","",""
"pit-instructions","108","878750","0.0-2.0-22.0-1.0","battery-v0.2","","""event"",""trial"",""time""
""fullscreenenter"",""1"",""1850""
","
","
","""event"",""trial"",""time""
""fullscreenenter"",""1"",""1850""
","
","","[{""page_index"":0,""viewing_time"":4747.600000000093}]","4747.899999999907","","","","","","","","","","","","","","","","","","","","","","","",""
"pit-instructions","109","879735","0.0-2.0-22.0-2.0-0.0","battery-v0.2","","""event"",""trial"",""time""
""fullscreenenter"",""1"",""1850""
","
","
","""event"",""trial"",""time""
""fullscreenenter"",""1"",""1850""
","
","","[{""page_index"":0,""viewing_time"":982.5999999998603}]","982.8999999999069","","","","","","","","","","","","","","","","","","","","","","","",""
"pit-comprehension","110","886591","0.0-2.0-22.1-0.1","battery-v0.2","","""event"",""trial"",""time""
""fullscreenenter"",""1"",""1850""
","
","
","""event"",""trial"",""time""
""fullscreenenter"",""1"",""1850""
","
","","","6854.399999999907","[""0""]","0","19","15341","5770","","","","","","","","","","","","","","","","","","",""
"pit-instructions","111","888591","0.0-2.0-22.1-1.1","battery-v0.2","","""event"",""trial"",""time""
""fullscreenenter"",""1"",""1850""
","
","
","""event"",""trial"",""time""
""fullscreenenter"",""1"",""1850""
","
","","[{""page_index"":0,""viewing_time"":1963}]","1963.2999999998137","","","","","","","","","","","","","","","","","","","","","","","",""
"pit-comprehension","112","898104","0.0-2.0-23.0-0.0","battery-v0.2","","""event"",""trial"",""time""
""fullscreenenter"",""1"",""1850""
","
","
","""event"",""trial"",""time""
""fullscreenenter"",""1"",""1850""
","
","","","9510.09999999986","[""True""]","0","19","15341","5770","","","","","","","","","","","","","","","","","","",""
"pit-instructions","113","899727","0.0-2.0-23.0-1.0","battery-v0.2","","""event"",""trial"",""time""
""fullscreenenter"",""1"",""1850""
","
","
","""event"",""trial"",""time""
""fullscreenenter"",""1"",""1850""
","
","","[{""page_index"":0,""viewing_time"":1584.1000000000931}]","1584.3000000000466","","","","","","","","","","","","","","","","","","","","","","","",""
"pit-comprehension","114","907111","0.0-2.0-24.0-0.0","battery-v0.2","","""event"",""trial"",""time""
""fullscreenenter"",""1"",""1850""
","
","
","""event"",""trial"",""time""
""fullscreenenter"",""1"",""1850""
","
","","","7382.199999999953","[""True""]","0","19","15341","5770","","","","","","","","","","","","","","","","","","",""
"pit-instructions","115","910623","0.0-2.0-24.0-1.0","battery-v0.2","","""event"",""trial"",""time""
""fullscreenenter"",""1"",""1850""
","
","
","""event"",""trial"",""time""
""fullscreenenter"",""1"",""1850""
","
","","[{""page_index"":0,""viewing_time"":3467.8000000000466}]","3468.100000000093","","","","","","","","","","","","","","","","","","","","","","","",""
"pit-comprehension","116","916999","0.0-2.0-25.0-0.0","battery-v0.2","","""event"",""trial"",""time""
""fullscreenenter"",""1"",""1850""
","
","
","""event"",""trial"",""time""
""fullscreenenter"",""1"",""1850""
","
","","","6374.100000000093","[""True""]","0","19","15341","5770","","","","","","","","","","","","","","","","","","",""
"pit-instructions","117","921862","0.0-2.0-25.0-1.0","battery-v0.2","","""event"",""trial"",""time""
""fullscreenenter"",""1"",""1850""
","
","
","""event"",""trial"",""time""
""fullscreenenter"",""1"",""1850""
","
","","[{""page_index"":0,""viewing_time"":4824.399999999907}]","4824.59999999986","","","","","","","","","","","","","","","","","","","","","","","",""
"pit-comprehension","118","926591","0.0-2.0-26.0-0.0","battery-v0.2","","""event"",""trial"",""time""
""fullscreenenter"",""1"",""1850""
","
","
","""event"",""trial"",""time""
""fullscreenenter"",""1"",""1850""
","
","","","4726.300000000047","[""False""]","0","19","15341","5770","","","","","","","","","","","","","","","","","","",""
"pit-instructions","119","928247","0.0-2.0-26.0-1.0","battery-v0.2","","""event"",""trial"",""time""
""fullscreenenter"",""1"",""1850""
","
","
","""event"",""trial"",""time""
""fullscreenenter"",""1"",""1850""
","
","","[{""page_index"":0,""viewing_time"":1617.9000000001397}]","1618.2000000001863","","","","","","","","","","","","","","","","","","","","","","","",""
"pit-instructions","120","1081477","0.0-3.0","battery-v0.2","","""event"",""trial"",""time""
""fullscreenenter"",""1"",""1850""
","
","
","""event"",""trial"",""time""
""fullscreenenter"",""1"",""1850""
","
","","[{""page_index"":0,""viewing_time"":6662.399999999907},{""page_index"":1,""viewing_time"":6599.90000000014},{""page_index"":2,""viewing_time"":139967.09999999998}]","153229.59999999974","","","","","","","","","","","","","","","","","","","","","","","",""
"pit-trial","121","1086332","0.0-4.0","battery-v0.2","","""event"",""trial"",""time""
""fullscreenenter"",""1"",""1850""
","
","
","""event"",""trial"",""time""
""fullscreenenter"",""1"",""1850""
","
","","","-1","","","19","15341","5770","&#9752;","elianto","#f73b6a7A"," ","-1","0","-10","[]","0","1","","","15341","1","3","3","lose","go","0"
"pit-trial","122","1090165","0.0-5.0","battery-v0.2","","""event"",""trial"",""time""
""fullscreenenter"",""1"",""1850""
","
","
","""event"",""trial"",""time""
""fullscreenenter"",""1"",""1850""
","
","","","978.3999999999069","","","19","15341","5770","&#9728;","elianto","#f73b6a7A","-1"," ","0","-10","[1829.2000000001863]","1","1","","","15341","2","0","4","lose","no-go","0"
"pit-trial","123","1093836","0.0-6.0","battery-v0.2","","""event"",""trial"",""time""
""fullscreenenter"",""1"",""1850""
","
","
","""event"",""trial"",""time""
""fullscreenenter"",""1"",""1850""
","
","","","818.3999999999069","","","19","15341","5770","&#9730;","elianto","#3366ff99"," "," ","1","+10","[1668.8999999999069]","1","1","","","15341","3","1","1","win","go","0"
"pit-trial","124","1097475","0.0-7.0","battery-v0.2","","""event"",""trial"",""time""
""fullscreenenter"",""1"",""1850""
","
","
","""event"",""trial"",""time""
""fullscreenenter"",""1"",""1850""
","
","","","785.5999999996275","","","19","15341","5770","&#9733;","elianto","#3366ff99","-1"," ","0","+10","[1637.1999999997206]","1","1","","","15341","4","2","2","win","no-go","1"
"pit-trial","125","1101204","0.0-8.0","battery-v0.2","","""event"",""trial"",""time""
""fullscreenenter"",""1"",""1850""
","
","
","""event"",""trial"",""time""
""fullscreenenter"",""1"",""1850""
","
","","","875.1999999997206","","","19","15341","5770","&#9730;","elianto","#3366ff99"," "," ","1","0","[1726.0999999996275]","1","1","","","15341","5","1","1","win","go","1"
"pit-trial","126","1106057","0.0-9.0","battery-v0.2","","""event"",""trial"",""time""
""fullscreenenter"",""1"",""1850""
","
","
","""event"",""trial"",""time""
""fullscreenenter"",""1"",""1850""
","
","","","-1","","","19","15341","5770","&#9728;","elianto","#f73b6a7A","-1","-1","1","0","[]","0","1","","","15341","6","0","4","lose","no-go","0"
"pit-trial","127","1110910","0.0-10.0","battery-v0.2","","""event"",""trial"",""time""
""fullscreenenter"",""1"",""1850""
","
","
","""event"",""trial"",""time""
""fullscreenenter"",""1"",""1850""
","
","","","-1","","","19","15341","5770","&#9752;","elianto","#f73b6a7A"," ","-1","0","-10","[]","0","1","","","15341","7","3","3","lose","go","0"
"pit-trial","128","1114554","0.0-11.0","battery-v0.2","","""event"",""trial"",""time""
""fullscreenenter"",""1"",""1850""
","
","
","""event"",""trial"",""time""
""fullscreenenter"",""1"",""1850""
","
","","","777.5","","","19","15341","5770","&#9733;","elianto","#3366ff99","-1"," ","0","0","[1627.5]","1","1","","","15341","8","2","2","win","no-go","0"
"pit-trial","129","1119407","0.0-12.0","battery-v0.2","","""event"",""trial"",""time""
""fullscreenenter"",""1"",""1850""
","
","
","""event"",""trial"",""time""
""fullscreenenter"",""1"",""1850""
","
","","","-1","","","19","15341","5770","&#9728;","elianto","#f73b6a7A","-1","-1","1","0","[]","0","1","","","15341","9","0","4","lose","no-go","0"
"pit-trial","130","1124261","0.0-13.0","battery-v0.2","","""event"",""trial"",""time""
""fullscreenenter"",""1"",""1850""
","
","
","""event"",""trial"",""time""
""fullscreenenter"",""1"",""1850""
","
","","","-1","","","19","15341","5770","&#9752;","elianto","#f73b6a7A"," ","-1","0","0","[]","0","1","","","15341","10","3","3","lose","go","1"
"pit-trial","131","1128156","0.0-14.0","battery-v0.2","","""event"",""trial"",""time""
""fullscreenenter"",""1"",""1850""
","
","
","""event"",""trial"",""time""
""fullscreenenter"",""1"",""1850""
","
","","","1041.6999999997206","","","19","15341","5770","&#9730;","elianto","#3366ff99"," "," ","1","0","[1892.1999999997206]","1","1","","","15341","11","1","1","win","go","1"
"pit-trial","132","1132820","0.0-15.0","battery-v0.2","","""event"",""trial"",""time""
""fullscreenenter"",""1"",""1850""
","
","
","""event"",""trial"",""time""
""fullscreenenter"",""1"",""1850""
","
","","","1811.2000000001863","","","19","15341","5770","&#9733;","elianto","#3366ff99","-1"," ","0","0","[2661.600000000093]","1","1","","","15341","12","2","2","win","no-go","0"
"pit-trial","133","1136708","0.0-16.0","battery-v0.2","","""event"",""trial"",""time""
""fullscreenenter"",""1"",""1850""
","
","
","""event"",""trial"",""time""
""fullscreenenter"",""1"",""1850""
","
","","","1033.8999999999069","","","19","15341","5770","&#9733;","elianto","#3366ff99","-1"," ","0","0","[1885.6000000000931]","1","1","","","15341","13","2","2","win","no-go","0"
"pit-trial","134","1141562","0.0-17.0","battery-v0.2","","""event"",""trial"",""time""
""fullscreenenter"",""1"",""1850""
","
","
","""event"",""trial"",""time""
""fullscreenenter"",""1"",""1850""
","
","","","-1","","","19","15341","5770","&#9752;","elianto","#f73b6a7A"," ","-1","0","0","[]","0","1","","","15341","14","3","3","lose","go","1"
"pit-trial","135","1145043","0.0-18.0","battery-v0.2","","""event"",""trial"",""time""
""fullscreenenter"",""1"",""1850""
","
","
","""event"",""trial"",""time""
""fullscreenenter"",""1"",""1850""
","
","","","629","","","19","15341","5770","&#9730;","elianto","#3366ff99"," "," ","1","+10","[1479.5]","1","1","","","15341","15","1","1","win","go","0"
"pit-trial","136","1149897","0.0-19.0","battery-v0.2","","""event"",""trial"",""time""
""fullscreenenter"",""1"",""1850""
","
","
","""event"",""trial"",""time""
""fullscreenenter"",""1"",""1850""
","
","","","-1","","","19","15341","5770","&#9728;","elianto","#f73b6a7A","-1","-1","1","-10","[]","0","1","","","15341","16","0","4","lose","no-go","1"
"pit-trial","137","1153580","0.0-20.0","battery-v0.2","","""event"",""trial"",""time""
""fullscreenenter"",""1"",""1850""
","
","
","""event"",""trial"",""time""
""fullscreenenter"",""1"",""1850""
","
","","","830.1999999997206","","","19","15341","5770","&#9733;","elianto","#3366ff99","-1"," ","0","0","[1680.3999999999069]","1","1","","","15341","17","2","2","win","no-go","0"
"pit-trial","138","1157124","0.0-21.0","battery-v0.2","","""event"",""trial"",""time""
""fullscreenenter"",""1"",""1850""
","
","
","""event"",""trial"",""time""
""fullscreenenter"",""1"",""1850""
","
","","","691.7000000001863","","","19","15341","5770","&#9730;","elianto","#3366ff99"," "," ","1","+10","[1542]","1","1","","","15341","18","1","1","win","go","0"
"pit-trial","139","1161977","0.0-22.0","battery-v0.2","","""event"",""trial"",""time""
""fullscreenenter"",""1"",""1850""
","
","
","""event"",""trial"",""time""
""fullscreenenter"",""1"",""1850""
","
","","","-1","","","19","15341","5770","&#9728;","elianto","#f73b6a7A","-1","-1","1","-10","[]","0","1","","","15341","19","0","4","lose","no-go","1"
"pit-trial","140","1166830","0.0-23.0","battery-v0.2","","""event"",""trial"",""time""
""fullscreenenter"",""1"",""1850""
","
","
","""event"",""trial"",""time""
""fullscreenenter"",""1"",""1850""
","
","","","-1","","","19","15341","5770","&#9752;","elianto","#f73b6a7A"," ","-1","0","-10","[]","0","1","","","15341","20","3","3","lose","go","0"
"pit-instructions","141","1178732","0.0-24.0","battery-v0.2","","""event"",""trial"",""time""
""fullscreenenter"",""1"",""1850""
","
","
","""event"",""trial"",""time""
""fullscreenenter"",""1"",""1850""
","
","","[{""page_index"":0,""viewing_time"":5621.399999999907},{""page_index"":1,""viewing_time"":6279.600000000093}]","11901.200000000186","","","","","","","","","","","","","","","","","","","","","","","",""
"pit-trial","142","1183001","0.0-25.0","battery-v0.2","","""event"",""trial"",""time""
""fullscreenenter"",""1"",""1850""
","
","
","""event"",""trial"",""time""
""fullscreenenter"",""1"",""1850""
","
","","","1409.6000000000931","","","19","15341","5770","t","elianto","#f73b6a7A","-1"," ","0","0","[2260.100000000093]","1","2","","","15341","21","2","4","lose","no-go","1"
"pit-trial","143","1186928","0.0-26.0","battery-v0.2","","""event"",""trial"",""time""
""fullscreenenter"",""1"",""1850""
","
","
","""event"",""trial"",""time""
""fullscreenenter"",""1"",""1850""
","
","","","1059.3999999999069","","","19","15341","5770","n","elianto","#f73b6a7A","-1"," ","0","0","[1913.1000000000931]","1","2","","","15341","22","0","4","lose","no-go","1"
"pit-trial","144","1190545","0.0-27.0","battery-v0.2","","""event"",""trial"",""time""
""fullscreenenter"",""1"",""1850""
","
","
","""event"",""trial"",""time""
""fullscreenenter"",""1"",""1850""
","
","","","746.5","","","19","15341","5770","f","elianto","#3366ff99"," "," ","1","+10","[1600.3999999999069]","1","2","","","15341","23","1","1","win","go","0"
"pit-trial","145","1195407","0.0-28.0","battery-v0.2","","""event"",""trial"",""time""
""fullscreenenter"",""1"",""1850""
","
","
","""event"",""trial"",""time""
""fullscreenenter"",""1"",""1850""
","
","","","-1","","","19","15341","5770","b","elianto","#f73b6a7A"," ","-1","0","0","[]","0","2","","","15341","24","3","3","lose","go","1"
"pit-trial","146","1199370","0.0-29.0","battery-v0.2","","""event"",""trial"",""time""
""fullscreenenter"",""1"",""1850""
","
","
","""event"",""trial"",""time""
""fullscreenenter"",""1"",""1850""
","
","","","1095.1999999997206","","","19","15341","5770","n","elianto","#f73b6a7A","-1"," ","0","-10","[1953.8999999999069]","1","2","","","15341","25","0","4","lose","no-go","0"
"pit-trial","147","1204231","0.0-30.0","battery-v0.2","","""event"",""trial"",""time""
""fullscreenenter"",""1"",""1850""
","
","
","""event"",""trial"",""time""
""fullscreenenter"",""1"",""1850""
","
","","","-1","","","19","15341","5770","b","elianto","#f73b6a7A"," ","-1","0","-10","[]","0","2","","","15341","26","3","3","lose","go","0"
"pit-trial","148","1208219","0.0-31.0","battery-v0.2","","""event"",""trial"",""time""
""fullscreenenter"",""1"",""1850""
","
","
","""event"",""trial"",""time""
""fullscreenenter"",""1"",""1850""
","
","","","1126.2000000001863","","","19","15341","5770","t","elianto","#f73b6a7A","-1"," ","0","0","[1978.1000000000931]","1","2","","","15341","27","2","4","lose","no-go","1"
"pit-trial","149","1211771","0.0-32.0","battery-v0.2","","""event"",""trial"",""time""
""fullscreenenter"",""1"",""1850""
","
","
","""event"",""trial"",""time""
""fullscreenenter"",""1"",""1850""
","
","","","699.0999999996275","","","19","15341","5770","f","elianto","#3366ff99"," "," ","1","+10","[1550.1000000000931]","1","2","","","15341","28","1","1","win","go","0"
"pit-trial","150","1216451","0.0-33.0","battery-v0.2","","""event"",""trial"",""time""
""fullscreenenter"",""1"",""1850""
","
","
","""event"",""trial"",""time""
""fullscreenenter"",""1"",""1850""
","
","","","1827.7000000001863","","","19","15341","5770","n","elianto","#f73b6a7A","-1"," ","0","-10","[2677.8000000002794]","1","2","","","15341","29","0","4","lose","no-go","0"
"pit-trial","151","1221306","0.0-34.0","battery-v0.2","","""event"",""trial"",""time""
""fullscreenenter"",""1"",""1850""
","
","
","""event"",""trial"",""time""
""fullscreenenter"",""1"",""1850""
","
","","","-1","","","19","15341","5770","t","elianto","#f73b6a7A","-1","-1","1","0","[]","0","2","","","15341","30","2","4","lose","no-go","0"
"pit-trial","152","1225099","0.0-35.0","battery-v0.2","","""event"",""trial"",""time""
""fullscreenenter"",""1"",""1850""
","
","
","""event"",""trial"",""time""
""fullscreenenter"",""1"",""1850""
","
","","","940.1000000000931","","","19","15341","5770","f","elianto","#3366ff99"," "," ","1","+10","[1791.7000000001863]","1","2","","","15341","31","1","1","win","go","0"
"pit-trial","153","1229952","0.0-36.0","battery-v0.2","","""event"",""trial"",""time""
""fullscreenenter"",""1"",""1850""
","
","
","""event"",""trial"",""time""
""fullscreenenter"",""1"",""1850""
","
","","","-1","","","19","15341","5770","b","elianto","#f73b6a7A"," ","-1","0","0","[]","0","2","","","15341","32","3","3","lose","go","1"
"pit-trial","154","1234805","0.0-37.0","battery-v0.2","","""event"",""trial"",""time""
""fullscreenenter"",""1"",""1850""
","
","
","""event"",""trial"",""time""
""fullscreenenter"",""1"",""1850""
","
","","","-1","","","19","15341","5770","t","elianto","#f73b6a7A","-1","-1","1","0","[]","0","2","","","15341","33","2","4","lose","no-go","0"
"pit-trial","155","1239659","0.0-38.0","battery-v0.2","","""event"",""trial"",""time""
""fullscreenenter"",""1"",""1850""
","
","
","""event"",""trial"",""time""
""fullscreenenter"",""1"",""1850""
","
","","","-1","","","19","15341","5770","n","elianto","#f73b6a7A","-1","-1","1","0","[]","0","2","","","15341","34","0","4","lose","no-go","0"
"pit-trial","156","1244511","0.0-39.0","battery-v0.2","","""event"",""trial"",""time""
""fullscreenenter"",""1"",""1850""
","
","
","""event"",""trial"",""time""
""fullscreenenter"",""1"",""1850""
","
","","","-1","","","19","15341","5770","b","elianto","#f73b6a7A"," ","-1","0","-10","[]","0","2","","","15341","35","3","3","lose","go","0"
"pit-trial","157","1248156","0.0-40.0","battery-v0.2","","""event"",""trial"",""time""
""fullscreenenter"",""1"",""1850""
","
","
","""event"",""trial"",""time""
""fullscreenenter"",""1"",""1850""
","
","","","791.6000000000931","","","19","15341","5770","f","elianto","#3366ff99"," "," ","1","+10","[1641.8999999999069]","1","2","","","15341","36","1","1","win","go","0"
"pit-trial","158","1252244","0.0-41.0","battery-v0.2","","""event"",""trial"",""time""
""fullscreenenter"",""1"",""1850""
","
","
","""event"",""trial"",""time""
""fullscreenenter"",""1"",""1850""
","
","","","1234","","","19","15341","5770","t","elianto","#f73b6a7A","-1"," ","0","0","[2084.6999999997206]","1","2","","","15341","37","2","4","lose","no-go","1"
"pit-trial","159","1257098","0.0-42.0","battery-v0.2","","""event"",""trial"",""time""
""fullscreenenter"",""1"",""1850""
","
","
","""event"",""trial"",""time""
""fullscreenenter"",""1"",""1850""
","
","","","-1","","","19","15341","5770","b","elianto","#f73b6a7A"," ","-1","0","0","[]","0","2","","","15341","38","3","3","lose","go","1"
"pit-trial","160","1261950","0.0-43.0","battery-v0.2","","""event"",""trial"",""time""
""fullscreenenter"",""1"",""1850""
","
","
","""event"",""trial"",""time""
""fullscreenenter"",""1"",""1850""
","
","","","-1","","","19","15341","5770","n","elianto","#f73b6a7A","-1","-1","1","0","[]","0","2","","","15341","39","0","4","lose","no-go","0"
"pit-trial","161","1266243","0.0-44.0","battery-v0.2","","""event"",""trial"",""time""
""fullscreenenter"",""1"",""1850""
","
","
","""event"",""trial"",""time""
""fullscreenenter"",""1"",""1850""
","
","","","1440.3999999999069","","","19","15341","5770","f","elianto","#3366ff99"," "," ","1","+10","[2290.5999999996275]","1","2","","","15341","40","1","1","win","go","0"
"pit-trial","162","1270130","0.0-45.0","battery-v0.2","","""event"",""trial"",""time""
""fullscreenenter"",""1"",""1850""
","
","
","""event"",""trial"",""time""
""fullscreenenter"",""1"",""1850""
","
","","","1034.1000000000931","","","19","15341","5770","f","elianto","#3366ff99"," "," ","1","+10","[1884.5]","1","2","","","15341","41","1","1","win","go","0"
"pit-trial","163","1274983","0.0-46.0","battery-v0.2","","""event"",""trial"",""time""
""fullscreenenter"",""1"",""1850""
","
","
","""event"",""trial"",""time""
""fullscreenenter"",""1"",""1850""
","
","","","-1","","","19","15341","5770","n","elianto","#f73b6a7A","-1","-1","1","-10","[]","0","2","","","15341","42","0","4","lose","no-go","1"
"pit-trial","164","1279837","0.0-47.0","battery-v0.2","","""event"",""trial"",""time""
""fullscreenenter"",""1"",""1850""
","
","
","""event"",""trial"",""time""
""fullscreenenter"",""1"",""1850""
","
","","","-1","","","19","15341","5770","b","elianto","#f73b6a7A"," ","-1","0","-10","[]","0","2","","","15341","43","3","3","lose","go","0"
"pit-trial","165","1284690","0.0-48.0","battery-v0.2","","""event"",""trial"",""time""
""fullscreenenter"",""1"",""1850""
","
","
","""event"",""trial"",""time""
""fullscreenenter"",""1"",""1850""
","
","","","-1","","","19","15341","5770","t","elianto","#f73b6a7A","-1","-1","1","0","[]","0","2","","","15341","44","2","4","lose","no-go","0"
"pit-trial","166","1289543","0.0-49.0","battery-v0.2","","""event"",""trial"",""time""
""fullscreenenter"",""1"",""1850""
","
","
","""event"",""trial"",""time""
""fullscreenenter"",""1"",""1850""
","
","","","-1","","","19","15341","5770","b","elianto","#f73b6a7A"," ","-1","0","0","[]","0","2","","","15341","45","3","3","lose","go","1"
"pit-trial","167","1294397","0.0-50.0","battery-v0.2","","""event"",""trial"",""time""
""fullscreenenter"",""1"",""1850""
","
","
","""event"",""trial"",""time""
""fullscreenenter"",""1"",""1850""
","
","","","-1","","","19","15341","5770","n","elianto","#f73b6a7A","-1","-1","1","0","[]","0","2","","","15341","46","0","4","lose","no-go","0"
"pit-trial","168","1299251","0.0-51.0","battery-v0.2","","""event"",""trial"",""time""
""fullscreenenter"",""1"",""1850""
","
","
","""event"",""trial"",""time""
""fullscreenenter"",""1"",""1850""
","
","","","-1","","","19","15341","5770","t","elianto","#f73b6a7A","-1","-1","1","0","[]","0","2","","","15341","47","2","4","lose","no-go","0"
"pit-trial","169","1302650","0.0-52.0","battery-v0.2","","""event"",""trial"",""time""
""fullscreenenter"",""1"",""1850""
","
","
","""event"",""trial"",""time""
""fullscreenenter"",""1"",""1850""
","
","","","546.9000000003725","","","19","15341","5770","c","elianto","#3366ff99","-1"," ","0","0","[1397]","1","2","","","15341","48","4","2","win","no-go","0"
"pit-trial","170","1307504","0.0-53.0","battery-v0.2","","""event"",""trial"",""time""
""fullscreenenter"",""1"",""1850""
","
","
","""event"",""trial"",""time""
""fullscreenenter"",""1"",""1850""
","
","","","-1","","","19","15341","5770","b","elianto","#f73b6a7A"," ","-1","0","0","[]","0","2","","","15341","49","3","3","lose","go","1"
"pit-trial","171","1311002","0.0-54.0","battery-v0.2","","""event"",""trial"",""time""
""fullscreenenter"",""1"",""1850""
","
","
","""event"",""trial"",""time""
""fullscreenenter"",""1"",""1850""
","
","","","645.3999999999069","","","19","15341","5770","c","elianto","#3366ff99","-1"," ","0","+10","[1496.1000000000931]","1","2","","","15341","50","4","2","win","no-go","1"
"pit-trial","172","1315857","0.0-55.0","battery-v0.2","","""event"",""trial"",""time""
""fullscreenenter"",""1"",""1850""
","
","
","""event"",""trial"",""time""
""fullscreenenter"",""1"",""1850""
","
","","","-1","","","19","15341","5770","n","elianto","#f73b6a7A","-1","-1","1","0","[]","0","2","","","15341","51","0","4","lose","no-go","0"
"pit-trial","173","1320710","0.0-56.0","battery-v0.2","","""event"",""trial"",""time""
""fullscreenenter"",""1"",""1850""
","
","
","""event"",""trial"",""time""
""fullscreenenter"",""1"",""1850""
","
","","","-1","","","19","15341","5770","f","elianto","#3366ff99"," ","-1","0","0","[3518.899999999907]","1","2","","","15341","52","1","1","win","go","0"
"pit-trial","174","1324268","0.0-57.0","battery-v0.2","","""event"",""trial"",""time""
""fullscreenenter"",""1"",""1850""
","
","
","""event"",""trial"",""time""
""fullscreenenter"",""1"",""1850""
","
","","","702.5999999996275","","","19","15341","5770","f","elianto","#3366ff99"," "," ","1","0","[1553]","1","2","","","15341","53","1","1","win","go","1"
"pit-trial","175","1327843","0.0-58.0","battery-v0.2","","""event"",""trial"",""time""
""fullscreenenter"",""1"",""1850""
","
","
","""event"",""trial"",""time""
""fullscreenenter"",""1"",""1850""
","
","","","721","","","19","15341","5770","c","elianto","#3366ff99","-1"," ","0","0","[1572.4000000003725]","1","2","","","15341","54","4","2","win","no-go","0"
"pit-trial","176","1332696","0.0-59.0","battery-v0.2","","""event"",""trial"",""time""
""fullscreenenter"",""1"",""1850""
","
","
","""event"",""trial"",""time""
""fullscreenenter"",""1"",""1850""
","
","","","-1","","","19","15341","5770","n","elianto","#f73b6a7A","-1","-1","1","-10","[]","0","2","","","15341","55","0","4","lose","no-go","1"
"pit-trial","177","1337550","0.0-60.0","battery-v0.2","","""event"",""trial"",""time""
""fullscreenenter"",""1"",""1850""
","
","
","""event"",""trial"",""time""
""fullscreenenter"",""1"",""1850""
","
","","","-1","","","19","15341","5770","t","elianto","#f73b6a7A","-1","-1","1","0","[]","0","2","","","15341","56","2","4","lose","no-go","0"
"pit-trial","178","1342402","0.0-61.0","battery-v0.2","","""event"",""trial"",""time""
""fullscreenenter"",""1"",""1850""
","
","
","""event"",""trial"",""time""
""fullscreenenter"",""1"",""1850""
","
","","","-1","","","19","15341","5770","b","elianto","#f73b6a7A"," ","-1","0","0","[]","0","2","","","15341","57","3","3","lose","go","1"
"pit-trial","179","1347256","0.0-62.0","battery-v0.2","","""event"",""trial"",""time""
""fullscreenenter"",""1"",""1850""
","
","
","""event"",""trial"",""time""
""fullscreenenter"",""1"",""1850""
","
","","","-1","","","19","15341","5770","f","elianto","#3366ff99"," ","-1","0","+10","[]","0","2","","","15341","58","1","1","win","go","1"
"pit-trial","180","1350668","0.0-63.0","battery-v0.2","","""event"",""trial"",""time""
""fullscreenenter"",""1"",""1850""
","
","
","""event"",""trial"",""time""
""fullscreenenter"",""1"",""1850""
","
","","","557.5","","","19","15341","5770","c","elianto","#3366ff99","-1"," ","0","0","[1408.5999999996275]","1","2","","","15341","59","4","2","win","no-go","0"
"pit-trial","181","1355521","0.0-64.0","battery-v0.2","","""event"",""trial"",""time""
""fullscreenenter"",""1"",""1850""
","
","
","""event"",""trial"",""time""
""fullscreenenter"",""1"",""1850""
","
","","","-1","","","19","15341","5770","n","elianto","#f73b6a7A","-1","-1","1","0","[]","0","2","","","15341","60","0","4","lose","no-go","0"
"pit-trial","182","1360374","0.0-65.0","battery-v0.2","","""event"",""trial"",""time""
""fullscreenenter"",""1"",""1850""
","
","
","""event"",""trial"",""time""
""fullscreenenter"",""1"",""1850""
","
","","","-1","","","19","15341","5770","b","elianto","#f73b6a7A"," ","-1","0","-10","[]","0","2","","","15341","61","3","3","lose","go","0"
"pit-trial","183","1365228","0.0-66.0","battery-v0.2","","""event"",""trial"",""time""
""fullscreenenter"",""1"",""1850""
","
","
","""event"",""trial"",""time""
""fullscreenenter"",""1"",""1850""
","
","","","-1","","","19","15341","5770","t","elianto","#f73b6a7A","-1","-1","1","0","[]","0","2","","","15341","62","2","4","lose","no-go","0"
"pit-trial","184","1369019","0.0-67.0","battery-v0.2","","""event"",""trial"",""time""
""fullscreenenter"",""1"",""1850""
","
","
","""event"",""trial"",""time""
""fullscreenenter"",""1"",""1850""
","
","","","937.3000000002794","","","19","15341","5770","c","elianto","#3366ff99","-1"," ","0","0","[1788]","1","2","","","15341","63","4","2","win","no-go","0"
"pit-trial","185","1373873","0.0-68.0","battery-v0.2","","""event"",""trial"",""time""
""fullscreenenter"",""1"",""1850""
","
","
","""event"",""trial"",""time""
""fullscreenenter"",""1"",""1850""
","
","","","-1","","","19","15341","5770","f","elianto","#3366ff99"," ","-1","0","0","[3549.1999999997206]","1","2","","","15341","64","1","1","win","go","0"
"pit-trial","186","1377282","0.0-69.0","battery-v0.2","","""event"",""trial"",""time""
""fullscreenenter"",""1"",""1850""
","
","
","""event"",""trial"",""time""
""fullscreenenter"",""1"",""1850""
","
","","","556.3999999999069","","","19","15341","5770","f","elianto","#3366ff99"," "," ","1","+10","[1407.1999999997206]","1","2","","","15341","65","1","1","win","go","0"
"pit-trial","187","1382136","0.0-70.0","battery-v0.2","","""event"",""trial"",""time""
""fullscreenenter"",""1"",""1850""
","
","
","""event"",""trial"",""time""
""fullscreenenter"",""1"",""1850""
","
","","","-1","","","19","15341","5770","c","elianto","#3366ff99","-1","-1","1","0","[3206.100000000093]","1","2","","","15341","66","4","2","win","no-go","1"
"pit-trial","188","1386988","0.0-71.0","battery-v0.2","","""event"",""trial"",""time""
""fullscreenenter"",""1"",""1850""
","
","
","""event"",""trial"",""time""
""fullscreenenter"",""1"",""1850""
","
","","","-1","","","19","15341","5770","t","elianto","#f73b6a7A","-1","-1","1","0","[]","0","2","","","15341","67","2","4","lose","no-go","0"
"pit-trial","189","1391842","0.0-72.0","battery-v0.2","","""event"",""trial"",""time""
""fullscreenenter"",""1"",""1850""
","
","
","""event"",""trial"",""time""
""fullscreenenter"",""1"",""1850""
","
","","","-1","","","19","15341","5770","b","elianto","#f73b6a7A"," ","-1","0","-10","[]","0","2","","","15341","68","3","3","lose","go","0"
"pit-trial","190","1395314","0.0-73.0","battery-v0.2","","""event"",""trial"",""time""
""fullscreenenter"",""1"",""1850""
","
","
","""event"",""trial"",""time""
""fullscreenenter"",""1"",""1850""
","
","","","618.7000000001863","","","19","15341","5770","z","elianto","#3366ff99"," "," ","1","0","[1469.7000000001863]","1","2","","","15341","69","5","1","win","go","1"
"pit-trial","191","1400169","0.0-74.0","battery-v0.2","","""event"",""trial"",""time""
""fullscreenenter"",""1"",""1850""
","
","
","""event"",""trial"",""time""
""fullscreenenter"",""1"",""1850""
","
","","","-1","","","19","15341","5770","b","elianto","#f73b6a7A"," ","-1","0","-10","[]","0","2","","","15341","70","3","3","lose","go","0"
"pit-trial","192","1405022","0.0-75.0","battery-v0.2","","""event"",""trial"",""time""
""fullscreenenter"",""1"",""1850""
","
","
","""event"",""trial"",""time""
""fullscreenenter"",""1"",""1850""
","
","","","-1","","","19","15341","5770","c","elianto","#3366ff99","-1","-1","1","+10","[3294.100000000093]","1","2","","","15341","71","4","2","win","no-go","0"
"pit-trial","193","1408441","0.0-76.0","battery-v0.2","","""event"",""trial"",""time""
""fullscreenenter"",""1"",""1850""
","
","
","""event"",""trial"",""time""
""fullscreenenter"",""1"",""1850""
","
","","","566.1000000000931","","","19","15341","5770","f","elianto","#3366ff99"," "," ","1","+10","[1417]","1","2","","","15341","72","1","1","win","go","0"
"pit-trial","194","1413295","0.0-77.0","battery-v0.2","","""event"",""trial"",""time""
""fullscreenenter"",""1"",""1850""
","
","
","""event"",""trial"",""time""
""fullscreenenter"",""1"",""1850""
","
","","","-1","","","19","15341","5770","b","elianto","#f73b6a7A"," ","-1","0","0","[]","0","2","","","15341","73","3","3","lose","go","1"
"pit-trial","195","1416730","0.0-78.0","battery-v0.2","","""event"",""trial"",""time""
""fullscreenenter"",""1"",""1850""
","
","
","""event"",""trial"",""time""
""fullscreenenter"",""1"",""1850""
","
","","","581.2999999998137","","","19","15341","5770","z","elianto","#3366ff99"," "," ","1","+10","[1432.1999999997206]","1","2","","","15341","74","5","1","win","go","0"
"pit-trial","196","1420130","0.0-79.0","battery-v0.2","","""event"",""trial"",""time""
""fullscreenenter"",""1"",""1850""
","
","
","""event"",""trial"",""time""
""fullscreenenter"",""1"",""1850""
","
","","","546.6000000000931","","","19","15341","5770","c","elianto","#3366ff99","-1"," ","0","0","[1396.9000000003725]","1","2","","","15341","75","4","2","win","no-go","0"
"pit-trial","197","1424983","0.0-80.0","battery-v0.2","","""event"",""trial"",""time""
""fullscreenenter"",""1"",""1850""
","
","
","""event"",""trial"",""time""
""fullscreenenter"",""1"",""1850""
","
","","","-1","","","19","15341","5770","f","elianto","#3366ff99"," ","-1","0","0","[3108.899999999907]","1","2","","","15341","76","1","1","win","go","0"
"pit-trial","198","1429837","0.0-81.0","battery-v0.2","","""event"",""trial"",""time""
""fullscreenenter"",""1"",""1850""
","
","
","""event"",""trial"",""time""
""fullscreenenter"",""1"",""1850""
","
","","","-1","","","19","15341","5770","b","elianto","#f73b6a7A"," ","-1","0","-10","[]","0","2","","","15341","77","3","3","lose","go","0"
"pit-trial","199","1433193","0.0-82.0","battery-v0.2","","""event"",""trial"",""time""
""fullscreenenter"",""1"",""1850""
","
","
","""event"",""trial"",""time""
""fullscreenenter"",""1"",""1850""
","
","","","502.90000000037253","","","19","15341","5770","c","elianto","#3366ff99","-1"," ","0","0","[1353.7000000001863]","1","2","","","15341","78","4","2","win","no-go","0"
"pit-trial","200","1438048","0.0-83.0","battery-v0.2","","""event"",""trial"",""time""
""fullscreenenter"",""1"",""1850""
","
","
","""event"",""trial"",""time""
""fullscreenenter"",""1"",""1850""
","
","","","-1","","","19","15341","5770","h","elianto","#f73b6a7A","-1","-1","1","0","[]","0","2","","","15341","79","6","4","lose","no-go","0"
"pit-trial","201","1442192","0.0-84.0","battery-v0.2","","""event"",""trial"",""time""
""fullscreenenter"",""1"",""1850""
","
","
","""event"",""trial"",""time""
""fullscreenenter"",""1"",""1850""
","
","","","1292.5","","","19","15341","5770","z","elianto","#3366ff99"," "," ","1","+10","[2142.7000000001863]","1","2","","","15341","80","5","1","win","go","0"
"pit-trial","202","1447057","0.0-85.0","battery-v0.2","","""event"",""trial"",""time""
""fullscreenenter"",""1"",""1850""
","
","
","""event"",""trial"",""time""
""fullscreenenter"",""1"",""1850""
","
","","","-1","","","19","15341","5770","h","elianto","#f73b6a7A","-1","-1","1","-10","[3054.7000000001863]","1","2","","","15341","81","6","4","lose","no-go","1"
"pit-trial","203","1450473","0.0-86.0","battery-v0.2","","""event"",""trial"",""time""
""fullscreenenter"",""1"",""1850""
","
","
","""event"",""trial"",""time""
""fullscreenenter"",""1"",""1850""
","
","","","563.7999999998137","","","19","15341","5770","z","elianto","#3366ff99"," "," ","1","+10","[1414.7999999998137]","1","2","","","15341","82","5","1","win","go","0"
"pit-trial","204","1453817","0.0-87.0","battery-v0.2","","""event"",""trial"",""time""
""fullscreenenter"",""1"",""1850""
","
","
","""event"",""trial"",""time""
""fullscreenenter"",""1"",""1850""
","
","","","491.3000000002794","","","19","15341","5770","c","elianto","#3366ff99","-1"," ","0","0","[1342.3000000002794]","1","2","","","15341","83","4","2","win","no-go","0"
"pit-trial","205","1456858","0.0-88.0","battery-v0.2","","""event"",""trial"",""time""
""fullscreenenter"",""1"",""1850""
","
","
","""event"",""trial"",""time""
""fullscreenenter"",""1"",""1850""
","
","","","186","","","19","15341","5770","y","elianto","#f73b6a7A"," "," ","1","0","[1037.8999999999069]","1","2","","","15341","84","7","3","lose","go","0"
"pit-trial","206","1460225","0.0-89.0","battery-v0.2","","""event"",""trial"",""time""
""fullscreenenter"",""1"",""1850""
","
","
","""event"",""trial"",""time""
""fullscreenenter"",""1"",""1850""
","
","","","514.3999999999069","","","19","15341","5770","c","elianto","#3366ff99","-1"," ","0","0","[1365.2999999998137]","1","2","","","15341","85","4","2","win","no-go","0"
"pit-trial","207","1465079","0.0-90.0","battery-v0.2","","""event"",""trial"",""time""
""fullscreenenter"",""1"",""1850""
","
","
","""event"",""trial"",""time""
""fullscreenenter"",""1"",""1850""
","
","","","-1","","","19","15341","5770","y","elianto","#f73b6a7A"," ","-1","0","-10","[]","0","2","","","15341","86","7","3","lose","go","0"
"pit-trial","208","1468426","0.0-91.0","battery-v0.2","","""event"",""trial"",""time""
""fullscreenenter"",""1"",""1850""
","
","
","""event"",""trial"",""time""
""fullscreenenter"",""1"",""1850""
","
","","","493.60000000009313","","","19","15341","5770","z","elianto","#3366ff99"," "," ","1","+10","[1343.8999999999069]","1","2","","","15341","87","5","1","win","go","0"
"pit-trial","209","1473279","0.0-92.0","battery-v0.2","","""event"",""trial"",""time""
""fullscreenenter"",""1"",""1850""
","
","
","""event"",""trial"",""time""
""fullscreenenter"",""1"",""1850""
","
","","","-1","","","19","15341","5770","h","elianto","#f73b6a7A","-1","-1","1","0","[]","0","2","","","15341","88","6","4","lose","no-go","0"
"pit-trial","210","1478132","0.0-93.0","battery-v0.2","","""event"",""trial"",""time""
""fullscreenenter"",""1"",""1850""
","
","
","""event"",""trial"",""time""
""fullscreenenter"",""1"",""1850""
","
","","","-1","","","19","15341","5770","z","elianto","#3366ff99"," ","-1","0","0","[3032.1999999997206]","1","2","","","15341","89","5","1","win","go","0"
"pit-trial","211","1482985","0.0-94.0","battery-v0.2","","""event"",""trial"",""time""
""fullscreenenter"",""1"",""1850""
","
","
","""event"",""trial"",""time""
""fullscreenenter"",""1"",""1850""
","
","","","-1","","","19","15341","5770","h","elianto","#f73b6a7A","-1","-1","1","0","[]","0","2","","","15341","90","6","4","lose","no-go","0"
"pit-trial","212","1486273","0.0-95.0","battery-v0.2","","""event"",""trial"",""time""
""fullscreenenter"",""1"",""1850""
","
","
","""event"",""trial"",""time""
""fullscreenenter"",""1"",""1850""
","
","","","434.40000000037253","","","19","15341","5770","c","elianto","#3366ff99","-1"," ","0","0","[1285.8000000002794]","1","2","","","15341","91","4","2","win","no-go","0"
"pit-trial","213","1491127","0.0-96.0","battery-v0.2","","""event"",""trial"",""time""
""fullscreenenter"",""1"",""1850""
","
","
","""event"",""trial"",""time""
""fullscreenenter"",""1"",""1850""
","
","","","-1","","","19","15341","5770","y","elianto","#f73b6a7A"," ","-1","0","-10","[]","0","2","","","15341","92","7","3","lose","go","0"
"pit-trial","214","1494506","0.0-97.0","battery-v0.2","","""event"",""trial"",""time""
""fullscreenenter"",""1"",""1850""
","
","
","""event"",""trial"",""time""
""fullscreenenter"",""1"",""1850""
","
","","","525.6000000000931","","","19","15341","5770","z","elianto","#3366ff99"," "," ","1","+10","[1376.1999999997206]","1","2","","","15341","93","5","1","win","go","0"
"pit-trial","215","1499170","0.0-98.0","battery-v0.2","","""event"",""trial"",""time""
""fullscreenenter"",""1"",""1850""
","
","
","""event"",""trial"",""time""
""fullscreenenter"",""1"",""1850""
","
","","","1810.2999999998137","","","19","15341","5770","r","elianto","#3366ff99","-1"," ","0","0","[2661.2999999998137]","1","2","","","15341","94","8","2","win","no-go","0"
"pit-trial","216","1504024","0.0-99.0","battery-v0.2","","""event"",""trial"",""time""
""fullscreenenter"",""1"",""1850""
","
","
","""event"",""trial"",""time""
""fullscreenenter"",""1"",""1850""
","
","","","-1","","","19","15341","5770","h","elianto","#f73b6a7A","-1","-1","1","0","[]","0","2","","","15341","95","6","4","lose","no-go","0"
"pit-trial","217","1508876","0.0-100.0","battery-v0.2","","""event"",""trial"",""time""
""fullscreenenter"",""1"",""1850""
","
","
","""event"",""trial"",""time""
""fullscreenenter"",""1"",""1850""
","
","","","-1","","","19","15341","5770","y","elianto","#f73b6a7A"," ","-1","0","-10","[]","0","2","","","15341","96","7","3","lose","go","0"
"pit-trial","218","1512570","0.0-101.0","battery-v0.2","","""event"",""trial"",""time""
""fullscreenenter"",""1"",""1850""
","
","
","""event"",""trial"",""time""
""fullscreenenter"",""1"",""1850""
","
","","","841","","","19","15341","5770","r","elianto","#3366ff99","-1"," ","0","+10","[1691.2000000001863]","1","2","","","15341","97","8","2","win","no-go","1"
"pit-trial","219","1517423","0.0-102.0","battery-v0.2","","""event"",""trial"",""time""
""fullscreenenter"",""1"",""1850""
","
","
","""event"",""trial"",""time""
""fullscreenenter"",""1"",""1850""
","
","","","-1","","","19","15341","5770","y","elianto","#f73b6a7A"," ","-1","0","0","[]","0","2","","","15341","98","7","3","lose","go","1"
"pit-trial","220","1520810","0.0-103.0","battery-v0.2","","""event"",""trial"",""time""
""fullscreenenter"",""1"",""1850""
","
","
","""event"",""trial"",""time""
""fullscreenenter"",""1"",""1850""
","
","","","533.2999999998137","","","19","15341","5770","z","elianto","#3366ff99"," "," ","1","+10","[1383.8999999999069]","1","2","","","15341","99","5","1","win","go","0"
"pit-trial","221","1525663","0.0-104.0","battery-v0.2","","""event"",""trial"",""time""
""fullscreenenter"",""1"",""1850""
","
","
","""event"",""trial"",""time""
""fullscreenenter"",""1"",""1850""
","
","","","-1","","","19","15341","5770","h","elianto","#f73b6a7A","-1","-1","1","-10","[]","0","2","","","15341","100","6","4","lose","no-go","1"
"pit-trial","222","1529593","0.0-105.0","battery-v0.2","","""event"",""trial"",""time""
""fullscreenenter"",""1"",""1850""
","
","
","""event"",""trial"",""time""
""fullscreenenter"",""1"",""1850""
","
","","","1077.5","","","19","15341","5770","z","elianto","#3366ff99"," "," ","1","0","[1927.7999999998137]","1","2","","","15341","101","5","1","win","go","1"
"pit-trial","223","1532969","0.0-106.0","battery-v0.2","","""event"",""trial"",""time""
""fullscreenenter"",""1"",""1850""
","
","
","""event"",""trial"",""time""
""fullscreenenter"",""1"",""1850""
","
","","","518.8999999999069","","","19","15341","5770","r","elianto","#3366ff99","-1"," ","0","0","[1373.6999999997206]","1","2","","","15341","102","8","2","win","no-go","0"
"pit-trial","224","1537617","0.0-107.0","battery-v0.2","","""event"",""trial"",""time""
""fullscreenenter"",""1"",""1850""
","
","
","""event"",""trial"",""time""
""fullscreenenter"",""1"",""1850""
","
","","","1794.6999999997206","","","19","15341","5770","m","elianto","#3366ff99","-1"," ","0","0","[2645.7999999998137]","1","2","","","15341","103","9","2","win","no-go","0"
"pit-trial","225","1542470","0.0-108.0","battery-v0.2","","""event"",""trial"",""time""
""fullscreenenter"",""1"",""1850""
","
","
","""event"",""trial"",""time""
""fullscreenenter"",""1"",""1850""
","
","","","-1","","","19","15341","5770","h","elianto","#f73b6a7A","-1","-1","1","0","[]","0","2","","","15341","104","6","4","lose","no-go","0"
"pit-trial","226","1545874","0.0-109.0","battery-v0.2","","""event"",""trial"",""time""
""fullscreenenter"",""1"",""1850""
","
","
","""event"",""trial"",""time""
""fullscreenenter"",""1"",""1850""
","
","","","550.5","","","19","15341","5770","m","elianto","#3366ff99","-1"," ","0","0","[1400.7000000001863]","1","2","","","15341","105","9","2","win","no-go","0"
"pit-trial","227","1549466","0.0-110.0","battery-v0.2","","""event"",""trial"",""time""
""fullscreenenter"",""1"",""1850""
","
","
","""event"",""trial"",""time""
""fullscreenenter"",""1"",""1850""
","
","","","738.5999999996275","","","19","15341","5770","z","elianto","#3366ff99"," "," ","1","+10","[1588.9000000003725]","1","2","","","15341","106","5","1","win","go","0"
"pit-trial","228","1552938","0.0-111.0","battery-v0.2","","""event"",""trial"",""time""
""fullscreenenter"",""1"",""1850""
","
","
","""event"",""trial"",""time""
""fullscreenenter"",""1"",""1850""
","
","","","616.7999999998137","","","19","15341","5770","r","elianto","#3366ff99","-1"," ","0","0","[1468.9000000003725]","1","2","","","15341","107","8","2","win","no-go","0"
"pit-trial","229","1557790","0.0-112.0","battery-v0.2","","""event"",""trial"",""time""
""fullscreenenter"",""1"",""1850""
","
","
","""event"",""trial"",""time""
""fullscreenenter"",""1"",""1850""
","
","","","-1","","","19","15341","5770","h","elianto","#f73b6a7A","-1","-1","1","0","[]","0","2","","","15341","108","6","4","lose","no-go","0"
"pit-trial","230","1562645","0.0-113.0","battery-v0.2","","""event"",""trial"",""time""
""fullscreenenter"",""1"",""1850""
","
","
","""event"",""trial"",""time""
""fullscreenenter"",""1"",""1850""
","
","","","-1","","","19","15341","5770","h","elianto","#f73b6a7A","-1","-1","1","0","[]","0","2","","","15341","109","6","4","lose","no-go","0"
"pit-trial","231","1567498","0.0-114.0","battery-v0.2","","""event"",""trial"",""time""
""fullscreenenter"",""1"",""1850""
","
","
","""event"",""trial"",""time""
""fullscreenenter"",""1"",""1850""
","
","","","-1","","","19","15341","5770","r","elianto","#3366ff99","-1","-1","1","+10","[]","0","2","","","15341","110","8","2","win","no-go","0"
"pit-trial","232","1572351","0.0-115.0","battery-v0.2","","""event"",""trial"",""time""
""fullscreenenter"",""1"",""1850""
","
","
","""event"",""trial"",""time""
""fullscreenenter"",""1"",""1850""
","
","","","-1","","","19","15341","5770","z","elianto","#3366ff99"," ","-1","0","0","[3060.100000000093]","1","2","","","15341","111","5","1","win","go","0"
"pit-trial","233","1575673","0.0-116.0","battery-v0.2","","""event"",""trial"",""time""
""fullscreenenter"",""1"",""1850""
","
","
","""event"",""trial"",""time""
""fullscreenenter"",""1"",""1850""
","
","","","466.3000000002794","","","19","15341","5770","m","elianto","#3366ff99","-1"," ","0","0","[1318.3000000002794]","1","2","","","15341","112","9","2","win","no-go","0"
"pit-trial","234","1580527","0.0-117.0","battery-v0.2","","""event"",""trial"",""time""
""fullscreenenter"",""1"",""1850""
","
","
","""event"",""trial"",""time""
""fullscreenenter"",""1"",""1850""
","
","","","-1","","","19","15341","5770","r","elianto","#3366ff99","-1","-1","1","0","[2925.100000000093]","1","2","","","15341","113","8","2","win","no-go","1"
"pit-trial","235","1585380","0.0-118.0","battery-v0.2","","""event"",""trial"",""time""
""fullscreenenter"",""1"",""1850""
","
","
","""event"",""trial"",""time""
""fullscreenenter"",""1"",""1850""
","
","","","-1","","","19","15341","5770","y","elianto","#f73b6a7A"," ","-1","0","0","[]","0","2","","","15341","114","7","3","lose","go","1"
"pit-trial","236","1588697","0.0-119.0","battery-v0.2","","""event"",""trial"",""time""
""fullscreenenter"",""1"",""1850""
","
","
","""event"",""trial"",""time""
""fullscreenenter"",""1"",""1850""
","
","","","463.90000000037253","","","19","15341","5770","z","elianto","#3366ff99"," "," ","1","+10","[1314]","1","2","","","15341","115","5","1","win","go","0"
"pit-trial","237","1592113","0.0-120.0","battery-v0.2","","""event"",""trial"",""time""
""fullscreenenter"",""1"",""1850""
","
","
","""event"",""trial"",""time""
""fullscreenenter"",""1"",""1850""
","
","","","562.5","","","19","15341","5770","m","elianto","#3366ff99","-1"," ","0","0","[1413]","1","2","","","15341","116","9","2","win","no-go","0"
"pit-trial","238","1595024","0.0-121.0","battery-v0.2","","""event"",""trial"",""time""
""fullscreenenter"",""1"",""1850""
","
","
","""event"",""trial"",""time""
""fullscreenenter"",""1"",""1850""
","
","","","56.200000000186265","","","19","15341","5770","z","elianto","#3366ff99"," "," ","1","0","[908.6000000000931,1196.6000000000931,1548.5]","3","2","","","15341","117","5","1","win","go","1"
"pit-trial","239","1598360","0.0-122.0","battery-v0.2","","""event"",""trial"",""time""
""fullscreenenter"",""1"",""1850""
","
","
","""event"",""trial"",""time""
""fullscreenenter"",""1"",""1850""
","
","","","482.29999999981374","","","19","15341","5770","r","elianto","#3366ff99","-1"," ","0","0","[1333.2999999998137]","1","2","","","15341","118","8","2","win","no-go","0"
"pit-trial","240","1601705","0.0-123.0","battery-v0.2","","""event"",""trial"",""time""
""fullscreenenter"",""1"",""1850""
","
","
","""event"",""trial"",""time""
""fullscreenenter"",""1"",""1850""
","
","","","491.5","","","19","15341","5770","m","elianto","#3366ff99","-1"," ","0","+10","[1342]","1","2","","","15341","119","9","2","win","no-go","1"
"pit-trial","241","1606558","0.0-124.0","battery-v0.2","","""event"",""trial"",""time""
""fullscreenenter"",""1"",""1850""
","
","
","""event"",""trial"",""time""
""fullscreenenter"",""1"",""1850""
","
","","","-1","","","19","15341","5770","h","elianto","#f73b6a7A","-1","-1","1","0","[]","0","2","","","15341","120","6","4","lose","no-go","0"
"pit-trial","242","1611411","0.0-125.0","battery-v0.2","","""event"",""trial"",""time""
""fullscreenenter"",""1"",""1850""
","
","
","""event"",""trial"",""time""
""fullscreenenter"",""1"",""1850""
","
","","","-1","","","19","15341","5770","m","elianto","#3366ff99","-1","-1","1","0","[3191.8000000002794]","1","2","","","15341","121","9","2","win","no-go","1"
"pit-trial","243","1616264","0.0-126.0","battery-v0.2","","""event"",""trial"",""time""
""fullscreenenter"",""1"",""1850""
","
","
","""event"",""trial"",""time""
""fullscreenenter"",""1"",""1850""
","
","","","-1","","","19","15341","5770","y","elianto","#f73b6a7A"," ","-1","0","-10","[]","0","2","","","15341","122","7","3","lose","go","0"
"pit-trial","244","1619672","0.0-127.0","battery-v0.2","","""event"",""trial"",""time""
""fullscreenenter"",""1"",""1850""
","
","
","""event"",""trial"",""time""
""fullscreenenter"",""1"",""1850""
","
","","","552.7999999998137","","","19","15341","5770","z","elianto","#3366ff99"," "," ","1","0","[1405.1999999997206]","1","2","","","15341","123","5","1","win","go","1"
"pit-trial","245","1623008","0.0-128.0","battery-v0.2","","""event"",""trial"",""time""
""fullscreenenter"",""1"",""1850""
","
","
","""event"",""trial"",""time""
""fullscreenenter"",""1"",""1850""
","
","","","482.5","","","19","15341","5770","r","elianto","#3366ff99","-1"," ","0","+10","[1333.1000000000931]","1","2","","","15341","124","8","2","win","no-go","1"
"pit-trial","246","1627862","0.0-129.0","battery-v0.2","","""event"",""trial"",""time""
""fullscreenenter"",""1"",""1850""
","
","
","""event"",""trial"",""time""
""fullscreenenter"",""1"",""1850""
","
","","","-1","","","19","15341","5770","y","elianto","#f73b6a7A"," ","-1","0","0","[]","0","2","","","15341","125","7","3","lose","go","1"
"pit-trial","247","1631257","0.0-130.0","battery-v0.2","","""event"",""trial"",""time""
""fullscreenenter"",""1"",""1850""
","
","
","""event"",""trial"",""time""
""fullscreenenter"",""1"",""1850""
","
","","","541.5","","","19","15341","5770","r","elianto","#3366ff99","-1"," ","0","0","[1392.4000000003725]","1","2","","","15341","126","8","2","win","no-go","0"
"pit-trial","248","1636111","0.0-131.0","battery-v0.2","","""event"",""trial"",""time""
""fullscreenenter"",""1"",""1850""
","
","
","""event"",""trial"",""time""
""fullscreenenter"",""1"",""1850""
","
","","","-1","","","19","15341","5770","h","elianto","#f73b6a7A","-1","-1","1","0","[]","0","2","","","15341","127","6","4","lose","no-go","0"
"pit-trial","249","1639433","0.0-132.0","battery-v0.2","","""event"",""trial"",""time""
""fullscreenenter"",""1"",""1850""
","
","
","""event"",""trial"",""time""
""fullscreenenter"",""1"",""1850""
","
","","","468.6999999997206","","","19","15341","5770","m","elianto","#3366ff99","-1"," ","0","0","[1319.7999999998137]","1","2","","","15341","128","9","2","win","no-go","0"
"pit-trial","250","1644288","0.0-133.0","battery-v0.2","","""event"",""trial"",""time""
""fullscreenenter"",""1"",""1850""
","
","
","""event"",""trial"",""time""
""fullscreenenter"",""1"",""1850""
","
","","","-1","","","19","15341","5770","h","elianto","#f73b6a7A","-1","-1","1","0","[]","0","2","","","15341","129","6","4","lose","no-go","0"
"pit-trial","251","1647656","0.0-134.0","battery-v0.2","","""event"",""trial"",""time""
""fullscreenenter"",""1"",""1850""
","
","
","""event"",""trial"",""time""
""fullscreenenter"",""1"",""1850""
","
","","","516","","","19","15341","5770","m","elianto","#3366ff99","-1"," ","0","0","[1366.3000000002794]","1","2","","","15341","130","9","2","win","no-go","0"
"pit-trial","252","1652509","0.0-135.0","battery-v0.2","","""event"",""trial"",""time""
""fullscreenenter"",""1"",""1850""
","
","
","""event"",""trial"",""time""
""fullscreenenter"",""1"",""1850""
","
","","","-1","","","19","15341","5770","r","elianto","#3366ff99","-1","-1","1","+10","[4805.9000000003725]","1","2","","","15341","131","8","2","win","no-go","0"
"pit-trial","253","1657362","0.0-136.0","battery-v0.2","","""event"",""trial"",""time""
""fullscreenenter"",""1"",""1850""
","
","
","""event"",""trial"",""time""
""fullscreenenter"",""1"",""1850""
","
","","","-1","","","19","15341","5770","y","elianto","#f73b6a7A"," ","-1","0","-10","[]","0","2","","","15341","132","7","3","lose","go","0"
"pit-trial","254","1662215","0.0-137.0","battery-v0.2","","""event"",""trial"",""time""
""fullscreenenter"",""1"",""1850""
","
","
","""event"",""trial"",""time""
""fullscreenenter"",""1"",""1850""
","
","","","-1","","","19","15341","5770","h","elianto","#f73b6a7A","-1","-1","1","0","[]","0","2","","","15341","133","6","4","lose","no-go","0"
"pit-trial","255","1667069","0.0-138.0","battery-v0.2","","""event"",""trial"",""time""
""fullscreenenter"",""1"",""1850""
","
","
","""event"",""trial"",""time""
""fullscreenenter"",""1"",""1850""
","
","","","-1","","","19","15341","5770","y","elianto","#f73b6a7A"," ","-1","0","-10","[]","0","2","","","15341","134","7","3","lose","go","0"
"pit-trial","256","1670489","0.0-139.0","battery-v0.2","","""event"",""trial"",""time""
""fullscreenenter"",""1"",""1850""
","
","
","""event"",""trial"",""time""
""fullscreenenter"",""1"",""1850""
","
","","","566.1000000000931","","","19","15341","5770","r","elianto","#3366ff99","-1"," ","0","0","[1417.7000000001863]","1","2","","","15341","135","8","2","win","no-go","0"
"pit-trial","257","1675343","0.0-140.0","battery-v0.2","","""event"",""trial"",""time""
""fullscreenenter"",""1"",""1850""
","
","
","""event"",""trial"",""time""
""fullscreenenter"",""1"",""1850""
","
","","","-1","","","19","15341","5770","m","elianto","#3366ff99","-1","-1","1","0","[3429.100000000093]","1","2","","","15341","136","9","2","win","no-go","1"
"pit-trial","258","1680197","0.0-141.0","battery-v0.2","","""event"",""trial"",""time""
""fullscreenenter"",""1"",""1850""
","
","
","""event"",""trial"",""time""
""fullscreenenter"",""1"",""1850""
","
","","","-1","","","19","15341","5770","r","elianto","#3366ff99","-1","-1","1","0","[]","0","2","","","15341","137","8","2","win","no-go","1"
"pit-trial","259","1683585","0.0-142.0","battery-v0.2","","""event"",""trial"",""time""
""fullscreenenter"",""1"",""1850""
","
","
","""event"",""trial"",""time""
""fullscreenenter"",""1"",""1850""
","
","","","535.1000000000931","","","19","15341","5770","m","elianto","#3366ff99","-1"," ","0","0","[1385.2999999998137]","1","2","","","15341","138","9","2","win","no-go","0"
"pit-trial","260","1688439","0.0-143.0","battery-v0.2","","""event"",""trial"",""time""
""fullscreenenter"",""1"",""1850""
","
","
","""event"",""trial"",""time""
""fullscreenenter"",""1"",""1850""
","
","","","-1","","","19","15341","5770","y","elianto","#f73b6a7A"," ","-1","0","-10","[]","0","2","","","15341","139","7","3","lose","go","0"
"pit-trial","261","1693292","0.0-144.0","battery-v0.2","","""event"",""trial"",""time""
""fullscreenenter"",""1"",""1850""
","
","
","""event"",""trial"",""time""
""fullscreenenter"",""1"",""1850""
","
","","","-1","","","19","15341","5770","h","elianto","#f73b6a7A","-1","-1","1","0","[]","0","2","","","15341","140","6","4","lose","no-go","0"
"pit-instructions","262","1795952","0.0-145.0","battery-v0.2","","""event"",""trial"",""time""
""fullscreenenter"",""1"",""1850""
","
","
","""event"",""trial"",""time""
""fullscreenenter"",""1"",""1850""
","
","","[{""page_index"":0,""viewing_time"":94042.8999999999},{""page_index"":1,""viewing_time"":8615.799999999814}]","102658.79999999981","","","","","","","","","","","","","","","","","","","","","","","",""
"pit-trial","263","1800824","0.0-146.0","battery-v0.2","","""event"",""trial"",""time""
""fullscreenenter"",""1"",""1850""
","
","
","""event"",""trial"",""time""
""fullscreenenter"",""1"",""1850""
","
","","","-1","","","19","15341","5770","e","elianto","#f73b6a7A"," ","-1","0","0","[]","0","3","","","15341","141","2","3","lose","go","1"
"pit-trial","264","1805690","0.0-147.0","battery-v0.2","","""event"",""trial"",""time""
""fullscreenenter"",""1"",""1850""
","
","
","""event"",""trial"",""time""
""fullscreenenter"",""1"",""1850""
","
","","","-1","","","19","15341","5770","j","elianto","#f73b6a7A"," ","-1","0","-10","[]","0","3","","","15341","142","0","3","lose","go","0"
"pit-trial","265","1810558","0.0-148.0","battery-v0.2","","""event"",""trial"",""time""
""fullscreenenter"",""1"",""1850""
","
","
","""event"",""trial"",""time""
""fullscreenenter"",""1"",""1850""
","
","","","-1","","","19","15341","5770","w","elianto","#f73b6a7A","-1","-1","1","-10","[]","0","3","","","15341","143","3","4","lose","no-go","1"
"pit-trial","266","1813914","0.0-149.0","battery-v0.2","","""event"",""trial"",""time""
""fullscreenenter"",""1"",""1850""
","
","
","""event"",""trial"",""time""
""fullscreenenter"",""1"",""1850""
","
","","","489.1999999997206","","","19","15341","5770","d","elianto","#3366ff99","-1"," ","0","0","[1343.3999999999069]","1","3","","","15341","144","1","2","win","no-go","0"
"pit-trial","267","1818783","0.0-150.0","battery-v0.2","","""event"",""trial"",""time""
""fullscreenenter"",""1"",""1850""
","
","
","""event"",""trial"",""time""
""fullscreenenter"",""1"",""1850""
","
