"trial_type","trial_index","time_elapsed","internal_node_id","task_version","subject_id","interactions","blur_events","focus_events","fullscreenenter_events","fullscreenexit_events","success","view_history","rt","responses","num_errors","age","subject","participantId","rune","rune_set","hex","correct","choice","accuracy","outcome","keys","total_keys","block","practice","value","sub","trial","stimulus","robot","valence","action","sham"
"pavlovia","0","15","0.0-0.0","battery-v0.2","","""event"",""trial"",""time""
""fullscreenenter"",""1"",""1753""
","
","
","""event"",""trial"",""time""
""fullscreenenter"",""1"",""1753""
","
","","","","","","","","","","","","","","","","","","","","","","","","","","",""
"fullscreen","1","2744","0.0-1.0","battery-v0.2","","""event"",""trial"",""time""
""fullscreenenter"",""1"",""1753""
","
","
","""event"",""trial"",""time""
""fullscreenenter"",""1"",""1753""
","
","true","","","","","","","","","","","","","","","","","","","","","","","","","",""
"pit-instructions","2","7774","0.0-2.0-0.0","battery-v0.2","","""event"",""trial"",""time""
""fullscreenenter"",""1"",""1753""
","
","
","""event"",""trial"",""time""
""fullscreenenter"",""1"",""1753""
","
","","[{""page_index"":0,""viewing_time"":5027.0999999940395}]","5027.39999999851","","","","","","","","","","","","","","","","","","","","","","","",""
"pit-comprehension","3","10691","0.0-2.0-1.0-0.0","battery-v0.2","","""event"",""trial"",""time""
""fullscreenenter"",""1"",""1753""
","
","
","""event"",""trial"",""time""
""fullscreenenter"",""1"",""1753""
","
","","","2914.10000000149","[""shark""]","0","19","11171","4323","","","","","","","","","","","","","","","","","","",""
"pit-instructions","4","13356","0.0-2.0-1.0-1.0","battery-v0.2","","""event"",""trial"",""time""
""fullscreenenter"",""1"",""1753""
","
","
","""event"",""trial"",""time""
""fullscreenenter"",""1"",""1753""
","
","","[{""page_index"":0,""viewing_time"":2660.6999999955297}]","2660.89999999851","","","","","","","","","","","","","","","","","","","","","","","",""
"pit-comprehension","5","15757","0.0-2.0-2.0-0.0","battery-v0.2","","""event"",""trial"",""time""
""fullscreenenter"",""1"",""1753""
","
","
","""event"",""trial"",""time""
""fullscreenenter"",""1"",""1753""
","
","","","2398.60000000149","[""tiger""]","0","19","11171","4323","","","","","","","","","","","","","","","","","","",""
"pit-instructions","6","16757","0.0-2.0-2.0-1.0","battery-v0.2","","""event"",""trial"",""time""
""fullscreenenter"",""1"",""1753""
","
","
","""event"",""trial"",""time""
""fullscreenenter"",""1"",""1753""
","
","","[{""page_index"":0,""viewing_time"":996.8999999985099}]","997.0999999940395","","","","","","","","","","","","","","","","","","","","","","","",""
"pit-instructions","7","118789","0.0-2.0-3.0","battery-v0.2","","""event"",""trial"",""time""
""fullscreenenter"",""1"",""1753""
","
","
","""event"",""trial"",""time""
""fullscreenenter"",""1"",""1753""
","
","","[{""page_index"":0,""viewing_time"":8965.09999999404},{""page_index"":1,""viewing_time"":6949.5},{""page_index"":2,""viewing_time"":6634.30000000447},{""page_index"":3,""viewing_time"":7499.29999999702},{""page_index"":4,""viewing_time"":6216.60000000149},{""page_index"":5,""viewing_time"":6584.20000000298},{""page_index"":6,""viewing_time"":7699.39999999851},{""page_index"":7,""viewing_time"":6650.39999999851},{""page_index"":8,""viewing_time"":7499.79999999702},{""page_index"":9,""viewing_time"":11250.5},{""page_index"":10,""viewing_time"":7532.80000000447},{""page_index"":11,""viewing_time"":6700.29999999702},{""page_index"":12,""viewing_time"":6208.70000000298},{""page_index"":13,""viewing_time"":5641.89999999851}]","102033.09999999404","","","","","","","","","","","","","","","","","","","","","","","",""
"pit-trial","8","122377","0.0-2.0-4.0-0.0","battery-v0.2","","""event"",""trial"",""time""
""fullscreenenter"",""1"",""1753""
","
","
","""event"",""trial"",""time""
""fullscreenenter"",""1"",""1753""
","
","","","731.5","","","19","11171","4323","&#9784;","elianto","#FFFFF080"," "," ","1","&#10004","[1583.1000000014901]","1","0","0","","","","","","","",""
"pit-trial","9","125875","0.0-2.0-4.1-0.1","battery-v0.2","","""event"",""trial"",""time""
""fullscreenenter"",""1"",""1753""
","
","
","""event"",""trial"",""time""
""fullscreenenter"",""1"",""1753""
","
","","","638.3999999985099","","","19","11171","4323","&#9784;","elianto","#FFFFF080"," "," ","1","&#10004","[1492.0999999940395]","1","0","0","","","","","","","",""
"pit-trial","10","129742","0.0-2.0-4.2-0.2","battery-v0.2","","""event"",""trial"",""time""
""fullscreenenter"",""1"",""1753""
","
","
","""event"",""trial"",""time""
""fullscreenenter"",""1"",""1753""
","
","","","1008.6000000014901","","","19","11171","4323","&#9784;","elianto","#FFFFF080"," "," ","1","&#10004","[1859.8000000044703]","1","0","0","","","","","","","",""
"pit-trial","11","133389","0.0-2.0-4.3-0.3","battery-v0.2","","""event"",""trial"",""time""
""fullscreenenter"",""1"",""1753""
","
","
","""event"",""trial"",""time""
""fullscreenenter"",""1"",""1753""
","
","","","789.7000000029802","","","19","11171","4323","&#9784;","elianto","#FFFFF080"," "," ","1","&#10004","[1641.1000000014901]","1","0","0","","","","","","","",""
"pit-trial","12","137032","0.0-2.0-4.4-0.4","battery-v0.2","","""event"",""trial"",""time""
""fullscreenenter"",""1"",""1753""
","
","
","""event"",""trial"",""time""
""fullscreenenter"",""1"",""1753""
","
","","","783.6000000014901","","","19","11171","4323","&#9784;","elianto","#FFFFF080"," "," ","1","&#10004","[1635.1999999955297]","1","0","0","","","","","","","",""
"pit-instructions","13","158821","0.0-2.0-5.0","battery-v0.2","","""event"",""trial"",""time""
""fullscreenenter"",""1"",""1753""
","
","
","""event"",""trial"",""time""
""fullscreenenter"",""1"",""1753""
","
","","[{""page_index"":0,""viewing_time"":5386.79999999702},{""page_index"":1,""viewing_time"":5799.80000000447},{""page_index"":2,""viewing_time"":4350.5999999940395},{""page_index"":3,""viewing_time"":6249.60000000149}]","21787","","","","","","","","","","","","","","","","","","","","","","","",""
"pit-trial","14","163677","0.0-2.0-6.0-0.0","battery-v0.2","","""event"",""trial"",""time""
""fullscreenenter"",""1"",""1753""
","
","
","""event"",""trial"",""time""
""fullscreenenter"",""1"",""1753""
","
","","","-1","","","19","11171","4323","&#9854;","elianto","#FFFFF080","-1","-1","1","&#10004","[]","0","0","1","","","","","","","",""
"pit-trial","15","168535","0.0-2.0-6.1-0.1","battery-v0.2","","""event"",""trial"",""time""
""fullscreenenter"",""1"",""1753""
","
","
","""event"",""trial"",""time""
""fullscreenenter"",""1"",""1753""
","
","","","-1","","","19","11171","4323","&#9854;","elianto","#FFFFF080","-1","-1","1","&#10004","[]","0","0","1","","","","","","","",""
"pit-trial","16","173395","0.0-2.0-6.2-0.2","battery-v0.2","","""event"",""trial"",""time""
""fullscreenenter"",""1"",""1753""
","
","
","""event"",""trial"",""time""
""fullscreenenter"",""1"",""1753""
","
","","","-1","","","19","11171","4323","&#9854;","elianto","#FFFFF080","-1","-1","1","&#10004","[]","0","0","1","","","","","","","",""
"pit-trial","17","178254","0.0-2.0-6.3-0.3","battery-v0.2","","""event"",""trial"",""time""
""fullscreenenter"",""1"",""1753""
","
","
","""event"",""trial"",""time""
""fullscreenenter"",""1"",""1753""
","
","","","-1","","","19","11171","4323","&#9854;","elianto","#FFFFF080","-1","-1","1","&#10004","[]","0","0","1","","","","","","","",""
"pit-trial","18","183114","0.0-2.0-6.4-0.4","battery-v0.2","","""event"",""trial"",""time""
""fullscreenenter"",""1"",""1753""
","
","
","""event"",""trial"",""time""
""fullscreenenter"",""1"",""1753""
","
","","","-1","","","19","11171","4323","&#9854;","elianto","#FFFFF080","-1","-1","1","&#10004","[]","0","0","1","","","","","","","",""
"pit-instructions","19","300135","0.0-2.0-7.0","battery-v0.2","","""event"",""trial"",""time""
""fullscreenenter"",""1"",""1753""
","
","
","""event"",""trial"",""time""
""fullscreenenter"",""1"",""1753""
","
","","[{""page_index"":0,""viewing_time"":7654.19999999553},{""page_index"":1,""viewing_time"":7515.89999999851},{""page_index"":2,""viewing_time"":6151.30000000447},{""page_index"":3,""viewing_time"":5732.39999999851},{""page_index"":4,""viewing_time"":5084.5},{""page_index"":5,""viewing_time"":6499.5},{""page_index"":6,""viewing_time"":4683.39999999851},{""page_index"":7,""viewing_time"":8633.39999999851},{""page_index"":8,""viewing_time"":6732.9000000059605},{""page_index"":9,""viewing_time"":5600.89999999851},{""page_index"":10,""viewing_time"":6049.39999999851},{""page_index"":11,""viewing_time"":4715.89999999851},{""page_index"":12,""viewing_time"":6601.20000000298},{""page_index"":13,""viewing_time"":8366.5},{""page_index"":14,""viewing_time"":6867.10000000149},{""page_index"":15,""viewing_time"":6600.0999999940395},{""page_index"":16,""viewing_time"":6633.70000000298},{""page_index"":17,""viewing_time"":6899.10000000149}]","117021.59999999404","","","","","","","","","","","","","","","","","","","","","","","",""
"pit-trial","20","303662","0.0-2.0-8.0-0.0","battery-v0.2","","""event"",""trial"",""time""
""fullscreenenter"",""1"",""1753""
","
","
","""event"",""trial"",""time""
""fullscreenenter"",""1"",""1753""
","
","","","671.6000000014901","","","19","11171","4323","&#9776;","elianto","#3366ff99"," "," ","1","+10","[1522.5]","1","0","1","","","","","","","",""
"pit-trial","21","306985","0.0-2.0-8.0-1.0","battery-v0.2","","""event"",""trial"",""time""
""fullscreenenter"",""1"",""1753""
","
","
","""event"",""trial"",""time""
""fullscreenenter"",""1"",""1753""
","
","","","466.90000000596046","","","19","11171","4323","&#9776;","elianto","#3366ff99"," "," ","1","+10","[1319.5]","1","0","1","","","","","","","",""
"pit-trial","22","310282","0.0-2.0-8.0-2.0","battery-v0.2","","""event"",""trial"",""time""
""fullscreenenter"",""1"",""1753""
","
","
","""event"",""trial"",""time""
""fullscreenenter"",""1"",""1753""
","
","","","439.59999999403954","","","19","11171","4323","&#9776;","elianto","#3366ff99"," "," ","1","+10","[1291.2999999970198]","1","0","1","","","","","","","",""
"pit-trial","23","313537","0.0-2.0-8.0-3.0","battery-v0.2","","""event"",""trial"",""time""
""fullscreenenter"",""1"",""1753""
","
","
","""event"",""trial"",""time""
""fullscreenenter"",""1"",""1753""
","
","","","398.8999999985099","","","19","11171","4323","&#9776;","elianto","#3366ff99"," "," ","1","0","[1249.7999999970198]","1","0","1","","","","","","","",""
"pit-trial","24","316926","0.0-2.0-8.0-4.0","battery-v0.2","","""event"",""trial"",""time""
""fullscreenenter"",""1"",""1753""
","
","
","""event"",""trial"",""time""
""fullscreenenter"",""1"",""1753""
","
","","","531.8999999985099","","","19","11171","4323","&#9776;","elianto","#3366ff99"," "," ","1","+10","[1383.6999999955297]","1","0","1","","","","","","","",""
"pit-trial","25","320645","0.0-2.0-8.1-0.1","battery-v0.2","","""event"",""trial"",""time""
""fullscreenenter"",""1"",""1753""
","
","
","""event"",""trial"",""time""
""fullscreenenter"",""1"",""1753""
","
","","","860.6000000014901","","","19","11171","4323","&#9776;","elianto","#3366ff99"," "," ","1","+10","[1714.5]","1","0","1","","","","","","","",""
"pit-trial","26","324203","0.0-2.0-8.1-1.1","battery-v0.2","","""event"",""trial"",""time""
""fullscreenenter"",""1"",""1753""
","
","
","""event"",""trial"",""time""
""fullscreenenter"",""1"",""1753""
","
","","","701.6000000014901","","","19","11171","4323","&#9776;","elianto","#3366ff99"," "," ","1","+10","[1552.8999999985099]","1","0","1","","","","","","","",""
"pit-trial","27","327605","0.0-2.0-8.1-2.1","battery-v0.2","","""event"",""trial"",""time""
""fullscreenenter"",""1"",""1753""
","
","
","""event"",""trial"",""time""
""fullscreenenter"",""1"",""1753""
","
","","","547.6000000014901","","","19","11171","4323","&#9776;","elianto","#3366ff99"," "," ","1","+10","[1398.7999999970198]","1","0","1","","","","","","","",""
"pit-trial","28","330965","0.0-2.0-8.1-3.1","battery-v0.2","","""event"",""trial"",""time""
""fullscreenenter"",""1"",""1753""
","
","
","""event"",""trial"",""time""
""fullscreenenter"",""1"",""1753""
","
","","","502.6000000014901","","","19","11171","4323","&#9776;","elianto","#3366ff99"," "," ","1","0","[1355.7000000029802]","1","0","1","","","","","","","",""
"pit-trial","29","334558","0.0-2.0-8.1-4.1","battery-v0.2","","""event"",""trial"",""time""
""fullscreenenter"",""1"",""1753""
","
","
","""event"",""trial"",""time""
""fullscreenenter"",""1"",""1753""
","
","","","739","","","19","11171","4323","&#9776;","elianto","#3366ff99"," "," ","1","+10","[1589.8999999985099]","1","0","1","","","","","","","",""
"pit-trial","30","338250","0.0-2.0-8.2-0.2","battery-v0.2","","""event"",""trial"",""time""
""fullscreenenter"",""1"",""1753""
","
","
","""event"",""trial"",""time""
""fullscreenenter"",""1"",""1753""
","
","","","835.3999999985099","","","19","11171","4323","&#9776;","elianto","#3366ff99"," "," ","1","+10","[1688.3999999985099]","1","0","1","","","","","","","",""
"pit-trial","31","341693","0.0-2.0-8.2-1.2","battery-v0.2","","""event"",""trial"",""time""
""fullscreenenter"",""1"",""1753""
","
","
","""event"",""trial"",""time""
""fullscreenenter"",""1"",""1753""
","
","","","585.2999999970198","","","19","11171","4323","&#9776;","elianto","#3366ff99"," "," ","1","+10","[1436.5]","1","0","1","","","","","","","",""
"pit-trial","32","345069","0.0-2.0-8.2-2.2","battery-v0.2","","""event"",""trial"",""time""
""fullscreenenter"",""1"",""1753""
","
","
","""event"",""trial"",""time""
""fullscreenenter"",""1"",""1753""
","
","","","520.8999999985099","","","19","11171","4323","&#9776;","elianto","#3366ff99"," "," ","1","+10","[1372.6000000014901]","1","0","1","","","","","","","",""
"pit-trial","33","348344","0.0-2.0-8.2-3.2","battery-v0.2","","""event"",""trial"",""time""
""fullscreenenter"",""1"",""1753""
","
","
","""event"",""trial"",""time""
""fullscreenenter"",""1"",""1753""
","
","","","416.5","","","19","11171","4323","&#9776;","elianto","#3366ff99"," "," ","1","0","[1268.6999999955297]","1","0","1","","","","","","","",""
"pit-trial","34","351844","0.0-2.0-8.2-4.2","battery-v0.2","","""event"",""trial"",""time""
""fullscreenenter"",""1"",""1753""
","
","
","""event"",""trial"",""time""
""fullscreenenter"",""1"",""1753""
","
","","","641.5","","","19","11171","4323","&#9776;","elianto","#3366ff99"," "," ","1","+10","[1493.1000000014901]","1","0","1","","","","","","","",""
"call-function","35","351846","0.0-2.0-9.0","battery-v0.2","","""event"",""trial"",""time""
""fullscreenenter"",""1"",""1753""
","
","
","""event"",""trial"",""time""
""fullscreenenter"",""1"",""1753""
","
","","","","","","","","","","","","","","","","","","","","","","","","","","",""
"pit-instructions","36","393118","0.0-2.0-10.0","battery-v0.2","","""event"",""trial"",""time""
""fullscreenenter"",""1"",""1753""
","
","
","""event"",""trial"",""time""
""fullscreenenter"",""1"",""1753""
","
","","[{""page_index"":0,""viewing_time"":9022.20000000298},{""page_index"":1,""viewing_time"":6482.69999999553},{""page_index"":2,""viewing_time"":10084},{""page_index"":3,""viewing_time"":8533},{""page_index"":4,""viewing_time"":7150.89999999851}]","41273","","","","","","","","","","","","","","","","","","","","","","","",""
"pit-trial","37","397116","0.0-2.0-11.0-0.0","battery-v0.2","","""event"",""trial"",""time""
""fullscreenenter"",""1"",""1753""
","
","
","""event"",""trial"",""time""
""fullscreenenter"",""1"",""1753""
","
","","","1141","","","19","11171","4323","&#9761;","elianto","#3366ff99","-1"," ","0","0","[1992.2999999970198]","1","0","2","","","","","","","",""
"pit-trial","38","401976","0.0-2.0-11.0-1.0","battery-v0.2","","""event"",""trial"",""time""
""fullscreenenter"",""1"",""1753""
","
","
","""event"",""trial"",""time""
""fullscreenenter"",""1"",""1753""
","
","","","-1","","","19","11171","4323","&#9761;","elianto","#3366ff99","-1","-1","1","+10","[]","0","0","2","","","","","","","",""
"pit-trial","39","406834","0.0-2.0-11.0-2.0","battery-v0.2","","""event"",""trial"",""time""
""fullscreenenter"",""1"",""1753""
","
","
","""event"",""trial"",""time""
""fullscreenenter"",""1"",""1753""
","
","","","-1","","","19","11171","4323","&#9761;","elianto","#3366ff99","-1","-1","1","+10","[]","0","0","2","","","","","","","",""
"pit-trial","40","411692","0.0-2.0-11.0-3.0","battery-v0.2","","""event"",""trial"",""time""
""fullscreenenter"",""1"",""1753""
","
","
","""event"",""trial"",""time""
""fullscreenenter"",""1"",""1753""
","
","","","-1","","","19","11171","4323","&#9761;","elianto","#3366ff99","-1","-1","1","0","[]","0","0","2","","","","","","","",""
"pit-trial","41","416548","0.0-2.0-11.0-4.0","battery-v0.2","","""event"",""trial"",""time""
""fullscreenenter"",""1"",""1753""
","
","
","""event"",""trial"",""time""
""fullscreenenter"",""1"",""1753""
","
","","","-1","","","19","11171","4323","&#9761;","elianto","#3366ff99","-1","-1","1","+10","[]","0","0","2","","","","","","","",""
"pit-trial","42","421403","0.0-2.0-11.1-0.1","battery-v0.2","","""event"",""trial"",""time""
""fullscreenenter"",""1"",""1753""
","
","
","""event"",""trial"",""time""
""fullscreenenter"",""1"",""1753""
","
","","","-1","","","19","11171","4323","&#9761;","elianto","#3366ff99","-1","-1","1","+10","[]","0","0","2","","","","","","","",""
"pit-trial","43","426264","0.0-2.0-11.1-1.1","battery-v0.2","","""event"",""trial"",""time""
""fullscreenenter"",""1"",""1753""
","
","
","""event"",""trial"",""time""
""fullscreenenter"",""1"",""1753""
","
","","","-1","","","19","11171","4323","&#9761;","elianto","#3366ff99","-1","-1","1","+10","[]","0","0","2","","","","","","","",""
"pit-trial","44","431123","0.0-2.0-11.1-2.1","battery-v0.2","","""event"",""trial"",""time""
""fullscreenenter"",""1"",""1753""
","
","
","""event"",""trial"",""time""
""fullscreenenter"",""1"",""1753""
","
","","","-1","","","19","11171","4323","&#9761;","elianto","#3366ff99","-1","-1","1","+10","[]","0","0","2","","","","","","","",""
"pit-trial","45","435982","0.0-2.0-11.1-3.1","battery-v0.2","","""event"",""trial"",""time""
""fullscreenenter"",""1"",""1753""
","
","
","""event"",""trial"",""time""
""fullscreenenter"",""1"",""1753""
","
","","","-1","","","19","11171","4323","&#9761;","elianto","#3366ff99","-1","-1","1","0","[]","0","0","2","","","","","","","",""
"pit-trial","46","440843","0.0-2.0-11.1-4.1","battery-v0.2","","""event"",""trial"",""time""
""fullscreenenter"",""1"",""1753""
","
","
","""event"",""trial"",""time""
""fullscreenenter"",""1"",""1753""
","
","","","-1","","","19","11171","4323","&#9761;","elianto","#3366ff99","-1","-1","1","+10","[]","0","0","2","","","","","","","",""
"pit-trial","47","445704","0.0-2.0-11.2-0.2","battery-v0.2","","""event"",""trial"",""time""
""fullscreenenter"",""1"",""1753""
","
","
","""event"",""trial"",""time""
""fullscreenenter"",""1"",""1753""
","
","","","-1","","","19","11171","4323","&#9761;","elianto","#3366ff99","-1","-1","1","+10","[]","0","0","2","","","","","","","",""
"pit-trial","48","450565","0.0-2.0-11.2-1.2","battery-v0.2","","""event"",""trial"",""time""
""fullscreenenter"",""1"",""1753""
","
","
","""event"",""trial"",""time""
""fullscreenenter"",""1"",""1753""
","
","","","-1","","","19","11171","4323","&#9761;","elianto","#3366ff99","-1","-1","1","+10","[]","0","0","2","","","","","","","",""
"pit-trial","49","455426","0.0-2.0-11.2-2.2","battery-v0.2","","""event"",""trial"",""time""
""fullscreenenter"",""1"",""1753""
","
","
","""event"",""trial"",""time""
""fullscreenenter"",""1"",""1753""
","
","","","-1","","","19","11171","4323","&#9761;","elianto","#3366ff99","-1","-1","1","+10","[]","0","0","2","","","","","","","",""
"pit-trial","50","460284","0.0-2.0-11.2-3.2","battery-v0.2","","""event"",""trial"",""time""
""fullscreenenter"",""1"",""1753""
","
","
","""event"",""trial"",""time""
""fullscreenenter"",""1"",""1753""
","
","","","-1","","","19","11171","4323","&#9761;","elianto","#3366ff99","-1","-1","1","0","[]","0","0","2","","","","","","","",""
"pit-trial","51","465146","0.0-2.0-11.2-4.2","battery-v0.2","","""event"",""trial"",""time""
""fullscreenenter"",""1"",""1753""
","
","
","""event"",""trial"",""time""
""fullscreenenter"",""1"",""1753""
","
","","","-1","","","19","11171","4323","&#9761;","elianto","#3366ff99","-1","-1","1","+10","[]","0","0","2","","","","","","","",""
"pit-trial","52","470002","0.0-2.0-11.3-0.3","battery-v0.2","","""event"",""trial"",""time""
""fullscreenenter"",""1"",""1753""
","
","
","""event"",""trial"",""time""
""fullscreenenter"",""1"",""1753""
","
","","","-1","","","19","11171","4323","&#9761;","elianto","#3366ff99","-1","-1","1","+10","[]","0","0","2","","","","","","","",""
"pit-trial","53","474862","0.0-2.0-11.3-1.3","battery-v0.2","","""event"",""trial"",""time""
""fullscreenenter"",""1"",""1753""
","
","
","""event"",""trial"",""time""
""fullscreenenter"",""1"",""1753""
","
","","","-1","","","19","11171","4323","&#9761;","elianto","#3366ff99","-1","-1","1","+10","[]","0","0","2","","","","","","","",""
"pit-trial","54","479722","0.0-2.0-11.3-2.3","battery-v0.2","","""event"",""trial"",""time""
""fullscreenenter"",""1"",""1753""
","
","
","""event"",""trial"",""time""
""fullscreenenter"",""1"",""1753""
","
","","","-1","","","19","11171","4323","&#9761;","elianto","#3366ff99","-1","-1","1","+10","[]","0","0","2","","","","","","","",""
"pit-trial","55","484583","0.0-2.0-11.3-3.3","battery-v0.2","","""event"",""trial"",""time""
""fullscreenenter"",""1"",""1753""
","
","
","""event"",""trial"",""time""
""fullscreenenter"",""1"",""1753""
","
","","","-1","","","19","11171","4323","&#9761;","elianto","#3366ff99","-1","-1","1","0","[]","0","0","2","","","","","","","",""
"pit-trial","56","489444","0.0-2.0-11.3-4.3","battery-v0.2","","""event"",""trial"",""time""
""fullscreenenter"",""1"",""1753""
","
","
","""event"",""trial"",""time""
""fullscreenenter"",""1"",""1753""
","
","","","-1","","","19","11171","4323","&#9761;","elianto","#3366ff99","-1","-1","1","+10","[]","0","0","2","","","","","","","",""
"call-function","57","489446","0.0-2.0-12.0","battery-v0.2","","""event"",""trial"",""time""
""fullscreenenter"",""1"",""1753""
","
","
","""event"",""trial"",""time""
""fullscreenenter"",""1"",""1753""
","
","","","","","","","","","","","","","","","","","","","","","","","","","","",""
"pit-instructions","58","527416","0.0-2.0-13.0","battery-v0.2","","""event"",""trial"",""time""
""fullscreenenter"",""1"",""1753""
","
","
","""event"",""trial"",""time""
""fullscreenenter"",""1"",""1753""
","
","","[{""page_index"":0,""viewing_time"":10769.70000000298},{""page_index"":1,""viewing_time"":6616},{""page_index"":2,""viewing_time"":3217.89999999851},{""page_index"":3,""viewing_time"":10816.10000000149},{""page_index"":4,""viewing_time"":6550.69999999553}]","37970.70000000298","","","","","","","","","","","","","","","","","","","","","","","",""
"pit-trial","59","531189","0.0-2.0-14.0-0.0","battery-v0.2","","""event"",""trial"",""time""
""fullscreenenter"",""1"",""1753""
","
","
","""event"",""trial"",""time""
""fullscreenenter"",""1"",""1753""
","
","","","919","","","19","11171","4323","&#9826;","elianto","#f73b6a7A","-1"," ","0","-10","[1771.2999999970198]","1","0","3","","","","","","","",""
"pit-trial","60","536042","0.0-2.0-14.0-1.0","battery-v0.2","","""event"",""trial"",""time""
""fullscreenenter"",""1"",""1753""
","
","
","""event"",""trial"",""time""
""fullscreenenter"",""1"",""1753""
","
","","","-1","","","19","11171","4323","&#9826;","elianto","#f73b6a7A","-1","-1","1","0","[]","0","0","3","","","","","","","",""
"pit-trial","61","540899","0.0-2.0-14.0-2.0","battery-v0.2","","""event"",""trial"",""time""
""fullscreenenter"",""1"",""1753""
","
","
","""event"",""trial"",""time""
""fullscreenenter"",""1"",""1753""
","
","","","-1","","","19","11171","4323","&#9826;","elianto","#f73b6a7A","-1","-1","1","0","[]","0","0","3","","","","","","","",""
"pit-trial","62","545758","0.0-2.0-14.0-3.0","battery-v0.2","","""event"",""trial"",""time""
""fullscreenenter"",""1"",""1753""
","
","
","""event"",""trial"",""time""
""fullscreenenter"",""1"",""1753""
","
","","","-1","","","19","11171","4323","&#9826;","elianto","#f73b6a7A","-1","-1","1","-10","[]","0","0","3","","","","","","","",""
"pit-trial","63","550613","0.0-2.0-14.0-4.0","battery-v0.2","","""event"",""trial"",""time""
""fullscreenenter"",""1"",""1753""
","
","
","""event"",""trial"",""time""
""fullscreenenter"",""1"",""1753""
","
","","","-1","","","19","11171","4323","&#9826;","elianto","#f73b6a7A","-1","-1","1","0","[]","0","0","3","","","","","","","",""
"pit-trial","64","555471","0.0-2.0-14.1-0.1","battery-v0.2","","""event"",""trial"",""time""
""fullscreenenter"",""1"",""1753""
","
","
","""event"",""trial"",""time""
""fullscreenenter"",""1"",""1753""
","
","","","-1","","","19","11171","4323","&#9826;","elianto","#f73b6a7A","-1","-1","1","0","[]","0","0","3","","","","","","","",""
"pit-trial","65","560330","0.0-2.0-14.1-1.1","battery-v0.2","","""event"",""trial"",""time""
""fullscreenenter"",""1"",""1753""
","
","
","""event"",""trial"",""time""
""fullscreenenter"",""1"",""1753""
","
","","","-1","","","19","11171","4323","&#9826;","elianto","#f73b6a7A","-1","-1","1","0","[]","0","0","3","","","","","","","",""
"pit-trial","66","565188","0.0-2.0-14.1-2.1","battery-v0.2","","""event"",""trial"",""time""
""fullscreenenter"",""1"",""1753""
","
","
","""event"",""trial"",""time""
""fullscreenenter"",""1"",""1753""
","
","","","-1","","","19","11171","4323","&#9826;","elianto","#f73b6a7A","-1","-1","1","0","[]","0","0","3","","","","","","","",""
"pit-trial","67","570048","0.0-2.0-14.1-3.1","battery-v0.2","","""event"",""trial"",""time""
""fullscreenenter"",""1"",""1753""
","
","
","""event"",""trial"",""time""
""fullscreenenter"",""1"",""1753""
","
","","","-1","","","19","11171","4323","&#9826;","elianto","#f73b6a7A","-1","-1","1","-10","[]","0","0","3","","","","","","","",""
"pit-trial","68","574909","0.0-2.0-14.1-4.1","battery-v0.2","","""event"",""trial"",""time""
""fullscreenenter"",""1"",""1753""
","
","
","""event"",""trial"",""time""
""fullscreenenter"",""1"",""1753""
","
","","","-1","","","19","11171","4323","&#9826;","elianto","#f73b6a7A","-1","-1","1","0","[]","0","0","3","","","","","","","",""
"pit-trial","69","579767","0.0-2.0-14.2-0.2","battery-v0.2","","""event"",""trial"",""time""
""fullscreenenter"",""1"",""1753""
","
","
","""event"",""trial"",""time""
""fullscreenenter"",""1"",""1753""
","
","","","-1","","","19","11171","4323","&#9826;","elianto","#f73b6a7A","-1","-1","1","0","[]","0","0","3","","","","","","","",""
"pit-trial","70","584628","0.0-2.0-14.2-1.2","battery-v0.2","","""event"",""trial"",""time""
""fullscreenenter"",""1"",""1753""
","
","
","""event"",""trial"",""time""
""fullscreenenter"",""1"",""1753""
","
","","","-1","","","19","11171","4323","&#9826;","elianto","#f73b6a7A","-1","-1","1","0","[]","0","0","3","","","","","","","",""
"pit-trial","71","589490","0.0-2.0-14.2-2.2","battery-v0.2","","""event"",""trial"",""time""
""fullscreenenter"",""1"",""1753""
","
","
","""event"",""trial"",""time""
""fullscreenenter"",""1"",""1753""
","
","","","-1","","","19","11171","4323","&#9826;","elianto","#f73b6a7A","-1","-1","1","0","[]","0","0","3","","","","","","","",""
"pit-trial","72","594351","0.0-2.0-14.2-3.2","battery-v0.2","","""event"",""trial"",""time""
""fullscreenenter"",""1"",""1753""
","
","
","""event"",""trial"",""time""
""fullscreenenter"",""1"",""1753""
","
","","","-1","","","19","11171","4323","&#9826;","elianto","#f73b6a7A","-1","-1","1","-10","[]","0","0","3","","","","","","","",""
"pit-trial","73","599212","0.0-2.0-14.2-4.2","battery-v0.2","","""event"",""trial"",""time""
""fullscreenenter"",""1"",""1753""
","
","
","""event"",""trial"",""time""
""fullscreenenter"",""1"",""1753""
","
","","","-1","","","19","11171","4323","&#9826;","elianto","#f73b6a7A","-1","-1","1","0","[]","0","0","3","","","","","","","",""
"pit-trial","74","604071","0.0-2.0-14.3-0.3","battery-v0.2","","""event"",""trial"",""time""
""fullscreenenter"",""1"",""1753""
","
","
","""event"",""trial"",""time""
""fullscreenenter"",""1"",""1753""
","
","","","-1","","","19","11171","4323","&#9826;","elianto","#f73b6a7A","-1","-1","1","0","[]","0","0","3","","","","","","","",""
"pit-trial","75","608932","0.0-2.0-14.3-1.3","battery-v0.2","","""event"",""trial"",""time""
""fullscreenenter"",""1"",""1753""
","
","
","""event"",""trial"",""time""
""fullscreenenter"",""1"",""1753""
","
","","","-1","","","19","11171","4323","&#9826;","elianto","#f73b6a7A","-1","-1","1","0","[]","0","0","3","","","","","","","",""
"pit-trial","76","613793","0.0-2.0-14.3-2.3","battery-v0.2","","""event"",""trial"",""time""
""fullscreenenter"",""1"",""1753""
","
","
","""event"",""trial"",""time""
""fullscreenenter"",""1"",""1753""
","
","","","-1","","","19","11171","4323","&#9826;","elianto","#f73b6a7A","-1","-1","1","0","[]","0","0","3","","","","","","","",""
"pit-trial","77","618654","0.0-2.0-14.3-3.3","battery-v0.2","","""event"",""trial"",""time""
""fullscreenenter"",""1"",""1753""
","
","
","""event"",""trial"",""time""
""fullscreenenter"",""1"",""1753""
","
","","","-1","","","19","11171","4323","&#9826;","elianto","#f73b6a7A","-1","-1","1","-10","[]","0","0","3","","","","","","","",""
"pit-trial","78","623515","0.0-2.0-14.3-4.3","battery-v0.2","","""event"",""trial"",""time""
""fullscreenenter"",""1"",""1753""
","
","
","""event"",""trial"",""time""
""fullscreenenter"",""1"",""1753""
","
","","","-1","","","19","11171","4323","&#9826;","elianto","#f73b6a7A","-1","-1","1","0","[]","0","0","3","","","","","","","",""
"call-function","79","623516","0.0-2.0-15.0","battery-v0.2","","""event"",""trial"",""time""
""fullscreenenter"",""1"",""1753""
","
","
","""event"",""trial"",""time""
""fullscreenenter"",""1"",""1753""
","
","","","","","","","","","","","","","","","","","","","","","","","","","","",""
"pit-instructions","80","655313","0.0-2.0-16.0","battery-v0.2","","""event"",""trial"",""time""
""fullscreenenter"",""1"",""1753""
","
","
","""event"",""trial"",""time""
""fullscreenenter"",""1"",""1753""
","
","","[{""page_index"":0,""viewing_time"":9396.89999999851},{""page_index"":1,""viewing_time"":9768.5},{""page_index"":2,""viewing_time"":6049},{""page_index"":3,""viewing_time"":6582.10000000149}]","31796.69999999553","","","","","","","","","","","","","","","","","","","","","","","",""
"pit-trial","81","659416","0.0-2.0-17.0-0.0","battery-v0.2","","""event"",""trial"",""time""
""fullscreenenter"",""1"",""1753""
","
","
","""event"",""trial"",""time""
""fullscreenenter"",""1"",""1753""
","
","","","1244.6000000014901","","","19","11171","4323","&#9789;","elianto","#f73b6a7A"," "," ","1","0","[2096.60000000149]","1","0","4","","","","","","","",""
"pit-trial","82","662826","0.0-2.0-17.0-1.0","battery-v0.2","","""event"",""trial"",""time""
""fullscreenenter"",""1"",""1753""
","
","
","""event"",""trial"",""time""
""fullscreenenter"",""1"",""1753""
","
","","","556","","","19","11171","4323","&#9789;","elianto","#f73b6a7A"," "," ","1","0","[1407.8999999985099]","1","0","4","","","","","","","",""
"pit-trial","83","666130","0.0-2.0-17.0-2.0","battery-v0.2","","""event"",""trial"",""time""
""fullscreenenter"",""1"",""1753""
","
","
","""event"",""trial"",""time""
""fullscreenenter"",""1"",""1753""
","
","","","448.5","","","19","11171","4323","&#9789;","elianto","#f73b6a7A"," "," ","1","0","[1298.7999999970198]","1","0","4","","","","","","","",""
"pit-trial","84","669473","0.0-2.0-17.0-3.0","battery-v0.2","","""event"",""trial"",""time""
""fullscreenenter"",""1"",""1753""
","
","
","""event"",""trial"",""time""
""fullscreenenter"",""1"",""1753""
","
","","","487","","","19","11171","4323","&#9789;","elianto","#f73b6a7A"," "," ","1","-10","[1337.1999999955297]","1","0","4","","","","","","","",""
"pit-trial","85","673109","0.0-2.0-17.0-4.0","battery-v0.2","","""event"",""trial"",""time""
""fullscreenenter"",""1"",""1753""
","
","
","""event"",""trial"",""time""
""fullscreenenter"",""1"",""1753""
","
","","","777.6000000014901","","","19","11171","4323","&#9789;","elianto","#f73b6a7A"," "," ","1","0","[1628.7999999970198]","1","0","4","","","","","","","",""
"pit-trial","86","676394","0.0-2.0-17.1-0.1","battery-v0.2","","""event"",""trial"",""time""
""fullscreenenter"",""1"",""1753""
","
","
","""event"",""trial"",""time""
""fullscreenenter"",""1"",""1753""
","
","","","427.19999999552965","","","19","11171","4323","&#9789;","elianto","#f73b6a7A"," "," ","1","0","[1278]","1","0","4","","","","","","","",""
"pit-trial","87","680053","0.0-2.0-17.1-1.1","battery-v0.2","","""event"",""trial"",""time""
""fullscreenenter"",""1"",""1753""
","
","
","""event"",""trial"",""time""
""fullscreenenter"",""1"",""1753""
","
","","","804.8999999985099","","","19","11171","4323","&#9789;","elianto","#f73b6a7A"," "," ","1","0","[1655.8999999985099]","1","0","4","","","","","","","",""
"pit-trial","88","683372","0.0-2.0-17.1-2.1","battery-v0.2","","""event"",""trial"",""time""
""fullscreenenter"",""1"",""1753""
","
","
","""event"",""trial"",""time""
""fullscreenenter"",""1"",""1753""
","
","","","463.30000000447035","","","19","11171","4323","&#9789;","elianto","#f73b6a7A"," "," ","1","0","[1315.9000000059605]","1","0","4","","","","","","","",""
"pit-trial","89","688235","0.0-2.0-17.1-3.1","battery-v0.2","","""event"",""trial"",""time""
""fullscreenenter"",""1"",""1753""
","
","
","""event"",""trial"",""time""
""fullscreenenter"",""1"",""1753""
","
","","","-1","","","19","11171","4323","&#9789;","elianto","#f73b6a7A"," ","-1","0","0","[]","0","0","4","","","","","","","",""
"pit-trial","90","691606","0.0-2.0-17.1-4.1","battery-v0.2","","""event"",""trial"",""time""
""fullscreenenter"",""1"",""1753""
","
","
","""event"",""trial"",""time""
""fullscreenenter"",""1"",""1753""
","
","","","510.69999999552965","","","19","11171","4323","&#9789;","elianto","#f73b6a7A"," "," ","1","0","[1364.5]","1","0","4","","","","","","","",""
"pit-trial","91","695391","0.0-2.0-17.2-0.2","battery-v0.2","","""event"",""trial"",""time""
""fullscreenenter"",""1"",""1753""
","
","
","""event"",""trial"",""time""
""fullscreenenter"",""1"",""1753""
","
","","","929.7000000029802","","","19","11171","4323","&#9789;","elianto","#f73b6a7A"," "," ","1","0","[1780.7000000029802]","1","0","4","","","","","","","",""
"pit-trial","92","698660","0.0-2.0-17.2-1.2","battery-v0.2","","""event"",""trial"",""time""
""fullscreenenter"",""1"",""1753""
","
","
","""event"",""trial"",""time""
""fullscreenenter"",""1"",""1753""
","
","","","412.6000000014901","","","19","11171","4323","&#9789;","elianto","#f73b6a7A"," "," ","1","0","[1262.8000000044703]","1","0","4","","","","","","","",""
"pit-trial","93","702366","0.0-2.0-17.2-2.2","battery-v0.2","","""event"",""trial"",""time""
""fullscreenenter"",""1"",""1753""
","
","
","""event"",""trial"",""time""
""fullscreenenter"",""1"",""1753""
","
","","","848.2000000029802","","","19","11171","4323","&#9789;","elianto","#f73b6a7A"," "," ","1","0","[1698.7999999970198]","1","0","4","","","","","","","",""
"pit-trial","94","707225","0.0-2.0-17.2-3.2","battery-v0.2","","""event"",""trial"",""time""
""fullscreenenter"",""1"",""1753""
","
","
","""event"",""trial"",""time""
""fullscreenenter"",""1"",""1753""
","
","","","-1","","","19","11171","4323","&#9789;","elianto","#f73b6a7A"," ","-1","0","0","[]","0","0","4","","","","","","","",""
"pit-trial","95","710562","0.0-2.0-17.2-4.2","battery-v0.2","","""event"",""trial"",""time""
""fullscreenenter"",""1"",""1753""
","
","
","""event"",""trial"",""time""
""fullscreenenter"",""1"",""1753""
","
","","","480.5","","","19","11171","4323","&#9789;","elianto","#f73b6a7A"," "," ","1","0","[1331.8999999985099]","1","0","4","","","","","","","",""
"pit-trial","96","714385","0.0-2.0-17.3-0.3","battery-v0.2","","""event"",""trial"",""time""
""fullscreenenter"",""1"",""1753""
","
","
","""event"",""trial"",""time""
""fullscreenenter"",""1"",""1753""
","
","","","961.7999999970198","","","19","11171","4323","&#9789;","elianto","#f73b6a7A"," "," ","1","0","[1814.2999999970198]","1","0","4","","","","","","","",""
"pit-trial","97","717760","0.0-2.0-17.3-1.3","battery-v0.2","","""event"",""trial"",""time""
""fullscreenenter"",""1"",""1753""
","
","
","""event"",""trial"",""time""
""fullscreenenter"",""1"",""1753""
","
","","","516.6000000014901","","","19","11171","4323","&#9789;","elianto","#f73b6a7A"," "," ","1","0","[1369.5]","1","0","4","","","","","","","",""
"pit-trial","98","721063","0.0-2.0-17.3-2.3","battery-v0.2","","""event"",""trial"",""time""
""fullscreenenter"",""1"",""1753""
","
","
","""event"",""trial"",""time""
""fullscreenenter"",""1"",""1753""
","
","","","445.6000000014901","","","19","11171","4323","&#9789;","elianto","#f73b6a7A"," "," ","1","0","[1296.6000000014901]","1","0","4","","","","","","","",""
"pit-trial","99","725922","0.0-2.0-17.3-3.3","battery-v0.2","","""event"",""trial"",""time""
""fullscreenenter"",""1"",""1753""
","
","
","""event"",""trial"",""time""
""fullscreenenter"",""1"",""1753""
","
","","","-1","","","19","11171","4323","&#9789;","elianto","#f73b6a7A"," ","-1","0","0","[]","0","0","4","","","","","","","",""
"pit-trial","100","729163","0.0-2.0-17.3-4.3","battery-v0.2","","""event"",""trial"",""time""
""fullscreenenter"",""1"",""1753""
","
","
","""event"",""trial"",""time""
""fullscreenenter"",""1"",""1753""
","
","","","383.59999999403954","","","19","11171","4323","&#9789;","elianto","#f73b6a7A"," "," ","1","0","[1233.6999999955297]","1","0","4","","","","","","","",""
"call-function","101","729164","0.0-2.0-18.0","battery-v0.2","","""event"",""trial"",""time""
""fullscreenenter"",""1"",""1753""
","
","
","""event"",""trial"",""time""
""fullscreenenter"",""1"",""1753""
","
","","","","","","","","","","","","","","","","","","","","","","","","","","",""
"pit-instructions","102","798661","0.0-2.0-19.0","battery-v0.2","","""event"",""trial"",""time""
""fullscreenenter"",""1"",""1753""
","
","
","""event"",""trial"",""time""
""fullscreenenter"",""1"",""1753""
","
","","[{""page_index"":0,""viewing_time"":6680.4000000059605},{""page_index"":1,""viewing_time"":5568.29999999702},{""page_index"":2,""viewing_time"":13832.10000000149},{""page_index"":3,""viewing_time"":7735.39999999851},{""page_index"":4,""viewing_time"":8148.79999999702},{""page_index"":5,""viewing_time"":9700.20000000298},{""page_index"":6,""viewing_time"":8366.60000000149},{""page_index"":7,""viewing_time"":5866.79999999702},{""page_index"":8,""viewing_time"":3599.2000000029802}]","69498.10000000149","","","","","","","","","","","","","","","","","","","","","","","",""
"pit-comprehension","103","803561","0.0-2.0-20.0-0.0","battery-v0.2","","""event"",""trial"",""time""
""fullscreenenter"",""1"",""1753""
","
","
","""event"",""trial"",""time""
""fullscreenenter"",""1"",""1753""
","
","","","4897.39999999851","[""SPACE""]","0","19","11171","4323","","","","","","","","","","","","","","","","","","",""
"pit-instructions","104","807496","0.0-2.0-20.0-1.0","battery-v0.2","","""event"",""trial"",""time""
""fullscreenenter"",""1"",""1753""
","
","
","""event"",""trial"",""time""
""fullscreenenter"",""1"",""1753""
","
","","[{""page_index"":0,""viewing_time"":3904.2000000029802}]","3904.5","","","","","","","","","","","","","","","","","","","","","","","",""
"pit-comprehension","105","813594","0.0-2.0-21.0-0.0","battery-v0.2","","""event"",""trial"",""time""
""fullscreenenter"",""1"",""1753""
","
","
","""event"",""trial"",""time""
""fullscreenenter"",""1"",""1753""
","
","","","6096.10000000149","[""10""]","0","19","11171","4323","","","","","","","","","","","","","","","","","","",""
"pit-instructions","106","815410","0.0-2.0-21.0-1.0","battery-v0.2","","""event"",""trial"",""time""
""fullscreenenter"",""1"",""1753""
","
","
","""event"",""trial"",""time""
""fullscreenenter"",""1"",""1753""
","
","","[{""page_index"":0,""viewing_time"":1785.2999999970198}]","1785.3999999985099","","","","","","","","","","","","","","","","","","","","","","","",""
"pit-comprehension","107","822345","0.0-2.0-22.0-0.0","battery-v0.2","","""event"",""trial"",""time""
""fullscreenenter"",""1"",""1753""
","
","
","""event"",""trial"",""time""
""fullscreenenter"",""1"",""1753""
","
","","","6933","[""-10""]","1","19","11171","4323","","","","","","","","","","","","","","","","","","",""
"pit-instructions","108","828078","0.0-2.0-22.0-1.0","battery-v0.2","","""event"",""trial"",""time""
""fullscreenenter"",""1"",""1753""
","
","
","""event"",""trial"",""time""
""fullscreenenter"",""1"",""1753""
","
","","[{""page_index"":0,""viewing_time"":5701.79999999702}]","5702","","","","","","","","","","","","","","","","","","","","","","","",""
"pit-instructions","109","831428","0.0-2.0-22.0-2.0-0.0","battery-v0.2","","""event"",""trial"",""time""
""fullscreenenter"",""1"",""1753""
","
","
","""event"",""trial"",""time""
""fullscreenenter"",""1"",""1753""
","
","","[{""page_index"":0,""viewing_time"":3349.3000000044703}]","3349.5","","","","","","","","","","","","","","","","","","","","","","","",""
"pit-comprehension","110","838061","0.0-2.0-22.1-0.1","battery-v0.2","","""event"",""trial"",""time""
""fullscreenenter"",""1"",""1753""
","
","
","""event"",""trial"",""time""
""fullscreenenter"",""1"",""1753""
","
","","","6630.29999999702","[""0""]","0","19","11171","4323","","","","","","","","","","","","","","","","","","",""
"pit-instructions","111","841794","0.0-2.0-22.1-1.1","battery-v0.2","","""event"",""trial"",""time""
""fullscreenenter"",""1"",""1753""
","
","
","""event"",""trial"",""time""
""fullscreenenter"",""1"",""1753""
","
","","[{""page_index"":0,""viewing_time"":3703.60000000149}]","3703.7999999970198","","","","","","","","","","","","","","","","","","","","","","","",""
"pit-comprehension","112","852112","0.0-2.0-23.0-0.0","battery-v0.2","","""event"",""trial"",""time""
""fullscreenenter"",""1"",""1753""
","
","
","""event"",""trial"",""time""
""fullscreenenter"",""1"",""1753""
","
","","","10315.19999999553","[""False""]","1","19","11171","4323","","","","","","","","","","","","","","","","","","",""
"pit-instructions","113","856461","0.0-2.0-23.0-1.0","battery-v0.2","","""event"",""trial"",""time""
""fullscreenenter"",""1"",""1753""
","
","
","""event"",""trial"",""time""
""fullscreenenter"",""1"",""1753""
","
","","[{""page_index"":0,""viewing_time"":4317.70000000298}]","4317.89999999851","","","","","","","","","","","","","","","","","","","","","","","",""
"pit-instructions","114","858160","0.0-2.0-23.0-2.0-0.0","battery-v0.2","","""event"",""trial"",""time""
""fullscreenenter"",""1"",""1753""
","
","
","""event"",""trial"",""time""
""fullscreenenter"",""1"",""1753""
","
","","[{""page_index"":0,""viewing_time"":1697.6999999955297}]","1698","","","","","","","","","","","","","","","","","","","","","","","",""
"pit-comprehension","115","867211","0.0-2.0-23.1-0.1","battery-v0.2","","""event"",""trial"",""time""
""fullscreenenter"",""1"",""1753""
","
","
","""event"",""trial"",""time""
""fullscreenenter"",""1"",""1753""
","
","","","9049.30000000447","[""True""]","0","19","11171","4323","","","","","","","","","","","","","","","","","","",""
"pit-instructions","116","869060","0.0-2.0-23.1-1.1","battery-v0.2","","""event"",""trial"",""time""
""fullscreenenter"",""1"",""1753""
","
","
","""event"",""trial"",""time""
""fullscreenenter"",""1"",""1753""
","
","","[{""page_index"":0,""viewing_time"":1816.3999999985099}]","1816.5999999940395","","","","","","","","","","","","","","","","","","","","","","","",""
"pit-comprehension","117","876678","0.0-2.0-24.0-0.0","battery-v0.2","","""event"",""trial"",""time""
""fullscreenenter"",""1"",""1753""
","
","
","""event"",""trial"",""time""
""fullscreenenter"",""1"",""1753""
","
","","","7616.5","[""True""]","0","19","11171","4323","","","","","","","","","","","","","","","","","","",""
"pit-instructions","118","878377","0.0-2.0-24.0-1.0","battery-v0.2","","""event"",""trial"",""time""
""fullscreenenter"",""1"",""1753""
","
","
","""event"",""trial"",""time""
""fullscreenenter"",""1"",""1753""
","
","","[{""page_index"":0,""viewing_time"":1664.6000000014901}]","1664.6999999955297","","","","","","","","","","","","","","","","","","","","","","","",""
"pit-comprehension","119","884911","0.0-2.0-25.0-0.0","battery-v0.2","","""event"",""trial"",""time""
""fullscreenenter"",""1"",""1753""
","
","
","""event"",""trial"",""time""
""fullscreenenter"",""1"",""1753""
","
","","","6531.79999999702","[""True""]","0","19","11171","4323","","","","","","","","","","","","","","","","","","",""
"pit-instructions","120","887060","0.0-2.0-25.0-1.0","battery-v0.2","","""event"",""trial"",""time""
""fullscreenenter"",""1"",""1753""
","
","
","""event"",""trial"",""time""
""fullscreenenter"",""1"",""1753""
","
","","[{""page_index"":0,""viewing_time"":2116.2000000029802}]","2116.5","","","","","","","","","","","","","","","","","","","","","","","",""
"pit-comprehension","121","892576","0.0-2.0-26.0-0.0","battery-v0.2","","""event"",""trial"",""time""
""fullscreenenter"",""1"",""1753""
","
","
","""event"",""trial"",""time""
""fullscreenenter"",""1"",""1753""
","
","","","5514.29999999702","[""False""]","0","19","11171","4323","","","","","","","","","","","","","","","","","","",""
"pit-instructions","122","894109","0.0-2.0-26.0-1.0","battery-v0.2","","""event"",""trial"",""time""
""fullscreenenter"",""1"",""1753""
","
","
","""event"",""trial"",""time""
""fullscreenenter"",""1"",""1753""
","
","","[{""page_index"":0,""viewing_time"":1499.7000000029802}]","1499.9000000059605","","","","","","","","","","","","","","","","","","","","","","","",""
"pit-instructions","123","910993","0.0-3.0","battery-v0.2","","""event"",""trial"",""time""
""fullscreenenter"",""1"",""1753""
","
","
","""event"",""trial"",""time""
""fullscreenenter"",""1"",""1753""
","
","","[{""page_index"":0,""viewing_time"":3966.2000000029802},{""page_index"":1,""viewing_time"":5683.5},{""page_index"":2,""viewing_time"":7232.89999999851}]","16882.89999999851","","","","","","","","","","","","","","","","","","","","","","","",""
"pit-trial","124","914532","0.0-4.0","battery-v0.2","","""event"",""trial"",""time""
""fullscreenenter"",""1"",""1753""
","
","
","""event"",""trial"",""time""
""fullscreenenter"",""1"",""1753""
","
","","","681.3000000044703","","","19","11171","4323","&#9733;","elianto","#3366ff99","-1"," ","0","0","[1533.8999999985099]","1","1","","","11171","1","2","2","win","no-go","0"
"pit-trial","125","918863","0.0-5.0","battery-v0.2","","""event"",""trial"",""time""
""fullscreenenter"",""1"",""1753""
","
","
","""event"",""trial"",""time""
""fullscreenenter"",""1"",""1753""
","
","","","1475.2000000029802","","","19","11171","4323","&#9752;","elianto","#f73b6a7A"," "," ","1","0","[2327.2999999970198]","1","1","","","11171","2","3","3","lose","go","0"
"pit-trial","126","922438","0.0-6.0","battery-v0.2","","""event"",""trial"",""time""
""fullscreenenter"",""1"",""1753""
","
","
","""event"",""trial"",""time""
""fullscreenenter"",""1"",""1753""
","
","","","716.3999999985099","","","19","11171","4323","&#9730;","elianto","#3366ff99"," "," ","1","0","[1568.7000000029802]","1","1","","","11171","3","1","1","win","go","1"
"pit-trial","127","926658","0.0-7.0","battery-v0.2","","""event"",""trial"",""time""
""fullscreenenter"",""1"",""1753""
","
","
","""event"",""trial"",""time""
""fullscreenenter"",""1"",""1753""
","
","","","1363.5","","","19","11171","4323","&#9728;","elianto","#f73b6a7A","-1"," ","0","-10","[2215.39999999851]","1","1","","","11171","4","0","4","lose","no-go","0"
"pit-trial","128","931518","0.0-8.0","battery-v0.2","","""event"",""trial"",""time""
""fullscreenenter"",""1"",""1753""
","
","
","""event"",""trial"",""time""
""fullscreenenter"",""1"",""1753""
","
","","","-1","","","19","11171","4323","&#9752;","elianto","#f73b6a7A"," ","-1","0","-10","[3028.2000000029802]","1","1","","","11171","5","3","3","lose","go","0"
"pit-trial","129","936379","0.0-9.0","battery-v0.2","","""event"",""trial"",""time""
""fullscreenenter"",""1"",""1753""
","
","
","""event"",""trial"",""time""
""fullscreenenter"",""1"",""1753""
","
","","","-1","","","19","11171","4323","&#9728;","elianto","#f73b6a7A","-1","-1","1","0","[]","0","1","","","11171","6","0","4","lose","no-go","0"
"pit-trial","130","940254","0.0-10.0","battery-v0.2","","""event"",""trial"",""time""
""fullscreenenter"",""1"",""1753""
","
","
","""event"",""trial"",""time""
""fullscreenenter"",""1"",""1753""
","
","","","1014.3999999985099","","","19","11171","4323","&#9733;","elianto","#3366ff99","-1"," ","0","0","[1867.7999999970198]","1","1","","","11171","7","2","2","win","no-go","0"
"pit-trial","131","945111","0.0-11.0","battery-v0.2","","""event"",""trial"",""time""
""fullscreenenter"",""1"",""1753""
","
","
","""event"",""trial"",""time""
""fullscreenenter"",""1"",""1753""
","
","","","-1","","","19","11171","4323","&#9730;","elianto","#3366ff99"," ","-1","0","+10","[]","0","1","","","11171","8","1","1","win","go","1"
"pit-trial","132","949971","0.0-12.0","battery-v0.2","","""event"",""trial"",""time""
""fullscreenenter"",""1"",""1753""
","
","
","""event"",""trial"",""time""
""fullscreenenter"",""1"",""1753""
","
","","","-1","","","19","11171","4323","&#9730;","elianto","#3366ff99"," ","-1","0","0","[]","0","1","","","11171","9","1","1","win","go","0"
"pit-trial","133","954506","0.0-13.0","battery-v0.2","","""event"",""trial"",""time""
""fullscreenenter"",""1"",""1753""
","
","
","""event"",""trial"",""time""
""fullscreenenter"",""1"",""1753""
","
","","","1677.1999999955297","","","19","11171","4323","&#9728;","elianto","#f73b6a7A","-1"," ","0","-10","[2528.6999999955297]","1","1","","","11171","10","0","4","lose","no-go","0"
"pit-trial","134","957427","0.0-14.0","battery-v0.2","","""event"",""trial"",""time""
""fullscreenenter"",""1"",""1753""
","
","
","""event"",""trial"",""time""
""fullscreenenter"",""1"",""1753""
","
","","","63.5","","","19","11171","4323","&#9752;","elianto","#f73b6a7A"," "," ","1","0","[915]","1","1","","","11171","11","3","3","lose","go","0"
"pit-trial","135","962286","0.0-15.0","battery-v0.2","","""event"",""trial"",""time""
""fullscreenenter"",""1"",""1753""
","
","
","""event"",""trial"",""time""
""fullscreenenter"",""1"",""1753""
","
","","","-1","","","19","11171","4323","&#9733;","elianto","#3366ff99","-1","-1","1","+10","[3096.5]","1","1","","","11171","12","2","2","win","no-go","0"
"pit-trial","136","966443","0.0-16.0","battery-v0.2","","""event"",""trial"",""time""
""fullscreenenter"",""1"",""1753""
","
","
","""event"",""trial"",""time""
""fullscreenenter"",""1"",""1753""
","
","","","1304.8999999985099","","","19","11171","4323","&#9730;","elianto","#3366ff99"," "," ","1","+10","[2155.89999999851]","1","1","","","11171","13","1","1","win","go","0"
"pit-trial","137","971304","0.0-17.0","battery-v0.2","","""event"",""trial"",""time""
""fullscreenenter"",""1"",""1753""
","
","
","""event"",""trial"",""time""
""fullscreenenter"",""1"",""1753""
","
","","","-1","","","19","11171","4323","&#9752;","elianto","#f73b6a7A"," ","-1","0","-10","[]","0","1","","","11171","14","3","3","lose","go","0"
"pit-trial","138","975421","0.0-18.0","battery-v0.2","","""event"",""trial"",""time""
""fullscreenenter"",""1"",""1753""
","
","
","""event"",""trial"",""time""
""fullscreenenter"",""1"",""1753""
","
","","","1260.4000000059605","","","19","11171","4323","&#9733;","elianto","#3366ff99","-1"," ","0","0","[710,2110.7000000029802]","2","1","","","11171","15","2","2","win","no-go","0"
"pit-trial","139","979878","0.0-19.0","battery-v0.2","","""event"",""trial"",""time""
""fullscreenenter"",""1"",""1753""
","
","
","""event"",""trial"",""time""
""fullscreenenter"",""1"",""1753""
","
","","","1599.3000000044703","","","19","11171","4323","&#9728;","elianto","#f73b6a7A","-1"," ","0","-10","[2450.2000000029802]","1","1","","","11171","16","0","4","lose","no-go","0"
"pit-trial","140","984738","0.0-20.0","battery-v0.2","","""event"",""trial"",""time""
""fullscreenenter"",""1"",""1753""
","
","
","""event"",""trial"",""time""
""fullscreenenter"",""1"",""1753""
","
","","","-1","","","19","11171","4323","&#9728;","elianto","#f73b6a7A","-1","-1","1","0","[]","0","1","","","11171","17","0","4","lose","no-go","0"
"pit-trial","141","989596","0.0-21.0","battery-v0.2","","""event"",""trial"",""time""
""fullscreenenter"",""1"",""1753""
","
","
","""event"",""trial"",""time""
""fullscreenenter"",""1"",""1753""
","
","","","-1","","","19","11171","4323","&#9730;","elianto","#3366ff99"," ","-1","0","0","[4850.69999999553]","1","1","","","11171","18","1","1","win","go","0"
"pit-trial","142","993042","0.0-22.0","battery-v0.2","","""event"",""trial"",""time""
""fullscreenenter"",""1"",""1753""
","
","
","""event"",""trial"",""time""
""fullscreenenter"",""1"",""1753""
","
","","","589.5","","","19","11171","4323","&#9733;","elianto","#3366ff99","-1"," ","0","0","[1440.8999999985099]","1","1","","","11171","19","2","2","win","no-go","0"
"pit-trial","143","997901","0.0-23.0","battery-v0.2","","""event"",""trial"",""time""
""fullscreenenter"",""1"",""1753""
","
","
","""event"",""trial"",""time""
""fullscreenenter"",""1"",""1753""
","
","","","-1","","","19","11171","4323","&#9752;","elianto","#f73b6a7A"," ","-1","0","-10","[2854.10000000149]","1","1","","","11171","20","3","3","lose","go","0"
"pit-instructions","144","1011240","0.0-24.0","battery-v0.2","","""event"",""trial"",""time""
""fullscreenenter"",""1"",""1753""
","
","
","""event"",""trial"",""time""
""fullscreenenter"",""1"",""1753""
","
","","[{""page_index"":0,""viewing_time"":5872.79999999702},{""page_index"":1,""viewing_time"":7466}]","13339.09999999404","","","","","","","","","","","","","","","","","","","","","","","",""
"pit-trial","145","1016103","0.0-25.0","battery-v0.2","","""event"",""trial"",""time""
""fullscreenenter"",""1"",""1753""
","
","
","""event"",""trial"",""time""
""fullscreenenter"",""1"",""1753""
","
","","","-1","","","19","11171","4323","m","elianto","#f73b6a7A","-1","-1","1","0","[]","0","2","","","11171","21","0","4","lose","no-go","0"
"pit-trial","146","1019975","0.0-26.0","battery-v0.2","","""event"",""trial"",""time""
""fullscreenenter"",""1"",""1753""
","
","
","""event"",""trial"",""time""
""fullscreenenter"",""1"",""1753""
","
","","","1020.5","","","19","11171","4323","r","elianto","#3366ff99"," "," ","1","+10","[1871.1000000014901]","1","2","","","11171","22","1","1","win","go","0"
"pit-trial","147","1024833","0.0-27.0","battery-v0.2","","""event"",""trial"",""time""
""fullscreenenter"",""1"",""1753""
","
","
","""event"",""trial"",""time""
""fullscreenenter"",""1"",""1753""
","
","","","-1","","","19","11171","4323","y","elianto","#f73b6a7A","-1","-1","1","0","[]","0","2","","","11171","23","2","4","lose","no-go","0"
"pit-trial","148","1029688","0.0-28.0","battery-v0.2","","""event"",""trial"",""time""
""fullscreenenter"",""1"",""1753""
","
","
","""event"",""trial"",""time""
""fullscreenenter"",""1"",""1753""
","
","","","-1","","","19","11171","4323","h","elianto","#f73b6a7A"," ","-1","0","-10","[]","0","2","","","11171","24","3","3","lose","go","0"
"pit-trial","149","1033544","0.0-29.0","battery-v0.2","","""event"",""trial"",""time""
""fullscreenenter"",""1"",""1753""
","
","
","""event"",""trial"",""time""
""fullscreenenter"",""1"",""1753""
","
","","","1002.1000000014901","","","19","11171","4323","m","elianto","#f73b6a7A","-1"," ","0","0","[1853.2999999970198]","1","2","","","11171","25","0","4","lose","no-go","1"
"pit-trial","150","1037914","0.0-30.0","battery-v0.2","","""event"",""trial"",""time""
""fullscreenenter"",""1"",""1753""
","
","
","""event"",""trial"",""time""
""fullscreenenter"",""1"",""1753""
","
","","","1515","","","19","11171","4323","r","elianto","#3366ff99"," "," ","1","+10","[2367.0999999940395]","1","2","","","11171","26","1","1","win","go","0"
"pit-trial","151","1042771","0.0-31.0","battery-v0.2","","""event"",""trial"",""time""
""fullscreenenter"",""1"",""1753""
","
","
","""event"",""trial"",""time""
""fullscreenenter"",""1"",""1753""
","
","","","-1","","","19","11171","4323","y","elianto","#f73b6a7A","-1","-1","1","0","[]","0","2","","","11171","27","2","4","lose","no-go","0"
"pit-trial","152","1046634","0.0-32.0","battery-v0.2","","""event"",""trial"",""time""
""fullscreenenter"",""1"",""1753""
","
","
","""event"",""trial"",""time""
""fullscreenenter"",""1"",""1753""
","
","","","1007.3000000044703","","","19","11171","4323","h","elianto","#f73b6a7A"," "," ","1","0","[1858.4000000059605]","1","2","","","11171","28","3","3","lose","go","0"
"pit-trial","153","1051211","0.0-33.0","battery-v0.2","","""event"",""trial"",""time""
""fullscreenenter"",""1"",""1753""
","
","
","""event"",""trial"",""time""
""fullscreenenter"",""1"",""1753""
","
","","","1719.7999999970198","","","19","11171","4323","h","elianto","#f73b6a7A"," "," ","1","-10","[2570.4000000059605]","1","2","","","11171","29","3","3","lose","go","1"
"pit-trial","154","1056070","0.0-34.0","battery-v0.2","","""event"",""trial"",""time""
""fullscreenenter"",""1"",""1753""
","
","
","""event"",""trial"",""time""
""fullscreenenter"",""1"",""1753""
","
","","","-1","","","19","11171","4323","m","elianto","#f73b6a7A","-1","-1","1","0","[]","0","2","","","11171","30","0","4","lose","no-go","0"
"pit-trial","155","1059656","0.0-35.0","battery-v0.2","","""event"",""trial"",""time""
""fullscreenenter"",""1"",""1753""
","
","
","""event"",""trial"",""time""
""fullscreenenter"",""1"",""1753""
","
","","","729.5999999940395","","","19","11171","4323","r","elianto","#3366ff99"," "," ","1","+10","[1581.3999999985099]","1","2","","","11171","31","1","1","win","go","0"
"pit-trial","156","1064515","0.0-36.0","battery-v0.2","","""event"",""trial"",""time""
""fullscreenenter"",""1"",""1753""
","
","
","""event"",""trial"",""time""
""fullscreenenter"",""1"",""1753""
","
","","","-1","","","19","11171","4323","y","elianto","#f73b6a7A","-1","-1","1","0","[]","0","2","","","11171","32","2","4","lose","no-go","0"
"pit-trial","157","1069373","0.0-37.0","battery-v0.2","","""event"",""trial"",""time""
""fullscreenenter"",""1"",""1753""
","
","
","""event"",""trial"",""time""
""fullscreenenter"",""1"",""1753""
","
","","","-1","","","19","11171","4323","y","elianto","#f73b6a7A","-1","-1","1","0","[]","0","2","","","11171","33","2","4","lose","no-go","0"
"pit-trial","158","1074234","0.0-38.0","battery-v0.2","","""event"",""trial"",""time""
""fullscreenenter"",""1"",""1753""
","
","
","""event"",""trial"",""time""
""fullscreenenter"",""1"",""1753""
","
","","","-1","","","19","11171","4323","m","elianto","#f73b6a7A","-1","-1","1","0","[]","0","2","","","11171","34","0","4","lose","no-go","0"
"pit-trial","159","1079096","0.0-39.0","battery-v0.2","","""event"",""trial"",""time""
""fullscreenenter"",""1"",""1753""
","
","
","""event"",""trial"",""time""
""fullscreenenter"",""1"",""1753""
","
","","","-1","","","19","11171","4323","r","elianto","#3366ff99"," ","-1","0","+10","[]","0","2","","","11171","35","1","1","win","go","1"
"pit-trial","160","1083287","0.0-40.0","battery-v0.2","","""event"",""trial"",""time""
""fullscreenenter"",""1"",""1753""
","
","
","""event"",""trial"",""time""
""fullscreenenter"",""1"",""1753""
","
","","","1333","","","19","11171","4323","h","elianto","#f73b6a7A"," "," ","1","-10","[2184.60000000149]","1","2","","","11171","36","3","3","lose","go","1"
"pit-trial","161","1088146","0.0-41.0","battery-v0.2","","""event"",""trial"",""time""
""fullscreenenter"",""1"",""1753""
","
","
","""event"",""trial"",""time""
""fullscreenenter"",""1"",""1753""
","
","","","-1","","","19","11171","4323","y","elianto","#f73b6a7A","-1","-1","1","0","[]","0","2","","","11171","37","2","4","lose","no-go","0"
"pit-trial","162","1093007","0.0-42.0","battery-v0.2","","""event"",""trial"",""time""
""fullscreenenter"",""1"",""1753""
","
","
","""event"",""trial"",""time""
""fullscreenenter"",""1"",""1753""
","
","","","-1","","","19","11171","4323","h","elianto","#f73b6a7A"," ","-1","0","-10","[]","0","2","","","11171","38","3","3","lose","go","0"
"pit-trial","163","1096614","0.0-43.0","battery-v0.2","","""event"",""trial"",""time""
""fullscreenenter"",""1"",""1753""
","
","
","""event"",""trial"",""time""
""fullscreenenter"",""1"",""1753""
","
","","","749.7000000029802","","","19","11171","4323","r","elianto","#3366ff99"," "," ","1","0","[1601.9000000059605]","1","2","","","11171","39","1","1","win","go","1"
"pit-trial","164","1101477","0.0-44.0","battery-v0.2","","""event"",""trial"",""time""
""fullscreenenter"",""1"",""1753""
","
","
","""event"",""trial"",""time""
""fullscreenenter"",""1"",""1753""
","
","","","-1","","","19","11171","4323","m","elianto","#f73b6a7A","-1","-1","1","0","[]","0","2","","","11171","40","0","4","lose","no-go","0"
"pit-trial","165","1106338","0.0-45.0","battery-v0.2","","""event"",""trial"",""time""
""fullscreenenter"",""1"",""1753""
","
","
","""event"",""trial"",""time""
""fullscreenenter"",""1"",""1753""
","
","","","-1","","","19","11171","4323","m","elianto","#f73b6a7A","-1","-1","1","0","[]","0","2","","","11171","41","0","4","lose","no-go","0"
"pit-trial","166","1110134","0.0-46.0","battery-v0.2","","""event"",""trial"",""time""
""fullscreenenter"",""1"",""1753""
","
","
","""event"",""trial"",""time""
""fullscreenenter"",""1"",""1753""
","
","","","938.6000000014901","","","19","11171","4323","r","elianto","#3366ff99"," "," ","1","+10","[1790.7999999970198]","1","2","","","11171","42","1","1","win","go","0"
"pit-trial","167","1114992","0.0-47.0","battery-v0.2","","""event"",""trial"",""time""
""fullscreenenter"",""1"",""1753""
","
","
","""event"",""trial"",""time""
""fullscreenenter"",""1"",""1753""
","
","","","-1","","","19","11171","4323","y","elianto","#f73b6a7A","-1","-1","1","0","[]","0","2","","","11171","43","2","4","lose","no-go","0"
"pit-trial","168","1119852","0.0-48.0","battery-v0.2","","""event"",""trial"",""time""
""fullscreenenter"",""1"",""1753""
","
","
","""event"",""trial"",""time""
""fullscreenenter"",""1"",""1753""
","
","","","-1","","","19","11171","4323","h","elianto","#f73b6a7A"," ","-1","0","-10","[]","0","2","","","11171","44","3","3","lose","go","0"
"pit-trial","169","1124711","0.0-49.0","battery-v0.2","","""event"",""trial"",""time""
""fullscreenenter"",""1"",""1753""
","
","
","""event"",""trial"",""time""
""fullscreenenter"",""1"",""1753""
","
","","","-1","","","19","11171","4323","m","elianto","#f73b6a7A","-1","-1","1","-10","[]","0","2","","","11171","45","0","4","lose","no-go","1"
"pit-trial","170","1129572","0.0-50.0","battery-v0.2","","""event"",""trial"",""time""
""fullscreenenter"",""1"",""1753""
","
","
","""event"",""trial"",""time""
""fullscreenenter"",""1"",""1753""
","
","","","-1","","","19","11171","4323","y","elianto","#f73b6a7A","-1","-1","1","0","[]","0","2","","","11171","46","2","4","lose","no-go","0"
"pit-trial","171","1133219","0.0-51.0","battery-v0.2","","""event"",""trial"",""time""
""fullscreenenter"",""1"",""1753""
","
","
","""event"",""trial"",""time""
""fullscreenenter"",""1"",""1753""
","
","","","791.1000000014901","","","19","11171","4323","z","elianto","#3366ff99","-1"," ","0","0","[1642.8999999985099]","1","2","","","11171","47","4","2","win","no-go","0"
"pit-trial","172","1138081","0.0-52.0","battery-v0.2","","""event"",""trial"",""time""
""fullscreenenter"",""1"",""1753""
","
","
","""event"",""trial"",""time""
""fullscreenenter"",""1"",""1753""
","
","","","-1","","","19","11171","4323","h","elianto","#f73b6a7A"," ","-1","0","-10","[]","0","2","","","11171","48","3","3","lose","go","0"
"pit-trial","173","1142942","0.0-53.0","battery-v0.2","","""event"",""trial"",""time""
""fullscreenenter"",""1"",""1753""
","
","
","""event"",""trial"",""time""
""fullscreenenter"",""1"",""1753""
","
","","","-1","","","19","11171","4323","m","elianto","#f73b6a7A","-1","-1","1","0","[]","0","2","","","11171","49","0","4","lose","no-go","0"
"pit-trial","174","1146558","0.0-54.0","battery-v0.2","","""event"",""trial"",""time""
""fullscreenenter"",""1"",""1753""
","
","
","""event"",""trial"",""time""
""fullscreenenter"",""1"",""1753""
","
","","","757.5","","","19","11171","4323","r","elianto","#3366ff99"," "," ","1","0","[1609.2999999970198]","1","2","","","11171","50","1","1","win","go","1"
"pit-trial","175","1151419","0.0-55.0","battery-v0.2","","""event"",""trial"",""time""
""fullscreenenter"",""1"",""1753""
","
","
","""event"",""trial"",""time""
""fullscreenenter"",""1"",""1753""
","
","","","-1","","","19","11171","4323","h","elianto","#f73b6a7A"," ","-1","0","-10","[]","0","2","","","11171","51","3","3","lose","go","0"
"pit-trial","176","1155083","0.0-56.0","battery-v0.2","","""event"",""trial"",""time""
""fullscreenenter"",""1"",""1753""
","
","
","""event"",""trial"",""time""
""fullscreenenter"",""1"",""1753""
","
","","","807.9000000059605","","","19","11171","4323","z","elianto","#3366ff99","-1"," ","0","+10","[1658.9000000059605]","1","2","","","11171","52","4","2","win","no-go","1"
"pit-trial","177","1158643","0.0-57.0","battery-v0.2","","""event"",""trial"",""time""
""fullscreenenter"",""1"",""1753""
","
","
","""event"",""trial"",""time""
""fullscreenenter"",""1"",""1753""
","
","","","703.2000000029802","","","19","11171","4323","r","elianto","#3366ff99"," "," ","1","+10","[1553.3999999985099]","1","2","","","11171","53","1","1","win","go","0"
"pit-trial","178","1162334","0.0-58.0","battery-v0.2","","""event"",""trial"",""time""
""fullscreenenter"",""1"",""1753""
","
","
","""event"",""trial"",""time""
""fullscreenenter"",""1"",""1753""
","
","","","833.7000000029802","","","19","11171","4323","z","elianto","#3366ff99","-1"," ","0","+10","[1685.5]","1","2","","","11171","54","4","2","win","no-go","1"
"pit-trial","179","1166166","0.0-59.0","battery-v0.2","","""event"",""trial"",""time""
""fullscreenenter"",""1"",""1753""
","
","
","""event"",""trial"",""time""
""fullscreenenter"",""1"",""1753""
","
","","","974.8999999985099","","","19","11171","4323","y","elianto","#f73b6a7A","-1"," ","0","-10","[1825.3999999985099]","1","2","","","11171","55","2","4","lose","no-go","0"
"pit-trial","180","1170453","0.0-60.0","battery-v0.2","","""event"",""trial"",""time""
""fullscreenenter"",""1"",""1753""
","
","
","""event"",""trial"",""time""
""fullscreenenter"",""1"",""1753""
","
","","","1431.6999999955297","","","19","11171","4323","m","elianto","#f73b6a7A","-1"," ","0","-10","[2283.10000000149]","1","2","","","11171","56","0","4","lose","no-go","0"
"pit-trial","181","1174392","0.0-61.0","battery-v0.2","","""event"",""trial"",""time""
""fullscreenenter"",""1"",""1753""
","
","
","""event"",""trial"",""time""
""fullscreenenter"",""1"",""1753""
","
","","","1079","","","19","11171","4323","r","elianto","#3366ff99"," "," ","1","+10","[1931.2999999970198]","1","2","","","11171","57","1","1","win","go","0"
"pit-trial","182","1178506","0.0-62.0","battery-v0.2","","""event"",""trial"",""time""
""fullscreenenter"",""1"",""1753""
","
","
","""event"",""trial"",""time""
""fullscreenenter"",""1"",""1753""
","
","","","1257.2999999970198","","","19","11171","4323","h","elianto","#f73b6a7A"," "," ","1","0","[2108.60000000149]","1","2","","","11171","58","3","3","lose","go","0"
"pit-trial","183","1183368","0.0-63.0","battery-v0.2","","""event"",""trial"",""time""
""fullscreenenter"",""1"",""1753""
","
","
","""event"",""trial"",""time""
""fullscreenenter"",""1"",""1753""
","
","","","-1","","","19","11171","4323","m","elianto","#f73b6a7A","-1","-1","1","0","[]","0","2","","","11171","59","0","4","lose","no-go","0"
"pit-trial","184","1187024","0.0-64.0","battery-v0.2","","""event"",""trial"",""time""
""fullscreenenter"",""1"",""1753""
","
","
","""event"",""trial"",""time""
""fullscreenenter"",""1"",""1753""
","
","","","797.8999999985099","","","19","11171","4323","z","elianto","#3366ff99","-1"," ","0","0","[1649]","1","2","","","11171","60","4","2","win","no-go","0"
"pit-trial","185","1191706","0.0-65.0","battery-v0.2","","""event"",""trial"",""time""
""fullscreenenter"",""1"",""1753""
","
","
","""event"",""trial"",""time""
""fullscreenenter"",""1"",""1753""
","
","","","1824.2999999970198","","","19","11171","4323","y","elianto","#f73b6a7A","-1"," ","0","0","[2676.5]","1","2","","","11171","61","2","4","lose","no-go","1"
"pit-trial","186","1196568","0.0-66.0","battery-v0.2","","""event"",""trial"",""time""
""fullscreenenter"",""1"",""1753""
","
","
","""event"",""trial"",""time""
""fullscreenenter"",""1"",""1753""
","
","","","-1","","","19","11171","4323","h","elianto","#f73b6a7A"," ","-1","0","-10","[]","0","2","","","11171","62","3","3","lose","go","0"
"pit-trial","187","1200530","0.0-67.0","battery-v0.2","","""event"",""trial"",""time""
""fullscreenenter"",""1"",""1753""
","
","
","""event"",""trial"",""time""
""fullscreenenter"",""1"",""1753""
","
","","","1106","","","19","11171","4323","z","elianto","#3366ff99","-1"," ","0","+10","[1957.3000000044703]","1","2","","","11171","63","4","2","win","no-go","1"
"pit-trial","188","1203443","0.0-68.0","battery-v0.2","","""event"",""trial"",""time""
""fullscreenenter"",""1"",""1753""
","
","
","""event"",""trial"",""time""
""fullscreenenter"",""1"",""1753""
","
","","","56.19999999552965","","","19","11171","4323","r","elianto","#3366ff99"," "," ","1","+10","[906.6999999955297]","1","2","","","11171","64","1","1","win","go","0"
"pit-trial","189","1208301","0.0-69.0","battery-v0.2","","""event"",""trial"",""time""
""fullscreenenter"",""1"",""1753""
","
","
","""event"",""trial"",""time""
""fullscreenenter"",""1"",""1753""
","
","","","-1","","","19","11171","4323","y","elianto","#f73b6a7A","-1","-1","1","0","[]","0","2","","","11171","65","2","4","lose","no-go","0"
"pit-trial","190","1213162","0.0-70.0","battery-v0.2","","""event"",""trial"",""time""
""fullscreenenter"",""1"",""1753""
","
","
","""event"",""trial"",""time""
""fullscreenenter"",""1"",""1753""
","
","","","-1","","","19","11171","4323","r","elianto","#3366ff99"," ","-1","0","0","[]","0","2","","","11171","66","1","1","win","go","0"
"pit-trial","191","1217522","0.0-71.0","battery-v0.2","","""event"",""trial"",""time""
""fullscreenenter"",""1"",""1753""
","
","
","""event"",""trial"",""time""
""fullscreenenter"",""1"",""1753""
","
","","","1505.2000000029802","","","19","11171","4323","z","elianto","#3366ff99","-1"," ","0","0","[2356.3000000044703,3432.7000000029802,3552.3000000044703]","3","2","","","11171","67","4","2","win","no-go","0"
"pit-trial","192","1222378","0.0-72.0","battery-v0.2","","""event"",""trial"",""time""
""fullscreenenter"",""1"",""1753""
","
","
","""event"",""trial"",""time""
""fullscreenenter"",""1"",""1753""
","
","","","-1","","","19","11171","4323","h","elianto","#f73b6a7A"," ","-1","0","-10","[2851.5]","1","2","","","11171","68","3","3","lose","go","0"
"pit-trial","193","1226700","0.0-73.0","battery-v0.2","","""event"",""trial"",""time""
""fullscreenenter"",""1"",""1753""
","
","
","""event"",""trial"",""time""
""fullscreenenter"",""1"",""1753""
","
","","","1464.7999999970198","","","19","11171","4323","h","elianto","#f73b6a7A"," "," ","1","0","[2315.7999999970198]","1","2","","","11171","69","3","3","lose","go","0"
"pit-trial","194","1229936","0.0-74.0","battery-v0.2","","""event"",""trial"",""time""
""fullscreenenter"",""1"",""1753""
","
","
","""event"",""trial"",""time""
""fullscreenenter"",""1"",""1753""
","
","","","377.80000000447035","","","19","11171","4323","z","elianto","#3366ff99","-1"," ","0","0","[1228.5]","1","2","","","11171","70","4","2","win","no-go","0"
"pit-trial","195","1233598","0.0-75.0","battery-v0.2","","""event"",""trial"",""time""
""fullscreenenter"",""1"",""1753""
","
","
","""event"",""trial"",""time""
""fullscreenenter"",""1"",""1753""
","
","","","804.0999999940395","","","19","11171","4323","r","elianto","#3366ff99"," "," ","1","+10","[1656.2999999970198]","1","2","","","11171","71","1","1","win","go","0"
"pit-trial","196","1238460","0.0-76.0","battery-v0.2","","""event"",""trial"",""time""
""fullscreenenter"",""1"",""1753""
","
","
","""event"",""trial"",""time""
""fullscreenenter"",""1"",""1753""
","
","","","-1","","","19","11171","4323","c","elianto","#3366ff99"," ","-1","0","0","[]","0","2","","","11171","72","5","1","win","go","0"
"pit-trial","197","1242378","0.0-77.0","battery-v0.2","","""event"",""trial"",""time""
""fullscreenenter"",""1"",""1753""
","
","
","""event"",""trial"",""time""
""fullscreenenter"",""1"",""1753""
","
","","","1063.1999999955297","","","19","11171","4323","r","elianto","#3366ff99"," "," ","1","+10","[1915.2999999970198]","1","2","","","11171","73","1","1","win","go","0"
"pit-trial","198","1246096","0.0-78.0","battery-v0.2","","""event"",""trial"",""time""
""fullscreenenter"",""1"",""1753""
","
","
","""event"",""trial"",""time""
""fullscreenenter"",""1"",""1753""
","
","","","863.5","","","19","11171","4323","h","elianto","#f73b6a7A"," "," ","1","0","[1715.2000000029802]","1","2","","","11171","74","3","3","lose","go","0"
"pit-trial","199","1250958","0.0-79.0","battery-v0.2","","""event"",""trial"",""time""
""fullscreenenter"",""1"",""1753""
","
","
","""event"",""trial"",""time""
""fullscreenenter"",""1"",""1753""
","
","","","-1","","","19","11171","4323","z","elianto","#3366ff99","-1","-1","1","+10","[]","0","2","","","11171","75","4","2","win","no-go","0"
"pit-trial","200","1255819","0.0-80.0","battery-v0.2","","""event"",""trial"",""time""
""fullscreenenter"",""1"",""1753""
","
","
","""event"",""trial"",""time""
""fullscreenenter"",""1"",""1753""
","
","","","-1","","","19","11171","4323","c","elianto","#3366ff99"," ","-1","0","0","[]","0","2","","","11171","76","5","1","win","go","0"
"pit-trial","201","1259472","0.0-81.0","battery-v0.2","","""event"",""trial"",""time""
""fullscreenenter"",""1"",""1753""
","
","
","""event"",""trial"",""time""
""fullscreenenter"",""1"",""1753""
","
","","","796.5","","","19","11171","4323","z","elianto","#3366ff99","-1"," ","0","0","[1648.5]","1","2","","","11171","77","4","2","win","no-go","0"
"pit-trial","202","1264334","0.0-82.0","battery-v0.2","","""event"",""trial"",""time""
""fullscreenenter"",""1"",""1753""
","
","
","""event"",""trial"",""time""
""fullscreenenter"",""1"",""1753""
","
","","","-1","","","19","11171","4323","b","elianto","#f73b6a7A","-1","-1","1","0","[]","0","2","","","11171","78","6","4","lose","no-go","0"
"pit-trial","203","1269195","0.0-83.0","battery-v0.2","","""event"",""trial"",""time""
""fullscreenenter"",""1"",""1753""
","
","
","""event"",""trial"",""time""
""fullscreenenter"",""1"",""1753""
","
","","","-1","","","19","11171","4323","h","elianto","#f73b6a7A"," ","-1","0","-10","[3064.7000000029802]","1","2","","","11171","79","3","3","lose","go","0"
"pit-trial","204","1274054","0.0-84.0","battery-v0.2","","""event"",""trial"",""time""
""fullscreenenter"",""1"",""1753""
","
","
","""event"",""trial"",""time""
""fullscreenenter"",""1"",""1753""
","
","","","-1","","","19","11171","4323","c","elianto","#3366ff99"," ","-1","0","0","[4781.69999999553]","1","2","","","11171","80","5","1","win","go","0"
"pit-trial","205","1278914","0.0-85.0","battery-v0.2","","""event"",""trial"",""time""
""fullscreenenter"",""1"",""1753""
","
","
","""event"",""trial"",""time""
""fullscreenenter"",""1"",""1753""
","
","","","-1","","","19","11171","4323","t","elianto","#f73b6a7A"," ","-1","0","-10","[]","0","2","","","11171","81","7","3","lose","go","0"
"pit-trial","206","1283773","0.0-86.0","battery-v0.2","","""event"",""trial"",""time""
""fullscreenenter"",""1"",""1753""
","
","
","""event"",""trial"",""time""
""fullscreenenter"",""1"",""1753""
","
","","","-1","","","19","11171","4323","c","elianto","#3366ff99"," ","-1","0","+10","[]","0","2","","","11171","82","5","1","win","go","1"
"pit-trial","207","1288634","0.0-87.0","battery-v0.2","","""event"",""trial"",""time""
""fullscreenenter"",""1"",""1753""
","
","
","""event"",""trial"",""time""
""fullscreenenter"",""1"",""1753""
","
","","","-1","","","19","11171","4323","b","elianto","#f73b6a7A","-1","-1","1","0","[]","0","2","","","11171","83","6","4","lose","no-go","0"
"pit-trial","208","1293496","0.0-88.0","battery-v0.2","","""event"",""trial"",""time""
""fullscreenenter"",""1"",""1753""
","
","
","""event"",""trial"",""time""
""fullscreenenter"",""1"",""1753""
","
","","","-1","","","19","11171","4323","z","elianto","#3366ff99","-1","-1","1","0","[]","0","2","","","11171","84","4","2","win","no-go","1"
"pit-trial","209","1298354","0.0-89.0","battery-v0.2","","""event"",""trial"",""time""
""fullscreenenter"",""1"",""1753""
","
","
","""event"",""trial"",""time""
""fullscreenenter"",""1"",""1753""
","
","","","-1","","","19","11171","4323","b","elianto","#f73b6a7A","-1","-1","1","0","[]","0","2","","","11171","85","6","4","lose","no-go","0"
"pit-trial","210","1303213","0.0-90.0","battery-v0.2","","""event"",""trial"",""time""
""fullscreenenter"",""1"",""1753""
","
","
","""event"",""trial"",""time""
""fullscreenenter"",""1"",""1753""
","
","","","-1","","","19","11171","4323","t","elianto","#f73b6a7A"," ","-1","0","-10","[]","0","2","","","11171","86","7","3","lose","go","0"
"pit-trial","211","1308070","0.0-91.0","battery-v0.2","","""event"",""trial"",""time""
""fullscreenenter"",""1"",""1753""
","
","
","""event"",""trial"",""time""
""fullscreenenter"",""1"",""1753""
","
","","","-1","","","19","11171","4323","c","elianto","#3366ff99"," ","-1","0","+10","[]","0","2","","","11171","87","5","1","win","go","1"
"pit-trial","212","1312479","0.0-92.0","battery-v0.2","","""event"",""trial"",""time""
""fullscreenenter"",""1"",""1753""
","
","
","""event"",""trial"",""time""
""fullscreenenter"",""1"",""1753""
","
","","","1552.6000000014901","","","19","11171","4323","z","elianto","#3366ff99","-1"," ","0","0","[2403.2999999970198]","1","2","","","11171","88","4","2","win","no-go","0"
"pit-trial","213","1317340","0.0-93.0","battery-v0.2","","""event"",""trial"",""time""
""fullscreenenter"",""1"",""1753""
","
","
","""event"",""trial"",""time""
""fullscreenenter"",""1"",""1753""
","
","","","-1","","","19","11171","4323","b","elianto","#f73b6a7A","-1","-1","1","-10","[]","0","2","","","11171","89","6","4","lose","no-go","1"
"pit-trial","214","1322198","0.0-94.0","battery-v0.2","","""event"",""trial"",""time""
""fullscreenenter"",""1"",""1753""
","
","
","""event"",""trial"",""time""
""fullscreenenter"",""1"",""1753""
","
","","","-1","","","19","11171","4323","t","elianto","#f73b6a7A"," ","-1","0","-10","[]","0","2","","","11171","90","7","3","lose","go","0"
"pit-trial","215","1327058","0.0-95.0","battery-v0.2","","""event"",""trial"",""time""
""fullscreenenter"",""1"",""1753""
","
","
","""event"",""trial"",""time""
""fullscreenenter"",""1"",""1753""
","
","","","-1","","","19","11171","4323","z","elianto","#3366ff99","-1","-1","1","+10","[]","0","2","","","11171","91","4","2","win","no-go","0"
"pit-trial","216","1331919","0.0-96.0","battery-v0.2","","""event"",""trial"",""time""
""fullscreenenter"",""1"",""1753""
","
","
","""event"",""trial"",""time""
""fullscreenenter"",""1"",""1753""
","
","","","-1","","","19","11171","4323","c","elianto","#3366ff99"," ","-1","0","0","[]","0","2","","","11171","92","5","1","win","go","0"
"pit-trial","217","1336777","0.0-97.0","battery-v0.2","","""event"",""trial"",""time""
""fullscreenenter"",""1"",""1753""
","
","
","""event"",""trial"",""time""
""fullscreenenter"",""1"",""1753""
","
","","","-1","","","19","11171","4323","c","elianto","#3366ff99"," ","-1","0","0","[4594.39999999851]","1","2","","","11171","93","5","1","win","go","0"
"pit-trial","218","1341637","0.0-98.0","battery-v0.2","","""event"",""trial"",""time""
""fullscreenenter"",""1"",""1753""
","
","
","""event"",""trial"",""time""
""fullscreenenter"",""1"",""1753""
","
","","","-1","","","19","11171","4323","b","elianto","#f73b6a7A","-1","-1","1","-10","[]","0","2","","","11171","94","6","4","lose","no-go","1"
"pit-trial","219","1345460","0.0-99.0","battery-v0.2","","""event"",""trial"",""time""
""fullscreenenter"",""1"",""1753""
","
","
","""event"",""trial"",""time""
""fullscreenenter"",""1"",""1753""
","
","","","965.1000000014901","","","19","11171","4323","t","elianto","#f73b6a7A"," "," ","1","-10","[1816.1999999955297]","1","2","","","11171","95","7","3","lose","go","1"
"pit-trial","220","1350321","0.0-100.0","battery-v0.2","","""event"",""trial"",""time""
""fullscreenenter"",""1"",""1753""
","
","
","""event"",""trial"",""time""
""fullscreenenter"",""1"",""1753""
","
","","","-1","","","19","11171","4323","f","elianto","#3366ff99","-1","-1","1","+10","[2993.2000000029802]","1","2","","","11171","96","8","2","win","no-go","0"
"pit-trial","221","1355182","0.0-101.0","battery-v0.2","","""event"",""trial"",""time""
""fullscreenenter"",""1"",""1753""
","
","
","""event"",""trial"",""time""
""fullscreenenter"",""1"",""1753""
","
","","","-1","","","19","11171","4323","f","elianto","#3366ff99","-1","-1","1","0","[]","0","2","","","11171","97","8","2","win","no-go","1"
"pit-trial","222","1360041","0.0-102.0","battery-v0.2","","""event"",""trial"",""time""
""fullscreenenter"",""1"",""1753""
","
","
","""event"",""trial"",""time""
""fullscreenenter"",""1"",""1753""
","
","","","-1","","","19","11171","4323","t","elianto","#f73b6a7A"," ","-1","0","-10","[3637.2999999970198]","1","2","","","11171","98","7","3","lose","go","0"
"pit-trial","223","1364899","0.0-103.0","battery-v0.2","","""event"",""trial"",""time""
""fullscreenenter"",""1"",""1753""
","
","
","""event"",""trial"",""time""
""fullscreenenter"",""1"",""1753""
","
","","","-1","","","19","11171","4323","b","elianto","#f73b6a7A","-1","-1","1","-10","[3906.39999999851]","1","2","","","11171","99","6","4","lose","no-go","1"
"pit-trial","224","1368859","0.0-104.0","battery-v0.2","","""event"",""trial"",""time""
""fullscreenenter"",""1"",""1753""
","
","
","""event"",""trial"",""time""
""fullscreenenter"",""1"",""1753""
","
","","","1102.3999999985099","","","19","11171","4323","c","elianto","#3366ff99"," "," ","1","+10","[1954.1999999955297]","1","2","","","11171","100","5","1","win","go","0"
"pit-trial","225","1373720","0.0-105.0","battery-v0.2","","""event"",""trial"",""time""
""fullscreenenter"",""1"",""1753""
","
","
","""event"",""trial"",""time""
""fullscreenenter"",""1"",""1753""
","
","","","-1","","","19","11171","4323","f","elianto","#3366ff99","-1","-1","1","+10","[]","0","2","","","11171","101","8","2","win","no-go","0"
"pit-trial","226","1378581","0.0-106.0","battery-v0.2","","""event"",""trial"",""time""
""fullscreenenter"",""1"",""1753""
","
","
","""event"",""trial"",""time""
""fullscreenenter"",""1"",""1753""
","
","","","-1","","","19","11171","4323","n","elianto","#3366ff99","-1","-1","1","+10","[]","0","2","","","11171","102","9","2","win","no-go","0"
"pit-trial","227","1383443","0.0-107.0","battery-v0.2","","""event"",""trial"",""time""
""fullscreenenter"",""1"",""1753""
","
","
","""event"",""trial"",""time""
""fullscreenenter"",""1"",""1753""
","
","","","-1","","","19","11171","4323","b","elianto","#f73b6a7A","-1","-1","1","-10","[]","0","2","","","11171","103","6","4","lose","no-go","1"
"pit-trial","228","1388301","0.0-108.0","battery-v0.2","","""event"",""trial"",""time""
""fullscreenenter"",""1"",""1753""
","
","
","""event"",""trial"",""time""
""fullscreenenter"",""1"",""1753""
","
","","","-1","","","19","11171","4323","c","elianto","#3366ff99"," ","-1","0","0","[]","0","2","","","11171","104","5","1","win","go","0"
"pit-trial","229","1393162","0.0-109.0","battery-v0.2","","""event"",""trial"",""time""
""fullscreenenter"",""1"",""1753""
","
","
","""event"",""trial"",""time""
""fullscreenenter"",""1"",""1753""
","
","","","-1","","","19","11171","4323","n","elianto","#3366ff99","-1","-1","1","+10","[]","0","2","","","11171","105","9","2","win","no-go","0"
"pit-trial","230","1398017","0.0-110.0","battery-v0.2","","""event"",""trial"",""time""
""fullscreenenter"",""1"",""1753""
","
","
","""event"",""trial"",""time""
""fullscreenenter"",""1"",""1753""
","
","","","-1","","","19","11171","4323","b","elianto","#f73b6a7A","-1","-1","1","0","[]","0","2","","","11171","106","6","4","lose","no-go","0"
"pit-trial","231","1402879","0.0-111.0","battery-v0.2","","""event"",""trial"",""time""
""fullscreenenter"",""1"",""1753""
","
","
","""event"",""trial"",""time""
""fullscreenenter"",""1"",""1753""
","
","","","-1","","","19","11171","4323","c","elianto","#3366ff99"," ","-1","0","0","[]","0","2","","","11171","107","5","1","win","go","0"
"pit-trial","232","1407741","0.0-112.0","battery-v0.2","","""event"",""trial"",""time""
""fullscreenenter"",""1"",""1753""
","
","
","""event"",""trial"",""time""
""fullscreenenter"",""1"",""1753""
","
","","","-1","","","19","11171","4323","f","elianto","#3366ff99","-1","-1","1","+10","[]","0","2","","","11171","108","8","2","win","no-go","0"
"pit-trial","233","1412599","0.0-113.0","battery-v0.2","","""event"",""trial"",""time""
""fullscreenenter"",""1"",""1753""
","
","
","""event"",""trial"",""time""
""fullscreenenter"",""1"",""1753""
","
","","","-1","","","19","11171","4323","b","elianto","#f73b6a7A","-1","-1","1","0","[]","0","2","","","11171","109","6","4","lose","no-go","0"
"pit-trial","234","1417460","0.0-114.0","battery-v0.2","","""event"",""trial"",""time""
""fullscreenenter"",""1"",""1753""
","
","
","""event"",""trial"",""time""
""fullscreenenter"",""1"",""1753""
","
","","","-1","","","19","11171","4323","f","elianto","#3366ff99","-1","-1","1","0","[]","0","2","","","11171","110","8","2","win","no-go","1"
"pit-trial","235","1422321","0.0-115.0","battery-v0.2","","""event"",""trial"",""time""
""fullscreenenter"",""1"",""1753""
","
","
","""event"",""trial"",""time""
""fullscreenenter"",""1"",""1753""
","
","","","-1","","","19","11171","4323","c","elianto","#3366ff99"," ","-1","0","0","[]","0","2","","","11171","111","5","1","win","go","0"
"pit-trial","236","1427183","0.0-116.0","battery-v0.2","","""event"",""trial"",""time""
""fullscreenenter"",""1"",""1753""
","
","
","""event"",""trial"",""time""
""fullscreenenter"",""1"",""1753""
","
","","","-1","","","19","11171","4323","n","elianto","#3366ff99","-1","-1","1","+10","[]","0","2","","","11171","112","9","2","win","no-go","0"
"pit-trial","237","1432041","0.0-117.0","battery-v0.2","","""event"",""trial"",""time""
""fullscreenenter"",""1"",""1753""
","
","
","""event"",""trial"",""time""
""fullscreenenter"",""1"",""1753""
","
","","","-1","","","19","11171","4323","n","elianto","#3366ff99","-1","-1","1","+10","[]","0","2","","","11171","113","9","2","win","no-go","0"
"pit-trial","238","1436903","0.0-118.0","battery-v0.2","","""event"",""trial"",""time""
""fullscreenenter"",""1"",""1753""
","
","
","""event"",""trial"",""time""
""fullscreenenter"",""1"",""1753""
","
","","","-1","","","19","11171","4323","f","elianto","#3366ff99","-1","-1","1","+10","[]","0","2","","","11171","114","8","2","win","no-go","0"
"pit-trial","239","1441764","0.0-119.0","battery-v0.2","","""event"",""trial"",""time""
""fullscreenenter"",""1"",""1753""
","
","
","""event"",""trial"",""time""
""fullscreenenter"",""1"",""1753""
","
","","","-1","","","19","11171","4323","c","elianto","#3366ff99"," ","-1","0","0","[]","0","2","","","11171","115","5","1","win","go","0"
"pit-trial","240","1446625","0.0-120.0","battery-v0.2","","""event"",""trial"",""time""
""fullscreenenter"",""1"",""1753""
","
","
","""event"",""trial"",""time""
""fullscreenenter"",""1"",""1753""
","
","","","-1","","","19","11171","4323","t","elianto","#f73b6a7A"," ","-1","0","-10","[]","0","2","","","11171","116","7","3","lose","go","0"
"pit-trial","241","1451484","0.0-121.0","battery-v0.2","","""event"",""trial"",""time""
""fullscreenenter"",""1"",""1753""
","
","
","""event"",""trial"",""time""
""fullscreenenter"",""1"",""1753""
","
","","","-1","","","19","11171","4323","n","elianto","#3366ff99","-1","-1","1","0","[]","0","2","","","11171","117","9","2","win","no-go","1"
"pit-trial","242","1456346","0.0-122.0","battery-v0.2","","""event"",""trial"",""time""
""fullscreenenter"",""1"",""1753""
","
","
","""event"",""trial"",""time""
""fullscreenenter"",""1"",""1753""
","
","","","-1","","","19","11171","4323","c","elianto","#3366ff99"," ","-1","0","0","[]","0","2","","","11171","118","5","1","win","go","0"
"pit-trial","243","1461207","0.0-123.0","battery-v0.2","","""event"",""trial"",""time""
""fullscreenenter"",""1"",""1753""
","
","
","""event"",""trial"",""time""
""fullscreenenter"",""1"",""1753""
","
","","","-1","","","19","11171","4323","b","elianto","#f73b6a7A","-1","-1","1","0","[]","0","2","","","11171","119","6","4","lose","no-go","0"
"pit-trial","244","1466067","0.0-124.0","battery-v0.2","","""event"",""trial"",""time""
""fullscreenenter"",""1"",""1753""
","
","
","""event"",""trial"",""time""
""fullscreenenter"",""1"",""1753""
","
","","","-1","","","19","11171","4323","f","elianto","#3366ff99","-1","-1","1","+10","[]","0","2","","","11171","120","8","2","win","no-go","0"
"pit-trial","245","1470928","0.0-125.0","battery-v0.2","","""event"",""trial"",""time""
""fullscreenenter"",""1"",""1753""
","
","
","""event"",""trial"",""time""
""fullscreenenter"",""1"",""1753""
","
","","","-1","","","19","11171","4323","t","elianto","#f73b6a7A"," ","-1","0","-10","[]","0","2","","","11171","121","7","3","lose","go","0"
"pit-trial","246","1475787","0.0-126.0","battery-v0.2","","""event"",""trial"",""time""
""fullscreenenter"",""1"",""1753""
","
","
","""event"",""trial"",""time""
""fullscreenenter"",""1"",""1753""
","
","","","-1","","","19","11171","4323","n","elianto","#3366ff99","-1","-1","1","0","[]","0","2","","","11171","122","9","2","win","no-go","1"
"pit-trial","247","1480646","0.0-127.0","battery-v0.2","","""event"",""trial"",""time""
""fullscreenenter"",""1"",""1753""
","
","
","""event"",""trial"",""time""
""fullscreenenter"",""1"",""1753""
","
","","","-1","","","19","11171","4323","c","elianto","#3366ff99"," ","-1","0","0","[]","0","2","","","11171","123","5","1","win","go","0"
"pit-trial","248","1485507","0.0-128.0","battery-v0.2","","""event"",""trial"",""time""
""fullscreenenter"",""1"",""1753""
","
","
","""event"",""trial"",""time""
""fullscreenenter"",""1"",""1753""
","
","","","-1","","","19","11171","4323","f","elianto","#3366ff99","-1","-1","1","+10","[]","0","2","","","11171","124","8","2","win","no-go","0"
"pit-trial","249","1490368","0.0-129.0","battery-v0.2","","""event"",""trial"",""time""
""fullscreenenter"",""1"",""1753""
","
","
","""event"",""trial"",""time""
""fullscreenenter"",""1"",""1753""
","
","","","-1","","","19","11171","4323","f","elianto","#3366ff99","-1","-1","1","+10","[]","0","2","","","11171","125","8","2","win","no-go","0"
"pit-trial","250","1495230","0.0-130.0","battery-v0.2","","""event"",""trial"",""time""
""fullscreenenter"",""1"",""1753""
","
","
","""event"",""trial"",""time""
""fullscreenenter"",""1"",""1753""
","
","","","-1","","","19","11171","4323","b","elianto","#f73b6a7A","-1","-1","1","0","[]","0","2","","","11171","126","6","4","lose","no-go","0"
"pit-trial","251","1500092","0.0-131.0","battery-v0.2","","""event"",""trial"",""time""
""fullscreenenter"",""1"",""1753""
","
","
","""event"",""trial"",""time""
""fullscreenenter"",""1"",""1753""
","
","","","-1","","","19","11171","4323","t","elianto","#f73b6a7A"," ","-1","0","-10","[]","0","2","","","11171","127","7","3","lose","go","0"
"pit-trial","252","1504954","0.0-132.0","battery-v0.2","","""event"",""trial"",""time""
""fullscreenenter"",""1"",""1753""
","
","
","""event"",""trial"",""time""
""fullscreenenter"",""1"",""1753""
","
","","","-1","","","19","11171","4323","n","elianto","#3366ff99","-1","-1","1","0","[]","0","2","","","11171","128","9","2","win","no-go","1"
"pit-trial","253","1509814","0.0-133.0","battery-v0.2","","""event"",""trial"",""time""
""fullscreenenter"",""1"",""1753""
","
","
","""event"",""trial"",""time""
""fullscreenenter"",""1"",""1753""
","
","","","-1","","","19","11171","4323","b","elianto","#f73b6a7A","-1","-1","1","0","[]","0","2","","","11171","129","6","4","lose","no-go","0"
"pit-trial","254","1514674","0.0-134.0","battery-v0.2","","""event"",""trial"",""time""
""fullscreenenter"",""1"",""1753""
","
","
","""event"",""trial"",""time""
""fullscreenenter"",""1"",""1753""
","
","","","-1","","","19","11171","4323","f","elianto","#3366ff99","-1","-1","1","0","[]","0","2","","","11171","130","8","2","win","no-go","1"
"pit-trial","255","1519535","0.0-135.0","battery-v0.2","","""event"",""trial"",""time""
""fullscreenenter"",""1"",""1753""
","
","
","""event"",""trial"",""time""
""fullscreenenter"",""1"",""1753""
","
","","","-1","","","19","11171","4323","t","elianto","#f73b6a7A"," ","-1","0","-10","[]","0","2","","","11171","131","7","3","lose","go","0"
"pit-trial","256","1524396","0.0-136.0","battery-v0.2","","""event"",""trial"",""time""
""fullscreenenter"",""1"",""1753""
","
","
","""event"",""trial"",""time""
""fullscreenenter"",""1"",""1753""
","
","","","-1","","","19","11171","4323","n","elianto","#3366ff99","-1","-1","1","+10","[]","0","2","","","11171","132","9","2","win","no-go","0"
"pit-trial","257","1529255","0.0-137.0","battery-v0.2","","""event"",""trial"",""time""
""fullscreenenter"",""1"",""1753""
","
","
","""event"",""trial"",""time""
""fullscreenenter"",""1"",""1753""
","
","","","-1","","","19","11171","4323","b","elianto","#f73b6a7A","-1","-1","1","0","[]","0","2","","","11171","133","6","4","lose","no-go","0"
"pit-trial","258","1534113","0.0-138.0","battery-v0.2","","""event"",""trial"",""time""
""fullscreenenter"",""1"",""1753""
","
","
","""event"",""trial"",""time""
""fullscreenenter"",""1"",""1753""
","
","","","-1","","","19","11171","4323","n","elianto","#3366ff99","-1","-1","1","0","[]","0","2","","","11171","134","9","2","win","no-go","1"
"pit-trial","259","1538967","0.0-139.0","battery-v0.2","","""event"",""trial"",""time""
""fullscreenenter"",""1"",""1753""
","
","
","""event"",""trial"",""time""
""fullscreenenter"",""1"",""1753""
","
","","","-1","","","19","11171","4323","f","elianto","#3366ff99","-1","-1","1","0","[]","0","2","","","11171","135","8","2","win","no-go","1"
"pit-trial","260","1543828","0.0-140.0","battery-v0.2","","""event"",""trial"",""time""
""fullscreenenter"",""1"",""1753""
","
","
","""event"",""trial"",""time""
""fullscreenenter"",""1"",""1753""
","
","","","-1","","","19","11171","4323","t","elianto","#f73b6a7A"," ","-1","0","-10","[]","0","2","","","11171","136","7","3","lose","go","0"
"pit-trial","261","1548688","0.0-141.0","battery-v0.2","","""event"",""trial"",""time""
""fullscreenenter"",""1"",""1753""
","
","
","""event"",""trial"",""time""
""fullscreenenter"",""1"",""1753""
","
","","","-1","","","19","11171","4323","t","elianto","#f73b6a7A"," ","-1","0","-10","[]","0","2","","","11171","137","7","3","lose","go","0"
"pit-trial","262","1553548","0.0-142.0","battery-v0.2","","""event"",""trial"",""time""
""fullscreenenter"",""1"",""1753""
","
","
","""event"",""trial"",""time""
""fullscreenenter"",""1"",""1753""
","
","","","-1","","","19","11171","4323","f","elianto","#3366ff99","-1","-1","1","+10","[]","0","2","","","11171","138","8","2","win","no-go","0"
"pit-trial","263","1558406","0.0-143.0","battery-v0.2","","""event"",""trial"",""time""
""fullscreenenter"",""1"",""1753""
","
","
","""event"",""trial"",""time""
""fullscreenenter"",""1"",""1753""
","
","","","-1","","","19","11171","4323","n","elianto","#3366ff99","-1","-1","1","+10","[]","0","2","","","11171","139","9","2","win","no-go","0"
"pit-trial","264","1563267","0.0-144.0","battery-v0.2","","""event"",""trial"",""time""
""fullscreenenter"",""1"",""1753""
","
","
","""event"",""trial"",""time""
""fullscreenenter"",""1"",""1753""
","
","","","-1","","","19","11171","4323","b","elianto","#f73b6a7A","-1","-1","1","0","[]","0","2","","","11171","140","6","4","lose","no-go","0"
"pit-instructions","265","1582584","0.0-145.0","battery-v0.2","","""event"",""trial"",""time""
""fullscreenenter"",""1"",""1753""
","
","
","""event"",""trial"",""time""
""fullscreenenter"",""1"",""1753""
","
","","[{""page_index"":0,""viewing_time"":9498.09999999404},{""page_index"":1,""viewing_time"":9817.30000000447}]","19315.59999999404","","","","","","","","","","","","","","","","","","","","","","","",""
"pit-trial","266","1586862","0.0-146.0","battery-v0.2","","""event"",""trial"",""time""
""fullscreenenter"",""1"",""1753""
","
","
","""event"",""trial"",""time""
""fullscreenenter"",""1"",""1753""
","
","","","1419.8999999985099","","","19","11171","4323","w","elianto","#f73b6a7A","-1"," ","0","-10","[2272.7000000029802]","1","3","","","11171","141","3","4","lose","no-go","0"
"pit-trial","267","1591720","0.0-147.0","battery-v0.2","","""event"",""trial"",""time""
""fullscreenenter"",""1"",""1753""
","
","
","""event"",""trial"",""time""
""fullscreenenter"",""1"",""1753""
","
","","","-1","","","19","11171","4323","e","elianto","#f73b6a7A"," ","-1","0","0","[]","0","3","","","11171","142","2","3","lose","go","1"
"pit-trial","268","1596579","0.0-148.0","battery-v0.2","","""event"",""trial"",""time""
""fullscreenenter"",""1"",""1753""
","
","
","""event"",""trial"",""time""
""fullscreenenter"",""1"",""1753""
","
","","","-1","","","19","11171","4323","j","elianto","#f73b6a7A"," ","-1","0","-10","[]","0","3","","","11171","143","0","3","lose","go","0"
"pit-trial","269","1601437","0.0-149.0","battery-v0.2","","""event"",""trial"",""time""
""fullscreenenter"",""1"",""1753""
","
","
","""event"",""trial"",""time""
""fullscreenenter"",""1"",""1753""
","
