"trial_type","trial_index","time_elapsed","internal_node_id","task_version","subject_id","interactions","blur_events","focus_events","fullscreenenter_events","fullscreenexit_events","success","view_history","rt","responses","num_errors","age","subject","participantId","rune","rune_set","hex","correct","choice","accuracy","outcome","keys","total_keys","block","practice","value","sub","trial","stimulus","robot","valence","action","sham"
"pavlovia","0","20","0.0-0.0","battery-v0.2","","""event"",""trial"",""time""
""fullscreenenter"",""1"",""2420""
","
","
","""event"",""trial"",""time""
""fullscreenenter"",""1"",""2420""
","
","","","","","","","","","","","","","","","","","","","","","","","","","","",""
"fullscreen","1","3388","0.0-1.0","battery-v0.2","","""event"",""trial"",""time""
""fullscreenenter"",""1"",""2420""
","
","
","""event"",""trial"",""time""
""fullscreenenter"",""1"",""2420""
","
","true","","","","","","","","","","","","","","","","","","","","","","","","","",""
"pit-instructions","2","34608","0.0-2.0-0.0","battery-v0.2","","""event"",""trial"",""time""
""fullscreenenter"",""1"",""2420""
","
","
","""event"",""trial"",""time""
""fullscreenenter"",""1"",""2420""
","
","","[{""page_index"":0,""viewing_time"":31209.59999999404}]","31210","","","","","","","","","","","","","","","","","","","","","","","",""
"pit-comprehension","3","40218","0.0-2.0-1.0-0.0","battery-v0.2","","""event"",""trial"",""time""
""fullscreenenter"",""1"",""2420""
","
","
","""event"",""trial"",""time""
""fullscreenenter"",""1"",""2420""
","
","","","5602.699999988079","[""shark""]","0","10","12411","1403","","","","","","","","","","","","","","","","","","",""
"pit-instructions","4","42874","0.0-2.0-1.0-1.0","battery-v0.2","","""event"",""trial"",""time""
""fullscreenenter"",""1"",""2420""
","
","
","""event"",""trial"",""time""
""fullscreenenter"",""1"",""2420""
","
","","[{""page_index"":0,""viewing_time"":2635.0999999940395}]","2635.5","","","","","","","","","","","","","","","","","","","","","","","",""
"pit-comprehension","5","48779","0.0-2.0-2.0-0.0","battery-v0.2","","""event"",""trial"",""time""
""fullscreenenter"",""1"",""2420""
","
","
","""event"",""trial"",""time""
""fullscreenenter"",""1"",""2420""
","
","","","5897.9000000059605","[""tiger""]","0","10","12411","1403","","","","","","","","","","","","","","","","","","",""
"pit-instructions","6","59372","0.0-2.0-2.0-1.0","battery-v0.2","","""event"",""trial"",""time""
""fullscreenenter"",""1"",""2420""
","
","
","""event"",""trial"",""time""
""fullscreenenter"",""1"",""2420""
","
","","[{""page_index"":0,""viewing_time"":10587.399999976158}]","10587.699999988079","","","","","","","","","","","","","","","","","","","","","","","",""
"pit-instructions","7","161691","0.0-2.0-3.0","battery-v0.2","","""event"",""trial"",""time""
""fullscreenenter"",""1"",""2420""
","
","
","""event"",""trial"",""time""
""fullscreenenter"",""1"",""2420""
","
","","[{""page_index"":0,""viewing_time"":14354.09999999404},{""page_index"":1,""viewing_time"":5527.699999988079},{""page_index"":2,""viewing_time"":7258.200000017881},{""page_index"":3,""viewing_time"":5464.0999999940395},{""page_index"":4,""viewing_time"":6640},{""page_index"":5,""viewing_time"":5576.299999982119},{""page_index"":6,""viewing_time"":7858.100000023842},{""page_index"":7,""viewing_time"":7753.299999982119},{""page_index"":8,""viewing_time"":9077.700000017881},{""page_index"":9,""viewing_time"":7626.0999999940395},{""page_index"":10,""viewing_time"":7450.299999982119},{""page_index"":11,""viewing_time"":6914.800000011921},{""page_index"":12,""viewing_time"":6103.5999999940395},{""page_index"":13,""viewing_time"":4709.700000017881}]","102314.39999997616","","","","","","","","","","","","","","","","","","","","","","","",""
"pit-trial","8","165326","0.0-2.0-4.0-0.0","battery-v0.2","","""event"",""trial"",""time""
""fullscreenenter"",""1"",""2420""
","
","
","""event"",""trial"",""time""
""fullscreenenter"",""1"",""2420""
","
","","","767.8000000119209","","","10","12411","1403","&#9784;","elianto","#FFFFF080"," "," ","1","&#10004","[1626.300000011921]","1","0","0","","","","","","","",""
"pit-trial","9","168856","0.0-2.0-4.1-0.1","battery-v0.2","","""event"",""trial"",""time""
""fullscreenenter"",""1"",""2420""
","
","
","""event"",""trial"",""time""
""fullscreenenter"",""1"",""2420""
","
","","","637.5","","","10","12411","1403","&#9784;","elianto","#FFFFF080"," "," ","1","&#10004","[1506.8999999761581]","1","0","0","","","","","","","",""
"pit-trial","10","172337","0.0-2.0-4.2-0.2","battery-v0.2","","""event"",""trial"",""time""
""fullscreenenter"",""1"",""2420""
","
","
","""event"",""trial"",""time""
""fullscreenenter"",""1"",""2420""
","
","","","614.3999999761581","","","10","12411","1403","&#9784;","elianto","#FFFFF080"," "," ","1","&#10004","[1468]","1","0","0","","","","","","","",""
"pit-trial","11","175856","0.0-2.0-4.3-0.3","battery-v0.2","","""event"",""trial"",""time""
""fullscreenenter"",""1"",""2420""
","
","
","""event"",""trial"",""time""
""fullscreenenter"",""1"",""2420""
","
","","","650.3000000119209","","","10","12411","1403","&#9784;","elianto","#FFFFF080"," "," ","1","&#10004","[1503.5999999940395]","1","0","0","","","","","","","",""
"pit-trial","12","179395","0.0-2.0-4.4-0.4","battery-v0.2","","""event"",""trial"",""time""
""fullscreenenter"",""1"",""2420""
","
","
","""event"",""trial"",""time""
""fullscreenenter"",""1"",""2420""
","
","","","668.9000000059605","","","10","12411","1403","&#9784;","elianto","#FFFFF080"," "," ","1","&#10004","[1520.800000011921]","1","0","0","","","","","","","",""
"pit-instructions","13","205889","0.0-2.0-5.0","battery-v0.2","","""event"",""trial"",""time""
""fullscreenenter"",""1"",""2420""
","
","
","""event"",""trial"",""time""
""fullscreenenter"",""1"",""2420""
","
","","[{""page_index"":0,""viewing_time"":5302.4000000059605},{""page_index"":1,""viewing_time"":7925.9000000059605},{""page_index"":2,""viewing_time"":5474.299999982119},{""page_index"":3,""viewing_time"":7779.800000011921}]","26482.70000001788","","","","","","","","","","","","","","","","","","","","","","","",""
"pit-trial","14","210776","0.0-2.0-6.0-0.0","battery-v0.2","","""event"",""trial"",""time""
""fullscreenenter"",""1"",""2420""
","
","
","""event"",""trial"",""time""
""fullscreenenter"",""1"",""2420""
","
","","","-1","","","10","12411","1403","&#9854;","elianto","#FFFFF080","-1","-1","1","&#10004","[]","0","0","1","","","","","","","",""
"pit-trial","15","215645","0.0-2.0-6.1-0.1","battery-v0.2","","""event"",""trial"",""time""
""fullscreenenter"",""1"",""2420""
","
","
","""event"",""trial"",""time""
""fullscreenenter"",""1"",""2420""
","
","","","-1","","","10","12411","1403","&#9854;","elianto","#FFFFF080","-1","-1","1","&#10004","[]","0","0","1","","","","","","","",""
"pit-trial","16","220516","0.0-2.0-6.2-0.2","battery-v0.2","","""event"",""trial"",""time""
""fullscreenenter"",""1"",""2420""
","
","
","""event"",""trial"",""time""
""fullscreenenter"",""1"",""2420""
","
","","","-1","","","10","12411","1403","&#9854;","elianto","#FFFFF080","-1","-1","1","&#10004","[]","0","0","1","","","","","","","",""
"pit-trial","17","225396","0.0-2.0-6.3-0.3","battery-v0.2","","""event"",""trial"",""time""
""fullscreenenter"",""1"",""2420""
","
","
","""event"",""trial"",""time""
""fullscreenenter"",""1"",""2420""
","
","","","-1","","","10","12411","1403","&#9854;","elianto","#FFFFF080","-1","-1","1","&#10004","[]","0","0","1","","","","","","","",""
"pit-trial","18","230275","0.0-2.0-6.4-0.4","battery-v0.2","","""event"",""trial"",""time""
""fullscreenenter"",""1"",""2420""
","
","
","""event"",""trial"",""time""
""fullscreenenter"",""1"",""2420""
","
","","","-1","","","10","12411","1403","&#9854;","elianto","#FFFFF080","-1","-1","1","&#10004","[]","0","0","1","","","","","","","",""
"pit-instructions","19","350571","0.0-2.0-7.0","battery-v0.2","","""event"",""trial"",""time""
""fullscreenenter"",""1"",""2420""
","
","
","""event"",""trial"",""time""
""fullscreenenter"",""1"",""2420""
","
","","[{""page_index"":0,""viewing_time"":8317.199999988079},{""page_index"":1,""viewing_time"":6380.5},{""page_index"":2,""viewing_time"":5465.800000011921},{""page_index"":3,""viewing_time"":6554.5},{""page_index"":4,""viewing_time"":5942},{""page_index"":5,""viewing_time"":6269.800000011921},{""page_index"":6,""viewing_time"":5786.299999982119},{""page_index"":7,""viewing_time"":9384},{""page_index"":8,""viewing_time"":7507.700000017881},{""page_index"":9,""viewing_time"":5728.5999999940395},{""page_index"":10,""viewing_time"":6529.699999988079},{""page_index"":11,""viewing_time"":5357.800000011921},{""page_index"":12,""viewing_time"":6701.5999999940395},{""page_index"":13,""viewing_time"":7134.300000011921},{""page_index"":14,""viewing_time"":6362.699999988079},{""page_index"":15,""viewing_time"":6837.300000011921},{""page_index"":16,""viewing_time"":6670.199999988079},{""page_index"":17,""viewing_time"":7358}]","120288.19999998808","","","","","","","","","","","","","","","","","","","","","","","",""
"pit-trial","20","354074","0.0-2.0-8.0-0.0","battery-v0.2","","""event"",""trial"",""time""
""fullscreenenter"",""1"",""2420""
","
","
","""event"",""trial"",""time""
""fullscreenenter"",""1"",""2420""
","
","","","639.3000000119209","","","10","12411","1403","&#9776;","elianto","#3366ff99"," "," ","1","+10","[1490.0999999940395]","1","0","1","","","","","","","",""
"pit-trial","21","357793","0.0-2.0-8.0-1.0","battery-v0.2","","""event"",""trial"",""time""
""fullscreenenter"",""1"",""2420""
","
","
","""event"",""trial"",""time""
""fullscreenenter"",""1"",""2420""
","
","","","848.0999999940395","","","10","12411","1403","&#9776;","elianto","#3366ff99"," "," ","1","+10","[1701.9000000059605]","1","0","1","","","","","","","",""
"pit-trial","22","361313","0.0-2.0-8.0-2.0","battery-v0.2","","""event"",""trial"",""time""
""fullscreenenter"",""1"",""2420""
","
","
","""event"",""trial"",""time""
""fullscreenenter"",""1"",""2420""
","
","","","661.5999999940395","","","10","12411","1403","&#9776;","elianto","#3366ff99"," "," ","1","+10","[1512.5]","1","0","1","","","","","","","",""
"pit-trial","23","364754","0.0-2.0-8.0-3.0","battery-v0.2","","""event"",""trial"",""time""
""fullscreenenter"",""1"",""2420""
","
","
","""event"",""trial"",""time""
""fullscreenenter"",""1"",""2420""
","
","","","582.2000000178814","","","10","12411","1403","&#9776;","elianto","#3366ff99"," "," ","1","0","[1432.0999999940395]","1","0","1","","","","","","","",""
"pit-trial","24","368166","0.0-2.0-8.0-4.0","battery-v0.2","","""event"",""trial"",""time""
""fullscreenenter"",""1"",""2420""
","
","
","""event"",""trial"",""time""
""fullscreenenter"",""1"",""2420""
","
","","","538.0999999940395","","","10","12411","1403","&#9776;","elianto","#3366ff99"," "," ","1","+10","[1395.5999999940395]","1","0","1","","","","","","","",""
"pit-trial","25","371655","0.0-2.0-8.1-0.1","battery-v0.2","","""event"",""trial"",""time""
""fullscreenenter"",""1"",""2420""
","
","
","""event"",""trial"",""time""
""fullscreenenter"",""1"",""2420""
","
","","","615.5","","","10","12411","1403","&#9776;","elianto","#3366ff99"," "," ","1","+10","[1467.300000011921]","1","0","1","","","","","","","",""
"pit-trial","26","375026","0.0-2.0-8.1-1.1","battery-v0.2","","""event"",""trial"",""time""
""fullscreenenter"",""1"",""2420""
","
","
","""event"",""trial"",""time""
""fullscreenenter"",""1"",""2420""
","
","","","498.19999998807907","","","10","12411","1403","&#9776;","elianto","#3366ff99"," "," ","1","+10","[1355.5999999940395]","1","0","1","","","","","","","",""
"pit-trial","27","378555","0.0-2.0-8.1-2.1","battery-v0.2","","""event"",""trial"",""time""
""fullscreenenter"",""1"",""2420""
","
","
","""event"",""trial"",""time""
""fullscreenenter"",""1"",""2420""
","
","","","665.0999999940395","","","10","12411","1403","&#9776;","elianto","#3366ff99"," "," ","1","+10","[1519.9000000059605]","1","0","1","","","","","","","",""
"pit-trial","28","381872","0.0-2.0-8.1-3.1","battery-v0.2","","""event"",""trial"",""time""
""fullscreenenter"",""1"",""2420""
","
","
","""event"",""trial"",""time""
""fullscreenenter"",""1"",""2420""
","
","","","448.59999999403954","","","10","12411","1403","&#9776;","elianto","#3366ff99"," "," ","1","0","[1307.8999999761581]","1","0","1","","","","","","","",""
"pit-trial","29","385231","0.0-2.0-8.1-4.1","battery-v0.2","","""event"",""trial"",""time""
""fullscreenenter"",""1"",""2420""
","
","
","""event"",""trial"",""time""
""fullscreenenter"",""1"",""2420""
","
","","","501.80000001192093","","","10","12411","1403","&#9776;","elianto","#3366ff99"," "," ","1","+10","[1351.9000000059605]","1","0","1","","","","","","","",""
"pit-trial","30","388481","0.0-2.0-8.2-0.2","battery-v0.2","","""event"",""trial"",""time""
""fullscreenenter"",""1"",""2420""
","
","
","""event"",""trial"",""time""
""fullscreenenter"",""1"",""2420""
","
","","","393.40000000596046","","","10","12411","1403","&#9776;","elianto","#3366ff99"," "," ","1","+10","[1244.1000000238419]","1","0","1","","","","","","","",""
"pit-trial","31","391843","0.0-2.0-8.2-1.2","battery-v0.2","","""event"",""trial"",""time""
""fullscreenenter"",""1"",""2420""
","
","
","""event"",""trial"",""time""
""fullscreenenter"",""1"",""2420""
","
","","","504.19999998807907","","","10","12411","1403","&#9776;","elianto","#3366ff99"," "," ","1","+10","[1354.5]","1","0","1","","","","","","","",""
"pit-trial","32","395530","0.0-2.0-8.2-2.2","battery-v0.2","","""event"",""trial"",""time""
""fullscreenenter"",""1"",""2420""
","
","
","""event"",""trial"",""time""
""fullscreenenter"",""1"",""2420""
","
","","","831.9000000059605","","","10","12411","1403","&#9776;","elianto","#3366ff99"," "," ","1","+10","[1682.7000000178814]","1","0","1","","","","","","","",""
"pit-trial","33","398666","0.0-2.0-8.2-3.2","battery-v0.2","","""event"",""trial"",""time""
""fullscreenenter"",""1"",""2420""
","
","
","""event"",""trial"",""time""
""fullscreenenter"",""1"",""2420""
","
","","","278","","","10","12411","1403","&#9776;","elianto","#3366ff99"," "," ","1","0","[1128.8999999761581]","1","0","1","","","","","","","",""
"pit-trial","34","402083","0.0-2.0-8.2-4.2","battery-v0.2","","""event"",""trial"",""time""
""fullscreenenter"",""1"",""2420""
","
","
","""event"",""trial"",""time""
""fullscreenenter"",""1"",""2420""
","
","","","556.4000000059605","","","10","12411","1403","&#9776;","elianto","#3366ff99"," "," ","1","+10","[1407]","1","0","1","","","","","","","",""
"call-function","35","402087","0.0-2.0-9.0","battery-v0.2","","""event"",""trial"",""time""
""fullscreenenter"",""1"",""2420""
","
","
","""event"",""trial"",""time""
""fullscreenenter"",""1"",""2420""
","
","","","","","","","","","","","","","","","","","","","","","","","","","","",""
"pit-instructions","36","443261","0.0-2.0-10.0","battery-v0.2","","""event"",""trial"",""time""
""fullscreenenter"",""1"",""2420""
","
","
","""event"",""trial"",""time""
""fullscreenenter"",""1"",""2420""
","
","","[{""page_index"":0,""viewing_time"":5974.699999988079},{""page_index"":1,""viewing_time"":6530.0999999940395},{""page_index"":2,""viewing_time"":10689.40000000596},{""page_index"":3,""viewing_time"":10035.40000000596},{""page_index"":4,""viewing_time"":7943}]","41172.90000000596","","","","","","","","","","","","","","","","","","","","","","","",""
"pit-trial","37","448143","0.0-2.0-11.0-0.0","battery-v0.2","","""event"",""trial"",""time""
""fullscreenenter"",""1"",""2420""
","
","
","""event"",""trial"",""time""
""fullscreenenter"",""1"",""2420""
","
","","","-1","","","10","12411","1403","&#9761;","elianto","#3366ff99","-1","-1","1","+10","[]","0","0","2","","","","","","","",""
"pit-trial","38","453012","0.0-2.0-11.0-1.0","battery-v0.2","","""event"",""trial"",""time""
""fullscreenenter"",""1"",""2420""
","
","
","""event"",""trial"",""time""
""fullscreenenter"",""1"",""2420""
","
","","","-1","","","10","12411","1403","&#9761;","elianto","#3366ff99","-1","-1","1","+10","[]","0","0","2","","","","","","","",""
"pit-trial","39","457903","0.0-2.0-11.0-2.0","battery-v0.2","","""event"",""trial"",""time""
""fullscreenenter"",""1"",""2420""
","
","
","""event"",""trial"",""time""
""fullscreenenter"",""1"",""2420""
","
","","","-1","","","10","12411","1403","&#9761;","elianto","#3366ff99","-1","-1","1","+10","[]","0","0","2","","","","","","","",""
"pit-trial","40","462803","0.0-2.0-11.0-3.0","battery-v0.2","","""event"",""trial"",""time""
""fullscreenenter"",""1"",""2420""
","
","
","""event"",""trial"",""time""
""fullscreenenter"",""1"",""2420""
","
","","","-1","","","10","12411","1403","&#9761;","elianto","#3366ff99","-1","-1","1","0","[]","0","0","2","","","","","","","",""
"pit-trial","41","467672","0.0-2.0-11.0-4.0","battery-v0.2","","""event"",""trial"",""time""
""fullscreenenter"",""1"",""2420""
","
","
","""event"",""trial"",""time""
""fullscreenenter"",""1"",""2420""
","
","","","-1","","","10","12411","1403","&#9761;","elianto","#3366ff99","-1","-1","1","+10","[]","0","0","2","","","","","","","",""
"pit-trial","42","472534","0.0-2.0-11.1-0.1","battery-v0.2","","""event"",""trial"",""time""
""fullscreenenter"",""1"",""2420""
","
","
","""event"",""trial"",""time""
""fullscreenenter"",""1"",""2420""
","
","","","-1","","","10","12411","1403","&#9761;","elianto","#3366ff99","-1","-1","1","+10","[]","0","0","2","","","","","","","",""
"pit-trial","43","477398","0.0-2.0-11.1-1.1","battery-v0.2","","""event"",""trial"",""time""
""fullscreenenter"",""1"",""2420""
","
","
","""event"",""trial"",""time""
""fullscreenenter"",""1"",""2420""
","
","","","-1","","","10","12411","1403","&#9761;","elianto","#3366ff99","-1","-1","1","+10","[]","0","0","2","","","","","","","",""
"pit-trial","44","482258","0.0-2.0-11.1-2.1","battery-v0.2","","""event"",""trial"",""time""
""fullscreenenter"",""1"",""2420""
","
","
","""event"",""trial"",""time""
""fullscreenenter"",""1"",""2420""
","
","","","-1","","","10","12411","1403","&#9761;","elianto","#3366ff99","-1","-1","1","+10","[]","0","0","2","","","","","","","",""
"pit-trial","45","487116","0.0-2.0-11.1-3.1","battery-v0.2","","""event"",""trial"",""time""
""fullscreenenter"",""1"",""2420""
","
","
","""event"",""trial"",""time""
""fullscreenenter"",""1"",""2420""
","
","","","-1","","","10","12411","1403","&#9761;","elianto","#3366ff99","-1","-1","1","0","[]","0","0","2","","","","","","","",""
"pit-trial","46","491977","0.0-2.0-11.1-4.1","battery-v0.2","","""event"",""trial"",""time""
""fullscreenenter"",""1"",""2420""
","
","
","""event"",""trial"",""time""
""fullscreenenter"",""1"",""2420""
","
","","","-1","","","10","12411","1403","&#9761;","elianto","#3366ff99","-1","-1","1","+10","[]","0","0","2","","","","","","","",""
"pit-trial","47","496837","0.0-2.0-11.2-0.2","battery-v0.2","","""event"",""trial"",""time""
""fullscreenenter"",""1"",""2420""
","
","
","""event"",""trial"",""time""
""fullscreenenter"",""1"",""2420""
","
","","","-1","","","10","12411","1403","&#9761;","elianto","#3366ff99","-1","-1","1","+10","[]","0","0","2","","","","","","","",""
"pit-trial","48","501698","0.0-2.0-11.2-1.2","battery-v0.2","","""event"",""trial"",""time""
""fullscreenenter"",""1"",""2420""
","
","
","""event"",""trial"",""time""
""fullscreenenter"",""1"",""2420""
","
","","","-1","","","10","12411","1403","&#9761;","elianto","#3366ff99","-1","-1","1","+10","[]","0","0","2","","","","","","","",""
"pit-trial","49","506557","0.0-2.0-11.2-2.2","battery-v0.2","","""event"",""trial"",""time""
""fullscreenenter"",""1"",""2420""
","
","
","""event"",""trial"",""time""
""fullscreenenter"",""1"",""2420""
","
","","","-1","","","10","12411","1403","&#9761;","elianto","#3366ff99","-1","-1","1","+10","[]","0","0","2","","","","","","","",""
"pit-trial","50","511418","0.0-2.0-11.2-3.2","battery-v0.2","","""event"",""trial"",""time""
""fullscreenenter"",""1"",""2420""
","
","
","""event"",""trial"",""time""
""fullscreenenter"",""1"",""2420""
","
","","","-1","","","10","12411","1403","&#9761;","elianto","#3366ff99","-1","-1","1","0","[]","0","0","2","","","","","","","",""
"pit-trial","51","516277","0.0-2.0-11.2-4.2","battery-v0.2","","""event"",""trial"",""time""
""fullscreenenter"",""1"",""2420""
","
","
","""event"",""trial"",""time""
""fullscreenenter"",""1"",""2420""
","
","","","-1","","","10","12411","1403","&#9761;","elianto","#3366ff99","-1","-1","1","+10","[]","0","0","2","","","","","","","",""
"pit-trial","52","521134","0.0-2.0-11.3-0.3","battery-v0.2","","""event"",""trial"",""time""
""fullscreenenter"",""1"",""2420""
","
","
","""event"",""trial"",""time""
""fullscreenenter"",""1"",""2420""
","
","","","-1","","","10","12411","1403","&#9761;","elianto","#3366ff99","-1","-1","1","+10","[]","0","0","2","","","","","","","",""
"pit-trial","53","525994","0.0-2.0-11.3-1.3","battery-v0.2","","""event"",""trial"",""time""
""fullscreenenter"",""1"",""2420""
","
","
","""event"",""trial"",""time""
""fullscreenenter"",""1"",""2420""
","
","","","-1","","","10","12411","1403","&#9761;","elianto","#3366ff99","-1","-1","1","+10","[]","0","0","2","","","","","","","",""
"pit-trial","54","530853","0.0-2.0-11.3-2.3","battery-v0.2","","""event"",""trial"",""time""
""fullscreenenter"",""1"",""2420""
","
","
","""event"",""trial"",""time""
""fullscreenenter"",""1"",""2420""
","
","","","-1","","","10","12411","1403","&#9761;","elianto","#3366ff99","-1","-1","1","+10","[]","0","0","2","","","","","","","",""
"pit-trial","55","535710","0.0-2.0-11.3-3.3","battery-v0.2","","""event"",""trial"",""time""
""fullscreenenter"",""1"",""2420""
","
","
","""event"",""trial"",""time""
""fullscreenenter"",""1"",""2420""
","
","","","-1","","","10","12411","1403","&#9761;","elianto","#3366ff99","-1","-1","1","0","[]","0","0","2","","","","","","","",""
"pit-trial","56","540571","0.0-2.0-11.3-4.3","battery-v0.2","","""event"",""trial"",""time""
""fullscreenenter"",""1"",""2420""
","
","
","""event"",""trial"",""time""
""fullscreenenter"",""1"",""2420""
","
","","","-1","","","10","12411","1403","&#9761;","elianto","#3366ff99","-1","-1","1","+10","[]","0","0","2","","","","","","","",""
"call-function","57","540579","0.0-2.0-12.0","battery-v0.2","","""event"",""trial"",""time""
""fullscreenenter"",""1"",""2420""
","
","
","""event"",""trial"",""time""
""fullscreenenter"",""1"",""2420""
","
","","","","","","","","","","","","","","","","","","","","","","","","","","",""
"pit-instructions","58","577537","0.0-2.0-13.0","battery-v0.2","","""event"",""trial"",""time""
""fullscreenenter"",""1"",""2420""
","
","
","""event"",""trial"",""time""
""fullscreenenter"",""1"",""2420""
","
","","[{""page_index"":0,""viewing_time"":5871.300000011921},{""page_index"":1,""viewing_time"":10403.40000000596},{""page_index"":2,""viewing_time"":4448.199999988079},{""page_index"":3,""viewing_time"":11086.40000000596},{""page_index"":4,""viewing_time"":5147.800000011921}]","36957.40000000596","","","","","","","","","","","","","","","","","","","","","","","",""
"pit-trial","59","580599","0.0-2.0-14.0-0.0","battery-v0.2","","""event"",""trial"",""time""
""fullscreenenter"",""1"",""2420""
","
","
","""event"",""trial"",""time""
""fullscreenenter"",""1"",""2420""
","
","","","195","","","10","12411","1403","&#9826;","elianto","#f73b6a7A","-1"," ","0","-10","[1051.5]","1","0","3","","","","","","","",""
"pit-trial","60","585461","0.0-2.0-14.0-1.0","battery-v0.2","","""event"",""trial"",""time""
""fullscreenenter"",""1"",""2420""
","
","
","""event"",""trial"",""time""
""fullscreenenter"",""1"",""2420""
","
","","","-1","","","10","12411","1403","&#9826;","elianto","#f73b6a7A","-1","-1","1","0","[]","0","0","3","","","","","","","",""
"pit-trial","61","590352","0.0-2.0-14.0-2.0","battery-v0.2","","""event"",""trial"",""time""
""fullscreenenter"",""1"",""2420""
","
","
","""event"",""trial"",""time""
""fullscreenenter"",""1"",""2420""
","
","","","-1","","","10","12411","1403","&#9826;","elianto","#f73b6a7A","-1","-1","1","0","[]","0","0","3","","","","","","","",""
"pit-trial","62","595222","0.0-2.0-14.0-3.0","battery-v0.2","","""event"",""trial"",""time""
""fullscreenenter"",""1"",""2420""
","
","
","""event"",""trial"",""time""
""fullscreenenter"",""1"",""2420""
","
","","","-1","","","10","12411","1403","&#9826;","elianto","#f73b6a7A","-1","-1","1","-10","[]","0","0","3","","","","","","","",""
"pit-trial","63","600102","0.0-2.0-14.0-4.0","battery-v0.2","","""event"",""trial"",""time""
""fullscreenenter"",""1"",""2420""
","
","
","""event"",""trial"",""time""
""fullscreenenter"",""1"",""2420""
","
","","","-1","","","10","12411","1403","&#9826;","elianto","#f73b6a7A","-1","-1","1","0","[]","0","0","3","","","","","","","",""
"pit-trial","64","604971","0.0-2.0-14.1-0.1","battery-v0.2","","""event"",""trial"",""time""
""fullscreenenter"",""1"",""2420""
","
","
","""event"",""trial"",""time""
""fullscreenenter"",""1"",""2420""
","
","","","-1","","","10","12411","1403","&#9826;","elianto","#f73b6a7A","-1","-1","1","0","[]","0","0","3","","","","","","","",""
"pit-trial","65","609830","0.0-2.0-14.1-1.1","battery-v0.2","","""event"",""trial"",""time""
""fullscreenenter"",""1"",""2420""
","
","
","""event"",""trial"",""time""
""fullscreenenter"",""1"",""2420""
","
","","","-1","","","10","12411","1403","&#9826;","elianto","#f73b6a7A","-1","-1","1","0","[]","0","0","3","","","","","","","",""
"pit-trial","66","614689","0.0-2.0-14.1-2.1","battery-v0.2","","""event"",""trial"",""time""
""fullscreenenter"",""1"",""2420""
","
","
","""event"",""trial"",""time""
""fullscreenenter"",""1"",""2420""
","
","","","-1","","","10","12411","1403","&#9826;","elianto","#f73b6a7A","-1","-1","1","0","[]","0","0","3","","","","","","","",""
"pit-trial","67","619569","0.0-2.0-14.1-3.1","battery-v0.2","","""event"",""trial"",""time""
""fullscreenenter"",""1"",""2420""
","
","
","""event"",""trial"",""time""
""fullscreenenter"",""1"",""2420""
","
","","","-1","","","10","12411","1403","&#9826;","elianto","#f73b6a7A","-1","-1","1","-10","[]","0","0","3","","","","","","","",""
"pit-trial","68","624430","0.0-2.0-14.1-4.1","battery-v0.2","","""event"",""trial"",""time""
""fullscreenenter"",""1"",""2420""
","
","
","""event"",""trial"",""time""
""fullscreenenter"",""1"",""2420""
","
","","","-1","","","10","12411","1403","&#9826;","elianto","#f73b6a7A","-1","-1","1","0","[]","0","0","3","","","","","","","",""
"pit-trial","69","629290","0.0-2.0-14.2-0.2","battery-v0.2","","""event"",""trial"",""time""
""fullscreenenter"",""1"",""2420""
","
","
","""event"",""trial"",""time""
""fullscreenenter"",""1"",""2420""
","
","","","-1","","","10","12411","1403","&#9826;","elianto","#f73b6a7A","-1","-1","1","0","[]","0","0","3","","","","","","","",""
"pit-trial","70","634146","0.0-2.0-14.2-1.2","battery-v0.2","","""event"",""trial"",""time""
""fullscreenenter"",""1"",""2420""
","
","
","""event"",""trial"",""time""
""fullscreenenter"",""1"",""2420""
","
","","","-1","","","10","12411","1403","&#9826;","elianto","#f73b6a7A","-1","-1","1","0","[]","0","0","3","","","","","","","",""
"pit-trial","71","639004","0.0-2.0-14.2-2.2","battery-v0.2","","""event"",""trial"",""time""
""fullscreenenter"",""1"",""2420""
","
","
","""event"",""trial"",""time""
""fullscreenenter"",""1"",""2420""
","
","","","-1","","","10","12411","1403","&#9826;","elianto","#f73b6a7A","-1","-1","1","0","[]","0","0","3","","","","","","","",""
"pit-trial","72","643865","0.0-2.0-14.2-3.2","battery-v0.2","","""event"",""trial"",""time""
""fullscreenenter"",""1"",""2420""
","
","
","""event"",""trial"",""time""
""fullscreenenter"",""1"",""2420""
","
","","","-1","","","10","12411","1403","&#9826;","elianto","#f73b6a7A","-1","-1","1","-10","[]","0","0","3","","","","","","","",""
"pit-trial","73","648770","0.0-2.0-14.2-4.2","battery-v0.2","","""event"",""trial"",""time""
""fullscreenenter"",""1"",""2420""
","
","
","""event"",""trial"",""time""
""fullscreenenter"",""1"",""2420""
","
","","","-1","","","10","12411","1403","&#9826;","elianto","#f73b6a7A","-1","-1","1","0","[]","0","0","3","","","","","","","",""
"pit-trial","74","653627","0.0-2.0-14.3-0.3","battery-v0.2","","""event"",""trial"",""time""
""fullscreenenter"",""1"",""2420""
","
","
","""event"",""trial"",""time""
""fullscreenenter"",""1"",""2420""
","
","","","-1","","","10","12411","1403","&#9826;","elianto","#f73b6a7A","-1","-1","1","0","[]","0","0","3","","","","","","","",""
"pit-trial","75","658486","0.0-2.0-14.3-1.3","battery-v0.2","","""event"",""trial"",""time""
""fullscreenenter"",""1"",""2420""
","
","
","""event"",""trial"",""time""
""fullscreenenter"",""1"",""2420""
","
","","","-1","","","10","12411","1403","&#9826;","elianto","#f73b6a7A","-1","-1","1","0","[]","0","0","3","","","","","","","",""
"pit-trial","76","663357","0.0-2.0-14.3-2.3","battery-v0.2","","""event"",""trial"",""time""
""fullscreenenter"",""1"",""2420""
","
","
","""event"",""trial"",""time""
""fullscreenenter"",""1"",""2420""
","
","","","-1","","","10","12411","1403","&#9826;","elianto","#f73b6a7A","-1","-1","1","0","[]","0","0","3","","","","","","","",""
"pit-trial","77","668219","0.0-2.0-14.3-3.3","battery-v0.2","","""event"",""trial"",""time""
""fullscreenenter"",""1"",""2420""
","
","
","""event"",""trial"",""time""
""fullscreenenter"",""1"",""2420""
","
","","","-1","","","10","12411","1403","&#9826;","elianto","#f73b6a7A","-1","-1","1","-10","[]","0","0","3","","","","","","","",""
"pit-trial","78","673078","0.0-2.0-14.3-4.3","battery-v0.2","","""event"",""trial"",""time""
""fullscreenenter"",""1"",""2420""
","
","
","""event"",""trial"",""time""
""fullscreenenter"",""1"",""2420""
","
","","","-1","","","10","12411","1403","&#9826;","elianto","#f73b6a7A","-1","-1","1","0","[]","0","0","3","","","","","","","",""
"call-function","79","673083","0.0-2.0-15.0","battery-v0.2","","""event"",""trial"",""time""
""fullscreenenter"",""1"",""2420""
","
","
","""event"",""trial"",""time""
""fullscreenenter"",""1"",""2420""
","
","","","","","","","","","","","","","","","","","","","","","","","","","","",""
"pit-instructions","80","700854","0.0-2.0-16.0","battery-v0.2","","""event"",""trial"",""time""
""fullscreenenter"",""1"",""2420""
","
","
","""event"",""trial"",""time""
""fullscreenenter"",""1"",""2420""
","
","","[{""page_index"":0,""viewing_time"":7082.300000011921},{""page_index"":1,""viewing_time"":8947.199999988079},{""page_index"":2,""viewing_time"":5640.0999999940395},{""page_index"":3,""viewing_time"":6100.200000017881}]","27770.09999999404","","","","","","","","","","","","","","","","","","","","","","","",""
"pit-trial","81","703992","0.0-2.0-17.0-0.0","battery-v0.2","","""event"",""trial"",""time""
""fullscreenenter"",""1"",""2420""
","
","
","""event"",""trial"",""time""
""fullscreenenter"",""1"",""2420""
","
","","","268.7999999821186","","","10","12411","1403","&#9789;","elianto","#f73b6a7A"," "," ","1","0","[1119.800000011921]","1","0","4","","","","","","","",""
"pit-trial","82","707904","0.0-2.0-17.0-1.0","battery-v0.2","","""event"",""trial"",""time""
""fullscreenenter"",""1"",""2420""
","
","
","""event"",""trial"",""time""
""fullscreenenter"",""1"",""2420""
","
","","","1013.3000000119209","","","10","12411","1403","&#9789;","elianto","#f73b6a7A"," "," ","1","0","[683.5999999940395,1878.800000011921]","2","0","4","","","","","","","",""
"pit-trial","83","711072","0.0-2.0-17.0-2.0","battery-v0.2","","""event"",""trial"",""time""
""fullscreenenter"",""1"",""2420""
","
","
","""event"",""trial"",""time""
""fullscreenenter"",""1"",""2420""
","
","","","284","","","10","12411","1403","&#9789;","elianto","#f73b6a7A"," "," ","1","0","[1136.699999988079]","1","0","4","","","","","","","",""
"pit-trial","84","714072","0.0-2.0-17.0-3.0","battery-v0.2","","""event"",""trial"",""time""
""fullscreenenter"",""1"",""2420""
","
","
","""event"",""trial"",""time""
""fullscreenenter"",""1"",""2420""
","
","","","139.80000001192093","","","10","12411","1403","&#9789;","elianto","#f73b6a7A"," "," ","1","-10","[991.0999999940395]","1","0","4","","","","","","","",""
"pit-trial","85","717251","0.0-2.0-17.0-4.0","battery-v0.2","","""event"",""trial"",""time""
""fullscreenenter"",""1"",""2420""
","
","
","""event"",""trial"",""time""
""fullscreenenter"",""1"",""2420""
","
","","","304.60000002384186","","","10","12411","1403","&#9789;","elianto","#f73b6a7A"," "," ","1","0","[1156.800000011921]","1","0","4","","","","","","","",""
"pit-trial","86","721931","0.0-2.0-17.1-0.1","battery-v0.2","","""event"",""trial"",""time""
""fullscreenenter"",""1"",""2420""
","
","
","""event"",""trial"",""time""
""fullscreenenter"",""1"",""2420""
","
","","","1813.199999988079","","","10","12411","1403","&#9789;","elianto","#f73b6a7A"," "," ","1","0","[617.7999999821186,2666.199999988079]","2","0","4","","","","","","","",""
"pit-trial","87","725225","0.0-2.0-17.1-1.1","battery-v0.2","","""event"",""trial"",""time""
""fullscreenenter"",""1"",""2420""
","
","
","""event"",""trial"",""time""
""fullscreenenter"",""1"",""2420""
","
","","","433.59999999403954","","","10","12411","1403","&#9789;","elianto","#f73b6a7A"," "," ","1","0","[1287.0999999940395]","1","0","4","","","","","","","",""
"pit-trial","88","728730","0.0-2.0-17.1-2.1","battery-v0.2","","""event"",""trial"",""time""
""fullscreenenter"",""1"",""2420""
","
","
","""event"",""trial"",""time""
""fullscreenenter"",""1"",""2420""
","
","","","639.7999999821186","","","10","12411","1403","&#9789;","elianto","#f73b6a7A"," "," ","1","0","[1493.2999999821186]","1","0","4","","","","","","","",""
"pit-trial","89","731756","0.0-2.0-17.1-3.1","battery-v0.2","","""event"",""trial"",""time""
""fullscreenenter"",""1"",""2420""
","
","
","""event"",""trial"",""time""
""fullscreenenter"",""1"",""2420""
","
","","","169","","","10","12411","1403","&#9789;","elianto","#f73b6a7A"," "," ","1","-10","[1021.3000000119209]","1","0","4","","","","","","","",""
"pit-trial","90","735154","0.0-2.0-17.1-4.1","battery-v0.2","","""event"",""trial"",""time""
""fullscreenenter"",""1"",""2420""
","
","
","""event"",""trial"",""time""
""fullscreenenter"",""1"",""2420""
","
","","","525.2000000178814","","","10","12411","1403","&#9789;","elianto","#f73b6a7A"," "," ","1","0","[1387.300000011921]","1","0","4","","","","","","","",""
"pit-trial","91","738165","0.0-2.0-17.2-0.2","battery-v0.2","","""event"",""trial"",""time""
""fullscreenenter"",""1"",""2420""
","
","
","""event"",""trial"",""time""
""fullscreenenter"",""1"",""2420""
","
","","","123.7999999821186","","","10","12411","1403","&#9789;","elianto","#f73b6a7A"," "," ","1","0","[1001.9000000059605]","1","0","4","","","","","","","",""
"pit-trial","92","741423","0.0-2.0-17.2-1.2","battery-v0.2","","""event"",""trial"",""time""
""fullscreenenter"",""1"",""2420""
","
","
","""event"",""trial"",""time""
""fullscreenenter"",""1"",""2420""
","
","","","334.5","","","10","12411","1403","&#9789;","elianto","#f73b6a7A"," "," ","1","0","[1191.2000000178814]","1","0","4","","","","","","","",""
"pit-trial","93","744666","0.0-2.0-17.2-2.2","battery-v0.2","","""event"",""trial"",""time""
""fullscreenenter"",""1"",""2420""
","
","
","""event"",""trial"",""time""
""fullscreenenter"",""1"",""2420""
","
","","","386.10000002384186","","","10","12411","1403","&#9789;","elianto","#f73b6a7A"," "," ","1","0","[1237]","1","0","4","","","","","","","",""
"pit-trial","94","747728","0.0-2.0-17.2-3.2","battery-v0.2","","""event"",""trial"",""time""
""fullscreenenter"",""1"",""2420""
","
","
","""event"",""trial"",""time""
""fullscreenenter"",""1"",""2420""
","
","","","202.19999998807907","","","10","12411","1403","&#9789;","elianto","#f73b6a7A"," "," ","1","-10","[1054.300000011921]","1","0","4","","","","","","","",""
"pit-trial","95","750827","0.0-2.0-17.2-4.2","battery-v0.2","","""event"",""trial"",""time""
""fullscreenenter"",""1"",""2420""
","
","
","""event"",""trial"",""time""
""fullscreenenter"",""1"",""2420""
","
","","","237.2000000178814","","","10","12411","1403","&#9789;","elianto","#f73b6a7A"," "," ","1","0","[1088.2000000178814]","1","0","4","","","","","","","",""
"pit-trial","96","753996","0.0-2.0-17.3-0.3","battery-v0.2","","""event"",""trial"",""time""
""fullscreenenter"",""1"",""2420""
","
","
","""event"",""trial"",""time""
""fullscreenenter"",""1"",""2420""
","
","","","306.39999997615814","","","10","12411","1403","&#9789;","elianto","#f73b6a7A"," "," ","1","0","[1158.199999988079]","1","0","4","","","","","","","",""
"pit-trial","97","757288","0.0-2.0-17.3-1.3","battery-v0.2","","""event"",""trial"",""time""
""fullscreenenter"",""1"",""2420""
","
","
","""event"",""trial"",""time""
""fullscreenenter"",""1"",""2420""
","
","","","435.59999999403954","","","10","12411","1403","&#9789;","elianto","#f73b6a7A"," "," ","1","0","[1286.9000000059605]","1","0","4","","","","","","","",""
"pit-trial","98","760778","0.0-2.0-17.3-2.3","battery-v0.2","","""event"",""trial"",""time""
""fullscreenenter"",""1"",""2420""
","
","
","""event"",""trial"",""time""
""fullscreenenter"",""1"",""2420""
","
","","","624.6999999880791","","","10","12411","1403","&#9789;","elianto","#f73b6a7A"," "," ","1","0","[1475.3999999761581]","1","0","4","","","","","","","",""
"pit-trial","99","763917","0.0-2.0-17.3-3.3","battery-v0.2","","""event"",""trial"",""time""
""fullscreenenter"",""1"",""2420""
","
","
","""event"",""trial"",""time""
""fullscreenenter"",""1"",""2420""
","
","","","282.30000001192093","","","10","12411","1403","&#9789;","elianto","#f73b6a7A"," "," ","1","-10","[1133.199999988079]","1","0","4","","","","","","","",""
"pit-trial","100","767218","0.0-2.0-17.3-4.3","battery-v0.2","","""event"",""trial"",""time""
""fullscreenenter"",""1"",""2420""
","
","
","""event"",""trial"",""time""
""fullscreenenter"",""1"",""2420""
","
","","","442.30000001192093","","","10","12411","1403","&#9789;","elianto","#f73b6a7A"," "," ","1","0","[1294.699999988079]","1","0","4","","","","","","","",""
"call-function","101","767223","0.0-2.0-18.0","battery-v0.2","","""event"",""trial"",""time""
""fullscreenenter"",""1"",""2420""
","
","
","""event"",""trial"",""time""
""fullscreenenter"",""1"",""2420""
","
","","","","","","","","","","","","","","","","","","","","","","","","","","",""
"pit-instructions","102","852338","0.0-2.0-19.0","battery-v0.2","","""event"",""trial"",""time""
""fullscreenenter"",""1"",""2420""
","
","
","""event"",""trial"",""time""
""fullscreenenter"",""1"",""2420""
","
","","[{""page_index"":0,""viewing_time"":6892.299999982119},{""page_index"":1,""viewing_time"":8210.200000017881},{""page_index"":2,""viewing_time"":13574.5},{""page_index"":3,""viewing_time"":13331.299999982119},{""page_index"":4,""viewing_time"":10086.200000017881},{""page_index"":5,""viewing_time"":8755.90000000596},{""page_index"":6,""viewing_time"":7243},{""page_index"":7,""viewing_time"":8393.5},{""page_index"":8,""viewing_time"":8627.899999976158}]","85115.09999999404","","","","","","","","","","","","","","","","","","","","","","","",""
"pit-comprehension","103","862142","0.0-2.0-20.0-0.0","battery-v0.2","","""event"",""trial"",""time""
""fullscreenenter"",""1"",""2420""
","
","
","""event"",""trial"",""time""
""fullscreenenter"",""1"",""2420""
","
","","","9798.699999988079","[""SPACE""]","0","10","12411","1403","","","","","","","","","","","","","","","","","","",""
"pit-instructions","104","866554","0.0-2.0-20.0-1.0","battery-v0.2","","""event"",""trial"",""time""
""fullscreenenter"",""1"",""2420""
","
","
","""event"",""trial"",""time""
""fullscreenenter"",""1"",""2420""
","
","","[{""page_index"":0,""viewing_time"":4359.600000023842}]","4360","","","","","","","","","","","","","","","","","","","","","","","",""
"pit-comprehension","105","878203","0.0-2.0-21.0-0.0","battery-v0.2","","""event"",""trial"",""time""
""fullscreenenter"",""1"",""2420""
""blur"",""106"",""885742""
""focus"",""106"",""885749""
""fullscreenexit"",""106"",""885754""
","""event"",""trial"",""time""
""blur"",""106"",""885742""
","""event"",""trial"",""time""
""focus"",""106"",""885749""
","""event"",""trial"",""time""
""fullscreenenter"",""1"",""2420""
","""event"",""trial"",""time""
""fullscreenexit"",""106"",""885754""
","","","11644.59999999404","[""10""]","0","10","12411","1403","","","","","","","","","","","","","","","","","","",""
"pit-instructions","106","887369","0.0-2.0-21.0-1.0","battery-v0.2","","""event"",""trial"",""time""
""fullscreenenter"",""1"",""2420""
""blur"",""106"",""885742""
""focus"",""106"",""885749""
""fullscreenexit"",""106"",""885754""
","""event"",""trial"",""time""
""blur"",""106"",""885742""
","""event"",""trial"",""time""
""focus"",""106"",""885749""
","""event"",""trial"",""time""
""fullscreenenter"",""1"",""2420""
","""event"",""trial"",""time""
""fullscreenexit"",""106"",""885754""
","","[{""page_index"":0,""viewing_time"":9120.200000017881}]","9120.700000017881","","","","","","","","","","","","","","","","","","","","","","","",""
"pit-comprehension","107","894380","0.0-2.0-22.0-0.0","battery-v0.2","","""event"",""trial"",""time""
""fullscreenenter"",""1"",""2420""
""blur"",""106"",""885742""
""focus"",""106"",""885749""
""fullscreenexit"",""106"",""885754""
","""event"",""trial"",""time""
""blur"",""106"",""885742""
","""event"",""trial"",""time""
""focus"",""106"",""885749""
","""event"",""trial"",""time""
""fullscreenenter"",""1"",""2420""
","""event"",""trial"",""time""
""fullscreenexit"",""106"",""885754""
","","","7004.399999976158","[""0""]","0","10","12411","1403","","","","","","","","","","","","","","","","","","",""
"pit-instructions","108","899960","0.0-2.0-22.0-1.0","battery-v0.2","","""event"",""trial"",""time""
""fullscreenenter"",""1"",""2420""
""blur"",""106"",""885742""
""focus"",""106"",""885749""
""fullscreenexit"",""106"",""885754""
","""event"",""trial"",""time""
""blur"",""106"",""885742""
","""event"",""trial"",""time""
""focus"",""106"",""885749""
","""event"",""trial"",""time""
""fullscreenenter"",""1"",""2420""
","""event"",""trial"",""time""
""fullscreenexit"",""106"",""885754""
","","[{""page_index"":0,""viewing_time"":5535.9000000059605}]","5536.199999988079","","","","","","","","","","","","","","","","","","","","","","","",""
"pit-comprehension","109","920202","0.0-2.0-23.0-0.0","battery-v0.2","","""event"",""trial"",""time""
""fullscreenenter"",""1"",""2420""
""blur"",""106"",""885742""
""focus"",""106"",""885749""
""fullscreenexit"",""106"",""885754""
","""event"",""trial"",""time""
""blur"",""106"",""885742""
","""event"",""trial"",""time""
""focus"",""106"",""885749""
","""event"",""trial"",""time""
""fullscreenenter"",""1"",""2420""
","""event"",""trial"",""time""
""fullscreenexit"",""106"",""885754""
","","","20235.59999999404","[""False""]","1","10","12411","1403","","","","","","","","","","","","","","","","","","",""
"pit-instructions","110","925600","0.0-2.0-23.0-1.0","battery-v0.2","","""event"",""trial"",""time""
""fullscreenenter"",""1"",""2420""
""blur"",""106"",""885742""
""focus"",""106"",""885749""
""fullscreenexit"",""106"",""885754""
","""event"",""trial"",""time""
""blur"",""106"",""885742""
","""event"",""trial"",""time""
""focus"",""106"",""885749""
","""event"",""trial"",""time""
""fullscreenenter"",""1"",""2420""
","""event"",""trial"",""time""
""fullscreenexit"",""106"",""885754""
","","[{""page_index"":0,""viewing_time"":5352}]","5352.4000000059605","","","","","","","","","","","","","","","","","","","","","","","",""
"pit-instructions","111","927444","0.0-2.0-23.0-2.0-0.0","battery-v0.2","","""event"",""trial"",""time""
""fullscreenenter"",""1"",""2420""
""blur"",""106"",""885742""
""focus"",""106"",""885749""
""fullscreenexit"",""106"",""885754""
","""event"",""trial"",""time""
""blur"",""106"",""885742""
","""event"",""trial"",""time""
""focus"",""106"",""885749""
","""event"",""trial"",""time""
""fullscreenenter"",""1"",""2420""
","""event"",""trial"",""time""
""fullscreenexit"",""106"",""885754""
","","[{""page_index"":0,""viewing_time"":1840.800000011921}]","1841","","","","","","","","","","","","","","","","","","","","","","","",""
"pit-comprehension","112","935929","0.0-2.0-23.1-0.1","battery-v0.2","","""event"",""trial"",""time""
""fullscreenenter"",""1"",""2420""
""blur"",""106"",""885742""
""focus"",""106"",""885749""
""fullscreenexit"",""106"",""885754""
","""event"",""trial"",""time""
""blur"",""106"",""885742""
","""event"",""trial"",""time""
""focus"",""106"",""885749""
","""event"",""trial"",""time""
""fullscreenenter"",""1"",""2420""
","""event"",""trial"",""time""
""fullscreenexit"",""106"",""885754""
","","","8481.199999988079","[""True""]","0","10","12411","1403","","","","","","","","","","","","","","","","","","",""
"pit-instructions","113","938122","0.0-2.0-23.1-1.1","battery-v0.2","","""event"",""trial"",""time""
""fullscreenenter"",""1"",""2420""
""blur"",""106"",""885742""
""focus"",""106"",""885749""
""fullscreenexit"",""106"",""885754""
","""event"",""trial"",""time""
""blur"",""106"",""885742""
","""event"",""trial"",""time""
""focus"",""106"",""885749""
","""event"",""trial"",""time""
""fullscreenenter"",""1"",""2420""
","""event"",""trial"",""time""
""fullscreenexit"",""106"",""885754""
","","[{""page_index"":0,""viewing_time"":2142.800000011921}]","2143.0999999940395","","","","","","","","","","","","","","","","","","","","","","","",""
"pit-comprehension","114","945646","0.0-2.0-24.0-0.0","battery-v0.2","","""event"",""trial"",""time""
""fullscreenenter"",""1"",""2420""
""blur"",""106"",""885742""
""focus"",""106"",""885749""
""fullscreenexit"",""106"",""885754""
","""event"",""trial"",""time""
""blur"",""106"",""885742""
","""event"",""trial"",""time""
""focus"",""106"",""885749""
","""event"",""trial"",""time""
""fullscreenenter"",""1"",""2420""
","""event"",""trial"",""time""
""fullscreenexit"",""106"",""885754""
","","","7518.699999988079","[""True""]","0","10","12411","1403","","","","","","","","","","","","","","","","","","",""
"pit-instructions","115","947358","0.0-2.0-24.0-1.0","battery-v0.2","","""event"",""trial"",""time""
""fullscreenenter"",""1"",""2420""
""blur"",""106"",""885742""
""focus"",""106"",""885749""
""fullscreenexit"",""106"",""885754""
","""event"",""trial"",""time""
""blur"",""106"",""885742""
","""event"",""trial"",""time""
""focus"",""106"",""885749""
","""event"",""trial"",""time""
""fullscreenenter"",""1"",""2420""
","""event"",""trial"",""time""
""fullscreenexit"",""106"",""885754""
","","[{""page_index"":0,""viewing_time"":1663.300000011921}]","1663.699999988079","","","","","","","","","","","","","","","","","","","","","","","",""
"pit-comprehension","116","953823","0.0-2.0-25.0-0.0","battery-v0.2","","""event"",""trial"",""time""
""fullscreenenter"",""1"",""2420""
""blur"",""106"",""885742""
""focus"",""106"",""885749""
""fullscreenexit"",""106"",""885754""
","""event"",""trial"",""time""
""blur"",""106"",""885742""
","""event"",""trial"",""time""
""focus"",""106"",""885749""
","""event"",""trial"",""time""
""fullscreenenter"",""1"",""2420""
","""event"",""trial"",""time""
""fullscreenexit"",""106"",""885754""
","","","6460.800000011921","[""True""]","0","10","12411","1403","","","","","","","","","","","","","","","","","","",""
"pit-instructions","117","956002","0.0-2.0-25.0-1.0","battery-v0.2","","""event"",""trial"",""time""
""fullscreenenter"",""1"",""2420""
""blur"",""106"",""885742""
""focus"",""106"",""885749""
""fullscreenexit"",""106"",""885754""
","""event"",""trial"",""time""
""blur"",""106"",""885742""
","""event"",""trial"",""time""
""focus"",""106"",""885749""
","""event"",""trial"",""time""
""fullscreenenter"",""1"",""2420""
","""event"",""trial"",""time""
""fullscreenexit"",""106"",""885754""
","","[{""page_index"":0,""viewing_time"":2121.800000011921}]","2122","","","","","","","","","","","","","","","","","","","","","","","",""
"pit-comprehension","118","962507","0.0-2.0-26.0-0.0","battery-v0.2","","""event"",""trial"",""time""
""fullscreenenter"",""1"",""2420""
""blur"",""106"",""885742""
""focus"",""106"",""885749""
""fullscreenexit"",""106"",""885754""
","""event"",""trial"",""time""
""blur"",""106"",""885742""
","""event"",""trial"",""time""
""focus"",""106"",""885749""
","""event"",""trial"",""time""
""fullscreenenter"",""1"",""2420""
","""event"",""trial"",""time""
""fullscreenexit"",""106"",""885754""
","","","6500.699999988079","[""False""]","0","10","12411","1403","","","","","","","","","","","","","","","","","","",""
"pit-instructions","119","964702","0.0-2.0-26.0-1.0","battery-v0.2","","""event"",""trial"",""time""
""fullscreenenter"",""1"",""2420""
""blur"",""106"",""885742""
""focus"",""106"",""885749""
""fullscreenexit"",""106"",""885754""
","""event"",""trial"",""time""
""blur"",""106"",""885742""
","""event"",""trial"",""time""
""focus"",""106"",""885749""
","""event"",""trial"",""time""
""fullscreenenter"",""1"",""2420""
","""event"",""trial"",""time""
""fullscreenexit"",""106"",""885754""
","","[{""page_index"":0,""viewing_time"":2142.800000011921}]","2142.9000000059605","","","","","","","","","","","","","","","","","","","","","","","",""
"pit-instructions","120","983638","0.0-3.0","battery-v0.2","","""event"",""trial"",""time""
""fullscreenenter"",""1"",""2420""
""blur"",""106"",""885742""
""focus"",""106"",""885749""
""fullscreenexit"",""106"",""885754""
","""event"",""trial"",""time""
""blur"",""106"",""885742""
","""event"",""trial"",""time""
""focus"",""106"",""885749""
","""event"",""trial"",""time""
""fullscreenenter"",""1"",""2420""
","""event"",""trial"",""time""
""fullscreenexit"",""106"",""885754""
","","[{""page_index"":0,""viewing_time"":3899.300000011921},{""page_index"":1,""viewing_time"":5915.5999999940395},{""page_index"":2,""viewing_time"":9118.699999988079}]","18934","","","","","","","","","","","","","","","","","","","","","","","",""
"pit-trial","121","987121","0.0-4.0","battery-v0.2","","""event"",""trial"",""time""
""fullscreenenter"",""1"",""2420""
""blur"",""106"",""885742""
""focus"",""106"",""885749""
""fullscreenexit"",""106"",""885754""
","""event"",""trial"",""time""
""blur"",""106"",""885742""
","""event"",""trial"",""time""
""focus"",""106"",""885749""
","""event"",""trial"",""time""
""fullscreenenter"",""1"",""2420""
","""event"",""trial"",""time""
""fullscreenexit"",""106"",""885754""
","","","598.7999999821186","","","10","12411","1403","&#9752;","elianto","#f73b6a7A"," "," ","1","0","[1455.199999988079]","1","1","","","12411","1","3","3","lose","go","0"
"pit-trial","122","990921","0.0-5.0","battery-v0.2","","""event"",""trial"",""time""
""fullscreenenter"",""1"",""2420""
""blur"",""106"",""885742""
""focus"",""106"",""885749""
""fullscreenexit"",""106"",""885754""
","""event"",""trial"",""time""
""blur"",""106"",""885742""
","""event"",""trial"",""time""
""focus"",""106"",""885749""
","""event"",""trial"",""time""
""fullscreenenter"",""1"",""2420""
","""event"",""trial"",""time""
""fullscreenexit"",""106"",""885754""
","","","906.5","","","10","12411","1403","&#9730;","elianto","#3366ff99"," "," ","1","+10","[1788.7000000178814]","1","1","","","12411","2","1","1","win","go","0"
"pit-trial","123","994818","0.0-6.0","battery-v0.2","","""event"",""trial"",""time""
""fullscreenenter"",""1"",""2420""
""blur"",""106"",""885742""
""focus"",""106"",""885749""
""fullscreenexit"",""106"",""885754""
","""event"",""trial"",""time""
""blur"",""106"",""885742""
","""event"",""trial"",""time""
""focus"",""106"",""885749""
","""event"",""trial"",""time""
""fullscreenenter"",""1"",""2420""
","""event"",""trial"",""time""
""fullscreenexit"",""106"",""885754""
","","","1026.6000000238419","","","10","12411","1403","&#9728;","elianto","#f73b6a7A","-1"," ","0","-10","[1883.9000000059605]","1","1","","","12411","3","0","4","lose","no-go","0"
"pit-trial","124","998731","0.0-7.0","battery-v0.2","","""event"",""trial"",""time""
""fullscreenenter"",""1"",""2420""
""blur"",""106"",""885742""
""focus"",""106"",""885749""
""fullscreenexit"",""106"",""885754""
","""event"",""trial"",""time""
""blur"",""106"",""885742""
","""event"",""trial"",""time""
""focus"",""106"",""885749""
","""event"",""trial"",""time""
""fullscreenenter"",""1"",""2420""
","""event"",""trial"",""time""
""fullscreenexit"",""106"",""885754""
","","","1038.9000000059605","","","10","12411","1403","&#9733;","elianto","#3366ff99","-1"," ","0","0","[1895.7000000178814]","1","1","","","12411","4","2","2","win","no-go","0"
"pit-trial","125","1003610","0.0-8.0","battery-v0.2","","""event"",""trial"",""time""
""fullscreenenter"",""1"",""2420""
""blur"",""106"",""885742""
""focus"",""106"",""885749""
""fullscreenexit"",""106"",""885754""
","""event"",""trial"",""time""
""blur"",""106"",""885742""
","""event"",""trial"",""time""
""focus"",""106"",""885749""
","""event"",""trial"",""time""
""fullscreenenter"",""1"",""2420""
","""event"",""trial"",""time""
""fullscreenexit"",""106"",""885754""
","","","-1","","","10","12411","1403","&#9733;","elianto","#3366ff99","-1","-1","1","+10","[]","0","1","","","12411","5","2","2","win","no-go","0"
"pit-trial","126","1007320","0.0-9.0","battery-v0.2","","""event"",""trial"",""time""
""fullscreenenter"",""1"",""2420""
""blur"",""106"",""885742""
""focus"",""106"",""885749""
""fullscreenexit"",""106"",""885754""
","""event"",""trial"",""time""
""blur"",""106"",""885742""
","""event"",""trial"",""time""
""focus"",""106"",""885749""
","""event"",""trial"",""time""
""fullscreenenter"",""1"",""2420""
","""event"",""trial"",""time""
""fullscreenexit"",""106"",""885754""
","","","823.6999999880791","","","10","12411","1403","&#9730;","elianto","#3366ff99"," "," ","1","+10","[1688.4000000059605]","1","1","","","12411","6","1","1","win","go","0"
"pit-trial","127","1012181","0.0-10.0","battery-v0.2","","""event"",""trial"",""time""
""fullscreenenter"",""1"",""2420""
""blur"",""106"",""885742""
""focus"",""106"",""885749""
""fullscreenexit"",""106"",""885754""
","""event"",""trial"",""time""
""blur"",""106"",""885742""
","""event"",""trial"",""time""
""focus"",""106"",""885749""
","""event"",""trial"",""time""
""fullscreenenter"",""1"",""2420""
","""event"",""trial"",""time""
""fullscreenexit"",""106"",""885754""
","","","-1","","","10","12411","1403","&#9728;","elianto","#f73b6a7A","-1","-1","1","-10","[]","0","1","","","12411","7","0","4","lose","no-go","1"
"pit-trial","128","1015659","0.0-11.0","battery-v0.2","","""event"",""trial"",""time""
""fullscreenenter"",""1"",""2420""
""blur"",""106"",""885742""
""focus"",""106"",""885749""
""fullscreenexit"",""106"",""885754""
","""event"",""trial"",""time""
""blur"",""106"",""885742""
","""event"",""trial"",""time""
""focus"",""106"",""885749""
","""event"",""trial"",""time""
""fullscreenenter"",""1"",""2420""
","""event"",""trial"",""time""
""fullscreenexit"",""106"",""885754""
","","","620.1999999880791","","","10","12411","1403","&#9752;","elianto","#f73b6a7A"," "," ","1","-10","[1471.0999999940395]","1","1","","","12411","8","3","3","lose","go","1"
"pit-trial","129","1019226","0.0-12.0","battery-v0.2","","""event"",""trial"",""time""
""fullscreenenter"",""1"",""2420""
""blur"",""106"",""885742""
""focus"",""106"",""885749""
""fullscreenexit"",""106"",""885754""
","""event"",""trial"",""time""
""blur"",""106"",""885742""
","""event"",""trial"",""time""
""focus"",""106"",""885749""
","""event"",""trial"",""time""
""fullscreenenter"",""1"",""2420""
","""event"",""trial"",""time""
""fullscreenexit"",""106"",""885754""
","","","709.3000000119209","","","10","12411","1403","&#9730;","elianto","#3366ff99"," "," ","1","+10","[1560.1000000238419]","1","1","","","12411","9","1","1","win","go","0"
"pit-trial","130","1022816","0.0-13.0","battery-v0.2","","""event"",""trial"",""time""
""fullscreenenter"",""1"",""2420""
""blur"",""106"",""885742""
""focus"",""106"",""885749""
""fullscreenexit"",""106"",""885754""
","""event"",""trial"",""time""
""blur"",""106"",""885742""
","""event"",""trial"",""time""
""focus"",""106"",""885749""
","""event"",""trial"",""time""
""fullscreenenter"",""1"",""2420""
","""event"",""trial"",""time""
""fullscreenexit"",""106"",""885754""
","","","734.0999999940395","","","10","12411","1403","&#9728;","elianto","#f73b6a7A","-1"," ","0","-10","[1585.5]","1","1","","","12411","10","0","4","lose","no-go","0"
"pit-trial","131","1026819","0.0-14.0","battery-v0.2","","""event"",""trial"",""time""
""fullscreenenter"",""1"",""2420""
""blur"",""106"",""885742""
""focus"",""106"",""885749""
""fullscreenexit"",""106"",""885754""
","""event"",""trial"",""time""
""blur"",""106"",""885742""
","""event"",""trial"",""time""
""focus"",""106"",""885749""
","""event"",""trial"",""time""
""fullscreenenter"",""1"",""2420""
","""event"",""trial"",""time""
""fullscreenexit"",""106"",""885754""
","","","1146.0999999940395","","","10","12411","1403","&#9752;","elianto","#f73b6a7A"," "," ","1","0","[1996.300000011921]","1","1","","","12411","11","3","3","lose","go","0"
"pit-trial","132","1031689","0.0-15.0","battery-v0.2","","""event"",""trial"",""time""
""fullscreenenter"",""1"",""2420""
""blur"",""106"",""885742""
""focus"",""106"",""885749""
""fullscreenexit"",""106"",""885754""
","""event"",""trial"",""time""
""blur"",""106"",""885742""
","""event"",""trial"",""time""
""focus"",""106"",""885749""
","""event"",""trial"",""time""
""fullscreenenter"",""1"",""2420""
","""event"",""trial"",""time""
""fullscreenexit"",""106"",""885754""
","","","-1","","","10","12411","1403","&#9733;","elianto","#3366ff99","-1","-1","1","+10","[]","0","1","","","12411","12","2","2","win","no-go","0"
"pit-trial","133","1035616","0.0-16.0","battery-v0.2","","""event"",""trial"",""time""
""fullscreenenter"",""1"",""2420""
""blur"",""106"",""885742""
""focus"",""106"",""885749""
""fullscreenexit"",""106"",""885754""
","""event"",""trial"",""time""
""blur"",""106"",""885742""
","""event"",""trial"",""time""
""focus"",""106"",""885749""
","""event"",""trial"",""time""
""fullscreenenter"",""1"",""2420""
","""event"",""trial"",""time""
""fullscreenexit"",""106"",""885754""
","","","1069.2999999821186","","","10","12411","1403","&#9730;","elianto","#3366ff99"," "," ","1","+10","[1920.0999999940395]","1","1","","","12411","13","1","1","win","go","0"
"pit-trial","134","1040470","0.0-17.0","battery-v0.2","","""event"",""trial"",""time""
""fullscreenenter"",""1"",""2420""
""blur"",""106"",""885742""
""focus"",""106"",""885749""
""fullscreenexit"",""106"",""885754""
","""event"",""trial"",""time""
""blur"",""106"",""885742""
","""event"",""trial"",""time""
""focus"",""106"",""885749""
","""event"",""trial"",""time""
""fullscreenenter"",""1"",""2420""
","""event"",""trial"",""time""
""fullscreenexit"",""106"",""885754""
","","","-1","","","10","12411","1403","&#9728;","elianto","#f73b6a7A","-1","-1","1","0","[]","0","1","","","12411","14","0","4","lose","no-go","0"
"pit-trial","135","1043585","0.0-18.0","battery-v0.2","","""event"",""trial"",""time""
""fullscreenenter"",""1"",""2420""
""blur"",""106"",""885742""
""focus"",""106"",""885749""
""fullscreenexit"",""106"",""885754""
","""event"",""trial"",""time""
""blur"",""106"",""885742""
","""event"",""trial"",""time""
""focus"",""106"",""885749""
","""event"",""trial"",""time""
""fullscreenenter"",""1"",""2420""
","""event"",""trial"",""time""
""fullscreenexit"",""106"",""885754""
","","","255.09999999403954","","","10","12411","1403","&#9752;","elianto","#f73b6a7A"," "," ","1","0","[1106]","1","1","","","12411","15","3","3","lose","go","0"
"pit-trial","136","1048461","0.0-19.0","battery-v0.2","","""event"",""trial"",""time""
""fullscreenenter"",""1"",""2420""
""blur"",""106"",""885742""
""focus"",""106"",""885749""
""fullscreenexit"",""106"",""885754""
","""event"",""trial"",""time""
""blur"",""106"",""885742""
","""event"",""trial"",""time""
""focus"",""106"",""885749""
","""event"",""trial"",""time""
""fullscreenenter"",""1"",""2420""
","""event"",""trial"",""time""
""fullscreenexit"",""106"",""885754""
","","","-1","","","10","12411","1403","&#9733;","elianto","#3366ff99","-1","-1","1","0","[]","0","1","","","12411","16","2","2","win","no-go","1"
"pit-trial","137","1053315","0.0-20.0","battery-v0.2","","""event"",""trial"",""time""
""fullscreenenter"",""1"",""2420""
""blur"",""106"",""885742""
""focus"",""106"",""885749""
""fullscreenexit"",""106"",""885754""
","""event"",""trial"",""time""
""blur"",""106"",""885742""
","""event"",""trial"",""time""
""focus"",""106"",""885749""
","""event"",""trial"",""time""
""fullscreenenter"",""1"",""2420""
","""event"",""trial"",""time""
""fullscreenexit"",""106"",""885754""
","","","-1","","","10","12411","1403","&#9728;","elianto","#f73b6a7A","-1","-1","1","0","[]","0","1","","","12411","17","0","4","lose","no-go","0"
"pit-trial","138","1057115","0.0-21.0","battery-v0.2","","""event"",""trial"",""time""
""fullscreenenter"",""1"",""2420""
""blur"",""106"",""885742""
""focus"",""106"",""885749""
""fullscreenexit"",""106"",""885754""
","""event"",""trial"",""time""
""blur"",""106"",""885742""
","""event"",""trial"",""time""
""focus"",""106"",""885749""
","""event"",""trial"",""time""
""fullscreenenter"",""1"",""2420""
","""event"",""trial"",""time""
""fullscreenexit"",""106"",""885754""
","","","938","","","10","12411","1403","&#9752;","elianto","#f73b6a7A"," "," ","1","0","[1790.2000000178814]","1","1","","","12411","18","3","3","lose","go","0"
"pit-trial","139","1060609","0.0-22.0","battery-v0.2","","""event"",""trial"",""time""
""fullscreenenter"",""1"",""2420""
""blur"",""106"",""885742""
""focus"",""106"",""885749""
""fullscreenexit"",""106"",""885754""
","""event"",""trial"",""time""
""blur"",""106"",""885742""
","""event"",""trial"",""time""
""focus"",""106"",""885749""
","""event"",""trial"",""time""
""fullscreenenter"",""1"",""2420""
","""event"",""trial"",""time""
""fullscreenexit"",""106"",""885754""
","","","637.2000000178814","","","10","12411","1403","&#9733;","elianto","#3366ff99","-1"," ","0","0","[1487.7000000178814]","1","1","","","12411","19","2","2","win","no-go","0"
"pit-trial","140","1064287","0.0-23.0","battery-v0.2","","""event"",""trial"",""time""
""fullscreenenter"",""1"",""2420""
""blur"",""106"",""885742""
""focus"",""106"",""885749""
""fullscreenexit"",""106"",""885754""
","""event"",""trial"",""time""
""blur"",""106"",""885742""
","""event"",""trial"",""time""
""focus"",""106"",""885749""
","""event"",""trial"",""time""
""fullscreenenter"",""1"",""2420""
","""event"",""trial"",""time""
""fullscreenexit"",""106"",""885754""
","","","817.1999999880791","","","10","12411","1403","&#9730;","elianto","#3366ff99"," "," ","1","+10","[1667.5]","1","1","","","12411","20","1","1","win","go","0"
"pit-instructions","141","1077794","0.0-24.0","battery-v0.2","","""event"",""trial"",""time""
""fullscreenenter"",""1"",""2420""
""blur"",""106"",""885742""
""focus"",""106"",""885749""
""fullscreenexit"",""106"",""885754""
","""event"",""trial"",""time""
""blur"",""106"",""885742""
","""event"",""trial"",""time""
""focus"",""106"",""885749""
","""event"",""trial"",""time""
""fullscreenenter"",""1"",""2420""
","""event"",""trial"",""time""
""fullscreenexit"",""106"",""885754""
","","[{""page_index"":0,""viewing_time"":6098.199999988079},{""page_index"":1,""viewing_time"":7403.699999988079}]","13502.09999999404","","","","","","","","","","","","","","","","","","","","","","","",""
"pit-trial","142","1081220","0.0-25.0","battery-v0.2","","""event"",""trial"",""time""
""fullscreenenter"",""1"",""2420""
""blur"",""106"",""885742""
""focus"",""106"",""885749""
""fullscreenexit"",""106"",""885754""
","""event"",""trial"",""time""
""blur"",""106"",""885742""
","""event"",""trial"",""time""
""focus"",""106"",""885749""
","""event"",""trial"",""time""
""fullscreenenter"",""1"",""2420""
","""event"",""trial"",""time""
""fullscreenexit"",""106"",""885754""
","","","560.1999999880791","","","10","12411","1403","m","elianto","#f73b6a7A"," "," ","1","0","[1410.9000000059605]","1","2","","","12411","21","0","3","lose","go","0"
"pit-trial","143","1085100","0.0-26.0","battery-v0.2","","""event"",""trial"",""time""
""fullscreenenter"",""1"",""2420""
""blur"",""106"",""885742""
""focus"",""106"",""885749""
""fullscreenexit"",""106"",""885754""
","""event"",""trial"",""time""
""blur"",""106"",""885742""
","""event"",""trial"",""time""
""focus"",""106"",""885749""
","""event"",""trial"",""time""
""fullscreenenter"",""1"",""2420""
","""event"",""trial"",""time""
""fullscreenexit"",""106"",""885754""
","","","1001.5","","","10","12411","1403","r","elianto","#3366ff99","-1"," ","0","0","[1853.7999999821186]","1","2","","","12411","22","1","2","win","no-go","0"
"pit-trial","144","1089140","0.0-27.0","battery-v0.2","","""event"",""trial"",""time""
""fullscreenenter"",""1"",""2420""
""blur"",""106"",""885742""
""focus"",""106"",""885749""
""fullscreenexit"",""106"",""885754""
","""event"",""trial"",""time""
""blur"",""106"",""885742""
","""event"",""trial"",""time""
""focus"",""106"",""885749""
","""event"",""trial"",""time""
""fullscreenenter"",""1"",""2420""
","""event"",""trial"",""time""
""fullscreenexit"",""106"",""885754""
","","","1157","","","10","12411","1403","h","elianto","#f73b6a7A","-1"," ","0","-10","[2012.0999999940395]","1","2","","","12411","23","3","4","lose","no-go","0"
"pit-trial","145","1093290","0.0-28.0","battery-v0.2","","""event"",""trial"",""time""
""fullscreenenter"",""1"",""2420""
""blur"",""106"",""885742""
""focus"",""106"",""885749""
""fullscreenexit"",""106"",""885754""
","""event"",""trial"",""time""
""blur"",""106"",""885742""
","""event"",""trial"",""time""
""focus"",""106"",""885749""
","""event"",""trial"",""time""
""fullscreenenter"",""1"",""2420""
","""event"",""trial"",""time""
""fullscreenexit"",""106"",""885754""
","","","1268.699999988079","","","10","12411","1403","y","elianto","#f73b6a7A"," "," ","1","0","[2125.2999999821186]","1","2","","","12411","24","2","3","lose","go","0"
"pit-trial","146","1097290","0.0-29.0","battery-v0.2","","""event"",""trial"",""time""
""fullscreenenter"",""1"",""2420""
""blur"",""106"",""885742""
""focus"",""106"",""885749""
""fullscreenexit"",""106"",""885754""
","""event"",""trial"",""time""
""blur"",""106"",""885742""
","""event"",""trial"",""time""
""focus"",""106"",""885749""
","""event"",""trial"",""time""
""fullscreenenter"",""1"",""2420""
","""event"",""trial"",""time""
""fullscreenexit"",""106"",""885754""
","","","1137","","","10","12411","1403","m","elianto","#f73b6a7A"," "," ","1","0","[1990.300000011921]","1","2","","","12411","25","0","3","lose","go","0"
"pit-trial","147","1101151","0.0-30.0","battery-v0.2","","""event"",""trial"",""time""
""fullscreenenter"",""1"",""2420""
""blur"",""106"",""885742""
""focus"",""106"",""885749""
""fullscreenexit"",""106"",""885754""
","""event"",""trial"",""time""
""blur"",""106"",""885742""
","""event"",""trial"",""time""
""focus"",""106"",""885749""
","""event"",""trial"",""time""
""fullscreenenter"",""1"",""2420""
","""event"",""trial"",""time""
""fullscreenexit"",""106"",""885754""
","","","977.4000000059605","","","10","12411","1403","r","elianto","#3366ff99","-1"," ","0","+10","[1838]","1","2","","","12411","26","1","2","win","no-go","1"
"pit-trial","148","1106030","0.0-31.0","battery-v0.2","","""event"",""trial"",""time""
""fullscreenenter"",""1"",""2420""
""blur"",""106"",""885742""
""focus"",""106"",""885749""
""fullscreenexit"",""106"",""885754""
","""event"",""trial"",""time""
""blur"",""106"",""885742""
","""event"",""trial"",""time""
""focus"",""106"",""885749""
","""event"",""trial"",""time""
""fullscreenenter"",""1"",""2420""
","""event"",""trial"",""time""
""fullscreenexit"",""106"",""885754""
","","","-1","","","10","12411","1403","h","elianto","#f73b6a7A","-1","-1","1","0","[]","0","2","","","12411","27","3","4","lose","no-go","0"
"pit-trial","149","1109602","0.0-32.0","battery-v0.2","","""event"",""trial"",""time""
""fullscreenenter"",""1"",""2420""
""blur"",""106"",""885742""
""focus"",""106"",""885749""
""fullscreenexit"",""106"",""885754""
","""event"",""trial"",""time""
""blur"",""106"",""885742""
","""event"",""trial"",""time""
""focus"",""106"",""885749""
","""event"",""trial"",""time""
""fullscreenenter"",""1"",""2420""
","""event"",""trial"",""time""
""fullscreenexit"",""106"",""885754""
","","","709","","","10","12411","1403","y","elianto","#f73b6a7A"," "," ","1","0","[1562.7000000178814]","1","2","","","12411","28","2","3","lose","go","0"
"pit-trial","150","1113171","0.0-33.0","battery-v0.2","","""event"",""trial"",""time""
""fullscreenenter"",""1"",""2420""
""blur"",""106"",""885742""
""focus"",""106"",""885749""
""fullscreenexit"",""106"",""885754""
","""event"",""trial"",""time""
""blur"",""106"",""885742""
","""event"",""trial"",""time""
""focus"",""106"",""885749""
","""event"",""trial"",""time""
""fullscreenenter"",""1"",""2420""
","""event"",""trial"",""time""
""fullscreenexit"",""106"",""885754""
","","","691.8000000119209","","","10","12411","1403","m","elianto","#f73b6a7A"," "," ","1","-10","[1546.699999988079]","1","2","","","12411","29","0","3","lose","go","1"
"pit-trial","151","1118032","0.0-34.0","battery-v0.2","","""event"",""trial"",""time""
""fullscreenenter"",""1"",""2420""
""blur"",""106"",""885742""
""focus"",""106"",""885749""
""fullscreenexit"",""106"",""885754""
","""event"",""trial"",""time""
""blur"",""106"",""885742""
","""event"",""trial"",""time""
""focus"",""106"",""885749""
","""event"",""trial"",""time""
""fullscreenenter"",""1"",""2420""
","""event"",""trial"",""time""
""fullscreenexit"",""106"",""885754""
","","","-1","","","10","12411","1403","h","elianto","#f73b6a7A","-1","-1","1","0","[]","0","2","","","12411","30","3","4","lose","no-go","0"
"pit-trial","152","1121914","0.0-35.0","battery-v0.2","","""event"",""trial"",""time""
""fullscreenenter"",""1"",""2420""
""blur"",""106"",""885742""
""focus"",""106"",""885749""
""fullscreenexit"",""106"",""885754""
","""event"",""trial"",""time""
""blur"",""106"",""885742""
","""event"",""trial"",""time""
""focus"",""106"",""885749""
","""event"",""trial"",""time""
""fullscreenenter"",""1"",""2420""
","""event"",""trial"",""time""
""fullscreenexit"",""106"",""885754""
","","","1024.5","","","10","12411","1403","y","elianto","#f73b6a7A"," "," ","1","0","[1875]","1","2","","","12411","31","2","3","lose","go","0"
"pit-trial","153","1125762","0.0-36.0","battery-v0.2","","""event"",""trial"",""time""
""fullscreenenter"",""1"",""2420""
""blur"",""106"",""885742""
""focus"",""106"",""885749""
""fullscreenexit"",""106"",""885754""
","""event"",""trial"",""time""
""blur"",""106"",""885742""
","""event"",""trial"",""time""
""focus"",""106"",""885749""
","""event"",""trial"",""time""
""fullscreenenter"",""1"",""2420""
","""event"",""trial"",""time""
""fullscreenexit"",""106"",""885754""
","","","987.4000000059605","","","10","12411","1403","r","elianto","#3366ff99","-1"," ","0","0","[1839.1000000238419]","1","2","","","12411","32","1","2","win","no-go","0"
"pit-trial","154","1130314","0.0-37.0","battery-v0.2","","""event"",""trial"",""time""
""fullscreenenter"",""1"",""2420""
""blur"",""106"",""885742""
""focus"",""106"",""885749""
""fullscreenexit"",""106"",""885754""
","""event"",""trial"",""time""
""blur"",""106"",""885742""
","""event"",""trial"",""time""
""focus"",""106"",""885749""
","""event"",""trial"",""time""
""fullscreenenter"",""1"",""2420""
","""event"",""trial"",""time""
""fullscreenexit"",""106"",""885754""
","","","1694.2999999821186","","","10","12411","1403","h","elianto","#f73b6a7A","-1"," ","0","-10","[2544.9000000059605]","1","2","","","12411","33","3","4","lose","no-go","0"
"pit-trial","155","1133731","0.0-38.0","battery-v0.2","","""event"",""trial"",""time""
""fullscreenenter"",""1"",""2420""
""blur"",""106"",""885742""
""focus"",""106"",""885749""
""fullscreenexit"",""106"",""885754""
","""event"",""trial"",""time""
""blur"",""106"",""885742""
","""event"",""trial"",""time""
""focus"",""106"",""885749""
","""event"",""trial"",""time""
""fullscreenenter"",""1"",""2420""
","""event"",""trial"",""time""
""fullscreenexit"",""106"",""885754""
","","","559.9000000059605","","","10","12411","1403","y","elianto","#f73b6a7A"," "," ","1","0","[1410.5]","1","2","","","12411","34","2","3","lose","go","0"
"pit-trial","156","1138588","0.0-39.0","battery-v0.2","","""event"",""trial"",""time""
""fullscreenenter"",""1"",""2420""
""blur"",""106"",""885742""
""focus"",""106"",""885749""
""fullscreenexit"",""106"",""885754""
","""event"",""trial"",""time""
""blur"",""106"",""885742""
","""event"",""trial"",""time""
""focus"",""106"",""885749""
","""event"",""trial"",""time""
""fullscreenenter"",""1"",""2420""
","""event"",""trial"",""time""
""fullscreenexit"",""106"",""885754""
","","","-1","","","10","12411","1403","m","elianto","#f73b6a7A"," ","-1","0","-10","[]","0","2","","","12411","35","0","3","lose","go","0"
"pit-trial","157","1142168","0.0-40.0","battery-v0.2","","""event"",""trial"",""time""
""fullscreenenter"",""1"",""2420""
""blur"",""106"",""885742""
""focus"",""106"",""885749""
""fullscreenexit"",""106"",""885754""
","""event"",""trial"",""time""
""blur"",""106"",""885742""
","""event"",""trial"",""time""
""focus"",""106"",""885749""
","""event"",""trial"",""time""
""fullscreenenter"",""1"",""2420""
","""event"",""trial"",""time""
""fullscreenexit"",""106"",""885754""
","","","724.7999999821186","","","10","12411","1403","r","elianto","#3366ff99","-1"," ","0","0","[1575.5]","1","2","","","12411","36","1","2","win","no-go","0"
"pit-trial","158","1147029","0.0-41.0","battery-v0.2","","""event"",""trial"",""time""
""fullscreenenter"",""1"",""2420""
""blur"",""106"",""885742""
""focus"",""106"",""885749""
""fullscreenexit"",""106"",""885754""
","""event"",""trial"",""time""
""blur"",""106"",""885742""
","""event"",""trial"",""time""
""focus"",""106"",""885749""
","""event"",""trial"",""time""
""fullscreenenter"",""1"",""2420""
","""event"",""trial"",""time""
""fullscreenexit"",""106"",""885754""
","","","-1","","","10","12411","1403","h","elianto","#f73b6a7A","-1","-1","1","0","[]","0","2","","","12411","37","3","4","lose","no-go","0"
"pit-trial","159","1150676","0.0-42.0","battery-v0.2","","""event"",""trial"",""time""
""fullscreenenter"",""1"",""2420""
""blur"",""106"",""885742""
""focus"",""106"",""885749""
""fullscreenexit"",""106"",""885754""
","""event"",""trial"",""time""
""blur"",""106"",""885742""
","""event"",""trial"",""time""
""focus"",""106"",""885749""
","""event"",""trial"",""time""
""fullscreenenter"",""1"",""2420""
","""event"",""trial"",""time""
""fullscreenexit"",""106"",""885754""
","","","737.6999999880791","","","10","12411","1403","r","elianto","#3366ff99","-1"," ","0","0","[1636.2000000178814]","1","2","","","12411","38","1","2","win","no-go","0"
"pit-trial","160","1154331","0.0-43.0","battery-v0.2","","""event"",""trial"",""time""
""fullscreenenter"",""1"",""2420""
""blur"",""106"",""885742""
""focus"",""106"",""885749""
""fullscreenexit"",""106"",""885754""
","""event"",""trial"",""time""
""blur"",""106"",""885742""
","""event"",""trial"",""time""
""focus"",""106"",""885749""
","""event"",""trial"",""time""
""fullscreenenter"",""1"",""2420""
","""event"",""trial"",""time""
""fullscreenexit"",""106"",""885754""
","","","787.8000000119209","","","10","12411","1403","y","elianto","#f73b6a7A"," "," ","1","0","[1643.9000000059605]","1","2","","","12411","39","2","3","lose","go","0"
"pit-trial","161","1158002","0.0-44.0","battery-v0.2","","""event"",""trial"",""time""
""fullscreenenter"",""1"",""2420""
""blur"",""106"",""885742""
""focus"",""106"",""885749""
""fullscreenexit"",""106"",""885754""
","""event"",""trial"",""time""
""blur"",""106"",""885742""
","""event"",""trial"",""time""
""focus"",""106"",""885749""
","""event"",""trial"",""time""
""fullscreenenter"",""1"",""2420""
","""event"",""trial"",""time""
""fullscreenexit"",""106"",""885754""
","","","813.5","","","10","12411","1403","m","elianto","#f73b6a7A"," "," ","1","0","[1663.9000000059605]","1","2","","","12411","40","0","3","lose","go","0"
"pit-trial","162","1162864","0.0-45.0","battery-v0.2","","""event"",""trial"",""time""
""fullscreenenter"",""1"",""2420""
""blur"",""106"",""885742""
""focus"",""106"",""885749""
""fullscreenexit"",""106"",""885754""
","""event"",""trial"",""time""
""blur"",""106"",""885742""
","""event"",""trial"",""time""
""focus"",""106"",""885749""
","""event"",""trial"",""time""
""fullscreenenter"",""1"",""2420""
","""event"",""trial"",""time""
""fullscreenexit"",""106"",""885754""
","","","-1","","","10","12411","1403","h","elianto","#f73b6a7A","-1","-1","1","-10","[]","0","2","","","12411","41","3","4","lose","no-go","1"
"pit-trial","163","1167180","0.0-46.0","battery-v0.2","","""event"",""trial"",""time""
""fullscreenenter"",""1"",""2420""
""blur"",""106"",""885742""
""focus"",""106"",""885749""
""fullscreenexit"",""106"",""885754""
","""event"",""trial"",""time""
""blur"",""106"",""885742""
","""event"",""trial"",""time""
""focus"",""106"",""885749""
","""event"",""trial"",""time""
""fullscreenenter"",""1"",""2420""
","""event"",""trial"",""time""
""fullscreenexit"",""106"",""885754""
","","","1430.5999999940395","","","10","12411","1403","m","elianto","#f73b6a7A"," "," ","1","0","[2305.0999999940395]","1","2","","","12411","42","0","3","lose","go","0"
"pit-trial","164","1170826","0.0-47.0","battery-v0.2","","""event"",""trial"",""time""
""fullscreenenter"",""1"",""2420""
""blur"",""106"",""885742""
""focus"",""106"",""885749""
""fullscreenexit"",""106"",""885754""
","""event"",""trial"",""time""
""blur"",""106"",""885742""
","""event"",""trial"",""time""
""focus"",""106"",""885749""
","""event"",""trial"",""time""
""fullscreenenter"",""1"",""2420""
","""event"",""trial"",""time""
""fullscreenexit"",""106"",""885754""
","","","782.4000000059605","","","10","12411","1403","y","elianto","#f73b6a7A"," "," ","1","0","[1638.3999999761581]","1","2","","","12411","43","2","3","lose","go","0"
"pit-trial","165","1175683","0.0-48.0","battery-v0.2","","""event"",""trial"",""time""
""fullscreenenter"",""1"",""2420""
""blur"",""106"",""885742""
""focus"",""106"",""885749""
""fullscreenexit"",""106"",""885754""
","""event"",""trial"",""time""
""blur"",""106"",""885742""
","""event"",""trial"",""time""
""focus"",""106"",""885749""
","""event"",""trial"",""time""
""fullscreenenter"",""1"",""2420""
","""event"",""trial"",""time""
""fullscreenexit"",""106"",""885754""
","","","-1","","","10","12411","1403","r","elianto","#3366ff99","-1","-1","1","+10","[]","0","2","","","12411","44","1","2","win","no-go","0"
"pit-trial","166","1179163","0.0-49.0","battery-v0.2","","""event"",""trial"",""time""
""fullscreenenter"",""1"",""2420""
""blur"",""106"",""885742""
""focus"",""106"",""885749""
""fullscreenexit"",""106"",""885754""
","""event"",""trial"",""time""
""blur"",""106"",""885742""
","""event"",""trial"",""time""
""focus"",""106"",""885749""
","""event"",""trial"",""time""
""fullscreenenter"",""1"",""2420""
","""event"",""trial"",""time""
""fullscreenexit"",""106"",""885754""
","","","625.8000000119209","","","10","12411","1403","r","elianto","#3366ff99","-1"," ","0","+10","[1476.5999999940395]","1","2","","","12411","45","1","2","win","no-go","1"
"pit-trial","167","1184028","0.0-50.0","battery-v0.2","","""event"",""trial"",""time""
""fullscreenenter"",""1"",""2420""
""blur"",""106"",""885742""
""focus"",""106"",""885749""
""fullscreenexit"",""106"",""885754""
","""event"",""trial"",""time""
""blur"",""106"",""885742""
","""event"",""trial"",""time""
""focus"",""106"",""885749""
","""event"",""trial"",""time""
""fullscreenenter"",""1"",""2420""
","""event"",""trial"",""time""
""fullscreenexit"",""106"",""885754""
","","","-1","","","10","12411","1403","h","elianto","#f73b6a7A","-1","-1","1","-10","[]","0","2","","","12411","46","3","4","lose","no-go","1"
"pit-trial","168","1187523","0.0-51.0","battery-v0.2","","""event"",""trial"",""time""
""fullscreenenter"",""1"",""2420""
""blur"",""106"",""885742""
""focus"",""106"",""885749""
""fullscreenexit"",""106"",""885754""
","""event"",""trial"",""time""
""blur"",""106"",""885742""
","""event"",""trial"",""time""
""focus"",""106"",""885749""
","""event"",""trial"",""time""
""fullscreenenter"",""1"",""2420""
","""event"",""trial"",""time""
""fullscreenexit"",""106"",""885754""
","","","617.6999999880791","","","10","12411","1403","m","elianto","#f73b6a7A"," "," ","1","0","[1469.199999988079]","1","2","","","12411","47","0","3","lose","go","0"
"pit-trial","169","1191068","0.0-52.0","battery-v0.2","","""event"",""trial"",""time""
""fullscreenenter"",""1"",""2420""
""blur"",""106"",""885742""
""focus"",""106"",""885749""
""fullscreenexit"",""106"",""885754""
","""event"",""trial"",""time""
""blur"",""106"",""885742""
","""event"",""trial"",""time""
""focus"",""106"",""885749""
","""event"",""trial"",""time""
""fullscreenenter"",""1"",""2420""
","""event"",""trial"",""time""
""fullscreenexit"",""106"",""885754""
","","","688.2999999821186","","","10","12411","1403","y","elianto","#f73b6a7A"," "," ","1","0","[1539.199999988079]","1","2","","","12411","48","2","3","lose","go","0"
"pit-trial","170","1195927","0.0-53.0","battery-v0.2","","""event"",""trial"",""time""
""fullscreenenter"",""1"",""2420""
""blur"",""106"",""885742""
""focus"",""106"",""885749""
""fullscreenexit"",""106"",""885754""
","""event"",""trial"",""time""
""blur"",""106"",""885742""
","""event"",""trial"",""time""
""focus"",""106"",""885749""
","""event"",""trial"",""time""
""fullscreenenter"",""1"",""2420""
","""event"",""trial"",""time""
""fullscreenexit"",""106"",""885754""
","","","-1","","","10","12411","1403","h","elianto","#f73b6a7A","-1","-1","1","0","[]","0","2","","","12411","49","3","4","lose","no-go","0"
"pit-trial","171","1199394","0.0-54.0","battery-v0.2","","""event"",""trial"",""time""
""fullscreenenter"",""1"",""2420""
""blur"",""106"",""885742""
""focus"",""106"",""885749""
""fullscreenexit"",""106"",""885754""
","""event"",""trial"",""time""
""blur"",""106"",""885742""
","""event"",""trial"",""time""
""focus"",""106"",""885749""
","""event"",""trial"",""time""
""fullscreenenter"",""1"",""2420""
","""event"",""trial"",""time""
""fullscreenexit"",""106"",""885754""
","","","607.7999999821186","","","10","12411","1403","y","elianto","#f73b6a7A"," "," ","1","0","[1459.9000000059605]","1","2","","","12411","50","2","3","lose","go","0"
"pit-trial","172","1204251","0.0-55.0","battery-v0.2","","""event"",""trial"",""time""
""fullscreenenter"",""1"",""2420""
""blur"",""106"",""885742""
""focus"",""106"",""885749""
""fullscreenexit"",""106"",""885754""
","""event"",""trial"",""time""
""blur"",""106"",""885742""
","""event"",""trial"",""time""
""focus"",""106"",""885749""
","""event"",""trial"",""time""
""fullscreenenter"",""1"",""2420""
","""event"",""trial"",""time""
""fullscreenexit"",""106"",""885754""
","","","-1","","","10","12411","1403","r","elianto","#3366ff99","-1","-1","1","+10","[]","0","2","","","12411","51","1","2","win","no-go","0"
"pit-trial","173","1207658","0.0-56.0","battery-v0.2","","""event"",""trial"",""time""
""fullscreenenter"",""1"",""2420""
""blur"",""106"",""885742""
""focus"",""106"",""885749""
""fullscreenexit"",""106"",""885754""
","""event"",""trial"",""time""
""blur"",""106"",""885742""
","""event"",""trial"",""time""
""focus"",""106"",""885749""
","""event"",""trial"",""time""
""fullscreenenter"",""1"",""2420""
","""event"",""trial"",""time""
""fullscreenexit"",""106"",""885754""
","","","552.2000000178814","","","10","12411","1403","m","elianto","#f73b6a7A"," "," ","1","0","[1403.300000011921]","1","2","","","12411","52","0","3","lose","go","0"
"pit-trial","174","1210971","0.0-57.0","battery-v0.2","","""event"",""trial"",""time""
""fullscreenenter"",""1"",""2420""
""blur"",""106"",""885742""
""focus"",""106"",""885749""
""fullscreenexit"",""106"",""885754""
","""event"",""trial"",""time""
""blur"",""106"",""885742""
","""event"",""trial"",""time""
""focus"",""106"",""885749""
","""event"",""trial"",""time""
""fullscreenenter"",""1"",""2420""
","""event"",""trial"",""time""
""fullscreenexit"",""106"",""885754""
","","","453","","","10","12411","1403","y","elianto","#f73b6a7A"," "," ","1","0","[1304.5999999940395]","1","2","","","12411","53","2","3","lose","go","0"
"pit-trial","175","1214569","0.0-58.0","battery-v0.2","","""event"",""trial"",""time""
""fullscreenenter"",""1"",""2420""
""blur"",""106"",""885742""
""focus"",""106"",""885749""
""fullscreenexit"",""106"",""885754""
","""event"",""trial"",""time""
""blur"",""106"",""885742""
","""event"",""trial"",""time""
""focus"",""106"",""885749""
","""event"",""trial"",""time""
""fullscreenenter"",""1"",""2420""
","""event"",""trial"",""time""
""fullscreenexit"",""106"",""885754""
","","","740.9000000059605","","","10","12411","1403","r","elianto","#3366ff99","-1"," ","0","0","[1591.199999988079]","1","2","","","12411","54","1","2","win","no-go","0"
"pit-trial","176","1219425","0.0-59.0","battery-v0.2","","""event"",""trial"",""time""
""fullscreenenter"",""1"",""2420""
""blur"",""106"",""885742""
""focus"",""106"",""885749""
""fullscreenexit"",""106"",""885754""
","""event"",""trial"",""time""
""blur"",""106"",""885742""
","""event"",""trial"",""time""
""focus"",""106"",""885749""
","""event"",""trial"",""time""
""fullscreenenter"",""1"",""2420""
","""event"",""trial"",""time""
""fullscreenexit"",""106"",""885754""
","","","-1","","","10","12411","1403","h","elianto","#f73b6a7A","-1","-1","1","0","[]","0","2","","","12411","55","3","4","lose","no-go","0"
"pit-trial","177","1222996","0.0-60.0","battery-v0.2","","""event"",""trial"",""time""
""fullscreenenter"",""1"",""2420""
""blur"",""106"",""885742""
""focus"",""106"",""885749""
""fullscreenexit"",""106"",""885754""
","""event"",""trial"",""time""
""blur"",""106"",""885742""
","""event"",""trial"",""time""
""focus"",""106"",""885749""
","""event"",""trial"",""time""
""fullscreenenter"",""1"",""2420""
","""event"",""trial"",""time""
""fullscreenexit"",""106"",""885754""
","","","699.6999999880791","","","10","12411","1403","m","elianto","#f73b6a7A"," "," ","1","-10","[1560.199999988079]","1","2","","","12411","56","0","3","lose","go","1"
"pit-trial","178","1227855","0.0-61.0","battery-v0.2","","""event"",""trial"",""time""
""fullscreenenter"",""1"",""2420""
""blur"",""106"",""885742""
""focus"",""106"",""885749""
""fullscreenexit"",""106"",""885754""
","""event"",""trial"",""time""
""blur"",""106"",""885742""
","""event"",""trial"",""time""
""focus"",""106"",""885749""
","""event"",""trial"",""time""
""fullscreenenter"",""1"",""2420""
","""event"",""trial"",""time""
""fullscreenexit"",""106"",""885754""
","","","-1","","","10","12411","1403","h","elianto","#f73b6a7A","-1","-1","1","0","[]","0","2","","","12411","57","3","4","lose","no-go","0"
"pit-trial","179","1232106","0.0-62.0","battery-v0.2","","""event"",""trial"",""time""
""fullscreenenter"",""1"",""2420""
""blur"",""106"",""885742""
""focus"",""106"",""885749""
""fullscreenexit"",""106"",""885754""
","""event"",""trial"",""time""
""blur"",""106"",""885742""
","""event"",""trial"",""time""
""focus"",""106"",""885749""
","""event"",""trial"",""time""
""fullscreenenter"",""1"",""2420""
","""event"",""trial"",""time""
""fullscreenexit"",""106"",""885754""
","","","1394.5","","","10","12411","1403","z","elianto","#3366ff99"," "," ","1","+10","[2244.7999999821186]","1","2","","","12411","58","4","1","win","go","0"
"pit-trial","180","1236988","0.0-63.0","battery-v0.2","","""event"",""trial"",""time""
""fullscreenenter"",""1"",""2420""
""blur"",""106"",""885742""
""focus"",""106"",""885749""
""fullscreenexit"",""106"",""885754""
","""event"",""trial"",""time""
""blur"",""106"",""885742""
","""event"",""trial"",""time""
""focus"",""106"",""885749""
","""event"",""trial"",""time""
""fullscreenenter"",""1"",""2420""
","""event"",""trial"",""time""
""fullscreenexit"",""106"",""885754""
","","","-1","","","10","12411","1403","m","elianto","#f73b6a7A"," ","-1","0","-10","[]","0","2","","","12411","59","0","3","lose","go","0"
"pit-trial","181","1240921","0.0-64.0","battery-v0.2","","""event"",""trial"",""time""
""fullscreenenter"",""1"",""2420""
""blur"",""106"",""885742""
""focus"",""106"",""885749""
""fullscreenexit"",""106"",""885754""
","""event"",""trial"",""time""
""blur"",""106"",""885742""
","""event"",""trial"",""time""
""focus"",""106"",""885749""
","""event"",""trial"",""time""
""fullscreenenter"",""1"",""2420""
","""event"",""trial"",""time""
""fullscreenexit"",""106"",""885754""
","","","1054.5999999940395","","","10","12411","1403","y","elianto","#f73b6a7A"," "," ","1","0","[1906.1000000238419]","1","2","","","12411","60","2","3","lose","go","0"
"pit-trial","182","1244608","0.0-65.0","battery-v0.2","","""event"",""trial"",""time""
""fullscreenenter"",""1"",""2420""
""blur"",""106"",""885742""
""focus"",""106"",""885749""
""fullscreenexit"",""106"",""885754""
","""event"",""trial"",""time""
""blur"",""106"",""885742""
","""event"",""trial"",""time""
""focus"",""106"",""885749""
","""event"",""trial"",""time""
""fullscreenenter"",""1"",""2420""
","""event"",""trial"",""time""
""fullscreenexit"",""106"",""885754""
","","","828.5999999940395","","","10","12411","1403","z","elianto","#3366ff99"," "," ","1","+10","[1678.699999988079]","1","2","","","12411","61","4","1","win","go","0"
"pit-trial","183","1248144","0.0-66.0","battery-v0.2","","""event"",""trial"",""time""
""fullscreenenter"",""1"",""2420""
""blur"",""106"",""885742""
""focus"",""106"",""885749""
""fullscreenexit"",""106"",""885754""
","""event"",""trial"",""time""
""blur"",""106"",""885742""
","""event"",""trial"",""time""
""focus"",""106"",""885749""
","""event"",""trial"",""time""
""fullscreenenter"",""1"",""2420""
","""event"",""trial"",""time""
""fullscreenexit"",""106"",""885754""
","","","671.5999999940395","","","10","12411","1403","y","elianto","#f73b6a7A"," "," ","1","0","[1522.5]","1","2","","","12411","62","2","3","lose","go","0"
"pit-trial","184","1253001","0.0-67.0","battery-v0.2","","""event"",""trial"",""time""
""fullscreenenter"",""1"",""2420""
""blur"",""106"",""885742""
""focus"",""106"",""885749""
""fullscreenexit"",""106"",""885754""
","""event"",""trial"",""time""
""blur"",""106"",""885742""
","""event"",""trial"",""time""
""focus"",""106"",""885749""
","""event"",""trial"",""time""
""fullscreenenter"",""1"",""2420""
","""event"",""trial"",""time""
""fullscreenexit"",""106"",""885754""
","","","-1","","","10","12411","1403","h","elianto","#f73b6a7A","-1","-1","1","0","[]","0","2","","","12411","63","3","4","lose","no-go","0"
"pit-trial","185","1256634","0.0-68.0","battery-v0.2","","""event"",""trial"",""time""
""fullscreenenter"",""1"",""2420""
""blur"",""106"",""885742""
""focus"",""106"",""885749""
""fullscreenexit"",""106"",""885754""
","""event"",""trial"",""time""
""blur"",""106"",""885742""
","""event"",""trial"",""time""
""focus"",""106"",""885749""
","""event"",""trial"",""time""
""fullscreenenter"",""1"",""2420""
","""event"",""trial"",""time""
""fullscreenexit"",""106"",""885754""
","","","768","","","10","12411","1403","r","elianto","#3366ff99","-1"," ","0","0","[1626.4000000059605]","1","2","","","12411","64","1","2","win","no-go","0"
"pit-trial","186","1261497","0.0-69.0","battery-v0.2","","""event"",""trial"",""time""
""fullscreenenter"",""1"",""2420""
""blur"",""106"",""885742""
""focus"",""106"",""885749""
""fullscreenexit"",""106"",""885754""
","""event"",""trial"",""time""
""blur"",""106"",""885742""
","""event"",""trial"",""time""
""focus"",""106"",""885749""
","""event"",""trial"",""time""
""fullscreenenter"",""1"",""2420""
","""event"",""trial"",""time""
""fullscreenexit"",""106"",""885754""
","","","-1","","","10","12411","1403","r","elianto","#3366ff99","-1","-1","1","+10","[]","0","2","","","12411","65","1","2","win","no-go","0"
"pit-trial","187","1265078","0.0-70.0","battery-v0.2","","""event"",""trial"",""time""
""fullscreenenter"",""1"",""2420""
""blur"",""106"",""885742""
""focus"",""106"",""885749""
""fullscreenexit"",""106"",""885754""
","""event"",""trial"",""time""
""blur"",""106"",""885742""
","""event"",""trial"",""time""
""focus"",""106"",""885749""
","""event"",""trial"",""time""
""fullscreenenter"",""1"",""2420""
","""event"",""trial"",""time""
""fullscreenexit"",""106"",""885754""
","","","722.3999999761581","","","10","12411","1403","z","elianto","#3366ff99"," "," ","1","0","[1572.699999988079]","1","2","","","12411","66","4","1","win","go","1"
"pit-trial","188","1269297","0.0-71.0","battery-v0.2","","""event"",""trial"",""time""
""fullscreenenter"",""1"",""2420""
""blur"",""106"",""885742""
""focus"",""106"",""885749""
""fullscreenexit"",""106"",""885754""
","""event"",""trial"",""time""
""blur"",""106"",""885742""
","""event"",""trial"",""time""
""focus"",""106"",""885749""
","""event"",""trial"",""time""
""fullscreenenter"",""1"",""2420""
","""event"",""trial"",""time""
""fullscreenexit"",""106"",""885754""
","","","1346.5","","","10","12411","1403","c","elianto","#3366ff99","-1"," ","0","0","[2198.9000000059605]","1","2","","","12411","67","5","2","win","no-go","0"
"pit-trial","189","1274156","0.0-72.0","battery-v0.2","","""event"",""trial"",""time""
""fullscreenenter"",""1"",""2420""
""blur"",""106"",""885742""
""focus"",""106"",""885749""
""fullscreenexit"",""106"",""885754""
","""event"",""trial"",""time""
""blur"",""106"",""885742""
","""event"",""trial"",""time""
""focus"",""106"",""885749""
","""event"",""trial"",""time""
""fullscreenenter"",""1"",""2420""
","""event"",""trial"",""time""
""fullscreenexit"",""106"",""885754""
","","","-1","","","10","12411","1403","h","elianto","#f73b6a7A","-1","-1","1","0","[]","0","2","","","12411","68","3","4","lose","no-go","0"
"pit-trial","190","1277897","0.0-73.0","battery-v0.2","","""event"",""trial"",""time""
""fullscreenenter"",""1"",""2420""
""blur"",""106"",""885742""
""focus"",""106"",""885749""
""fullscreenexit"",""106"",""885754""
","""event"",""trial"",""time""
""blur"",""106"",""885742""
","""event"",""trial"",""time""
""focus"",""106"",""885749""
","""event"",""trial"",""time""
""fullscreenenter"",""1"",""2420""
","""event"",""trial"",""time""
""fullscreenexit"",""106"",""885754""
","","","824.5","","","10","12411","1403","z","elianto","#3366ff99"," "," ","1","+10","[1731.9000000059605]","1","2","","","12411","69","4","1","win","go","0"
"pit-trial","191","1282766","0.0-74.0","battery-v0.2","","""event"",""trial"",""time""
""fullscreenenter"",""1"",""2420""
""blur"",""106"",""885742""
""focus"",""106"",""885749""
""fullscreenexit"",""106"",""885754""
","""event"",""trial"",""time""
""blur"",""106"",""885742""
","""event"",""trial"",""time""
""focus"",""106"",""885749""
","""event"",""trial"",""time""
""fullscreenenter"",""1"",""2420""
","""event"",""trial"",""time""
""fullscreenexit"",""106"",""885754""
","","","-1","","","10","12411","1403","r","elianto","#3366ff99","-1","-1","1","+10","[]","0","2","","","12411","70","1","2","win","no-go","0"
"pit-trial","192","1286482","0.0-75.0","battery-v0.2","","""event"",""trial"",""time""
""fullscreenenter"",""1"",""2420""
""blur"",""106"",""885742""
""focus"",""106"",""885749""
""fullscreenexit"",""106"",""885754""
","""event"",""trial"",""time""
""blur"",""106"",""885742""
","""event"",""trial"",""time""
""focus"",""106"",""885749""
","""event"",""trial"",""time""
""fullscreenenter"",""1"",""2420""
","""event"",""trial"",""time""
""fullscreenexit"",""106"",""885754""
","","","853.7999999821186","","","10","12411","1403","y","elianto","#f73b6a7A"," "," ","1","0","[1705.2999999821186]","1","2","","","12411","71","2","3","lose","go","0"
"pit-trial","193","1291337","0.0-76.0","battery-v0.2","","""event"",""trial"",""time""
""fullscreenenter"",""1"",""2420""
""blur"",""106"",""885742""
""focus"",""106"",""885749""
""fullscreenexit"",""106"",""885754""
","""event"",""trial"",""time""
""blur"",""106"",""885742""
","""event"",""trial"",""time""
""focus"",""106"",""885749""
","""event"",""trial"",""time""
""fullscreenenter"",""1"",""2420""
","""event"",""trial"",""time""
""fullscreenexit"",""106"",""885754""
","","","-1","","","10","12411","1403","c","elianto","#3366ff99","-1","-1","1","0","[]","0","2","","","12411","72","5","2","win","no-go","1"
"pit-trial","194","1295792","0.0-77.0","battery-v0.2","","""event"",""trial"",""time""
""fullscreenenter"",""1"",""2420""
""blur"",""106"",""885742""
""focus"",""106"",""885749""
""fullscreenexit"",""106"",""885754""
","""event"",""trial"",""time""
""blur"",""106"",""885742""
","""event"",""trial"",""time""
""focus"",""106"",""885749""
","""event"",""trial"",""time""
""fullscreenenter"",""1"",""2420""
","""event"",""trial"",""time""
""fullscreenexit"",""106"",""885754""
","","","1598.0999999940395","","","10","12411","1403","z","elianto","#3366ff99"," "," ","1","+10","[2448.9000000059605]","1","2","","","12411","73","4","1","win","go","0"
"pit-trial","195","1299474","0.0-78.0","battery-v0.2","","""event"",""trial"",""time""
""fullscreenenter"",""1"",""2420""
""blur"",""106"",""885742""
""focus"",""106"",""885749""
""fullscreenexit"",""106"",""885754""
","""event"",""trial"",""time""
""blur"",""106"",""885742""
","""event"",""trial"",""time""
""focus"",""106"",""885749""
","""event"",""trial"",""time""
""fullscreenenter"",""1"",""2420""
","""event"",""trial"",""time""
""fullscreenexit"",""106"",""885754""
","","","825.1999999880791","","","10","12411","1403","c","elianto","#3366ff99","-1"," ","0","0","[1675.8999999761581]","1","2","","","12411","74","5","2","win","no-go","0"
"pit-trial","196","1304329","0.0-79.0","battery-v0.2","","""event"",""trial"",""time""
""fullscreenenter"",""1"",""2420""
""blur"",""106"",""885742""
""focus"",""106"",""885749""
""fullscreenexit"",""106"",""885754""
","""event"",""trial"",""time""
""blur"",""106"",""885742""
