"trial_type","trial_index","time_elapsed","internal_node_id","task_version","subject_id","interactions","blur_events","focus_events","fullscreenenter_events","fullscreenexit_events","success","view_history","rt","responses","num_errors","age","subject","participantId","rune","rune_set","hex","correct","choice","accuracy","outcome","keys","total_keys","block","practice","value","sub","trial","stimulus","robot","valence","action","sham"
"pavlovia","0","7","0.0-0.0","battery-v0.2","","""event"",""trial"",""time""
""focus"",""1"",""5448""
""fullscreenenter"",""1"",""5559""
","
","""event"",""trial"",""time""
""focus"",""1"",""5448""
","""event"",""trial"",""time""
""fullscreenenter"",""1"",""5559""
","
","","","","","","","","","","","","","","","","","","","","","","","","","","",""
"fullscreen","1","6561","0.0-1.0","battery-v0.2","","""event"",""trial"",""time""
""focus"",""1"",""5448""
""fullscreenenter"",""1"",""5559""
","
","""event"",""trial"",""time""
""focus"",""1"",""5448""
","""event"",""trial"",""time""
""fullscreenenter"",""1"",""5559""
","
","true","","","","","","","","","","","","","","","","","","","","","","","","","",""
"pit-instructions","2","10424","0.0-2.0-0.0","battery-v0.2","","""event"",""trial"",""time""
""focus"",""1"",""5448""
""fullscreenenter"",""1"",""5559""
","
","""event"",""trial"",""time""
""focus"",""1"",""5448""
","""event"",""trial"",""time""
""fullscreenenter"",""1"",""5559""
","
","","[{""page_index"":0,""viewing_time"":3859}]","3859.2999999523163","","","","","","","","","","","","","","","","","","","","","","","",""
"pit-comprehension","3","13312","0.0-2.0-1.0-0.0","battery-v0.2","","""event"",""trial"",""time""
""focus"",""1"",""5448""
""fullscreenenter"",""1"",""5559""
","
","""event"",""trial"",""time""
""focus"",""1"",""5448""
","""event"",""trial"",""time""
""fullscreenenter"",""1"",""5559""
","
","","","2885.7000000476837","[""shark""]","0","22","8002","3992","","","","","","","","","","","","","","","","","","",""
"pit-instructions","4","14197","0.0-2.0-1.0-1.0","battery-v0.2","","""event"",""trial"",""time""
""focus"",""1"",""5448""
""fullscreenenter"",""1"",""5559""
","
","""event"",""trial"",""time""
""focus"",""1"",""5448""
","""event"",""trial"",""time""
""fullscreenenter"",""1"",""5559""
","
","","[{""page_index"":0,""viewing_time"":877.2999999523163}]","877.5","","","","","","","","","","","","","","","","","","","","","","","",""
"pit-comprehension","5","16548","0.0-2.0-2.0-0.0","battery-v0.2","","""event"",""trial"",""time""
""focus"",""1"",""5448""
""fullscreenenter"",""1"",""5559""
","
","""event"",""trial"",""time""
""focus"",""1"",""5448""
","""event"",""trial"",""time""
""fullscreenenter"",""1"",""5559""
","
","","","2348.100000023842","[""tiger""]","0","22","8002","3992","","","","","","","","","","","","","","","","","","",""
"pit-instructions","6","17419","0.0-2.0-2.0-1.0","battery-v0.2","","""event"",""trial"",""time""
""focus"",""1"",""5448""
""fullscreenenter"",""1"",""5559""
","
","""event"",""trial"",""time""
""focus"",""1"",""5448""
","""event"",""trial"",""time""
""fullscreenenter"",""1"",""5559""
","
","","[{""page_index"":0,""viewing_time"":868}]","868.3000000715256","","","","","","","","","","","","","","","","","","","","","","","",""
"pit-instructions","7","121164","0.0-2.0-3.0","battery-v0.2","","""event"",""trial"",""time""
""focus"",""1"",""5448""
""fullscreenenter"",""1"",""5559""
","
","""event"",""trial"",""time""
""focus"",""1"",""5448""
","""event"",""trial"",""time""
""fullscreenenter"",""1"",""5559""
","
","","[{""page_index"":0,""viewing_time"":12276.399999976158},{""page_index"":1,""viewing_time"":5467.600000023842},{""page_index"":2,""viewing_time"":6228.699999928474},{""page_index"":3,""viewing_time"":6001.800000071526},{""page_index"":4,""viewing_time"":6167.899999976158},{""page_index"":5,""viewing_time"":6230.200000047684},{""page_index"":6,""viewing_time"":7575.199999928474},{""page_index"":7,""viewing_time"":7207.200000047684},{""page_index"":8,""viewing_time"":8693},{""page_index"":9,""viewing_time"":9137.899999976158},{""page_index"":10,""viewing_time"":7642.100000023842},{""page_index"":11,""viewing_time"":9393.100000023842},{""page_index"":12,""viewing_time"":6031.599999904633},{""page_index"":13,""viewing_time"":5689.400000095367}]","103742.5","","","","","","","","","","","","","","","","","","","","","","","",""
"pit-trial","8","124605","0.0-2.0-4.0-0.0","battery-v0.2","","""event"",""trial"",""time""
""focus"",""1"",""5448""
""fullscreenenter"",""1"",""5559""
","
","""event"",""trial"",""time""
""focus"",""1"",""5448""
","""event"",""trial"",""time""
""fullscreenenter"",""1"",""5559""
","
","","","573.1000000238419","","","22","8002","3992","&#9784;","elianto","#FFFFF080"," "," ","1","&#10004","[1423.6999999284744]","1","0","0","","","","","","","",""
"pit-trial","9","127982","0.0-2.0-4.1-0.1","battery-v0.2","","""event"",""trial"",""time""
""focus"",""1"",""5448""
""fullscreenenter"",""1"",""5559""
","
","""event"",""trial"",""time""
""focus"",""1"",""5448""
","""event"",""trial"",""time""
""fullscreenenter"",""1"",""5559""
","
","","","511.60000002384186","","","22","8002","3992","&#9784;","elianto","#FFFFF080"," "," ","1","&#10004","[1371.3999999761581]","1","0","0","","","","","","","",""
"pit-trial","10","131598","0.0-2.0-4.2-0.2","battery-v0.2","","""event"",""trial"",""time""
""focus"",""1"",""5448""
""fullscreenenter"",""1"",""5559""
","
","""event"",""trial"",""time""
""focus"",""1"",""5448""
","""event"",""trial"",""time""
""fullscreenenter"",""1"",""5559""
","
","","","760.7999999523163","","","22","8002","3992","&#9784;","elianto","#FFFFF080"," "," ","1","&#10004","[1611.3999999761581]","1","0","0","","","","","","","",""
"pit-trial","11","135142","0.0-2.0-4.3-0.3","battery-v0.2","","""event"",""trial"",""time""
""focus"",""1"",""5448""
""fullscreenenter"",""1"",""5559""
","
","""event"",""trial"",""time""
""focus"",""1"",""5448""
","""event"",""trial"",""time""
""fullscreenenter"",""1"",""5559""
","
","","","688.5","","","22","8002","3992","&#9784;","elianto","#FFFFF080"," "," ","1","&#10004","[1539.8000000715256]","1","0","0","","","","","","","",""
"pit-trial","12","138729","0.0-2.0-4.4-0.4","battery-v0.2","","""event"",""trial"",""time""
""focus"",""1"",""5448""
""fullscreenenter"",""1"",""5559""
","
","""event"",""trial"",""time""
""focus"",""1"",""5448""
","""event"",""trial"",""time""
""fullscreenenter"",""1"",""5559""
","
","","","717","","","22","8002","3992","&#9784;","elianto","#FFFFF080"," "," ","1","&#10004","[1571.3000000715256]","1","0","0","","","","","","","",""
"pit-instructions","13","162513","0.0-2.0-5.0","battery-v0.2","","""event"",""trial"",""time""
""focus"",""1"",""5448""
""fullscreenenter"",""1"",""5559""
","
","""event"",""trial"",""time""
""focus"",""1"",""5448""
","""event"",""trial"",""time""
""fullscreenenter"",""1"",""5559""
","
","","[{""page_index"":0,""viewing_time"":6444.299999952316},{""page_index"":1,""viewing_time"":6472.100000023842},{""page_index"":2,""viewing_time"":5286.5},{""page_index"":3,""viewing_time"":5577.399999976158}]","23780.599999904633","","","","","","","","","","","","","","","","","","","","","","","",""
"pit-trial","14","167375","0.0-2.0-6.0-0.0","battery-v0.2","","""event"",""trial"",""time""
""focus"",""1"",""5448""
""fullscreenenter"",""1"",""5559""
","
","""event"",""trial"",""time""
""focus"",""1"",""5448""
","""event"",""trial"",""time""
""fullscreenenter"",""1"",""5559""
","
","","","-1","","","22","8002","3992","&#9854;","elianto","#FFFFF080","-1","-1","1","&#10004","[]","0","0","1","","","","","","","",""
"pit-trial","15","172240","0.0-2.0-6.1-0.1","battery-v0.2","","""event"",""trial"",""time""
""focus"",""1"",""5448""
""fullscreenenter"",""1"",""5559""
","
","""event"",""trial"",""time""
""focus"",""1"",""5448""
","""event"",""trial"",""time""
""fullscreenenter"",""1"",""5559""
","
","","","-1","","","22","8002","3992","&#9854;","elianto","#FFFFF080","-1","-1","1","&#10004","[]","0","0","1","","","","","","","",""
"pit-trial","16","177119","0.0-2.0-6.2-0.2","battery-v0.2","","""event"",""trial"",""time""
""focus"",""1"",""5448""
""fullscreenenter"",""1"",""5559""
","
","""event"",""trial"",""time""
""focus"",""1"",""5448""
","""event"",""trial"",""time""
""fullscreenenter"",""1"",""5559""
","
","","","-1","","","22","8002","3992","&#9854;","elianto","#FFFFF080","-1","-1","1","&#10004","[]","0","0","1","","","","","","","",""
"pit-trial","17","181980","0.0-2.0-6.3-0.3","battery-v0.2","","""event"",""trial"",""time""
""focus"",""1"",""5448""
""fullscreenenter"",""1"",""5559""
","
","""event"",""trial"",""time""
""focus"",""1"",""5448""
","""event"",""trial"",""time""
""fullscreenenter"",""1"",""5559""
","
","","","-1","","","22","8002","3992","&#9854;","elianto","#FFFFF080","-1","-1","1","&#10004","[]","0","0","1","","","","","","","",""
"pit-trial","18","186849","0.0-2.0-6.4-0.4","battery-v0.2","","""event"",""trial"",""time""
""focus"",""1"",""5448""
""fullscreenenter"",""1"",""5559""
","
","""event"",""trial"",""time""
""focus"",""1"",""5448""
","""event"",""trial"",""time""
""fullscreenenter"",""1"",""5559""
","
","","","-1","","","22","8002","3992","&#9854;","elianto","#FFFFF080","-1","-1","1","&#10004","[]","0","0","1","","","","","","","",""
"pit-instructions","19","314177","0.0-2.0-7.0","battery-v0.2","","""event"",""trial"",""time""
""focus"",""1"",""5448""
""fullscreenenter"",""1"",""5559""
","
","""event"",""trial"",""time""
""focus"",""1"",""5448""
","""event"",""trial"",""time""
""fullscreenenter"",""1"",""5559""
","
","","[{""page_index"":0,""viewing_time"":5933.700000047684},{""page_index"":1,""viewing_time"":7128},{""page_index"":2,""viewing_time"":6293.899999976158},{""page_index"":3,""viewing_time"":6642.5},{""page_index"":4,""viewing_time"":6159.5},{""page_index"":5,""viewing_time"":6284.399999976158},{""page_index"":6,""viewing_time"":4917.700000047684},{""page_index"":7,""viewing_time"":11050.100000023842},{""page_index"":8,""viewing_time"":7367.399999976158},{""page_index"":9,""viewing_time"":6730.199999928474},{""page_index"":10,""viewing_time"":7984.5},{""page_index"":11,""viewing_time"":5789.600000023842},{""page_index"":12,""viewing_time"":7030.399999976158},{""page_index"":13,""viewing_time"":7343.300000071526},{""page_index"":14,""viewing_time"":8232.199999928474},{""page_index"":15,""viewing_time"":7312.5},{""page_index"":16,""viewing_time"":7319.600000023842},{""page_index"":17,""viewing_time"":7805.700000047684}]","127325.5","","","","","","","","","","","","","","","","","","","","","","","",""
"pit-trial","20","317762","0.0-2.0-8.0-0.0","battery-v0.2","","""event"",""trial"",""time""
""focus"",""1"",""5448""
""fullscreenenter"",""1"",""5559""
","
","""event"",""trial"",""time""
""focus"",""1"",""5448""
","""event"",""trial"",""time""
""fullscreenenter"",""1"",""5559""
","
","","","723.5","","","22","8002","3992","&#9776;","elianto","#3366ff99"," "," ","1","+10","[1577.2999999523163]","1","0","1","","","","","","","",""
"pit-trial","21","321222","0.0-2.0-8.0-1.0","battery-v0.2","","""event"",""trial"",""time""
""focus"",""1"",""5448""
""fullscreenenter"",""1"",""5559""
","
","""event"",""trial"",""time""
""focus"",""1"",""5448""
","""event"",""trial"",""time""
""fullscreenenter"",""1"",""5559""
","
","","","596.3000000715256","","","22","8002","3992","&#9776;","elianto","#3366ff99"," "," ","1","+10","[1448.6000000238419]","1","0","1","","","","","","","",""
"pit-trial","22","324628","0.0-2.0-8.0-2.0","battery-v0.2","","""event"",""trial"",""time""
""focus"",""1"",""5448""
""fullscreenenter"",""1"",""5559""
","
","""event"",""trial"",""time""
""focus"",""1"",""5448""
","""event"",""trial"",""time""
""fullscreenenter"",""1"",""5559""
","
","","","544.7999999523163","","","22","8002","3992","&#9776;","elianto","#3366ff99"," "," ","1","+10","[1403.1000000238419]","1","0","1","","","","","","","",""
"pit-trial","23","327971","0.0-2.0-8.0-3.0","battery-v0.2","","""event"",""trial"",""time""
""focus"",""1"",""5448""
""fullscreenenter"",""1"",""5559""
","
","""event"",""trial"",""time""
""focus"",""1"",""5448""
","""event"",""trial"",""time""
""fullscreenenter"",""1"",""5559""
","
","","","480.7000000476837","","","22","8002","3992","&#9776;","elianto","#3366ff99"," "," ","1","0","[1333.5]","1","0","1","","","","","","","",""
"pit-trial","24","331296","0.0-2.0-8.0-4.0","battery-v0.2","","""event"",""trial"",""time""
""focus"",""1"",""5448""
""fullscreenenter"",""1"",""5559""
","
","""event"",""trial"",""time""
""focus"",""1"",""5448""
","""event"",""trial"",""time""
""fullscreenenter"",""1"",""5559""
","
","","","459.39999997615814","","","22","8002","3992","&#9776;","elianto","#3366ff99"," "," ","1","+10","[1318.6000000238419]","1","0","1","","","","","","","",""
"pit-trial","25","334592","0.0-2.0-8.1-0.1","battery-v0.2","","""event"",""trial"",""time""
""focus"",""1"",""5448""
""fullscreenenter"",""1"",""5559""
","
","""event"",""trial"",""time""
""focus"",""1"",""5448""
","""event"",""trial"",""time""
""fullscreenenter"",""1"",""5559""
","
","","","435.89999997615814","","","22","8002","3992","&#9776;","elianto","#3366ff99"," "," ","1","+10","[1287.8999999761581]","1","0","1","","","","","","","",""
"pit-trial","26","337900","0.0-2.0-8.1-1.1","battery-v0.2","","""event"",""trial"",""time""
""focus"",""1"",""5448""
""fullscreenenter"",""1"",""5559""
","
","""event"",""trial"",""time""
""focus"",""1"",""5448""
","""event"",""trial"",""time""
""fullscreenenter"",""1"",""5559""
","
","","","442.2000000476837","","","22","8002","3992","&#9776;","elianto","#3366ff99"," "," ","1","+10","[1297.5]","1","0","1","","","","","","","",""
"pit-trial","27","341262","0.0-2.0-8.1-2.1","battery-v0.2","","""event"",""trial"",""time""
""focus"",""1"",""5448""
""fullscreenenter"",""1"",""5559""
","
","""event"",""trial"",""time""
""focus"",""1"",""5448""
","""event"",""trial"",""time""
""fullscreenenter"",""1"",""5559""
","
","","","506.60000002384186","","","22","8002","3992","&#9776;","elianto","#3366ff99"," "," ","1","+10","[1357.1000000238419]","1","0","1","","","","","","","",""
"pit-trial","28","344692","0.0-2.0-8.1-3.1","battery-v0.2","","""event"",""trial"",""time""
""focus"",""1"",""5448""
""fullscreenenter"",""1"",""5559""
","
","""event"",""trial"",""time""
""focus"",""1"",""5448""
","""event"",""trial"",""time""
""fullscreenenter"",""1"",""5559""
","
","","","575.8999999761581","","","22","8002","3992","&#9776;","elianto","#3366ff99"," "," ","1","0","[1427.5]","1","0","1","","","","","","","",""
"pit-trial","29","348035","0.0-2.0-8.1-4.1","battery-v0.2","","""event"",""trial"",""time""
""focus"",""1"",""5448""
""fullscreenenter"",""1"",""5559""
","
","""event"",""trial"",""time""
""focus"",""1"",""5448""
","""event"",""trial"",""time""
""fullscreenenter"",""1"",""5559""
","
","","","490.8000000715256","","","22","8002","3992","&#9776;","elianto","#3366ff99"," "," ","1","+10","[1340.8999999761581]","1","0","1","","","","","","","",""
"pit-trial","30","351333","0.0-2.0-8.2-0.2","battery-v0.2","","""event"",""trial"",""time""
""focus"",""1"",""5448""
""fullscreenenter"",""1"",""5559""
","
","""event"",""trial"",""time""
""focus"",""1"",""5448""
","""event"",""trial"",""time""
""fullscreenenter"",""1"",""5559""
","
","","","442.7999999523163","","","22","8002","3992","&#9776;","elianto","#3366ff99"," "," ","1","+10","[1293.6000000238419]","1","0","1","","","","","","","",""
"pit-trial","31","354667","0.0-2.0-8.2-1.2","battery-v0.2","","""event"",""trial"",""time""
""focus"",""1"",""5448""
""fullscreenenter"",""1"",""5559""
","
","""event"",""trial"",""time""
""focus"",""1"",""5448""
","""event"",""trial"",""time""
""fullscreenenter"",""1"",""5559""
","
","","","481.60000002384186","","","22","8002","3992","&#9776;","elianto","#3366ff99"," "," ","1","+10","[1332]","1","0","1","","","","","","","",""
"pit-trial","32","357987","0.0-2.0-8.2-2.2","battery-v0.2","","""event"",""trial"",""time""
""focus"",""1"",""5448""
""fullscreenenter"",""1"",""5559""
","
","""event"",""trial"",""time""
""focus"",""1"",""5448""
","""event"",""trial"",""time""
""fullscreenenter"",""1"",""5559""
","
","","","466.7999999523163","","","22","8002","3992","&#9776;","elianto","#3366ff99"," "," ","1","+10","[1317.5]","1","0","1","","","","","","","",""
"pit-trial","33","361300","0.0-2.0-8.2-3.2","battery-v0.2","","""event"",""trial"",""time""
""focus"",""1"",""5448""
""fullscreenenter"",""1"",""5559""
","
","""event"",""trial"",""time""
""focus"",""1"",""5448""
","""event"",""trial"",""time""
""fullscreenenter"",""1"",""5559""
","
","","","460.3000000715256","","","22","8002","3992","&#9776;","elianto","#3366ff99"," "," ","1","0","[1310.6000000238419]","1","0","1","","","","","","","",""
"pit-trial","34","364612","0.0-2.0-8.2-4.2","battery-v0.2","","""event"",""trial"",""time""
""focus"",""1"",""5448""
""fullscreenenter"",""1"",""5559""
","
","""event"",""trial"",""time""
""focus"",""1"",""5448""
","""event"",""trial"",""time""
""fullscreenenter"",""1"",""5559""
","
","","","459.6999999284744","","","22","8002","3992","&#9776;","elianto","#3366ff99"," "," ","1","+10","[1309.8000000715256]","1","0","1","","","","","","","",""
"call-function","35","364614","0.0-2.0-9.0","battery-v0.2","","""event"",""trial"",""time""
""focus"",""1"",""5448""
""fullscreenenter"",""1"",""5559""
","
","""event"",""trial"",""time""
""focus"",""1"",""5448""
","""event"",""trial"",""time""
""fullscreenenter"",""1"",""5559""
","
","","","","","","","","","","","","","","","","","","","","","","","","","","",""
"pit-instructions","36","406898","0.0-2.0-10.0","battery-v0.2","","""event"",""trial"",""time""
""focus"",""1"",""5448""
""fullscreenenter"",""1"",""5559""
","
","""event"",""trial"",""time""
""focus"",""1"",""5448""
","""event"",""trial"",""time""
""fullscreenenter"",""1"",""5559""
","
","","[{""page_index"":0,""viewing_time"":6515.100000023842},{""page_index"":1,""viewing_time"":7974.5},{""page_index"":2,""viewing_time"":9896.100000023842},{""page_index"":3,""viewing_time"":9733.699999928474},{""page_index"":4,""viewing_time"":8162.800000071526}]","42282.5","","","","","","","","","","","","","","","","","","","","","","","",""
"pit-trial","37","410626","0.0-2.0-11.0-0.0","battery-v0.2","","""event"",""trial"",""time""
""focus"",""1"",""5448""
""fullscreenenter"",""1"",""5559""
","
","""event"",""trial"",""time""
""focus"",""1"",""5448""
","""event"",""trial"",""time""
""fullscreenenter"",""1"",""5559""
","
","","","861.6000000238419","","","22","8002","3992","&#9761;","elianto","#3366ff99","-1"," ","0","0","[1712.7000000476837]","1","0","2","","","","","","","",""
"pit-trial","38","415496","0.0-2.0-11.0-1.0","battery-v0.2","","""event"",""trial"",""time""
""focus"",""1"",""5448""
""fullscreenenter"",""1"",""5559""
","
","""event"",""trial"",""time""
""focus"",""1"",""5448""
","""event"",""trial"",""time""
""fullscreenenter"",""1"",""5559""
","
","","","-1","","","22","8002","3992","&#9761;","elianto","#3366ff99","-1","-1","1","+10","[]","0","0","2","","","","","","","",""
"pit-trial","39","420364","0.0-2.0-11.0-2.0","battery-v0.2","","""event"",""trial"",""time""
""focus"",""1"",""5448""
""fullscreenenter"",""1"",""5559""
","
","""event"",""trial"",""time""
""focus"",""1"",""5448""
","""event"",""trial"",""time""
""fullscreenenter"",""1"",""5559""
","
","","","-1","","","22","8002","3992","&#9761;","elianto","#3366ff99","-1","-1","1","+10","[]","0","0","2","","","","","","","",""
"pit-trial","40","425224","0.0-2.0-11.0-3.0","battery-v0.2","","""event"",""trial"",""time""
""focus"",""1"",""5448""
""fullscreenenter"",""1"",""5559""
","
","""event"",""trial"",""time""
""focus"",""1"",""5448""
","""event"",""trial"",""time""
""fullscreenenter"",""1"",""5559""
","
","","","-1","","","22","8002","3992","&#9761;","elianto","#3366ff99","-1","-1","1","0","[]","0","0","2","","","","","","","",""
"pit-trial","41","430098","0.0-2.0-11.0-4.0","battery-v0.2","","""event"",""trial"",""time""
""focus"",""1"",""5448""
""fullscreenenter"",""1"",""5559""
","
","""event"",""trial"",""time""
""focus"",""1"",""5448""
","""event"",""trial"",""time""
""fullscreenenter"",""1"",""5559""
","
","","","-1","","","22","8002","3992","&#9761;","elianto","#3366ff99","-1","-1","1","+10","[]","0","0","2","","","","","","","",""
"pit-trial","42","434960","0.0-2.0-11.1-0.1","battery-v0.2","","""event"",""trial"",""time""
""focus"",""1"",""5448""
""fullscreenenter"",""1"",""5559""
","
","""event"",""trial"",""time""
""focus"",""1"",""5448""
","""event"",""trial"",""time""
""fullscreenenter"",""1"",""5559""
","
","","","-1","","","22","8002","3992","&#9761;","elianto","#3366ff99","-1","-1","1","+10","[]","0","0","2","","","","","","","",""
"pit-trial","43","439814","0.0-2.0-11.1-1.1","battery-v0.2","","""event"",""trial"",""time""
""focus"",""1"",""5448""
""fullscreenenter"",""1"",""5559""
","
","""event"",""trial"",""time""
""focus"",""1"",""5448""
","""event"",""trial"",""time""
""fullscreenenter"",""1"",""5559""
","
","","","-1","","","22","8002","3992","&#9761;","elianto","#3366ff99","-1","-1","1","+10","[]","0","0","2","","","","","","","",""
"pit-trial","44","444666","0.0-2.0-11.1-2.1","battery-v0.2","","""event"",""trial"",""time""
""focus"",""1"",""5448""
""fullscreenenter"",""1"",""5559""
","
","""event"",""trial"",""time""
""focus"",""1"",""5448""
","""event"",""trial"",""time""
""fullscreenenter"",""1"",""5559""
","
","","","-1","","","22","8002","3992","&#9761;","elianto","#3366ff99","-1","-1","1","+10","[]","0","0","2","","","","","","","",""
"pit-trial","45","449519","0.0-2.0-11.1-3.1","battery-v0.2","","""event"",""trial"",""time""
""focus"",""1"",""5448""
""fullscreenenter"",""1"",""5559""
","
","""event"",""trial"",""time""
""focus"",""1"",""5448""
","""event"",""trial"",""time""
""fullscreenenter"",""1"",""5559""
","
","","","-1","","","22","8002","3992","&#9761;","elianto","#3366ff99","-1","-1","1","0","[]","0","0","2","","","","","","","",""
"pit-trial","46","454372","0.0-2.0-11.1-4.1","battery-v0.2","","""event"",""trial"",""time""
""focus"",""1"",""5448""
""fullscreenenter"",""1"",""5559""
","
","""event"",""trial"",""time""
""focus"",""1"",""5448""
","""event"",""trial"",""time""
""fullscreenenter"",""1"",""5559""
","
","","","-1","","","22","8002","3992","&#9761;","elianto","#3366ff99","-1","-1","1","+10","[]","0","0","2","","","","","","","",""
"pit-trial","47","459225","0.0-2.0-11.2-0.2","battery-v0.2","","""event"",""trial"",""time""
""focus"",""1"",""5448""
""fullscreenenter"",""1"",""5559""
","
","""event"",""trial"",""time""
""focus"",""1"",""5448""
","""event"",""trial"",""time""
""fullscreenenter"",""1"",""5559""
","
","","","-1","","","22","8002","3992","&#9761;","elianto","#3366ff99","-1","-1","1","+10","[]","0","0","2","","","","","","","",""
"pit-trial","48","464078","0.0-2.0-11.2-1.2","battery-v0.2","","""event"",""trial"",""time""
""focus"",""1"",""5448""
""fullscreenenter"",""1"",""5559""
","
","""event"",""trial"",""time""
""focus"",""1"",""5448""
","""event"",""trial"",""time""
""fullscreenenter"",""1"",""5559""
","
","","","-1","","","22","8002","3992","&#9761;","elianto","#3366ff99","-1","-1","1","+10","[]","0","0","2","","","","","","","",""
"pit-trial","49","468931","0.0-2.0-11.2-2.2","battery-v0.2","","""event"",""trial"",""time""
""focus"",""1"",""5448""
""fullscreenenter"",""1"",""5559""
","
","""event"",""trial"",""time""
""focus"",""1"",""5448""
","""event"",""trial"",""time""
""fullscreenenter"",""1"",""5559""
","
","","","-1","","","22","8002","3992","&#9761;","elianto","#3366ff99","-1","-1","1","+10","[]","0","0","2","","","","","","","",""
"pit-trial","50","473784","0.0-2.0-11.2-3.2","battery-v0.2","","""event"",""trial"",""time""
""focus"",""1"",""5448""
""fullscreenenter"",""1"",""5559""
","
","""event"",""trial"",""time""
""focus"",""1"",""5448""
","""event"",""trial"",""time""
""fullscreenenter"",""1"",""5559""
","
","","","-1","","","22","8002","3992","&#9761;","elianto","#3366ff99","-1","-1","1","0","[]","0","0","2","","","","","","","",""
"pit-trial","51","478637","0.0-2.0-11.2-4.2","battery-v0.2","","""event"",""trial"",""time""
""focus"",""1"",""5448""
""fullscreenenter"",""1"",""5559""
","
","""event"",""trial"",""time""
""focus"",""1"",""5448""
","""event"",""trial"",""time""
""fullscreenenter"",""1"",""5559""
","
","","","-1","","","22","8002","3992","&#9761;","elianto","#3366ff99","-1","-1","1","+10","[]","0","0","2","","","","","","","",""
"pit-trial","52","483492","0.0-2.0-11.3-0.3","battery-v0.2","","""event"",""trial"",""time""
""focus"",""1"",""5448""
""fullscreenenter"",""1"",""5559""
","
","""event"",""trial"",""time""
""focus"",""1"",""5448""
","""event"",""trial"",""time""
""fullscreenenter"",""1"",""5559""
","
","","","-1","","","22","8002","3992","&#9761;","elianto","#3366ff99","-1","-1","1","+10","[]","0","0","2","","","","","","","",""
"pit-trial","53","488344","0.0-2.0-11.3-1.3","battery-v0.2","","""event"",""trial"",""time""
""focus"",""1"",""5448""
""fullscreenenter"",""1"",""5559""
","
","""event"",""trial"",""time""
""focus"",""1"",""5448""
","""event"",""trial"",""time""
""fullscreenenter"",""1"",""5559""
","
","","","-1","","","22","8002","3992","&#9761;","elianto","#3366ff99","-1","-1","1","+10","[]","0","0","2","","","","","","","",""
"pit-trial","54","493197","0.0-2.0-11.3-2.3","battery-v0.2","","""event"",""trial"",""time""
""focus"",""1"",""5448""
""fullscreenenter"",""1"",""5559""
","
","""event"",""trial"",""time""
""focus"",""1"",""5448""
","""event"",""trial"",""time""
""fullscreenenter"",""1"",""5559""
","
","","","-1","","","22","8002","3992","&#9761;","elianto","#3366ff99","-1","-1","1","+10","[]","0","0","2","","","","","","","",""
"pit-trial","55","498051","0.0-2.0-11.3-3.3","battery-v0.2","","""event"",""trial"",""time""
""focus"",""1"",""5448""
""fullscreenenter"",""1"",""5559""
","
","""event"",""trial"",""time""
""focus"",""1"",""5448""
","""event"",""trial"",""time""
""fullscreenenter"",""1"",""5559""
","
","","","-1","","","22","8002","3992","&#9761;","elianto","#3366ff99","-1","-1","1","0","[]","0","0","2","","","","","","","",""
"pit-trial","56","502909","0.0-2.0-11.3-4.3","battery-v0.2","","""event"",""trial"",""time""
""focus"",""1"",""5448""
""fullscreenenter"",""1"",""5559""
","
","""event"",""trial"",""time""
""focus"",""1"",""5448""
","""event"",""trial"",""time""
""fullscreenenter"",""1"",""5559""
","
","","","-1","","","22","8002","3992","&#9761;","elianto","#3366ff99","-1","-1","1","+10","[]","0","0","2","","","","","","","",""
"call-function","57","502911","0.0-2.0-12.0","battery-v0.2","","""event"",""trial"",""time""
""focus"",""1"",""5448""
""fullscreenenter"",""1"",""5559""
","
","""event"",""trial"",""time""
""focus"",""1"",""5448""
","""event"",""trial"",""time""
""fullscreenenter"",""1"",""5559""
","
","","","","","","","","","","","","","","","","","","","","","","","","","","",""
"pit-instructions","58","537059","0.0-2.0-13.0","battery-v0.2","","""event"",""trial"",""time""
""focus"",""1"",""5448""
""fullscreenenter"",""1"",""5559""
","
","""event"",""trial"",""time""
""focus"",""1"",""5448""
","""event"",""trial"",""time""
""fullscreenenter"",""1"",""5559""
","
","","[{""page_index"":0,""viewing_time"":7091.899999976158},{""page_index"":1,""viewing_time"":7545.899999976158},{""page_index"":2,""viewing_time"":3262.2000000476837},{""page_index"":3,""viewing_time"":10945.799999952316},{""page_index"":4,""viewing_time"":5299.900000095367}]","34146.10000002384","","","","","","","","","","","","","","","","","","","","","","","",""
"pit-trial","59","541917","0.0-2.0-14.0-0.0","battery-v0.2","","""event"",""trial"",""time""
""focus"",""1"",""5448""
""fullscreenenter"",""1"",""5559""
","
","""event"",""trial"",""time""
""focus"",""1"",""5448""
","""event"",""trial"",""time""
""fullscreenenter"",""1"",""5559""
","
","","","-1","","","22","8002","3992","&#9826;","elianto","#f73b6a7A","-1","-1","1","0","[]","0","0","3","","","","","","","",""
"pit-trial","60","546788","0.0-2.0-14.0-1.0","battery-v0.2","","""event"",""trial"",""time""
""focus"",""1"",""5448""
""fullscreenenter"",""1"",""5559""
","
","""event"",""trial"",""time""
""focus"",""1"",""5448""
","""event"",""trial"",""time""
""fullscreenenter"",""1"",""5559""
","
","","","-1","","","22","8002","3992","&#9826;","elianto","#f73b6a7A","-1","-1","1","0","[]","0","0","3","","","","","","","",""
"pit-trial","61","551665","0.0-2.0-14.0-2.0","battery-v0.2","","""event"",""trial"",""time""
""focus"",""1"",""5448""
""fullscreenenter"",""1"",""5559""
","
","""event"",""trial"",""time""
""focus"",""1"",""5448""
","""event"",""trial"",""time""
""fullscreenenter"",""1"",""5559""
","
","","","-1","","","22","8002","3992","&#9826;","elianto","#f73b6a7A","-1","-1","1","0","[]","0","0","3","","","","","","","",""
"pit-trial","62","556549","0.0-2.0-14.0-3.0","battery-v0.2","","""event"",""trial"",""time""
""focus"",""1"",""5448""
""fullscreenenter"",""1"",""5559""
","
","""event"",""trial"",""time""
""focus"",""1"",""5448""
","""event"",""trial"",""time""
""fullscreenenter"",""1"",""5559""
","
","","","-1","","","22","8002","3992","&#9826;","elianto","#f73b6a7A","-1","-1","1","-10","[]","0","0","3","","","","","","","",""
"pit-trial","63","561415","0.0-2.0-14.0-4.0","battery-v0.2","","""event"",""trial"",""time""
""focus"",""1"",""5448""
""fullscreenenter"",""1"",""5559""
","
","""event"",""trial"",""time""
""focus"",""1"",""5448""
","""event"",""trial"",""time""
""fullscreenenter"",""1"",""5559""
","
","","","-1","","","22","8002","3992","&#9826;","elianto","#f73b6a7A","-1","-1","1","0","[]","0","0","3","","","","","","","",""
"pit-trial","64","566277","0.0-2.0-14.1-0.1","battery-v0.2","","""event"",""trial"",""time""
""focus"",""1"",""5448""
""fullscreenenter"",""1"",""5559""
","
","""event"",""trial"",""time""
""focus"",""1"",""5448""
","""event"",""trial"",""time""
""fullscreenenter"",""1"",""5559""
","
","","","-1","","","22","8002","3992","&#9826;","elianto","#f73b6a7A","-1","-1","1","0","[]","0","0","3","","","","","","","",""
"pit-trial","65","571130","0.0-2.0-14.1-1.1","battery-v0.2","","""event"",""trial"",""time""
""focus"",""1"",""5448""
""fullscreenenter"",""1"",""5559""
","
","""event"",""trial"",""time""
""focus"",""1"",""5448""
","""event"",""trial"",""time""
""fullscreenenter"",""1"",""5559""
","
","","","-1","","","22","8002","3992","&#9826;","elianto","#f73b6a7A","-1","-1","1","0","[]","0","0","3","","","","","","","",""
"pit-trial","66","575983","0.0-2.0-14.1-2.1","battery-v0.2","","""event"",""trial"",""time""
""focus"",""1"",""5448""
""fullscreenenter"",""1"",""5559""
","
","""event"",""trial"",""time""
""focus"",""1"",""5448""
","""event"",""trial"",""time""
""fullscreenenter"",""1"",""5559""
","
","","","-1","","","22","8002","3992","&#9826;","elianto","#f73b6a7A","-1","-1","1","0","[]","0","0","3","","","","","","","",""
"pit-trial","67","580836","0.0-2.0-14.1-3.1","battery-v0.2","","""event"",""trial"",""time""
""focus"",""1"",""5448""
""fullscreenenter"",""1"",""5559""
","
","""event"",""trial"",""time""
""focus"",""1"",""5448""
","""event"",""trial"",""time""
""fullscreenenter"",""1"",""5559""
","
","","","-1","","","22","8002","3992","&#9826;","elianto","#f73b6a7A","-1","-1","1","-10","[]","0","0","3","","","","","","","",""
"pit-trial","68","585690","0.0-2.0-14.1-4.1","battery-v0.2","","""event"",""trial"",""time""
""focus"",""1"",""5448""
""fullscreenenter"",""1"",""5559""
","
","""event"",""trial"",""time""
""focus"",""1"",""5448""
","""event"",""trial"",""time""
""fullscreenenter"",""1"",""5559""
","
","","","-1","","","22","8002","3992","&#9826;","elianto","#f73b6a7A","-1","-1","1","0","[]","0","0","3","","","","","","","",""
"pit-trial","69","590546","0.0-2.0-14.2-0.2","battery-v0.2","","""event"",""trial"",""time""
""focus"",""1"",""5448""
""fullscreenenter"",""1"",""5559""
","
","""event"",""trial"",""time""
""focus"",""1"",""5448""
","""event"",""trial"",""time""
""fullscreenenter"",""1"",""5559""
","
","","","-1","","","22","8002","3992","&#9826;","elianto","#f73b6a7A","-1","-1","1","0","[]","0","0","3","","","","","","","",""
"pit-trial","70","595413","0.0-2.0-14.2-1.2","battery-v0.2","","""event"",""trial"",""time""
""focus"",""1"",""5448""
""fullscreenenter"",""1"",""5559""
","
","""event"",""trial"",""time""
""focus"",""1"",""5448""
","""event"",""trial"",""time""
""fullscreenenter"",""1"",""5559""
","
","","","-1","","","22","8002","3992","&#9826;","elianto","#f73b6a7A","-1","-1","1","0","[]","0","0","3","","","","","","","",""
"pit-trial","71","600266","0.0-2.0-14.2-2.2","battery-v0.2","","""event"",""trial"",""time""
""focus"",""1"",""5448""
""fullscreenenter"",""1"",""5559""
","
","""event"",""trial"",""time""
""focus"",""1"",""5448""
","""event"",""trial"",""time""
""fullscreenenter"",""1"",""5559""
","
","","","-1","","","22","8002","3992","&#9826;","elianto","#f73b6a7A","-1","-1","1","0","[]","0","0","3","","","","","","","",""
"pit-trial","72","605119","0.0-2.0-14.2-3.2","battery-v0.2","","""event"",""trial"",""time""
""focus"",""1"",""5448""
""fullscreenenter"",""1"",""5559""
","
","""event"",""trial"",""time""
""focus"",""1"",""5448""
","""event"",""trial"",""time""
""fullscreenenter"",""1"",""5559""
","
","","","-1","","","22","8002","3992","&#9826;","elianto","#f73b6a7A","-1","-1","1","-10","[]","0","0","3","","","","","","","",""
"pit-trial","73","609974","0.0-2.0-14.2-4.2","battery-v0.2","","""event"",""trial"",""time""
""focus"",""1"",""5448""
""fullscreenenter"",""1"",""5559""
","
","""event"",""trial"",""time""
""focus"",""1"",""5448""
","""event"",""trial"",""time""
""fullscreenenter"",""1"",""5559""
","
","","","-1","","","22","8002","3992","&#9826;","elianto","#f73b6a7A","-1","-1","1","0","[]","0","0","3","","","","","","","",""
"pit-trial","74","614827","0.0-2.0-14.3-0.3","battery-v0.2","","""event"",""trial"",""time""
""focus"",""1"",""5448""
""fullscreenenter"",""1"",""5559""
","
","""event"",""trial"",""time""
""focus"",""1"",""5448""
","""event"",""trial"",""time""
""fullscreenenter"",""1"",""5559""
","
","","","-1","","","22","8002","3992","&#9826;","elianto","#f73b6a7A","-1","-1","1","0","[]","0","0","3","","","","","","","",""
"pit-trial","75","619680","0.0-2.0-14.3-1.3","battery-v0.2","","""event"",""trial"",""time""
""focus"",""1"",""5448""
""fullscreenenter"",""1"",""5559""
","
","""event"",""trial"",""time""
""focus"",""1"",""5448""
","""event"",""trial"",""time""
""fullscreenenter"",""1"",""5559""
","
","","","-1","","","22","8002","3992","&#9826;","elianto","#f73b6a7A","-1","-1","1","0","[]","0","0","3","","","","","","","",""
"pit-trial","76","624534","0.0-2.0-14.3-2.3","battery-v0.2","","""event"",""trial"",""time""
""focus"",""1"",""5448""
""fullscreenenter"",""1"",""5559""
","
","""event"",""trial"",""time""
""focus"",""1"",""5448""
","""event"",""trial"",""time""
""fullscreenenter"",""1"",""5559""
","
","","","-1","","","22","8002","3992","&#9826;","elianto","#f73b6a7A","-1","-1","1","0","[]","0","0","3","","","","","","","",""
"pit-trial","77","629387","0.0-2.0-14.3-3.3","battery-v0.2","","""event"",""trial"",""time""
""focus"",""1"",""5448""
""fullscreenenter"",""1"",""5559""
","
","""event"",""trial"",""time""
""focus"",""1"",""5448""
","""event"",""trial"",""time""
""fullscreenenter"",""1"",""5559""
","
","","","-1","","","22","8002","3992","&#9826;","elianto","#f73b6a7A","-1","-1","1","-10","[]","0","0","3","","","","","","","",""
"pit-trial","78","634240","0.0-2.0-14.3-4.3","battery-v0.2","","""event"",""trial"",""time""
""focus"",""1"",""5448""
""fullscreenenter"",""1"",""5559""
","
","""event"",""trial"",""time""
""focus"",""1"",""5448""
","""event"",""trial"",""time""
""fullscreenenter"",""1"",""5559""
","
","","","-1","","","22","8002","3992","&#9826;","elianto","#f73b6a7A","-1","-1","1","0","[]","0","0","3","","","","","","","",""
"call-function","79","634242","0.0-2.0-15.0","battery-v0.2","","""event"",""trial"",""time""
""focus"",""1"",""5448""
""fullscreenenter"",""1"",""5559""
","
","""event"",""trial"",""time""
""focus"",""1"",""5448""
","""event"",""trial"",""time""
""fullscreenenter"",""1"",""5559""
","
","","","","","","","","","","","","","","","","","","","","","","","","","","",""
"pit-instructions","80","661353","0.0-2.0-16.0","battery-v0.2","","""event"",""trial"",""time""
""focus"",""1"",""5448""
""fullscreenenter"",""1"",""5559""
","
","""event"",""trial"",""time""
""focus"",""1"",""5448""
","""event"",""trial"",""time""
""fullscreenenter"",""1"",""5559""
","
","","[{""page_index"":0,""viewing_time"":8457.399999976158},{""page_index"":1,""viewing_time"":8809.800000071526},{""page_index"":2,""viewing_time"":4553.899999976158},{""page_index"":3,""viewing_time"":5288.399999976158}]","27109.899999976158","","","","","","","","","","","","","","","","","","","","","","","",""
"pit-trial","81","664770","0.0-2.0-17.0-0.0","battery-v0.2","","""event"",""trial"",""time""
""focus"",""1"",""5448""
""fullscreenenter"",""1"",""5559""
","
","""event"",""trial"",""time""
""focus"",""1"",""5448""
","""event"",""trial"",""time""
""fullscreenenter"",""1"",""5559""
","
","","","540.2000000476837","","","22","8002","3992","&#9789;","elianto","#f73b6a7A"," "," ","1","0","[1401.2000000476837]","1","0","4","","","","","","","",""
"pit-trial","82","668067","0.0-2.0-17.0-1.0","battery-v0.2","","""event"",""trial"",""time""
""focus"",""1"",""5448""
""fullscreenenter"",""1"",""5559""
","
","""event"",""trial"",""time""
""focus"",""1"",""5448""
","""event"",""trial"",""time""
""fullscreenenter"",""1"",""5559""
","
","","","427.7000000476837","","","22","8002","3992","&#9789;","elianto","#f73b6a7A"," "," ","1","0","[1287.7000000476837]","1","0","4","","","","","","","",""
"pit-trial","83","671345","0.0-2.0-17.0-2.0","battery-v0.2","","""event"",""trial"",""time""
""focus"",""1"",""5448""
""fullscreenenter"",""1"",""5559""
","
","""event"",""trial"",""time""
""focus"",""1"",""5448""
","""event"",""trial"",""time""
""fullscreenenter"",""1"",""5559""
","
","","","407.39999997615814","","","22","8002","3992","&#9789;","elianto","#f73b6a7A"," "," ","1","0","[1269.8999999761581]","1","0","4","","","","","","","",""
"pit-trial","84","674732","0.0-2.0-17.0-3.0","battery-v0.2","","""event"",""trial"",""time""
""focus"",""1"",""5448""
""fullscreenenter"",""1"",""5559""
","
","""event"",""trial"",""time""
""focus"",""1"",""5448""
","""event"",""trial"",""time""
""fullscreenenter"",""1"",""5559""
","
","","","533.1000000238419","","","22","8002","3992","&#9789;","elianto","#f73b6a7A"," "," ","1","-10","[1384.6000000238419]","1","0","4","","","","","","","",""
"pit-trial","85","677987","0.0-2.0-17.0-4.0","battery-v0.2","","""event"",""trial"",""time""
""focus"",""1"",""5448""
""fullscreenenter"",""1"",""5559""
","
","""event"",""trial"",""time""
""focus"",""1"",""5448""
","""event"",""trial"",""time""
""fullscreenenter"",""1"",""5559""
","
","","","401.89999997615814","","","22","8002","3992","&#9789;","elianto","#f73b6a7A"," "," ","1","0","[1252.2999999523163]","1","0","4","","","","","","","",""
"pit-trial","86","681227","0.0-2.0-17.1-0.1","battery-v0.2","","""event"",""trial"",""time""
""focus"",""1"",""5448""
""fullscreenenter"",""1"",""5559""
","
","""event"",""trial"",""time""
""focus"",""1"",""5448""
","""event"",""trial"",""time""
""fullscreenenter"",""1"",""5559""
","
","","","382.7000000476837","","","22","8002","3992","&#9789;","elianto","#f73b6a7A"," "," ","1","0","[1236.5]","1","0","4","","","","","","","",""
"pit-trial","87","686101","0.0-2.0-17.1-1.1","battery-v0.2","","""event"",""trial"",""time""
""focus"",""1"",""5448""
""fullscreenenter"",""1"",""5559""
","
","""event"",""trial"",""time""
""focus"",""1"",""5448""
","""event"",""trial"",""time""
""fullscreenenter"",""1"",""5559""
","
","","","-1","","","22","8002","3992","&#9789;","elianto","#f73b6a7A"," ","-1","0","-10","[]","0","0","4","","","","","","","",""
"pit-trial","88","689365","0.0-2.0-17.1-2.1","battery-v0.2","","""event"",""trial"",""time""
""focus"",""1"",""5448""
""fullscreenenter"",""1"",""5559""
","
","""event"",""trial"",""time""
""focus"",""1"",""5448""
","""event"",""trial"",""time""
""fullscreenenter"",""1"",""5559""
","
","","","397.6999999284744","","","22","8002","3992","&#9789;","elianto","#f73b6a7A"," "," ","1","0","[1258.8999999761581]","1","0","4","","","","","","","",""
"pit-trial","89","692780","0.0-2.0-17.1-3.1","battery-v0.2","","""event"",""trial"",""time""
""focus"",""1"",""5448""
""fullscreenenter"",""1"",""5559""
","
","""event"",""trial"",""time""
""focus"",""1"",""5448""
","""event"",""trial"",""time""
""fullscreenenter"",""1"",""5559""
","
","","","561.3999999761581","","","22","8002","3992","&#9789;","elianto","#f73b6a7A"," "," ","1","-10","[1412]","1","0","4","","","","","","","",""
"pit-trial","90","696011","0.0-2.0-17.1-4.1","battery-v0.2","","""event"",""trial"",""time""
""focus"",""1"",""5448""
""fullscreenenter"",""1"",""5559""
","
","""event"",""trial"",""time""
""focus"",""1"",""5448""
","""event"",""trial"",""time""
""fullscreenenter"",""1"",""5559""
","
","","","379.5","","","22","8002","3992","&#9789;","elianto","#f73b6a7A"," "," ","1","0","[1229.5]","1","0","4","","","","","","","",""
"pit-trial","91","699244","0.0-2.0-17.2-0.2","battery-v0.2","","""event"",""trial"",""time""
""focus"",""1"",""5448""
""fullscreenenter"",""1"",""5559""
","
","""event"",""trial"",""time""
""focus"",""1"",""5448""
","""event"",""trial"",""time""
""fullscreenenter"",""1"",""5559""
","
","","","378.39999997615814","","","22","8002","3992","&#9789;","elianto","#f73b6a7A"," "," ","1","0","[1228.5]","1","0","4","","","","","","","",""
"pit-trial","92","702507","0.0-2.0-17.2-1.2","battery-v0.2","","""event"",""trial"",""time""
""focus"",""1"",""5448""
""fullscreenenter"",""1"",""5559""
","
","""event"",""trial"",""time""
""focus"",""1"",""5448""
","""event"",""trial"",""time""
""fullscreenenter"",""1"",""5559""
","
","","","410.5","","","22","8002","3992","&#9789;","elianto","#f73b6a7A"," "," ","1","0","[1261]","1","0","4","","","","","","","",""
"pit-trial","93","705812","0.0-2.0-17.2-2.2","battery-v0.2","","""event"",""trial"",""time""
""focus"",""1"",""5448""
""fullscreenenter"",""1"",""5559""
","
","""event"",""trial"",""time""
""focus"",""1"",""5448""
","""event"",""trial"",""time""
""fullscreenenter"",""1"",""5559""
","
","","","451.6999999284744","","","22","8002","3992","&#9789;","elianto","#f73b6a7A"," "," ","1","0","[1302.1999999284744]","1","0","4","","","","","","","",""
"pit-trial","94","709131","0.0-2.0-17.2-3.2","battery-v0.2","","""event"",""trial"",""time""
""focus"",""1"",""5448""
""fullscreenenter"",""1"",""5559""
","
","""event"",""trial"",""time""
""focus"",""1"",""5448""
","""event"",""trial"",""time""
""fullscreenenter"",""1"",""5559""
","
","","","467.09999990463257","","","22","8002","3992","&#9789;","elianto","#f73b6a7A"," "," ","1","-10","[1317.2999999523163]","1","0","4","","","","","","","",""
"pit-trial","95","712387","0.0-2.0-17.2-4.2","battery-v0.2","","""event"",""trial"",""time""
""focus"",""1"",""5448""
""fullscreenenter"",""1"",""5559""
","
","""event"",""trial"",""time""
""focus"",""1"",""5448""
","""event"",""trial"",""time""
""fullscreenenter"",""1"",""5559""
","
","","","402.60000002384186","","","22","8002","3992","&#9789;","elianto","#f73b6a7A"," "," ","1","0","[1253.3000000715256]","1","0","4","","","","","","","",""
"pit-trial","96","715643","0.0-2.0-17.3-0.3","battery-v0.2","","""event"",""trial"",""time""
""focus"",""1"",""5448""
""fullscreenenter"",""1"",""5559""
","
","""event"",""trial"",""time""
""focus"",""1"",""5448""
","""event"",""trial"",""time""
""fullscreenenter"",""1"",""5559""
","
","","","401.89999997615814","","","22","8002","3992","&#9789;","elianto","#f73b6a7A"," "," ","1","0","[1252.6000000238419]","1","0","4","","","","","","","",""
"pit-trial","97","718987","0.0-2.0-17.3-1.3","battery-v0.2","","""event"",""trial"",""time""
""focus"",""1"",""5448""
""fullscreenenter"",""1"",""5559""
","
","""event"",""trial"",""time""
""focus"",""1"",""5448""
","""event"",""trial"",""time""
""fullscreenenter"",""1"",""5559""
","
","","","490.60000002384186","","","22","8002","3992","&#9789;","elianto","#f73b6a7A"," "," ","1","0","[1341.1000000238419]","1","0","4","","","","","","","",""
"pit-trial","98","722283","0.0-2.0-17.3-2.3","battery-v0.2","","""event"",""trial"",""time""
""focus"",""1"",""5448""
""fullscreenenter"",""1"",""5559""
","
","""event"",""trial"",""time""
""focus"",""1"",""5448""
","""event"",""trial"",""time""
""fullscreenenter"",""1"",""5559""
","
","","","442.09999990463257","","","22","8002","3992","&#9789;","elianto","#f73b6a7A"," "," ","1","0","[1293]","1","0","4","","","","","","","",""
"pit-trial","99","725539","0.0-2.0-17.3-3.3","battery-v0.2","","""event"",""trial"",""time""
""focus"",""1"",""5448""
""fullscreenenter"",""1"",""5559""
","
","""event"",""trial"",""time""
""focus"",""1"",""5448""
","""event"",""trial"",""time""
""fullscreenenter"",""1"",""5559""
","
","","","402.2999999523163","","","22","8002","3992","&#9789;","elianto","#f73b6a7A"," "," ","1","-10","[1253.3999999761581]","1","0","4","","","","","","","",""
"pit-trial","100","728892","0.0-2.0-17.3-4.3","battery-v0.2","","""event"",""trial"",""time""
""focus"",""1"",""5448""
""fullscreenenter"",""1"",""5559""
","
","""event"",""trial"",""time""
""focus"",""1"",""5448""
","""event"",""trial"",""time""
""fullscreenenter"",""1"",""5559""
","
","","","499.89999997615814","","","22","8002","3992","&#9789;","elianto","#f73b6a7A"," "," ","1","0","[1350.1000000238419]","1","0","4","","","","","","","",""
"call-function","101","728894","0.0-2.0-18.0","battery-v0.2","","""event"",""trial"",""time""
""focus"",""1"",""5448""
""fullscreenenter"",""1"",""5559""
","
","""event"",""trial"",""time""
""focus"",""1"",""5448""
","""event"",""trial"",""time""
""fullscreenenter"",""1"",""5559""
","
","","","","","","","","","","","","","","","","","","","","","","","","","","",""
"pit-instructions","102","811200","0.0-2.0-19.0","battery-v0.2","","""event"",""trial"",""time""
""focus"",""1"",""5448""
""fullscreenenter"",""1"",""5559""
","
","""event"",""trial"",""time""
""focus"",""1"",""5448""
","""event"",""trial"",""time""
""fullscreenenter"",""1"",""5559""
","
","","[{""page_index"":0,""viewing_time"":6822.299999952316},{""page_index"":1,""viewing_time"":17086.899999976158},{""page_index"":2,""viewing_time"":14010.200000047684},{""page_index"":3,""viewing_time"":7773.899999976158},{""page_index"":4,""viewing_time"":9148.200000047684},{""page_index"":5,""viewing_time"":8245.799999952316},{""page_index"":6,""viewing_time"":8696.200000047684},{""page_index"":7,""viewing_time"":6224},{""page_index"":8,""viewing_time"":4297.799999952316}]","82305.60000002384","","","","","","","","","","","","","","","","","","","","","","","",""
"pit-comprehension","103","815950","0.0-2.0-20.0-0.0","battery-v0.2","","""event"",""trial"",""time""
""focus"",""1"",""5448""
""fullscreenenter"",""1"",""5559""
","
","""event"",""trial"",""time""
""focus"",""1"",""5448""
","""event"",""trial"",""time""
""fullscreenenter"",""1"",""5559""
","
","","","4747.399999976158","[""SPACE""]","0","22","8002","3992","","","","","","","","","","","","","","","","","","",""
"pit-instructions","104","819310","0.0-2.0-20.0-1.0","battery-v0.2","","""event"",""trial"",""time""
""focus"",""1"",""5448""
""fullscreenenter"",""1"",""5559""
","
","""event"",""trial"",""time""
""focus"",""1"",""5448""
","""event"",""trial"",""time""
""fullscreenenter"",""1"",""5559""
","
","","[{""page_index"":0,""viewing_time"":3330.899999976158}]","3331.2999999523163","","","","","","","","","","","","","","","","","","","","","","","",""
"pit-comprehension","105","826276","0.0-2.0-21.0-0.0","battery-v0.2","","""event"",""trial"",""time""
""focus"",""1"",""5448""
""fullscreenenter"",""1"",""5559""
","
","""event"",""trial"",""time""
""focus"",""1"",""5448""
","""event"",""trial"",""time""
""fullscreenenter"",""1"",""5559""
","
","","","6963.300000071526","[""10""]","0","22","8002","3992","","","","","","","","","","","","","","","","","","",""
"pit-instructions","106","830539","0.0-2.0-21.0-1.0","battery-v0.2","","""event"",""trial"",""time""
""focus"",""1"",""5448""
""fullscreenenter"",""1"",""5559""
","
","""event"",""trial"",""time""
""focus"",""1"",""5448""
","""event"",""trial"",""time""
""fullscreenenter"",""1"",""5559""
","
","","[{""page_index"":0,""viewing_time"":4233}]","4233.399999976158","","","","","","","","","","","","","","","","","","","","","","","",""
"pit-comprehension","107","838543","0.0-2.0-22.0-0.0","battery-v0.2","","""event"",""trial"",""time""
""focus"",""1"",""5448""
""fullscreenenter"",""1"",""5559""
","
","""event"",""trial"",""time""
""focus"",""1"",""5448""
","""event"",""trial"",""time""
""fullscreenenter"",""1"",""5559""
","
","","","8001.700000047684","[""0""]","0","22","8002","3992","","","","","","","","","","","","","","","","","","",""
"pit-instructions","108","841051","0.0-2.0-22.0-1.0","battery-v0.2","","""event"",""trial"",""time""
""focus"",""1"",""5448""
""fullscreenenter"",""1"",""5559""
","
","""event"",""trial"",""time""
""focus"",""1"",""5448""
","""event"",""trial"",""time""
""fullscreenenter"",""1"",""5559""
","
","","[{""page_index"":0,""viewing_time"":2472.899999976158}]","2473.100000023842","","","","","","","","","","","","","","","","","","","","","","","",""
"pit-comprehension","109","856151","0.0-2.0-23.0-0.0","battery-v0.2","","""event"",""trial"",""time""
""focus"",""1"",""5448""
""fullscreenenter"",""1"",""5559""
","
","""event"",""trial"",""time""
""focus"",""1"",""5448""
","""event"",""trial"",""time""
""fullscreenenter"",""1"",""5559""
","
","","","15098.5","[""True""]","0","22","8002","3992","","","","","","","","","","","","","","","","","","",""
"pit-instructions","110","858099","0.0-2.0-23.0-1.0","battery-v0.2","","""event"",""trial"",""time""
""focus"",""1"",""5448""
""fullscreenenter"",""1"",""5559""
","
","""event"",""trial"",""time""
""focus"",""1"",""5448""
","""event"",""trial"",""time""
""fullscreenenter"",""1"",""5559""
","
","","[{""page_index"":0,""viewing_time"":1913.1000000238419}]","1913.2999999523163","","","","","","","","","","","","","","","","","","","","","","","",""
"pit-comprehension","111","866700","0.0-2.0-24.0-0.0","battery-v0.2","","""event"",""trial"",""time""
""focus"",""1"",""5448""
""fullscreenenter"",""1"",""5559""
","
","""event"",""trial"",""time""
""focus"",""1"",""5448""
","""event"",""trial"",""time""
""fullscreenenter"",""1"",""5559""
","
","","","8598.600000023842","[""True""]","0","22","8002","3992","","","","","","","","","","","","","","","","","","",""
"pit-instructions","112","868475","0.0-2.0-24.0-1.0","battery-v0.2","","""event"",""trial"",""time""
""focus"",""1"",""5448""
""fullscreenenter"",""1"",""5559""
","
","""event"",""trial"",""time""
""focus"",""1"",""5448""
","""event"",""trial"",""time""
""fullscreenenter"",""1"",""5559""
","
","","[{""page_index"":0,""viewing_time"":1745.1999999284744}]","1745.3999999761581","","","","","","","","","","","","","","","","","","","","","","","",""
"pit-comprehension","113","875956","0.0-2.0-25.0-0.0","battery-v0.2","","""event"",""trial"",""time""
""focus"",""1"",""5448""
""fullscreenenter"",""1"",""5559""
","
","""event"",""trial"",""time""
""focus"",""1"",""5448""
","""event"",""trial"",""time""
""fullscreenenter"",""1"",""5559""
","
","","","7478.5","[""True""]","0","22","8002","3992","","","","","","","","","","","","","","","","","","",""
"pit-instructions","114","878703","0.0-2.0-25.0-1.0","battery-v0.2","","""event"",""trial"",""time""
""focus"",""1"",""5448""
""fullscreenenter"",""1"",""5559""
","
","""event"",""trial"",""time""
""focus"",""1"",""5448""
","""event"",""trial"",""time""
""fullscreenenter"",""1"",""5559""
","
","","[{""page_index"":0,""viewing_time"":2715.8000000715256}]","2716.100000023842","","","","","","","","","","","","","","","","","","","","","","","",""
"pit-comprehension","115","885206","0.0-2.0-26.0-0.0","battery-v0.2","","""event"",""trial"",""time""
""focus"",""1"",""5448""
""fullscreenenter"",""1"",""5559""
","
","""event"",""trial"",""time""
""focus"",""1"",""5448""
","""event"",""trial"",""time""
""fullscreenenter"",""1"",""5559""
","
","","","6500.100000023842","[""False""]","0","22","8002","3992","","","","","","","","","","","","","","","","","","",""
"pit-instructions","116","887026","0.0-2.0-26.0-1.0","battery-v0.2","","""event"",""trial"",""time""
""focus"",""1"",""5448""
""fullscreenenter"",""1"",""5559""
","
","""event"",""trial"",""time""
""focus"",""1"",""5448""
","""event"",""trial"",""time""
""fullscreenenter"",""1"",""5559""
","
","","[{""page_index"":0,""viewing_time"":1788.1000000238419}]","1788.3999999761581","","","","","","","","","","","","","","","","","","","","","","","",""
"pit-instructions","117","906814","0.0-3.0","battery-v0.2","","""event"",""trial"",""time""
""focus"",""1"",""5448""
""fullscreenenter"",""1"",""5559""
","
","""event"",""trial"",""time""
""focus"",""1"",""5448""
","""event"",""trial"",""time""
""fullscreenenter"",""1"",""5559""
","
","","[{""page_index"":0,""viewing_time"":5876.5},{""page_index"":1,""viewing_time"":6096.5},{""page_index"":2,""viewing_time"":7813.900000095367}]","19787.100000023842","","","","","","","","","","","","","","","","","","","","","","","",""
"pit-trial","118","910676","0.0-4.0","battery-v0.2","","""event"",""trial"",""time""
""focus"",""1"",""5448""
""fullscreenenter"",""1"",""5559""
","
","""event"",""trial"",""time""
""focus"",""1"",""5448""
","""event"",""trial"",""time""
""fullscreenenter"",""1"",""5559""
","
","","","985","","","22","8002","3992","&#9752;","elianto","#f73b6a7A"," "," ","1","-10","[1848.2999999523163]","1","1","","","8002","1","3","3","lose","go","1"
"pit-trial","119","914563","0.0-5.0","battery-v0.2","","""event"",""trial"",""time""
""focus"",""1"",""5448""
""fullscreenenter"",""1"",""5559""
","
","""event"",""trial"",""time""
""focus"",""1"",""5448""
","""event"",""trial"",""time""
""fullscreenenter"",""1"",""5559""
","
","","","1015.6000000238419","","","22","8002","3992","&#9733;","elianto","#3366ff99","-1"," ","0","0","[1868.1999999284744]","1","1","","","8002","2","2","2","win","no-go","0"
"pit-trial","120","918695","0.0-6.0","battery-v0.2","","""event"",""trial"",""time""
""focus"",""1"",""5448""
""fullscreenenter"",""1"",""5559""
","
","""event"",""trial"",""time""
""focus"",""1"",""5448""
","""event"",""trial"",""time""
""fullscreenenter"",""1"",""5559""
","
","","","1275.5","","","22","8002","3992","&#9730;","elianto","#3366ff99"," "," ","1","+10","[2125.600000023842]","1","1","","","8002","3","1","1","win","go","0"
"pit-trial","121","923562","0.0-7.0","battery-v0.2","","""event"",""trial"",""time""
""focus"",""1"",""5448""
""fullscreenenter"",""1"",""5559""
","
","""event"",""trial"",""time""
""focus"",""1"",""5448""
","""event"",""trial"",""time""
""fullscreenenter"",""1"",""5559""
","
","","","-1","","","22","8002","3992","&#9728;","elianto","#f73b6a7A","-1","-1","1","0","[]","0","1","","","8002","4","0","4","lose","no-go","0"
"pit-trial","122","927669","0.0-8.0","battery-v0.2","","""event"",""trial"",""time""
""focus"",""1"",""5448""
""fullscreenenter"",""1"",""5559""
","
","""event"",""trial"",""time""
""focus"",""1"",""5448""
","""event"",""trial"",""time""
""fullscreenenter"",""1"",""5559""
","
","","","1242.7000000476837","","","22","8002","3992","&#9752;","elianto","#f73b6a7A"," "," ","1","0","[2094.100000023842]","1","1","","","8002","5","3","3","lose","go","0"
"pit-trial","123","931897","0.0-9.0","battery-v0.2","","""event"",""trial"",""time""
""focus"",""1"",""5448""
""fullscreenenter"",""1"",""5559""
","
","""event"",""trial"",""time""
""focus"",""1"",""5448""
","""event"",""trial"",""time""
""fullscreenenter"",""1"",""5559""
","
","","","1359","","","22","8002","3992","&#9730;","elianto","#3366ff99"," "," ","1","+10","[2219.1999999284744]","1","1","","","8002","6","1","1","win","go","0"
"pit-trial","124","936758","0.0-10.0","battery-v0.2","","""event"",""trial"",""time""
""focus"",""1"",""5448""
""fullscreenenter"",""1"",""5559""
","
","""event"",""trial"",""time""
""focus"",""1"",""5448""
","""event"",""trial"",""time""
""fullscreenenter"",""1"",""5559""
","
","","","-1","","","22","8002","3992","&#9733;","elianto","#3366ff99","-1","-1","1","0","[]","0","1","","","8002","7","2","2","win","no-go","1"
"pit-trial","125","940955","0.0-11.0","battery-v0.2","","""event"",""trial"",""time""
""focus"",""1"",""5448""
""fullscreenenter"",""1"",""5559""
","
","""event"",""trial"",""time""
""focus"",""1"",""5448""
","""event"",""trial"",""time""
""fullscreenenter"",""1"",""5559""
","
","","","1344.2000000476837","","","22","8002","3992","&#9728;","elianto","#f73b6a7A","-1"," ","0","-10","[2194.7999999523163]","1","1","","","8002","8","0","4","lose","no-go","0"
"pit-trial","126","945808","0.0-12.0","battery-v0.2","","""event"",""trial"",""time""
""focus"",""1"",""5448""
""fullscreenenter"",""1"",""5559""
","
","""event"",""trial"",""time""
""focus"",""1"",""5448""
","""event"",""trial"",""time""
""fullscreenenter"",""1"",""5559""
","
","","","-1","","","22","8002","3992","&#9728;","elianto","#f73b6a7A","-1","-1","1","-10","[]","0","1","","","8002","9","0","4","lose","no-go","1"
"pit-trial","127","949812","0.0-13.0","battery-v0.2","","""event"",""trial"",""time""
""focus"",""1"",""5448""
""fullscreenenter"",""1"",""5559""
","
","""event"",""trial"",""time""
""focus"",""1"",""5448""
","""event"",""trial"",""time""
""fullscreenenter"",""1"",""5559""
","
","","","1147.7999999523163","","","22","8002","3992","&#9752;","elianto","#f73b6a7A"," "," ","1","0","[2000.2999999523163]","1","1","","","8002","10","3","3","lose","go","0"
"pit-trial","128","953532","0.0-14.0","battery-v0.2","","""event"",""trial"",""time""
""focus"",""1"",""5448""
""fullscreenenter"",""1"",""5559""
","
","""event"",""trial"",""time""
""focus"",""1"",""5448""
","""event"",""trial"",""time""
""fullscreenenter"",""1"",""5559""
","
","","","866.2000000476837","","","22","8002","3992","&#9733;","elianto","#3366ff99","-1"," ","0","+10","[1716.1999999284744]","1","1","","","8002","11","2","2","win","no-go","1"
"pit-trial","129","957147","0.0-15.0","battery-v0.2","","""event"",""trial"",""time""
""focus"",""1"",""5448""
""fullscreenenter"",""1"",""5559""
","
","""event"",""trial"",""time""
""focus"",""1"",""5448""
","""event"",""trial"",""time""
""fullscreenenter"",""1"",""5559""
","
","","","761.5","","","22","8002","3992","&#9730;","elianto","#3366ff99"," "," ","1","+10","[1612.0999999046326]","1","1","","","8002","12","1","1","win","go","0"
"pit-trial","130","960931","0.0-16.0","battery-v0.2","","""event"",""trial"",""time""
""focus"",""1"",""5448""
""fullscreenenter"",""1"",""5559""
","
","""event"",""trial"",""time""
""focus"",""1"",""5448""
","""event"",""trial"",""time""
""fullscreenenter"",""1"",""5559""
","
","","","929.7000000476837","","","22","8002","3992","&#9733;","elianto","#3366ff99","-1"," ","0","0","[1781.3000000715256]","1","1","","","8002","13","2","2","win","no-go","0"
"pit-trial","131","964523","0.0-17.0","battery-v0.2","","""event"",""trial"",""time""
""focus"",""1"",""5448""
""fullscreenenter"",""1"",""5559""
","
","""event"",""trial"",""time""
""focus"",""1"",""5448""
","""event"",""trial"",""time""
""fullscreenenter"",""1"",""5559""
","
","","","739","","","22","8002","3992","&#9730;","elianto","#3366ff99"," "," ","1","0","[1589.3000000715256]","1","1","","","8002","14","1","1","win","go","1"
"pit-trial","132","969376","0.0-18.0","battery-v0.2","","""event"",""trial"",""time""
""focus"",""1"",""5448""
""fullscreenenter"",""1"",""5559""
","
","""event"",""trial"",""time""
""focus"",""1"",""5448""
","""event"",""trial"",""time""
""fullscreenenter"",""1"",""5559""
","
","","","-1","","","22","8002","3992","&#9728;","elianto","#f73b6a7A","-1","-1","1","0","[]","0","1","","","8002","15","0","4","lose","no-go","0"
"pit-trial","133","972946","0.0-19.0","battery-v0.2","","""event"",""trial"",""time""
""focus"",""1"",""5448""
""fullscreenenter"",""1"",""5559""
","
","""event"",""trial"",""time""
""focus"",""1"",""5448""
","""event"",""trial"",""time""
""fullscreenenter"",""1"",""5559""
","
","","","716.8999999761581","","","22","8002","3992","&#9752;","elianto","#f73b6a7A"," "," ","1","-10","[1567.6999999284744]","1","1","","","8002","16","3","3","lose","go","1"
"pit-trial","134","976578","0.0-20.0","battery-v0.2","","""event"",""trial"",""time""
""focus"",""1"",""5448""
""fullscreenenter"",""1"",""5559""
","
","""event"",""trial"",""time""
""focus"",""1"",""5448""
","""event"",""trial"",""time""
""fullscreenenter"",""1"",""5559""
","
","","","778","","","22","8002","3992","&#9728;","elianto","#f73b6a7A","-1"," ","0","-10","[1629.3999999761581]","1","1","","","8002","17","0","4","lose","no-go","0"
"pit-trial","135","980218","0.0-21.0","battery-v0.2","","""event"",""trial"",""time""
""focus"",""1"",""5448""
""fullscreenenter"",""1"",""5559""
","
","""event"",""trial"",""time""
""focus"",""1"",""5448""
","""event"",""trial"",""time""
""fullscreenenter"",""1"",""5559""
","
","","","771.5","","","22","8002","3992","&#9730;","elianto","#3366ff99"," "," ","1","+10","[1621.5]","1","1","","","8002","18","1","1","win","go","0"
"pit-trial","136","985072","0.0-22.0","battery-v0.2","","""event"",""trial"",""time""
""focus"",""1"",""5448""
""fullscreenenter"",""1"",""5559""
","
","""event"",""trial"",""time""
""focus"",""1"",""5448""
","""event"",""trial"",""time""
""fullscreenenter"",""1"",""5559""
","
","","","-1","","","22","8002","3992","&#9752;","elianto","#f73b6a7A"," ","-1","0","-10","[]","0","1","","","8002","19","3","3","lose","go","0"
"pit-trial","137","989927","0.0-23.0","battery-v0.2","","""event"",""trial"",""time""
""focus"",""1"",""5448""
""fullscreenenter"",""1"",""5559""
","
","""event"",""trial"",""time""
""focus"",""1"",""5448""
","""event"",""trial"",""time""
""fullscreenenter"",""1"",""5559""
","
","","","-1","","","22","8002","3992","&#9733;","elianto","#3366ff99","-1","-1","1","+10","[]","0","1","","","8002","20","2","2","win","no-go","0"
"pit-instructions","138","1004175","0.0-24.0","battery-v0.2","","""event"",""trial"",""time""
""focus"",""1"",""5448""
""fullscreenenter"",""1"",""5559""
","
","""event"",""trial"",""time""
""focus"",""1"",""5448""
","""event"",""trial"",""time""
""fullscreenenter"",""1"",""5559""
","
","","[{""page_index"":0,""viewing_time"":6975.700000047684},{""page_index"":1,""viewing_time"":7268}]","14243.899999976158","","","","","","","","","","","","","","","","","","","","","","","",""
"pit-trial","139","1008011","0.0-25.0","battery-v0.2","","""event"",""trial"",""time""
""focus"",""1"",""5448""
""fullscreenenter"",""1"",""5559""
","
","""event"",""trial"",""time""
""focus"",""1"",""5448""
","""event"",""trial"",""time""
""fullscreenenter"",""1"",""5559""
","
","","","963.1999999284744","","","22","8002","3992","l","elianto","#3366ff99"," "," ","1","0","[1818.1999999284744]","1","2","","","8002","21","1","1","win","go","1"
"pit-trial","140","1012883","0.0-26.0","battery-v0.2","","""event"",""trial"",""time""
""focus"",""1"",""5448""
""fullscreenenter"",""1"",""5559""
","
","""event"",""trial"",""time""
""focus"",""1"",""5448""
","""event"",""trial"",""time""
""fullscreenenter"",""1"",""5559""
","
","","","-1","","","22","8002","3992","u","elianto","#f73b6a7A","-1","-1","1","0","[]","0","2","","","8002","22","0","4","lose","no-go","0"
"pit-trial","141","1016815","0.0-27.0","battery-v0.2","","""event"",""trial"",""time""
""focus"",""1"",""5448""
""fullscreenenter"",""1"",""5559""
","
","""event"",""trial"",""time""
""focus"",""1"",""5448""
","""event"",""trial"",""time""
""fullscreenenter"",""1"",""5559""
","
","","","1076","","","22","8002","3992","a","elianto","#f73b6a7A","-1"," ","0","-10","[1926.8999999761581]","1","2","","","8002","23","2","4","lose","no-go","0"
"pit-trial","142","1021135","0.0-28.0","battery-v0.2","","""event"",""trial"",""time""
""focus"",""1"",""5448""
""fullscreenenter"",""1"",""5559""
","
","""event"",""trial"",""time""
""focus"",""1"",""5448""
","""event"",""trial"",""time""
""fullscreenenter"",""1"",""5559""
","
","","","1464.2999999523163","","","22","8002","3992","g","elianto","#f73b6a7A"," "," ","1","0","[2314.4000000953674]","1","2","","","8002","24","3","3","lose","go","0"
"pit-trial","143","1025999","0.0-29.0","battery-v0.2","","""event"",""trial"",""time""
""focus"",""1"",""5448""
""fullscreenenter"",""1"",""5559""
","
","""event"",""trial"",""time""
""focus"",""1"",""5448""
","""event"",""trial"",""time""
""fullscreenenter"",""1"",""5559""
","
","","","-1","","","22","8002","3992","l","elianto","#3366ff99"," ","-1","0","0","[]","0","2","","","8002","25","1","1","win","go","0"
"pit-trial","144","1030867","0.0-30.0","battery-v0.2","","""event"",""trial"",""time""
""focus"",""1"",""5448""
""fullscreenenter"",""1"",""5559""
","
","""event"",""trial"",""time""
""focus"",""1"",""5448""
","""event"",""trial"",""time""
""fullscreenenter"",""1"",""5559""
","
","","","-1","","","22","8002","3992","a","elianto","#f73b6a7A","-1","-1","1","0","[]","0","2","","","8002","26","2","4","lose","no-go","0"
"pit-trial","145","1034637","0.0-31.0","battery-v0.2","","""event"",""trial"",""time""
""focus"",""1"",""5448""
""fullscreenenter"",""1"",""5559""
","
","""event"",""trial"",""time""
""focus"",""1"",""5448""
","""event"",""trial"",""time""
""fullscreenenter"",""1"",""5559""
","
","","","916.8999999761581","","","22","8002","3992","g","elianto","#f73b6a7A"," "," ","1","-10","[1767.1999999284744]","1","2","","","8002","27","3","3","lose","go","1"
"pit-trial","146","1039491","0.0-32.0","battery-v0.2","","""event"",""trial"",""time""
""focus"",""1"",""5448""
""fullscreenenter"",""1"",""5559""
","
","""event"",""trial"",""time""
""focus"",""1"",""5448""
","""event"",""trial"",""time""
""fullscreenenter"",""1"",""5559""
","
","","","-1","","","22","8002","3992","u","elianto","#f73b6a7A","-1","-1","1","0","[]","0","2","","","8002","28","0","4","lose","no-go","0"
"pit-trial","147","1044345","0.0-33.0","battery-v0.2","","""event"",""trial"",""time""
""focus"",""1"",""5448""
""fullscreenenter"",""1"",""5559""
","
","""event"",""trial"",""time""
""focus"",""1"",""5448""
","""event"",""trial"",""time""
""fullscreenenter"",""1"",""5559""
","
","","","-1","","","22","8002","3992","u","elianto","#f73b6a7A","-1","-1","1","0","[]","0","2","","","8002","29","0","4","lose","no-go","0"
"pit-trial","148","1048621","0.0-34.0","battery-v0.2","","""event"",""trial"",""time""
""focus"",""1"",""5448""
""fullscreenenter"",""1"",""5559""
","
","""event"",""trial"",""time""
""focus"",""1"",""5448""
","""event"",""trial"",""time""
""fullscreenenter"",""1"",""5559""
","
","","","1423.3999999761581","","","22","8002","3992","a","elianto","#f73b6a7A","-1"," ","0","0","[2273.7000000476837]","1","2","","","8002","30","2","4","lose","no-go","1"
"pit-trial","149","1052796","0.0-35.0","battery-v0.2","","""event"",""trial"",""time""
""focus"",""1"",""5448""
""fullscreenenter"",""1"",""5559""
","
","""event"",""trial"",""time""
""focus"",""1"",""5448""
","""event"",""trial"",""time""
""fullscreenenter"",""1"",""5559""
","
","","","1322.7000000476837","","","22","8002","3992","g","elianto","#f73b6a7A"," "," ","1","0","[2173.100000023842]","1","2","","","8002","31","3","3","lose","go","0"
"pit-trial","150","1056796","0.0-36.0","battery-v0.2","","""event"",""trial"",""time""
""focus"",""1"",""5448""
""fullscreenenter"",""1"",""5559""
","
","""event"",""trial"",""time""
""focus"",""1"",""5448""
","""event"",""trial"",""time""
""fullscreenenter"",""1"",""5559""
","
","","","1147.6000000238419","","","22","8002","3992","l","elianto","#3366ff99"," "," ","1","+10","[1998.6000000238419]","1","2","","","8002","32","1","1","win","go","0"
"pit-trial","151","1061116","0.0-37.0","battery-v0.2","","""event"",""trial"",""time""
""focus"",""1"",""5448""
""fullscreenenter"",""1"",""5559""
","
","""event"",""trial"",""time""
""focus"",""1"",""5448""
","""event"",""trial"",""time""
""fullscreenenter"",""1"",""5559""
","
","","","1467.7000000476837","","","22","8002","3992","g","elianto","#f73b6a7A"," "," ","1","-10","[2317.899999976158]","1","2","","","8002","33","3","3","lose","go","1"
"pit-trial","152","1065973","0.0-38.0","battery-v0.2","","""event"",""trial"",""time""
""focus"",""1"",""5448""
""fullscreenenter"",""1"",""5559""
","
","""event"",""trial"",""time""
""focus"",""1"",""5448""
","""event"",""trial"",""time""
""fullscreenenter"",""1"",""5559""
","
","","","-1","","","22","8002","3992","a","elianto","#f73b6a7A","-1","-1","1","0","[]","0","2","","","8002","34","2","4","lose","no-go","0"
"pit-trial","153","1070826","0.0-39.0","battery-v0.2","","""event"",""trial"",""time""
""focus"",""1"",""5448""
""fullscreenenter"",""1"",""5559""
","
","""event"",""trial"",""time""
""focus"",""1"",""5448""
","""event"",""trial"",""time""
""fullscreenenter"",""1"",""5559""
","
","","","-1","","","22","8002","3992","u","elianto","#f73b6a7A","-1","-1","1","0","[]","0","2","","","8002","35","0","4","lose","no-go","0"
"pit-trial","154","1074656","0.0-40.0","battery-v0.2","","""event"",""trial"",""time""
""focus"",""1"",""5448""
""fullscreenenter"",""1"",""5559""
","
","""event"",""trial"",""time""
""focus"",""1"",""5448""
","""event"",""trial"",""time""
""fullscreenenter"",""1"",""5559""
","
","","","976.3000000715256","","","22","8002","3992","l","elianto","#3366ff99"," "," ","1","+10","[1826.8000000715256]","1","2","","","8002","36","1","1","win","go","0"
"pit-trial","155","1079509","0.0-41.0","battery-v0.2","","""event"",""trial"",""time""
""focus"",""1"",""5448""
""fullscreenenter"",""1"",""5559""
","
","""event"",""trial"",""time""
""focus"",""1"",""5448""
","""event"",""trial"",""time""
""fullscreenenter"",""1"",""5559""
","
","","","-1","","","22","8002","3992","a","elianto","#f73b6a7A","-1","-1","1","0","[]","0","2","","","8002","37","2","4","lose","no-go","0"
"pit-trial","156","1084362","0.0-42.0","battery-v0.2","","""event"",""trial"",""time""
""focus"",""1"",""5448""
""fullscreenenter"",""1"",""5559""
","
","""event"",""trial"",""time""
""focus"",""1"",""5448""
","""event"",""trial"",""time""
""fullscreenenter"",""1"",""5559""
","
","","","-1","","","22","8002","3992","u","elianto","#f73b6a7A","-1","-1","1","-10","[]","0","2","","","8002","38","0","4","lose","no-go","1"
"pit-trial","157","1087960","0.0-43.0","battery-v0.2","","""event"",""trial"",""time""
""focus"",""1"",""5448""
""fullscreenenter"",""1"",""5559""
","
","""event"",""trial"",""time""
""focus"",""1"",""5448""
","""event"",""trial"",""time""
""fullscreenenter"",""1"",""5559""
","
","","","744.2000000476837","","","22","8002","3992","l","elianto","#3366ff99"," "," ","1","+10","[1595.2999999523163]","1","2","","","8002","39","1","1","win","go","0"
"pit-trial","158","1091704","0.0-44.0","battery-v0.2","","""event"",""trial"",""time""
""focus"",""1"",""5448""
""fullscreenenter"",""1"",""5559""
","
","""event"",""trial"",""time""
""focus"",""1"",""5448""
","""event"",""trial"",""time""
""fullscreenenter"",""1"",""5559""
","
","","","890.9000000953674","","","22","8002","3992","g","elianto","#f73b6a7A"," "," ","1","0","[1741.1000000238419]","1","2","","","8002","40","3","3","lose","go","0"
"pit-trial","159","1095335","0.0-45.0","battery-v0.2","","""event"",""trial"",""time""
""focus"",""1"",""5448""
""fullscreenenter"",""1"",""5559""
","
","""event"",""trial"",""time""
""focus"",""1"",""5448""
","""event"",""trial"",""time""
""fullscreenenter"",""1"",""5559""
","
","","","776.2999999523163","","","22","8002","3992","l","elianto","#3366ff99"," "," ","1","+10","[1627.3999999761581]","1","2","","","8002","41","1","1","win","go","0"
"pit-trial","160","1099062","0.0-46.0","battery-v0.2","","""event"",""trial"",""time""
""focus"",""1"",""5448""
""fullscreenenter"",""1"",""5559""
","
","""event"",""trial"",""time""
""focus"",""1"",""5448""
","""event"",""trial"",""time""
""fullscreenenter"",""1"",""5559""
","
","","","874.5999999046326","","","22","8002","3992","g","elianto","#f73b6a7A"," "," ","1","0","[1724.6000000238419]","1","2","","","8002","42","3","3","lose","go","0"
"pit-trial","161","1103915","0.0-47.0","battery-v0.2","","""event"",""trial"",""time""
""focus"",""1"",""5448""
""fullscreenenter"",""1"",""5559""
","
","""event"",""trial"",""time""
""focus"",""1"",""5448""
","""event"",""trial"",""time""
""fullscreenenter"",""1"",""5559""
","
","","","-1","","","22","8002","3992","a","elianto","#f73b6a7A","-1","-1","1","0","[]","0","2","","","8002","43","2","4","lose","no-go","0"
"pit-trial","162","1108769","0.0-48.0","battery-v0.2","","""event"",""trial"",""time""
""focus"",""1"",""5448""
""fullscreenenter"",""1"",""5559""
","
","""event"",""trial"",""time""
""focus"",""1"",""5448""
","""event"",""trial"",""time""
""fullscreenenter"",""1"",""5559""
","
","","","-1","","","22","8002","3992","u","elianto","#f73b6a7A","-1","-1","1","-10","[]","0","2","","","8002","44","0","4","lose","no-go","1"
"pit-trial","163","1112767","0.0-49.0","battery-v0.2","","""event"",""trial"",""time""
""focus"",""1"",""5448""
""fullscreenenter"",""1"",""5559""
","
","""event"",""trial"",""time""
""focus"",""1"",""5448""
","""event"",""trial"",""time""
""fullscreenenter"",""1"",""5559""
","
","","","1145.5","","","22","8002","3992","g","elianto","#f73b6a7A"," "," ","1","0","[1996.1000000238419]","1","2","","","8002","45","3","3","lose","go","0"
"pit-trial","164","1116599","0.0-50.0","battery-v0.2","","""event"",""trial"",""time""
""focus"",""1"",""5448""
""fullscreenenter"",""1"",""5559""
","
","""event"",""trial"",""time""
""focus"",""1"",""5448""
","""event"",""trial"",""time""
""fullscreenenter"",""1"",""5559""
","
","","","978.2999999523163","","","22","8002","3992","p","elianto","#3366ff99","-1"," ","0","+10","[1829.0999999046326]","1","2","","","8002","46","4","2","win","no-go","1"
"pit-trial","165","1121452","0.0-51.0","battery-v0.2","","""event"",""trial"",""time""
""focus"",""1"",""5448""
""fullscreenenter"",""1"",""5559""
","
","""event"",""trial"",""time""
""focus"",""1"",""5448""
","""event"",""trial"",""time""
""fullscreenenter"",""1"",""5559""
","
","","","-1","","","22","8002","3992","a","elianto","#f73b6a7A","-1","-1","1","0","[]","0","2","","","8002","47","2","4","lose","no-go","0"
"pit-trial","166","1125370","0.0-52.0","battery-v0.2","","""event"",""trial"",""time""
""focus"",""1"",""5448""
""fullscreenenter"",""1"",""5559""
","
","""event"",""trial"",""time""
""focus"",""1"",""5448""
","""event"",""trial"",""time""
""fullscreenenter"",""1"",""5559""
","
","","","1062.4000000953674","","","22","8002","3992","u","elianto","#f73b6a7A","-1"," ","0","-10","[1913.3000000715256]","1","2","","","8002","48","0","4","lose","no-go","0"
"pit-trial","167","1128986","0.0-53.0","battery-v0.2","","""event"",""trial"",""time""
""focus"",""1"",""5448""
""fullscreenenter"",""1"",""5559""
","
","""event"",""trial"",""time""
""focus"",""1"",""5448""
","""event"",""trial"",""time""
""fullscreenenter"",""1"",""5559""
","
","","","762.7000000476837","","","22","8002","3992","l","elianto","#3366ff99"," "," ","1","0","[1613]","1","2","","","8002","49","1","1","win","go","1"
"pit-trial","168","1132491","0.0-54.0","battery-v0.2","","""event"",""trial"",""time""
""focus"",""1"",""5448""
""fullscreenenter"",""1"",""5559""
","
","""event"",""trial"",""time""
""focus"",""1"",""5448""
","""event"",""trial"",""time""
""fullscreenenter"",""1"",""5559""
","
","","","649","","","22","8002","3992","p","elianto","#3366ff99","-1"," ","0","+10","[1501.8999999761581]","1","2","","","8002","50","4","2","win","no-go","1"
"pit-trial","169","1137344","0.0-55.0","battery-v0.2","","""event"",""trial"",""time""
""focus"",""1"",""5448""
""fullscreenenter"",""1"",""5559""
","
","""event"",""trial"",""time""
""focus"",""1"",""5448""
","""event"",""trial"",""time""
""fullscreenenter"",""1"",""5559""
","
","","","-1","","","22","8002","3992","u","elianto","#f73b6a7A","-1","-1","1","0","[]","0","2","","","8002","51","0","4","lose","no-go","0"
"pit-trial","170","1140842","0.0-56.0","battery-v0.2","","""event"",""trial"",""time""
""focus"",""1"",""5448""
""fullscreenenter"",""1"",""5559""
","
","""event"",""trial"",""time""
""focus"",""1"",""5448""
","""event"",""trial"",""time""
""fullscreenenter"",""1"",""5559""
","
","","","644.6999999284744","","","22","8002","3992","g","elianto","#f73b6a7A"," "," ","1","0","[1495.8999999761581]","1","2","","","8002","52","3","3","lose","go","0"
"pit-trial","171","1145696","0.0-57.0","battery-v0.2","","""event"",""trial"",""time""
""focus"",""1"",""5448""
""fullscreenenter"",""1"",""5559""
","
","""event"",""trial"",""time""
""focus"",""1"",""5448""
","""event"",""trial"",""time""
""fullscreenenter"",""1"",""5559""
","
","","","-1","","","22","8002","3992","a","elianto","#f73b6a7A","-1","-1","1","0","[]","0","2","","","8002","53","2","4","lose","no-go","0"
"pit-trial","172","1150550","0.0-58.0","battery-v0.2","","""event"",""trial"",""time""
""focus"",""1"",""5448""
""fullscreenenter"",""1"",""5559""
","
","""event"",""trial"",""time""
""focus"",""1"",""5448""
","""event"",""trial"",""time""
""fullscreenenter"",""1"",""5559""
","
","","","-1","","","22","8002","3992","u","elianto","#f73b6a7A","-1","-1","1","0","[]","0","2","","","8002","54","0","4","lose","no-go","0"
"pit-trial","173","1154083","0.0-59.0","battery-v0.2","","""event"",""trial"",""time""
""focus"",""1"",""5448""
""fullscreenenter"",""1"",""5559""
","
","""event"",""trial"",""time""
""focus"",""1"",""5448""
","""event"",""trial"",""time""
""fullscreenenter"",""1"",""5559""
","
","","","679.7000000476837","","","22","8002","3992","l","elianto","#3366ff99"," "," ","1","0","[1530.5]","1","2","","","8002","55","1","1","win","go","1"
"pit-trial","174","1157659","0.0-60.0","battery-v0.2","","""event"",""trial"",""time""
""focus"",""1"",""5448""
""fullscreenenter"",""1"",""5559""
","
","""event"",""trial"",""time""
""focus"",""1"",""5448""
","""event"",""trial"",""time""
""fullscreenenter"",""1"",""5559""
","
","","","723.1000000238419","","","22","8002","3992","p","elianto","#3366ff99","-1"," ","0","0","[1573.2000000476837]","1","2","","","8002","56","4","2","win","no-go","0"
"pit-trial","175","1161379","0.0-61.0","battery-v0.2","","""event"",""trial"",""time""
""focus"",""1"",""5448""
""fullscreenenter"",""1"",""5559""
","
","""event"",""trial"",""time""
""focus"",""1"",""5448""
","""event"",""trial"",""time""
""fullscreenenter"",""1"",""5559""
","
","","","866.1000000238419","","","22","8002","3992","g","elianto","#f73b6a7A"," "," ","1","0","[1716.7999999523163]","1","2","","","8002","57","3","3","lose","go","0"
"pit-trial","176","1164923","0.0-62.0","battery-v0.2","","""event"",""trial"",""time""
""focus"",""1"",""5448""
""fullscreenenter"",""1"",""5559""
","
","""event"",""trial"",""time""
""focus"",""1"",""5448""
","""event"",""trial"",""time""
""fullscreenenter"",""1"",""5559""
","
","","","690.6000000238419","","","22","8002","3992","l","elianto","#3366ff99"," "," ","1","+10","[1540.7999999523163]","1","2","","","8002","58","1","1","win","go","0"
"pit-trial","177","1168370","0.0-63.0","battery-v0.2","","""event"",""trial"",""time""
""focus"",""1"",""5448""
""fullscreenenter"",""1"",""5559""
","
","""event"",""trial"",""time""
""focus"",""1"",""5448""
","""event"",""trial"",""time""
""fullscreenenter"",""1"",""5559""
","
","","","593.2000000476837","","","22","8002","3992","p","elianto","#3366ff99","-1"," ","0","+10","[1444.6000000238419]","1","2","","","8002","59","4","2","win","no-go","1"
"pit-trial","178","1173224","0.0-64.0","battery-v0.2","","""event"",""trial"",""time""
""focus"",""1"",""5448""
""fullscreenenter"",""1"",""5559""
","
","""event"",""trial"",""time""
""focus"",""1"",""5448""
","""event"",""trial"",""time""
""fullscreenenter"",""1"",""5559""
","
","","","-1","","","22","8002","3992","u","elianto","#f73b6a7A","-1","-1","1","0","[]","0","2","","","8002","60","0","4","lose","no-go","0"
"pit-trial","179","1176882","0.0-65.0","battery-v0.2","","""event"",""trial"",""time""
""focus"",""1"",""5448""
""fullscreenenter"",""1"",""5559""
","
","""event"",""trial"",""time""
""focus"",""1"",""5448""
","""event"",""trial"",""time""
""fullscreenenter"",""1"",""5559""
","
","","","806.3000000715256","","","22","8002","3992","p","elianto","#3366ff99","-1"," ","0","+10","[1656.8999999761581]","1","2","","","8002","61","4","2","win","no-go","1"
"pit-trial","180","1180378","0.0-66.0","battery-v0.2","","""event"",""trial"",""time""
""focus"",""1"",""5448""
""fullscreenenter"",""1"",""5559""
","
","""event"",""trial"",""time""
""focus"",""1"",""5448""
","""event"",""trial"",""time""
""fullscreenenter"",""1"",""5559""
","
","","","643.2999999523163","","","22","8002","3992","g","elianto","#f73b6a7A"," "," ","1","0","[1493.3999999761581]","1","2","","","8002","62","3","3","lose","go","0"
"pit-trial","181","1185232","0.0-67.0","battery-v0.2","","""event"",""trial"",""time""
""focus"",""1"",""5448""
""fullscreenenter"",""1"",""5559""
","
","""event"",""trial"",""time""
""focus"",""1"",""5448""
","""event"",""trial"",""time""
""fullscreenenter"",""1"",""5559""
","
","","","-1","","","22","8002","3992","a","elianto","#f73b6a7A","-1","-1","1","-10","[]","0","2","","","8002","63","2","4","lose","no-go","1"
"pit-trial","182","1188942","0.0-68.0","battery-v0.2","","""event"",""trial"",""time""
""focus"",""1"",""5448""
""fullscreenenter"",""1"",""5559""
","
","""event"",""trial"",""time""
""focus"",""1"",""5448""
","""event"",""trial"",""time""
""fullscreenenter"",""1"",""5559""
","
","","","853.7999999523163","","","22","8002","3992","l","elianto","#3366ff99"," "," ","1","+10","[1703.8999999761581]","1","2","","","8002","64","1","1","win","go","0"
"pit-trial","183","1192461","0.0-69.0","battery-v0.2","","""event"",""trial"",""time""
""focus"",""1"",""5448""
""fullscreenenter"",""1"",""5559""
","
","""event"",""trial"",""time""
""focus"",""1"",""5448""
","""event"",""trial"",""time""
""fullscreenenter"",""1"",""5559""
","
","","","666.8000000715256","","","22","8002","3992","l","elianto","#3366ff99"," "," ","1","+10","[1517.1000000238419]","1","2","","","8002","65","1","1","win","go","0"
"pit-trial","184","1196085","0.0-70.0","battery-v0.2","","""event"",""trial"",""time""
""focus"",""1"",""5448""
""fullscreenenter"",""1"",""5559""
","
","""event"",""trial"",""time""
""focus"",""1"",""5448""
","""event"",""trial"",""time""
""fullscreenenter"",""1"",""5559""
","
","","","769.2000000476837","","","22","8002","3992","p","elianto","#3366ff99","-1"," ","0","0","[1621]","1","2","","","8002","66","4","2","win","no-go","0"
"pit-trial","185","1199813","0.0-71.0","battery-v0.2","","""event"",""trial"",""time""
""focus"",""1"",""5448""
""fullscreenenter"",""1"",""5559""
","
","""event"",""trial"",""time""
""focus"",""1"",""5448""
","""event"",""trial"",""time""
""fullscreenenter"",""1"",""5559""
","
","","","874.2999999523163","","","22","8002","3992","g","elianto","#f73b6a7A"," "," ","1","0","[1725.1999999284744]","1","2","","","8002","67","3","3","lose","go","0"
"pit-trial","186","1204667","0.0-72.0","battery-v0.2","","""event"",""trial"",""time""
""focus"",""1"",""5448""
""fullscreenenter"",""1"",""5559""
","
","""event"",""trial"",""time""
""focus"",""1"",""5448""
","""event"",""trial"",""time""
""fullscreenenter"",""1"",""5559""
","
","","","-1","","","22","8002","3992","a","elianto","#f73b6a7A","-1","-1","1","0","[]","0","2","","","8002","68","2","4","lose","no-go","0"
"pit-trial","187","1208260","0.0-73.0","battery-v0.2","","""event"",""trial"",""time""
""focus"",""1"",""5448""
""fullscreenenter"",""1"",""5559""
","
","""event"",""trial"",""time""
""focus"",""1"",""5448""
","""event"",""trial"",""time""
""fullscreenenter"",""1"",""5559""
","
","","","740","","","22","8002","3992","g","elianto","#f73b6a7A"," "," ","1","0","[1590.7000000476837]","1","2","","","8002","69","3","3","lose","go","0"
"pit-trial","188","1213114","0.0-74.0","battery-v0.2","","""event"",""trial"",""time""
""focus"",""1"",""5448""
""fullscreenenter"",""1"",""5559""
","
","""event"",""trial"",""time""
""focus"",""1"",""5448""
","""event"",""trial"",""time""
""fullscreenenter"",""1"",""5559""
","
","","","-1","","","22","8002","3992","s","elianto","#3366ff99"," ","-1","0","0","[]","0","2","","","8002","70","5","1","win","go","0"
"pit-trial","189","1216638","0.0-75.0","battery-v0.2","","""event"",""trial"",""time""
""focus"",""1"",""5448""
""fullscreenenter"",""1"",""5559""
","
","""event"",""trial"",""time""
""focus"",""1"",""5448""
","""event"",""trial"",""time""
""fullscreenenter"",""1"",""5559""
","
","","","670.1999999284744","","","22","8002","3992","l","elianto","#3366ff99"," "," ","1","+10","[1520.8999999761581]","1","2","","","8002","71","1","1","win","go","0"
"pit-trial","190","1220333","0.0-76.0","battery-v0.2","","""event"",""trial"",""time""
""focus"",""1"",""5448""
""fullscreenenter"",""1"",""5559""
","
","""event"",""trial"",""time""
""focus"",""1"",""5448""
","""event"",""trial"",""time""
""fullscreenenter"",""1"",""5559""
","
","","","840.8999999761581","","","22","8002","3992","p","elianto","#3366ff99","-1"," ","0","0","[1691.8999999761581]","1","2","","","8002","72","4","2","win","no-go","0"
"pit-trial","191","1224012","0.0-77.0","battery-v0.2","","""event"",""trial"",""time""
""focus"",""1"",""5448""
""fullscreenenter"",""1"",""5559""
","
","""event"",""trial"",""time""
""focus"",""1"",""5448""
","""event"",""trial"",""time""
""fullscreenenter"",""1"",""5559""
","
","","","826.1000000238419","","","22","8002","3992","p","elianto","#3366ff99","-1"," ","0","0","[1677.1000000238419]","1","2","","","8002","73","4","2","win","no-go","0"
"pit-trial","192","1227558","0.0-78.0","battery-v0.2","","""event"",""trial"",""time""
""focus"",""1"",""5448""
""fullscreenenter"",""1"",""5559""
","
","""event"",""trial"",""time""
""focus"",""1"",""5448""
","""event"",""trial"",""time""
""fullscreenenter"",""1"",""5559""
","
","","","692.3000000715256","","","22","8002","3992","g","elianto","#f73b6a7A"," "," ","1","0","[1542.6000000238419]","1","2","","","8002","74","3","3","lose","go","0"
"pit-trial","193","1231052","0.0-79.0","battery-v0.2","","""event"",""trial"",""time""
""focus"",""1"",""5448""
""fullscreenenter"",""1"",""5559""
","
","""event"",""trial"",""time""
""focus"",""1"",""5448""
","""event"",""trial"",""time""
""fullscreenenter"",""1"",""5559""
","
","","","641.5","","","22","8002","3992","l","elianto","#3366ff99"," "," ","1","+10","[1491.8999999761581]","1","2","","","8002","75","1","1","win","go","0"
"pit-trial","194","1234749","0.0-80.0","battery-v0.2","","""event"",""trial"",""time""
""focus"",""1"",""5448""
""fullscreenenter"",""1"",""5559""
","
","""event"",""trial"",""time""
""focus"",""1"",""5448""
","""event"",""trial"",""time""
""fullscreenenter"",""1"",""5559""
","
","","","843.2000000476837","","","22","8002","3992","s","elianto","#3366ff99"," "," ","1","+10","[1694.1000000238419]","1","2","","","8002","76","5","1","win","go","0"
"pit-trial","195","1238318","0.0-81.0","battery-v0.2","","""event"",""trial"",""time""
""focus"",""1"",""5448""
""fullscreenenter"",""1"",""5559""
","
","""event"",""trial"",""time""
""focus"",""1"",""5448""
","""event"",""trial"",""time""
""fullscreenenter"",""1"",""5559""
","
","","","714.6999999284744","","","22","8002","3992","p","elianto","#3366ff99","-1"," ","0","0","[1565.2999999523163]","1","2","","","8002","77","4","2","win","no-go","0"
"pit-trial","196","1243172","0.0-82.0","battery-v0.2","","""event"",""trial"",""time""
""focus"",""1"",""5448""
""fullscreenenter"",""1"",""5559""
","
","""event"",""trial"",""time""
""focus"",""1"",""5448""
","""event"",""trial"",""time""
""fullscreenenter"",""1"",""5559""
","
","","","-1","","","22","8002","3992","w","elianto","#f73b6a7A","-1","-1","1","0","[]","0","2","","","8002","78","6","4","lose","no-go","0"
"pit-trial","197","1246808","0.0-83.0","battery-v0.2","","""event"",""trial"",""time""
""focus"",""1"",""5448""
""fullscreenenter"",""1"",""5559""
","
","""event"",""trial"",""time""
""focus"",""1"",""5448""
","""event"",""trial"",""time""
""fullscreenenter"",""1"",""5559""
","
","","","779.6000000238419","","","22","8002","3992","g","elianto","#f73b6a7A"," "," ","1","-10","[1630]","1","2","","","8002","79","3","3","lose","go","1"
"pit-trial","198","1250672","0.0-84.0","battery-v0.2","","""event"",""trial"",""time""
""focus"",""1"",""5448""
""fullscreenenter"",""1"",""5559""
","
","""event"",""trial"",""time""
""focus"",""1"",""5448""
","""event"",""trial"",""time""
""fullscreenenter"",""1"",""5559""
","
","","","1011.3000000715256","","","22","8002","3992","s","elianto","#3366ff99"," "," ","1","+10","[1861.8999999761581]","1","2","","","8002","80","5","1","win","go","0"
"pit-trial","199","1255525","0.0-85.0","battery-v0.2","","""event"",""trial"",""time""
""focus"",""1"",""5448""
""fullscreenenter"",""1"",""5559""
","
","""event"",""trial"",""time""
""focus"",""1"",""5448""
","""event"",""trial"",""time""
""fullscreenenter"",""1"",""5559""
","
","","","-1","","","22","8002","3992","w","elianto","#f73b6a7A","-1","-1","1","0","[]","0","2","","","8002","81","6","4","lose","no-go","0"
"pit-trial","200","1259079","0.0-86.0","battery-v0.2","","""event"",""trial"",""time""
""focus"",""1"",""5448""
""fullscreenenter"",""1"",""5559""
","
","""event"",""trial"",""time""
""focus"",""1"",""5448""
","""event"",""trial"",""time""
""fullscreenenter"",""1"",""5559""
","
","","","699.1000000238419","","","22","8002","3992","s","elianto","#3366ff99"," "," ","1","0","[1551.6999999284744]","1","2","","","8002","82","5","1","win","go","1"
"pit-trial","201","1263312","0.0-87.0","battery-v0.2","","""event"",""trial"",""time""
""focus"",""1"",""5448""
""fullscreenenter"",""1"",""5559""
","
","""event"",""trial"",""time""
""focus"",""1"",""5448""
","""event"",""trial"",""time""
""fullscreenenter"",""1"",""5559""
","
","","","1379.7999999523163","","","22","8002","3992","e","elianto","#f73b6a7A"," "," ","1","0","[2230.5]","1","2","","","8002","83","7","3","lose","go","0"
"pit-trial","202","1267272","0.0-88.0","battery-v0.2","","""event"",""trial"",""time""
""focus"",""1"",""5448""
""fullscreenenter"",""1"",""5559""
","
","""event"",""trial"",""time""
""focus"",""1"",""5448""
","""event"",""trial"",""time""
""fullscreenenter"",""1"",""5559""
","
","","","1105.8999999761581","","","22","8002","3992","p","elianto","#3366ff99","-1"," ","0","+10","[1956.6000000238419]","1","2","","","8002","84","4","2","win","no-go","1"
"pit-trial","203","1272125","0.0-89.0","battery-v0.2","","""event"",""trial"",""time""
""focus"",""1"",""5448""
""fullscreenenter"",""1"",""5559""
","
","""event"",""trial"",""time""
""focus"",""1"",""5448""
","""event"",""trial"",""time""
""fullscreenenter"",""1"",""5559""
","
","","","-1","","","22","8002","3992","w","elianto","#f73b6a7A","-1","-1","1","0","[]","0","2","","","8002","85","6","4","lose","no-go","0"
"pit-trial","204","1275744","0.0-90.0","battery-v0.2","","""event"",""trial"",""time""
""focus"",""1"",""5448""
""fullscreenenter"",""1"",""5559""
","
","""event"",""trial"",""time""
""focus"",""1"",""5448""
","""event"",""trial"",""time""
""fullscreenenter"",""1"",""5559""
","
","","","763.3999999761581","","","22","8002","3992","p","elianto","#3366ff99","-1"," ","0","0","[1615.8999999761581]","1","2","","","8002","86","4","2","win","no-go","0"
"pit-trial","205","1280597","0.0-91.0","battery-v0.2","","""event"",""trial"",""time""
""focus"",""1"",""5448""
""fullscreenenter"",""1"",""5559""
","
","""event"",""trial"",""time""
""focus"",""1"",""5448""
","""event"",""trial"",""time""
""fullscreenenter"",""1"",""5559""
","
","","","-1","","","22","8002","3992","e","elianto","#f73b6a7A"," ","-1","0","-10","[]","0","2","","","8002","87","7","3","lose","go","0"
"pit-trial","206","1284328","0.0-92.0","battery-v0.2","","""event"",""trial"",""time""
""focus"",""1"",""5448""
""fullscreenenter"",""1"",""5559""
","
","""event"",""trial"",""time""
""focus"",""1"",""5448""
","""event"",""trial"",""time""
""fullscreenenter"",""1"",""5559""
","
","","","876.8999999761581","","","22","8002","3992","s","elianto","#3366ff99"," "," ","1","+10","[1727.3999999761581]","1","2","","","8002","88","5","1","win","go","0"
"pit-trial","207","1289181","0.0-93.0","battery-v0.2","","""event"",""trial"",""time""
""focus"",""1"",""5448""
""fullscreenenter"",""1"",""5559""
","
","""event"",""trial"",""time""
""focus"",""1"",""5448""
","""event"",""trial"",""time""
""fullscreenenter"",""1"",""5559""
","
","","","-1","","","22","8002","3992","w","elianto","#f73b6a7A","-1","-1","1","-10","[]","0","2","","","8002","89","6","4","lose","no-go","1"
"pit-trial","208","1292856","0.0-94.0","battery-v0.2","","""event"",""trial"",""time""
""focus"",""1"",""5448""
""fullscreenenter"",""1"",""5559""
","
","""event"",""trial"",""time""
""focus"",""1"",""5448""
","""event"",""trial"",""time""
""fullscreenenter"",""1"",""5559""
","
","","","821.6000000238419","","","22","8002","3992","s","elianto","#3366ff99"," "," ","1","0","[1672.2999999523163]","1","2","","","8002","90","5","1","win","go","1"
"pit-trial","209","1296560","0.0-95.0","battery-v0.2","","""event"",""trial"",""time""
""focus"",""1"",""5448""
""fullscreenenter"",""1"",""5559""
","
","""event"",""trial"",""time""
""focus"",""1"",""5448""
","""event"",""trial"",""time""
""fullscreenenter"",""1"",""5559""
","
","","","850.6999999284744","","","22","8002","3992","p","elianto","#3366ff99","-1"," ","0","0","[1701.5]","1","2","","","8002","91","4","2","win","no-go","0"
"pit-trial","210","1300328","0.0-96.0","battery-v0.2","","""event"",""trial"",""time""
""focus"",""1"",""5448""
""fullscreenenter"",""1"",""5559""
","
","""event"",""trial"",""time""
""focus"",""1"",""5448""
","""event"",""trial"",""time""
""fullscreenenter"",""1"",""5559""
","
","","","915.2000000476837","","","22","8002","3992","e","elianto","#f73b6a7A"," "," ","1","0","[1765.5]","1","2","","","8002","92","7","3","lose","go","0"
"pit-trial","211","1303967","0.0-97.0","battery-v0.2","","""event"",""trial"",""time""
""focus"",""1"",""5448""
""fullscreenenter"",""1"",""5559""
","
","""event"",""trial"",""time""
""focus"",""1"",""5448""
","""event"",""trial"",""time""
""fullscreenenter"",""1"",""5559""
","
","","","786","","","22","8002","3992","w","elianto","#f73b6a7A","-1"," ","0","-10","[1636.7999999523163]","1","2","","","8002","93","6","4","lose","no-go","0"
"pit-trial","212","1307538","0.0-98.0","battery-v0.2","","""event"",""trial"",""time""
""focus"",""1"",""5448""
""fullscreenenter"",""1"",""5559""
","
","""event"",""trial"",""time""
""focus"",""1"",""5448""
","""event"",""trial"",""time""
""fullscreenenter"",""1"",""5559""
","
","","","714.8999999761581","","","22","8002","3992","s","elianto","#3366ff99"," "," ","1","+10","[1565.6000000238419]","1","2","","","8002","94","5","1","win","go","0"
"pit-trial","213","1311530","0.0-99.0","battery-v0.2","","""event"",""trial"",""time""
""focus"",""1"",""5448""
""fullscreenenter"",""1"",""5559""
","
","""event"",""trial"",""time""
""focus"",""1"",""5448""
","""event"",""trial"",""time""
""fullscreenenter"",""1"",""5559""
","
","","","1139","","","22","8002","3992","e","elianto","#f73b6a7A"," "," ","1","-10","[1989.2999999523163]","1","2","","","8002","95","7","3","lose","go","1"
"pit-trial","214","1315451","0.0-100.0","battery-v0.2","","""event"",""trial"",""time""
""focus"",""1"",""5448""
""fullscreenenter"",""1"",""5559""
","
","""event"",""trial"",""time""
""focus"",""1"",""5448""
","""event"",""trial"",""time""
""fullscreenenter"",""1"",""5559""
","
","","","1067.7999999523163","","","22","8002","3992","d","elianto","#3366ff99","-1"," ","0","0","[1918.5]","1","2","","","8002","96","8","2","win","no-go","0"
"pit-trial","215","1320304","0.0-101.0","battery-v0.2","","""event"",""trial"",""time""
""focus"",""1"",""5448""
""fullscreenenter"",""1"",""5559""
","
","""event"",""trial"",""time""
""focus"",""1"",""5448""
","""event"",""trial"",""time""
""fullscreenenter"",""1"",""5559""
","
","","","-1","","","22","8002","3992","w","elianto","#f73b6a7A","-1","-1","1","0","[]","0","2","","","8002","97","6","4","lose","no-go","0"
"pit-trial","216","1323987","0.0-102.0","battery-v0.2","","""event"",""trial"",""time""
""focus"",""1"",""5448""
""fullscreenenter"",""1"",""5559""
","
","""event"",""trial"",""time""
""focus"",""1"",""5448""
","""event"",""trial"",""time""
""fullscreenenter"",""1"",""5559""
","
","","","829.2000000476837","","","22","8002","3992","e","elianto","#f73b6a7A"," "," ","1","0","[1679.6000000238419]","1","2","","","8002","98","7","3","lose","go","0"
"pit-trial","217","1327594","0.0-103.0","battery-v0.2","","""event"",""trial"",""time""
""focus"",""1"",""5448""
""fullscreenenter"",""1"",""5559""
","
","""event"",""trial"",""time""
""focus"",""1"",""5448""
","""event"",""trial"",""time""
""fullscreenenter"",""1"",""5559""
","
","","","752.8999999761581","","","22","8002","3992","s","elianto","#3366ff99"," "," ","1","+10","[1604.1000000238419]","1","2","","","8002","99","5","1","win","go","0"
"pit-trial","218","1331867","0.0-104.0","battery-v0.2","","""event"",""trial"",""time""
""focus"",""1"",""5448""
""fullscreenenter"",""1"",""5559""
","
","""event"",""trial"",""time""
""focus"",""1"",""5448""
","""event"",""trial"",""time""
""fullscreenenter"",""1"",""5559""
","
","","","1417.5999999046326","","","22","8002","3992","d","elianto","#3366ff99","-1"," ","0","0","[2270.100000023842]","1","2","","","8002","100","8","2","win","no-go","0"
"pit-trial","219","1336721","0.0-105.0","battery-v0.2","","""event"",""trial"",""time""
""focus"",""1"",""5448""
""fullscreenenter"",""1"",""5559""
