"trial_type","trial_index","time_elapsed","internal_node_id","task_version","subject_id","interactions","blur_events","focus_events","fullscreenenter_events","fullscreenexit_events","success","view_history","rt","responses","num_errors","age","subject","participantId","rune","rune_set","hex","correct","choice","accuracy","outcome","keys","total_keys","block","practice","value","sub","trial","stimulus","robot","valence","action","sham"
"pavlovia","0","34","0.0-0.0","battery-v0.2","","""event"",""trial"",""time""
""fullscreenenter"",""1"",""3537""
","
","
","""event"",""trial"",""time""
""fullscreenenter"",""1"",""3537""
","
","","","","","","","","","","","","","","","","","","","","","","","","","","",""
"fullscreen","1","4469","0.0-1.0","battery-v0.2","","""event"",""trial"",""time""
""fullscreenenter"",""1"",""3537""
""blur"",""2"",""15266""
""focus"",""2"",""27142""
""blur"",""2"",""29357""
""focus"",""2"",""35007""
","""event"",""trial"",""time""
""blur"",""2"",""15266""
""blur"",""2"",""29357""
","""event"",""trial"",""time""
""focus"",""2"",""27142""
""focus"",""2"",""35007""
","""event"",""trial"",""time""
""fullscreenenter"",""1"",""3537""
","
","true","","","","","","","","","","","","","","","","","","","","","","","","","",""
"pit-instructions","2","36960","0.0-2.0-0.0","battery-v0.2","","""event"",""trial"",""time""
""fullscreenenter"",""1"",""3537""
""blur"",""2"",""15266""
""focus"",""2"",""27142""
""blur"",""2"",""29357""
""focus"",""2"",""35007""
","""event"",""trial"",""time""
""blur"",""2"",""15266""
""blur"",""2"",""29357""
","""event"",""trial"",""time""
""focus"",""2"",""27142""
""focus"",""2"",""35007""
","""event"",""trial"",""time""
""fullscreenenter"",""1"",""3537""
","
","","[{""page_index"":0,""viewing_time"":32479}]","32480.299999713898","","","","","","","","","","","","","","","","","","","","","","","",""
"pit-comprehension","3","46524","0.0-2.0-1.0-0.0","battery-v0.2","","""event"",""trial"",""time""
""fullscreenenter"",""1"",""3537""
""blur"",""2"",""15266""
""focus"",""2"",""27142""
""blur"",""2"",""29357""
""focus"",""2"",""35007""
","""event"",""trial"",""time""
""blur"",""2"",""15266""
""blur"",""2"",""29357""
","""event"",""trial"",""time""
""focus"",""2"",""27142""
""focus"",""2"",""35007""
","""event"",""trial"",""time""
""fullscreenenter"",""1"",""3537""
","
","","","9549.599999904633","[""shark""]","0","25","10089","4598","","","","","","","","","","","","","","","","","","",""
"pit-instructions","4","48425","0.0-2.0-1.0-1.0","battery-v0.2","","""event"",""trial"",""time""
""fullscreenenter"",""1"",""3537""
""blur"",""2"",""15266""
""focus"",""2"",""27142""
""blur"",""2"",""29357""
""focus"",""2"",""35007""
""blur"",""5"",""234929""
""focus"",""5"",""236972""
","""event"",""trial"",""time""
""blur"",""2"",""15266""
""blur"",""2"",""29357""
""blur"",""5"",""234929""
","""event"",""trial"",""time""
""focus"",""2"",""27142""
""focus"",""2"",""35007""
""focus"",""5"",""236972""
","""event"",""trial"",""time""
""fullscreenenter"",""1"",""3537""
","
","","[{""page_index"":0,""viewing_time"":1880.4000000953674}]","1881.1999998092651","","","","","","","","","","","","","","","","","","","","","","","",""
"pit-comprehension","5","248654","0.0-2.0-2.0-0.0","battery-v0.2","","""event"",""trial"",""time""
""fullscreenenter"",""1"",""3537""
""blur"",""2"",""15266""
""focus"",""2"",""27142""
""blur"",""2"",""29357""
""focus"",""2"",""35007""
""blur"",""5"",""234929""
""focus"",""5"",""236972""
","""event"",""trial"",""time""
""blur"",""2"",""15266""
""blur"",""2"",""29357""
""blur"",""5"",""234929""
","""event"",""trial"",""time""
""focus"",""2"",""27142""
""focus"",""2"",""35007""
""focus"",""5"",""236972""
","""event"",""trial"",""time""
""fullscreenenter"",""1"",""3537""
","
","","","200222.5","[""tiger""]","0","25","10089","4598","","","","","","","","","","","","","","","","","","",""
"pit-instructions","6","250179","0.0-2.0-2.0-1.0","battery-v0.2","","""event"",""trial"",""time""
""fullscreenenter"",""1"",""3537""
""blur"",""2"",""15266""
""focus"",""2"",""27142""
""blur"",""2"",""29357""
""focus"",""2"",""35007""
""blur"",""5"",""234929""
""focus"",""5"",""236972""
""blur"",""7"",""260605""
""focus"",""7"",""281757""
","""event"",""trial"",""time""
""blur"",""2"",""15266""
""blur"",""2"",""29357""
""blur"",""5"",""234929""
""blur"",""7"",""260605""
","""event"",""trial"",""time""
""focus"",""2"",""27142""
""focus"",""2"",""35007""
""focus"",""5"",""236972""
""focus"",""7"",""281757""
","""event"",""trial"",""time""
""fullscreenenter"",""1"",""3537""
","
","","[{""page_index"":0,""viewing_time"":1514.0999999046326}]","1515","","","","","","","","","","","","","","","","","","","","","","","",""
"pit-instructions","7","393243","0.0-2.0-3.0","battery-v0.2","","""event"",""trial"",""time""
""fullscreenenter"",""1"",""3537""
""blur"",""2"",""15266""
""focus"",""2"",""27142""
""blur"",""2"",""29357""
""focus"",""2"",""35007""
""blur"",""5"",""234929""
""focus"",""5"",""236972""
""blur"",""7"",""260605""
""focus"",""7"",""281757""
","""event"",""trial"",""time""
""blur"",""2"",""15266""
""blur"",""2"",""29357""
""blur"",""5"",""234929""
""blur"",""7"",""260605""
","""event"",""trial"",""time""
""focus"",""2"",""27142""
""focus"",""2"",""35007""
""focus"",""5"",""236972""
""focus"",""7"",""281757""
","""event"",""trial"",""time""
""fullscreenenter"",""1"",""3537""
","
","","[{""page_index"":0,""viewing_time"":32752.200000286102},{""page_index"":1,""viewing_time"":5020.199999809265},{""page_index"":2,""viewing_time"":6514.599999904633},{""page_index"":3,""viewing_time"":5198.200000286102},{""page_index"":4,""viewing_time"":5157},{""page_index"":5,""viewing_time"":18283.5},{""page_index"":6,""viewing_time"":5206.799999713898},{""page_index"":7,""viewing_time"":6859},{""page_index"":8,""viewing_time"":10105.60000038147},{""page_index"":9,""viewing_time"":5401},{""page_index"":10,""viewing_time"":8178.89999961853},{""page_index"":11,""viewing_time"":11436.200000286102},{""page_index"":12,""viewing_time"":7728.099999904633},{""page_index"":13,""viewing_time"":15207.599999904633}]","143049.90000009537","","","","","","","","","","","","","","","","","","","","","","","",""
"pit-trial","8","396748","0.0-2.0-4.0-0.0","battery-v0.2","","""event"",""trial"",""time""
""fullscreenenter"",""1"",""3537""
""blur"",""2"",""15266""
""focus"",""2"",""27142""
""blur"",""2"",""29357""
""focus"",""2"",""35007""
""blur"",""5"",""234929""
""focus"",""5"",""236972""
""blur"",""7"",""260605""
""focus"",""7"",""281757""
","""event"",""trial"",""time""
""blur"",""2"",""15266""
""blur"",""2"",""29357""
""blur"",""5"",""234929""
""blur"",""7"",""260605""
","""event"",""trial"",""time""
""focus"",""2"",""27142""
""focus"",""2"",""35007""
""focus"",""5"",""236972""
""focus"",""7"",""281757""
","""event"",""trial"",""time""
""fullscreenenter"",""1"",""3537""
","
","","","638","","","25","10089","4598","&#9784;","elianto","#FFFFF080"," "," ","1","&#10004","[1493.3999996185303,2863.7999997138977]","2","0","0","","","","","","","",""
"pit-trial","9","400426","0.0-2.0-4.1-0.1","battery-v0.2","","""event"",""trial"",""time""
""fullscreenenter"",""1"",""3537""
""blur"",""2"",""15266""
""focus"",""2"",""27142""
""blur"",""2"",""29357""
""focus"",""2"",""35007""
""blur"",""5"",""234929""
""focus"",""5"",""236972""
""blur"",""7"",""260605""
""focus"",""7"",""281757""
","""event"",""trial"",""time""
""blur"",""2"",""15266""
""blur"",""2"",""29357""
""blur"",""5"",""234929""
""blur"",""7"",""260605""
","""event"",""trial"",""time""
""focus"",""2"",""27142""
""focus"",""2"",""35007""
""focus"",""5"",""236972""
""focus"",""7"",""281757""
","""event"",""trial"",""time""
""fullscreenenter"",""1"",""3537""
","
","","","812.9000000953674","","","25","10089","4598","&#9784;","elianto","#FFFFF080"," "," ","1","&#10004","[1670.2000002861023]","1","0","0","","","","","","","",""
"pit-trial","10","405302","0.0-2.0-4.2-0.2","battery-v0.2","","""event"",""trial"",""time""
""fullscreenenter"",""1"",""3537""
""blur"",""2"",""15266""
""focus"",""2"",""27142""
""blur"",""2"",""29357""
""focus"",""2"",""35007""
""blur"",""5"",""234929""
""focus"",""5"",""236972""
""blur"",""7"",""260605""
""focus"",""7"",""281757""
","""event"",""trial"",""time""
""blur"",""2"",""15266""
""blur"",""2"",""29357""
""blur"",""5"",""234929""
""blur"",""7"",""260605""
","""event"",""trial"",""time""
""focus"",""2"",""27142""
""focus"",""2"",""35007""
""focus"",""5"",""236972""
""focus"",""7"",""281757""
","""event"",""trial"",""time""
""fullscreenenter"",""1"",""3537""
","
","","","-1","","","25","10089","4598","&#9784;","elianto","#FFFFF080"," ","-1","0","&#10060","[]","0","0","0","","","","","","","",""
"pit-trial","11","409266","0.0-2.0-4.3-0.3","battery-v0.2","","""event"",""trial"",""time""
""fullscreenenter"",""1"",""3537""
""blur"",""2"",""15266""
""focus"",""2"",""27142""
""blur"",""2"",""29357""
""focus"",""2"",""35007""
""blur"",""5"",""234929""
""focus"",""5"",""236972""
""blur"",""7"",""260605""
""focus"",""7"",""281757""
","""event"",""trial"",""time""
""blur"",""2"",""15266""
""blur"",""2"",""29357""
""blur"",""5"",""234929""
""blur"",""7"",""260605""
","""event"",""trial"",""time""
""focus"",""2"",""27142""
""focus"",""2"",""35007""
""focus"",""5"",""236972""
""focus"",""7"",""281757""
","""event"",""trial"",""time""
""fullscreenenter"",""1"",""3537""
","
","","","1092.5999999046326","","","25","10089","4598","&#9784;","elianto","#FFFFF080"," "," ","1","&#10004","[1947.7000002861023]","1","0","0","","","","","","","",""
"pit-trial","12","413457","0.0-2.0-4.4-0.4","battery-v0.2","","""event"",""trial"",""time""
""fullscreenenter"",""1"",""3537""
""blur"",""2"",""15266""
""focus"",""2"",""27142""
""blur"",""2"",""29357""
""focus"",""2"",""35007""
""blur"",""5"",""234929""
""focus"",""5"",""236972""
""blur"",""7"",""260605""
""focus"",""7"",""281757""
","""event"",""trial"",""time""
""blur"",""2"",""15266""
""blur"",""2"",""29357""
""blur"",""5"",""234929""
""blur"",""7"",""260605""
","""event"",""trial"",""time""
""focus"",""2"",""27142""
""focus"",""2"",""35007""
""focus"",""5"",""236972""
""focus"",""7"",""281757""
","""event"",""trial"",""time""
""fullscreenenter"",""1"",""3537""
","
","","","1335.1999998092651","","","25","10089","4598","&#9784;","elianto","#FFFFF080"," "," ","1","&#10004","[2185.5]","1","0","0","","","","","","","",""
"pit-trial","13","416926","0.0-2.0-4.5-0.5","battery-v0.2","","""event"",""trial"",""time""
""fullscreenenter"",""1"",""3537""
""blur"",""2"",""15266""
""focus"",""2"",""27142""
""blur"",""2"",""29357""
""focus"",""2"",""35007""
""blur"",""5"",""234929""
""focus"",""5"",""236972""
""blur"",""7"",""260605""
""focus"",""7"",""281757""
","""event"",""trial"",""time""
""blur"",""2"",""15266""
""blur"",""2"",""29357""
""blur"",""5"",""234929""
""blur"",""7"",""260605""
","""event"",""trial"",""time""
""focus"",""2"",""27142""
""focus"",""2"",""35007""
""focus"",""5"",""236972""
""focus"",""7"",""281757""
","""event"",""trial"",""time""
""fullscreenenter"",""1"",""3537""
","
","","","603.9000000953674","","","25","10089","4598","&#9784;","elianto","#FFFFF080"," "," ","1","&#10004","[1461]","1","0","0","","","","","","","",""
"pit-instructions","14","438230","0.0-2.0-5.0","battery-v0.2","","""event"",""trial"",""time""
""fullscreenenter"",""1"",""3537""
""blur"",""2"",""15266""
""focus"",""2"",""27142""
""blur"",""2"",""29357""
""focus"",""2"",""35007""
""blur"",""5"",""234929""
""focus"",""5"",""236972""
""blur"",""7"",""260605""
""focus"",""7"",""281757""
","""event"",""trial"",""time""
""blur"",""2"",""15266""
""blur"",""2"",""29357""
""blur"",""5"",""234929""
""blur"",""7"",""260605""
","""event"",""trial"",""time""
""focus"",""2"",""27142""
""focus"",""2"",""35007""
""focus"",""5"",""236972""
""focus"",""7"",""281757""
","""event"",""trial"",""time""
""fullscreenenter"",""1"",""3537""
","
","","[{""page_index"":0,""viewing_time"":6340.599999904633},{""page_index"":1,""viewing_time"":5455},{""page_index"":2,""viewing_time"":4448.800000190735},{""page_index"":3,""viewing_time"":5052.5}]","21297.599999904633","","","","","","","","","","","","","","","","","","","","","","","",""
"pit-trial","15","443096","0.0-2.0-6.0-0.0","battery-v0.2","","""event"",""trial"",""time""
""fullscreenenter"",""1"",""3537""
""blur"",""2"",""15266""
""focus"",""2"",""27142""
""blur"",""2"",""29357""
""focus"",""2"",""35007""
""blur"",""5"",""234929""
""focus"",""5"",""236972""
""blur"",""7"",""260605""
""focus"",""7"",""281757""
","""event"",""trial"",""time""
""blur"",""2"",""15266""
""blur"",""2"",""29357""
""blur"",""5"",""234929""
""blur"",""7"",""260605""
","""event"",""trial"",""time""
""focus"",""2"",""27142""
""focus"",""2"",""35007""
""focus"",""5"",""236972""
""focus"",""7"",""281757""
","""event"",""trial"",""time""
""fullscreenenter"",""1"",""3537""
","
","","","-1","","","25","10089","4598","&#9854;","elianto","#FFFFF080","-1","-1","1","&#10004","[]","0","0","1","","","","","","","",""
"pit-trial","16","447963","0.0-2.0-6.1-0.1","battery-v0.2","","""event"",""trial"",""time""
""fullscreenenter"",""1"",""3537""
""blur"",""2"",""15266""
""focus"",""2"",""27142""
""blur"",""2"",""29357""
""focus"",""2"",""35007""
""blur"",""5"",""234929""
""focus"",""5"",""236972""
""blur"",""7"",""260605""
""focus"",""7"",""281757""
","""event"",""trial"",""time""
""blur"",""2"",""15266""
""blur"",""2"",""29357""
""blur"",""5"",""234929""
""blur"",""7"",""260605""
","""event"",""trial"",""time""
""focus"",""2"",""27142""
""focus"",""2"",""35007""
""focus"",""5"",""236972""
""focus"",""7"",""281757""
","""event"",""trial"",""time""
""fullscreenenter"",""1"",""3537""
","
","","","-1","","","25","10089","4598","&#9854;","elianto","#FFFFF080","-1","-1","1","&#10004","[]","0","0","1","","","","","","","",""
"pit-trial","17","452829","0.0-2.0-6.2-0.2","battery-v0.2","","""event"",""trial"",""time""
""fullscreenenter"",""1"",""3537""
""blur"",""2"",""15266""
""focus"",""2"",""27142""
""blur"",""2"",""29357""
""focus"",""2"",""35007""
""blur"",""5"",""234929""
""focus"",""5"",""236972""
""blur"",""7"",""260605""
""focus"",""7"",""281757""
","""event"",""trial"",""time""
""blur"",""2"",""15266""
""blur"",""2"",""29357""
""blur"",""5"",""234929""
""blur"",""7"",""260605""
","""event"",""trial"",""time""
""focus"",""2"",""27142""
""focus"",""2"",""35007""
""focus"",""5"",""236972""
""focus"",""7"",""281757""
","""event"",""trial"",""time""
""fullscreenenter"",""1"",""3537""
","
","","","-1","","","25","10089","4598","&#9854;","elianto","#FFFFF080","-1","-1","1","&#10004","[]","0","0","1","","","","","","","",""
"pit-trial","18","457697","0.0-2.0-6.3-0.3","battery-v0.2","","""event"",""trial"",""time""
""fullscreenenter"",""1"",""3537""
""blur"",""2"",""15266""
""focus"",""2"",""27142""
""blur"",""2"",""29357""
""focus"",""2"",""35007""
""blur"",""5"",""234929""
""focus"",""5"",""236972""
""blur"",""7"",""260605""
""focus"",""7"",""281757""
","""event"",""trial"",""time""
""blur"",""2"",""15266""
""blur"",""2"",""29357""
""blur"",""5"",""234929""
""blur"",""7"",""260605""
","""event"",""trial"",""time""
""focus"",""2"",""27142""
""focus"",""2"",""35007""
""focus"",""5"",""236972""
""focus"",""7"",""281757""
","""event"",""trial"",""time""
""fullscreenenter"",""1"",""3537""
","
","","","-1","","","25","10089","4598","&#9854;","elianto","#FFFFF080","-1","-1","1","&#10004","[]","0","0","1","","","","","","","",""
"pit-trial","19","462564","0.0-2.0-6.4-0.4","battery-v0.2","","""event"",""trial"",""time""
""fullscreenenter"",""1"",""3537""
""blur"",""2"",""15266""
""focus"",""2"",""27142""
""blur"",""2"",""29357""
""focus"",""2"",""35007""
""blur"",""5"",""234929""
""focus"",""5"",""236972""
""blur"",""7"",""260605""
""focus"",""7"",""281757""
","""event"",""trial"",""time""
""blur"",""2"",""15266""
""blur"",""2"",""29357""
""blur"",""5"",""234929""
""blur"",""7"",""260605""
","""event"",""trial"",""time""
""focus"",""2"",""27142""
""focus"",""2"",""35007""
""focus"",""5"",""236972""
""focus"",""7"",""281757""
","""event"",""trial"",""time""
""fullscreenenter"",""1"",""3537""
","
","","","-1","","","25","10089","4598","&#9854;","elianto","#FFFFF080","-1","-1","1","&#10004","[]","0","0","1","","","","","","","",""
"pit-instructions","20","678738","0.0-2.0-7.0","battery-v0.2","","""event"",""trial"",""time""
""fullscreenenter"",""1"",""3537""
""blur"",""2"",""15266""
""focus"",""2"",""27142""
""blur"",""2"",""29357""
""focus"",""2"",""35007""
""blur"",""5"",""234929""
""focus"",""5"",""236972""
""blur"",""7"",""260605""
""focus"",""7"",""281757""
","""event"",""trial"",""time""
""blur"",""2"",""15266""
""blur"",""2"",""29357""
""blur"",""5"",""234929""
""blur"",""7"",""260605""
","""event"",""trial"",""time""
""focus"",""2"",""27142""
""focus"",""2"",""35007""
""focus"",""5"",""236972""
""focus"",""7"",""281757""
","""event"",""trial"",""time""
""fullscreenenter"",""1"",""3537""
","
","","[{""page_index"":0,""viewing_time"":6662.800000190735},{""page_index"":1,""viewing_time"":25109.199999809265},{""page_index"":2,""viewing_time"":30039.300000190735},{""page_index"":3,""viewing_time"":12714.199999809265},{""page_index"":4,""viewing_time"":5470.5},{""page_index"":5,""viewing_time"":10052},{""page_index"":6,""viewing_time"":21890},{""page_index"":7,""viewing_time"":13104.700000286102},{""page_index"":8,""viewing_time"":16321.5},{""page_index"":9,""viewing_time"":5571.199999809265},{""page_index"":10,""viewing_time"":12392.599999904633},{""page_index"":11,""viewing_time"":12700.800000190735},{""page_index"":12,""viewing_time"":6059.699999809265},{""page_index"":13,""viewing_time"":6157.900000095367},{""page_index"":14,""viewing_time"":9318.800000190735},{""page_index"":15,""viewing_time"":9101.699999809265},{""page_index"":16,""viewing_time"":6632.099999904633},{""page_index"":17,""viewing_time"":6866.800000190735}]","216166.60000038147","","","","","","","","","","","","","","","","","","","","","","","",""
"pit-trial","21","682686","0.0-2.0-8.0-0.0","battery-v0.2","","""event"",""trial"",""time""
""fullscreenenter"",""1"",""3537""
""blur"",""2"",""15266""
""focus"",""2"",""27142""
""blur"",""2"",""29357""
""focus"",""2"",""35007""
""blur"",""5"",""234929""
""focus"",""5"",""236972""
""blur"",""7"",""260605""
""focus"",""7"",""281757""
","""event"",""trial"",""time""
""blur"",""2"",""15266""
""blur"",""2"",""29357""
""blur"",""5"",""234929""
""blur"",""7"",""260605""
","""event"",""trial"",""time""
""focus"",""2"",""27142""
""focus"",""2"",""35007""
""focus"",""5"",""236972""
""focus"",""7"",""281757""
","""event"",""trial"",""time""
""fullscreenenter"",""1"",""3537""
","
","","","1089.2999997138977","","","25","10089","4598","&#9776;","elianto","#3366ff99"," "," ","1","+10","[1942.3000001907349]","1","0","1","","","","","","","",""
"pit-trial","22","686218","0.0-2.0-8.0-1.0","battery-v0.2","","""event"",""trial"",""time""
""fullscreenenter"",""1"",""3537""
""blur"",""2"",""15266""
""focus"",""2"",""27142""
""blur"",""2"",""29357""
""focus"",""2"",""35007""
""blur"",""5"",""234929""
""focus"",""5"",""236972""
""blur"",""7"",""260605""
""focus"",""7"",""281757""
","""event"",""trial"",""time""
""blur"",""2"",""15266""
""blur"",""2"",""29357""
""blur"",""5"",""234929""
""blur"",""7"",""260605""
","""event"",""trial"",""time""
""focus"",""2"",""27142""
""focus"",""2"",""35007""
""focus"",""5"",""236972""
""focus"",""7"",""281757""
","""event"",""trial"",""time""
""fullscreenenter"",""1"",""3537""
","
","","","669.5999999046326","","","25","10089","4598","&#9776;","elianto","#3366ff99"," "," ","1","+10","[1520.6999998092651]","1","0","1","","","","","","","",""
"pit-trial","23","689897","0.0-2.0-8.0-2.0","battery-v0.2","","""event"",""trial"",""time""
""fullscreenenter"",""1"",""3537""
""blur"",""2"",""15266""
""focus"",""2"",""27142""
""blur"",""2"",""29357""
""focus"",""2"",""35007""
""blur"",""5"",""234929""
""focus"",""5"",""236972""
""blur"",""7"",""260605""
""focus"",""7"",""281757""
","""event"",""trial"",""time""
""blur"",""2"",""15266""
""blur"",""2"",""29357""
""blur"",""5"",""234929""
""blur"",""7"",""260605""
","""event"",""trial"",""time""
""focus"",""2"",""27142""
""focus"",""2"",""35007""
""focus"",""5"",""236972""
""focus"",""7"",""281757""
","""event"",""trial"",""time""
""fullscreenenter"",""1"",""3537""
","
","","","809.9000000953674","","","25","10089","4598","&#9776;","elianto","#3366ff99"," "," ","1","+10","[1672.4000000953674]","1","0","1","","","","","","","",""
"pit-trial","24","693950","0.0-2.0-8.0-3.0","battery-v0.2","","""event"",""trial"",""time""
""fullscreenenter"",""1"",""3537""
""blur"",""2"",""15266""
""focus"",""2"",""27142""
""blur"",""2"",""29357""
""focus"",""2"",""35007""
""blur"",""5"",""234929""
""focus"",""5"",""236972""
""blur"",""7"",""260605""
""focus"",""7"",""281757""
","""event"",""trial"",""time""
""blur"",""2"",""15266""
""blur"",""2"",""29357""
""blur"",""5"",""234929""
""blur"",""7"",""260605""
","""event"",""trial"",""time""
""focus"",""2"",""27142""
""focus"",""2"",""35007""
""focus"",""5"",""236972""
""focus"",""7"",""281757""
","""event"",""trial"",""time""
""fullscreenenter"",""1"",""3537""
","
","","","1196.4000000953674","","","25","10089","4598","&#9776;","elianto","#3366ff99"," "," ","1","0","[2047]","1","0","1","","","","","","","",""
"pit-trial","25","697493","0.0-2.0-8.0-4.0","battery-v0.2","","""event"",""trial"",""time""
""fullscreenenter"",""1"",""3537""
""blur"",""2"",""15266""
""focus"",""2"",""27142""
""blur"",""2"",""29357""
""focus"",""2"",""35007""
""blur"",""5"",""234929""
""focus"",""5"",""236972""
""blur"",""7"",""260605""
""focus"",""7"",""281757""
","""event"",""trial"",""time""
""blur"",""2"",""15266""
""blur"",""2"",""29357""
""blur"",""5"",""234929""
""blur"",""7"",""260605""
","""event"",""trial"",""time""
""focus"",""2"",""27142""
""focus"",""2"",""35007""
""focus"",""5"",""236972""
""focus"",""7"",""281757""
","""event"",""trial"",""time""
""fullscreenenter"",""1"",""3537""
","
","","","677.8000001907349","","","25","10089","4598","&#9776;","elianto","#3366ff99"," "," ","1","+10","[1539.7999997138977]","1","0","1","","","","","","","",""
"pit-trial","26","700999","0.0-2.0-8.1-0.1","battery-v0.2","","""event"",""trial"",""time""
""fullscreenenter"",""1"",""3537""
""blur"",""2"",""15266""
""focus"",""2"",""27142""
""blur"",""2"",""29357""
""focus"",""2"",""35007""
""blur"",""5"",""234929""
""focus"",""5"",""236972""
""blur"",""7"",""260605""
""focus"",""7"",""281757""
","""event"",""trial"",""time""
""blur"",""2"",""15266""
""blur"",""2"",""29357""
""blur"",""5"",""234929""
""blur"",""7"",""260605""
","""event"",""trial"",""time""
""focus"",""2"",""27142""
""focus"",""2"",""35007""
""focus"",""5"",""236972""
""focus"",""7"",""281757""
","""event"",""trial"",""time""
""fullscreenenter"",""1"",""3537""
","
","","","648.5999999046326","","","25","10089","4598","&#9776;","elianto","#3366ff99"," "," ","1","+10","[1499.7000002861023]","1","0","1","","","","","","","",""
"pit-trial","27","704240","0.0-2.0-8.1-1.1","battery-v0.2","","""event"",""trial"",""time""
""fullscreenenter"",""1"",""3537""
""blur"",""2"",""15266""
""focus"",""2"",""27142""
""blur"",""2"",""29357""
""focus"",""2"",""35007""
""blur"",""5"",""234929""
""focus"",""5"",""236972""
""blur"",""7"",""260605""
""focus"",""7"",""281757""
","""event"",""trial"",""time""
""blur"",""2"",""15266""
""blur"",""2"",""29357""
""blur"",""5"",""234929""
""blur"",""7"",""260605""
","""event"",""trial"",""time""
""focus"",""2"",""27142""
""focus"",""2"",""35007""
""focus"",""5"",""236972""
""focus"",""7"",""281757""
","""event"",""trial"",""time""
""fullscreenenter"",""1"",""3537""
","
","","","372.5","","","25","10089","4598","&#9776;","elianto","#3366ff99"," "," ","1","+10","[1233.9000000953674]","1","0","1","","","","","","","",""
"pit-trial","28","709111","0.0-2.0-8.1-2.1","battery-v0.2","","""event"",""trial"",""time""
""fullscreenenter"",""1"",""3537""
""blur"",""2"",""15266""
""focus"",""2"",""27142""
""blur"",""2"",""29357""
""focus"",""2"",""35007""
""blur"",""5"",""234929""
""focus"",""5"",""236972""
""blur"",""7"",""260605""
""focus"",""7"",""281757""
","""event"",""trial"",""time""
""blur"",""2"",""15266""
""blur"",""2"",""29357""
""blur"",""5"",""234929""
""blur"",""7"",""260605""
","""event"",""trial"",""time""
""focus"",""2"",""27142""
""focus"",""2"",""35007""
""focus"",""5"",""236972""
""focus"",""7"",""281757""
","""event"",""trial"",""time""
""fullscreenenter"",""1"",""3537""
","
","","","-1","","","25","10089","4598","&#9776;","elianto","#3366ff99"," ","-1","0","0","[]","0","0","1","","","","","","","",""
"pit-trial","29","712779","0.0-2.0-8.1-3.1","battery-v0.2","","""event"",""trial"",""time""
""fullscreenenter"",""1"",""3537""
""blur"",""2"",""15266""
""focus"",""2"",""27142""
""blur"",""2"",""29357""
""focus"",""2"",""35007""
""blur"",""5"",""234929""
""focus"",""5"",""236972""
""blur"",""7"",""260605""
""focus"",""7"",""281757""
","""event"",""trial"",""time""
""blur"",""2"",""15266""
""blur"",""2"",""29357""
""blur"",""5"",""234929""
""blur"",""7"",""260605""
","""event"",""trial"",""time""
""focus"",""2"",""27142""
""focus"",""2"",""35007""
""focus"",""5"",""236972""
""focus"",""7"",""281757""
","""event"",""trial"",""time""
""fullscreenenter"",""1"",""3537""
","
","","","813.3000001907349","","","25","10089","4598","&#9776;","elianto","#3366ff99"," "," ","1","0","[1663.5]","1","0","1","","","","","","","",""
"pit-trial","30","716188","0.0-2.0-8.1-4.1","battery-v0.2","","""event"",""trial"",""time""
""fullscreenenter"",""1"",""3537""
""blur"",""2"",""15266""
""focus"",""2"",""27142""
""blur"",""2"",""29357""
""focus"",""2"",""35007""
""blur"",""5"",""234929""
""focus"",""5"",""236972""
""blur"",""7"",""260605""
""focus"",""7"",""281757""
","""event"",""trial"",""time""
""blur"",""2"",""15266""
""blur"",""2"",""29357""
""blur"",""5"",""234929""
""blur"",""7"",""260605""
","""event"",""trial"",""time""
""focus"",""2"",""27142""
""focus"",""2"",""35007""
""focus"",""5"",""236972""
""focus"",""7"",""281757""
","""event"",""trial"",""time""
""fullscreenenter"",""1"",""3537""
","
","","","549","","","25","10089","4598","&#9776;","elianto","#3366ff99"," "," ","1","+10","[1401.6999998092651]","1","0","1","","","","","","","",""
"pit-trial","31","719978","0.0-2.0-8.2-0.2","battery-v0.2","","""event"",""trial"",""time""
""fullscreenenter"",""1"",""3537""
""blur"",""2"",""15266""
""focus"",""2"",""27142""
""blur"",""2"",""29357""
""focus"",""2"",""35007""
""blur"",""5"",""234929""
""focus"",""5"",""236972""
""blur"",""7"",""260605""
""focus"",""7"",""281757""
","""event"",""trial"",""time""
""blur"",""2"",""15266""
""blur"",""2"",""29357""
""blur"",""5"",""234929""
""blur"",""7"",""260605""
","""event"",""trial"",""time""
""focus"",""2"",""27142""
""focus"",""2"",""35007""
""focus"",""5"",""236972""
""focus"",""7"",""281757""
","""event"",""trial"",""time""
""fullscreenenter"",""1"",""3537""
","
","","","925.2999997138977","","","25","10089","4598","&#9776;","elianto","#3366ff99"," "," ","1","+10","[1780.4000000953674]","1","0","1","","","","","","","",""
"pit-trial","32","724845","0.0-2.0-8.2-1.2","battery-v0.2","","""event"",""trial"",""time""
""fullscreenenter"",""1"",""3537""
""blur"",""2"",""15266""
""focus"",""2"",""27142""
""blur"",""2"",""29357""
""focus"",""2"",""35007""
""blur"",""5"",""234929""
""focus"",""5"",""236972""
""blur"",""7"",""260605""
""focus"",""7"",""281757""
","""event"",""trial"",""time""
""blur"",""2"",""15266""
""blur"",""2"",""29357""
""blur"",""5"",""234929""
""blur"",""7"",""260605""
","""event"",""trial"",""time""
""focus"",""2"",""27142""
""focus"",""2"",""35007""
""focus"",""5"",""236972""
""focus"",""7"",""281757""
","""event"",""trial"",""time""
""fullscreenenter"",""1"",""3537""
","
","","","-1","","","25","10089","4598","&#9776;","elianto","#3366ff99"," ","-1","0","0","[]","0","0","1","","","","","","","",""
"pit-trial","33","728845","0.0-2.0-8.2-2.2","battery-v0.2","","""event"",""trial"",""time""
""fullscreenenter"",""1"",""3537""
""blur"",""2"",""15266""
""focus"",""2"",""27142""
""blur"",""2"",""29357""
""focus"",""2"",""35007""
""blur"",""5"",""234929""
""focus"",""5"",""236972""
""blur"",""7"",""260605""
""focus"",""7"",""281757""
","""event"",""trial"",""time""
""blur"",""2"",""15266""
""blur"",""2"",""29357""
""blur"",""5"",""234929""
""blur"",""7"",""260605""
","""event"",""trial"",""time""
""focus"",""2"",""27142""
""focus"",""2"",""35007""
""focus"",""5"",""236972""
""focus"",""7"",""281757""
","""event"",""trial"",""time""
""fullscreenenter"",""1"",""3537""
","
","","","1143.5","","","25","10089","4598","&#9776;","elianto","#3366ff99"," "," ","1","+10","[1995.1999998092651,3920.800000190735]","2","0","1","","","","","","","",""
"pit-trial","34","733121","0.0-2.0-8.2-3.2","battery-v0.2","","""event"",""trial"",""time""
""fullscreenenter"",""1"",""3537""
""blur"",""2"",""15266""
""focus"",""2"",""27142""
""blur"",""2"",""29357""
""focus"",""2"",""35007""
""blur"",""5"",""234929""
""focus"",""5"",""236972""
""blur"",""7"",""260605""
""focus"",""7"",""281757""
","""event"",""trial"",""time""
""blur"",""2"",""15266""
""blur"",""2"",""29357""
""blur"",""5"",""234929""
""blur"",""7"",""260605""
","""event"",""trial"",""time""
""focus"",""2"",""27142""
""focus"",""2"",""35007""
""focus"",""5"",""236972""
""focus"",""7"",""281757""
","""event"",""trial"",""time""
""fullscreenenter"",""1"",""3537""
","
","","","1414.5999999046326","","","25","10089","4598","&#9776;","elianto","#3366ff99"," "," ","1","0","[2267.8999996185303]","1","0","1","","","","","","","",""
"pit-trial","35","737672","0.0-2.0-8.2-4.2","battery-v0.2","","""event"",""trial"",""time""
""fullscreenenter"",""1"",""3537""
""blur"",""2"",""15266""
""focus"",""2"",""27142""
""blur"",""2"",""29357""
""focus"",""2"",""35007""
""blur"",""5"",""234929""
""focus"",""5"",""236972""
""blur"",""7"",""260605""
""focus"",""7"",""281757""
","""event"",""trial"",""time""
""blur"",""2"",""15266""
""blur"",""2"",""29357""
""blur"",""5"",""234929""
""blur"",""7"",""260605""
","""event"",""trial"",""time""
""focus"",""2"",""27142""
""focus"",""2"",""35007""
""focus"",""5"",""236972""
""focus"",""7"",""281757""
","""event"",""trial"",""time""
""fullscreenenter"",""1"",""3537""
","
","","","1687.0999999046326","","","25","10089","4598","&#9776;","elianto","#3366ff99"," "," ","1","+10","[2541.699999809265]","1","0","1","","","","","","","",""
"call-function","36","737676","0.0-2.0-9.0","battery-v0.2","","""event"",""trial"",""time""
""fullscreenenter"",""1"",""3537""
""blur"",""2"",""15266""
""focus"",""2"",""27142""
""blur"",""2"",""29357""
""focus"",""2"",""35007""
""blur"",""5"",""234929""
""focus"",""5"",""236972""
""blur"",""7"",""260605""
""focus"",""7"",""281757""
","""event"",""trial"",""time""
""blur"",""2"",""15266""
""blur"",""2"",""29357""
""blur"",""5"",""234929""
""blur"",""7"",""260605""
","""event"",""trial"",""time""
""focus"",""2"",""27142""
""focus"",""2"",""35007""
""focus"",""5"",""236972""
""focus"",""7"",""281757""
","""event"",""trial"",""time""
""fullscreenenter"",""1"",""3537""
","
","","","","","","","","","","","","","","","","","","","","","","","","","","",""
"pit-instructions","37","785880","0.0-2.0-10.0","battery-v0.2","","""event"",""trial"",""time""
""fullscreenenter"",""1"",""3537""
""blur"",""2"",""15266""
""focus"",""2"",""27142""
""blur"",""2"",""29357""
""focus"",""2"",""35007""
""blur"",""5"",""234929""
""focus"",""5"",""236972""
""blur"",""7"",""260605""
""focus"",""7"",""281757""
","""event"",""trial"",""time""
""blur"",""2"",""15266""
""blur"",""2"",""29357""
""blur"",""5"",""234929""
""blur"",""7"",""260605""
","""event"",""trial"",""time""
""focus"",""2"",""27142""
""focus"",""2"",""35007""
""focus"",""5"",""236972""
""focus"",""7"",""281757""
","""event"",""trial"",""time""
""fullscreenenter"",""1"",""3537""
","
","","[{""page_index"":0,""viewing_time"":8714.800000190735},{""page_index"":1,""viewing_time"":9630.199999809265},{""page_index"":2,""viewing_time"":11701.700000286102},{""page_index"":3,""viewing_time"":8169.799999713898},{""page_index"":4,""viewing_time"":9985}]","48202.09999990463","","","","","","","","","","","","","","","","","","","","","","","",""
"pit-trial","38","790751","0.0-2.0-11.0-0.0","battery-v0.2","","""event"",""trial"",""time""
""fullscreenenter"",""1"",""3537""
""blur"",""2"",""15266""
""focus"",""2"",""27142""
""blur"",""2"",""29357""
""focus"",""2"",""35007""
""blur"",""5"",""234929""
""focus"",""5"",""236972""
""blur"",""7"",""260605""
""focus"",""7"",""281757""
","""event"",""trial"",""time""
""blur"",""2"",""15266""
""blur"",""2"",""29357""
""blur"",""5"",""234929""
""blur"",""7"",""260605""
","""event"",""trial"",""time""
""focus"",""2"",""27142""
""focus"",""2"",""35007""
""focus"",""5"",""236972""
""focus"",""7"",""281757""
","""event"",""trial"",""time""
""fullscreenenter"",""1"",""3537""
","
","","","-1","","","25","10089","4598","&#9761;","elianto","#3366ff99","-1","-1","1","+10","[]","0","0","2","","","","","","","",""
"pit-trial","39","794415","0.0-2.0-11.0-1.0","battery-v0.2","","""event"",""trial"",""time""
""fullscreenenter"",""1"",""3537""
""blur"",""2"",""15266""
""focus"",""2"",""27142""
""blur"",""2"",""29357""
""focus"",""2"",""35007""
""blur"",""5"",""234929""
""focus"",""5"",""236972""
""blur"",""7"",""260605""
""focus"",""7"",""281757""
","""event"",""trial"",""time""
""blur"",""2"",""15266""
""blur"",""2"",""29357""
""blur"",""5"",""234929""
""blur"",""7"",""260605""
","""event"",""trial"",""time""
""focus"",""2"",""27142""
""focus"",""2"",""35007""
""focus"",""5"",""236972""
""focus"",""7"",""281757""
","""event"",""trial"",""time""
""fullscreenenter"",""1"",""3537""
","
","","","794.5999999046326","","","25","10089","4598","&#9761;","elianto","#3366ff99","-1"," ","0","0","[1652.6999998092651]","1","0","2","","","","","","","",""
"pit-trial","40","797774","0.0-2.0-11.0-2.0","battery-v0.2","","""event"",""trial"",""time""
""fullscreenenter"",""1"",""3537""
""blur"",""2"",""15266""
""focus"",""2"",""27142""
""blur"",""2"",""29357""
""focus"",""2"",""35007""
""blur"",""5"",""234929""
""focus"",""5"",""236972""
""blur"",""7"",""260605""
""focus"",""7"",""281757""
","""event"",""trial"",""time""
""blur"",""2"",""15266""
""blur"",""2"",""29357""
""blur"",""5"",""234929""
""blur"",""7"",""260605""
","""event"",""trial"",""time""
""focus"",""2"",""27142""
""focus"",""2"",""35007""
""focus"",""5"",""236972""
""focus"",""7"",""281757""
","""event"",""trial"",""time""
""fullscreenenter"",""1"",""3537""
","
","","","500.09999990463257","","","25","10089","4598","&#9761;","elianto","#3366ff99","-1"," ","0","0","[1352.7000002861023]","1","0","2","","","","","","","",""
"pit-trial","41","802640","0.0-2.0-11.0-3.0","battery-v0.2","","""event"",""trial"",""time""
""fullscreenenter"",""1"",""3537""
""blur"",""2"",""15266""
""focus"",""2"",""27142""
""blur"",""2"",""29357""
""focus"",""2"",""35007""
""blur"",""5"",""234929""
""focus"",""5"",""236972""
""blur"",""7"",""260605""
""focus"",""7"",""281757""
","""event"",""trial"",""time""
""blur"",""2"",""15266""
""blur"",""2"",""29357""
""blur"",""5"",""234929""
""blur"",""7"",""260605""
","""event"",""trial"",""time""
""focus"",""2"",""27142""
""focus"",""2"",""35007""
""focus"",""5"",""236972""
""focus"",""7"",""281757""
","""event"",""trial"",""time""
""fullscreenenter"",""1"",""3537""
","
","","","-1","","","25","10089","4598","&#9761;","elianto","#3366ff99","-1","-1","1","0","[]","0","0","2","","","","","","","",""
"pit-trial","42","807516","0.0-2.0-11.0-4.0","battery-v0.2","","""event"",""trial"",""time""
""fullscreenenter"",""1"",""3537""
""blur"",""2"",""15266""
""focus"",""2"",""27142""
""blur"",""2"",""29357""
""focus"",""2"",""35007""
""blur"",""5"",""234929""
""focus"",""5"",""236972""
""blur"",""7"",""260605""
""focus"",""7"",""281757""
","""event"",""trial"",""time""
""blur"",""2"",""15266""
""blur"",""2"",""29357""
""blur"",""5"",""234929""
""blur"",""7"",""260605""
","""event"",""trial"",""time""
""focus"",""2"",""27142""
""focus"",""2"",""35007""
""focus"",""5"",""236972""
""focus"",""7"",""281757""
","""event"",""trial"",""time""
""fullscreenenter"",""1"",""3537""
","
","","","-1","","","25","10089","4598","&#9761;","elianto","#3366ff99","-1","-1","1","+10","[]","0","0","2","","","","","","","",""
"pit-trial","43","812385","0.0-2.0-11.1-0.1","battery-v0.2","","""event"",""trial"",""time""
""fullscreenenter"",""1"",""3537""
""blur"",""2"",""15266""
""focus"",""2"",""27142""
""blur"",""2"",""29357""
""focus"",""2"",""35007""
""blur"",""5"",""234929""
""focus"",""5"",""236972""
""blur"",""7"",""260605""
""focus"",""7"",""281757""
","""event"",""trial"",""time""
""blur"",""2"",""15266""
""blur"",""2"",""29357""
""blur"",""5"",""234929""
""blur"",""7"",""260605""
","""event"",""trial"",""time""
""focus"",""2"",""27142""
""focus"",""2"",""35007""
""focus"",""5"",""236972""
""focus"",""7"",""281757""
","""event"",""trial"",""time""
""fullscreenenter"",""1"",""3537""
","
","","","-1","","","25","10089","4598","&#9761;","elianto","#3366ff99","-1","-1","1","+10","[]","0","0","2","","","","","","","",""
"pit-trial","44","817251","0.0-2.0-11.1-1.1","battery-v0.2","","""event"",""trial"",""time""
""fullscreenenter"",""1"",""3537""
""blur"",""2"",""15266""
""focus"",""2"",""27142""
""blur"",""2"",""29357""
""focus"",""2"",""35007""
""blur"",""5"",""234929""
""focus"",""5"",""236972""
""blur"",""7"",""260605""
""focus"",""7"",""281757""
","""event"",""trial"",""time""
""blur"",""2"",""15266""
""blur"",""2"",""29357""
""blur"",""5"",""234929""
""blur"",""7"",""260605""
","""event"",""trial"",""time""
""focus"",""2"",""27142""
""focus"",""2"",""35007""
""focus"",""5"",""236972""
""focus"",""7"",""281757""
","""event"",""trial"",""time""
""fullscreenenter"",""1"",""3537""
","
","","","-1","","","25","10089","4598","&#9761;","elianto","#3366ff99","-1","-1","1","+10","[]","0","0","2","","","","","","","",""
"pit-trial","45","822111","0.0-2.0-11.1-2.1","battery-v0.2","","""event"",""trial"",""time""
""fullscreenenter"",""1"",""3537""
""blur"",""2"",""15266""
""focus"",""2"",""27142""
""blur"",""2"",""29357""
""focus"",""2"",""35007""
""blur"",""5"",""234929""
""focus"",""5"",""236972""
""blur"",""7"",""260605""
""focus"",""7"",""281757""
","""event"",""trial"",""time""
""blur"",""2"",""15266""
""blur"",""2"",""29357""
""blur"",""5"",""234929""
""blur"",""7"",""260605""
","""event"",""trial"",""time""
""focus"",""2"",""27142""
""focus"",""2"",""35007""
""focus"",""5"",""236972""
""focus"",""7"",""281757""
","""event"",""trial"",""time""
""fullscreenenter"",""1"",""3537""
","
","","","-1","","","25","10089","4598","&#9761;","elianto","#3366ff99","-1","-1","1","+10","[48.40000009536743]","1","0","2","","","","","","","",""
"pit-trial","46","826365","0.0-2.0-11.1-3.1","battery-v0.2","","""event"",""trial"",""time""
""fullscreenenter"",""1"",""3537""
""blur"",""2"",""15266""
""focus"",""2"",""27142""
""blur"",""2"",""29357""
""focus"",""2"",""35007""
""blur"",""5"",""234929""
""focus"",""5"",""236972""
""blur"",""7"",""260605""
""focus"",""7"",""281757""
","""event"",""trial"",""time""
""blur"",""2"",""15266""
""blur"",""2"",""29357""
""blur"",""5"",""234929""
""blur"",""7"",""260605""
","""event"",""trial"",""time""
""focus"",""2"",""27142""
""focus"",""2"",""35007""
""focus"",""5"",""236972""
""focus"",""7"",""281757""
","""event"",""trial"",""time""
""fullscreenenter"",""1"",""3537""
","
","","","1400","","","25","10089","4598","&#9761;","elianto","#3366ff99","-1"," ","0","+10","[106.2000002861023,2250.2000002861023]","2","0","2","","","","","","","",""
"pit-trial","47","831224","0.0-2.0-11.1-4.1","battery-v0.2","","""event"",""trial"",""time""
""fullscreenenter"",""1"",""3537""
""blur"",""2"",""15266""
""focus"",""2"",""27142""
""blur"",""2"",""29357""
""focus"",""2"",""35007""
""blur"",""5"",""234929""
""focus"",""5"",""236972""
""blur"",""7"",""260605""
""focus"",""7"",""281757""
","""event"",""trial"",""time""
""blur"",""2"",""15266""
""blur"",""2"",""29357""
""blur"",""5"",""234929""
""blur"",""7"",""260605""
","""event"",""trial"",""time""
""focus"",""2"",""27142""
""focus"",""2"",""35007""
""focus"",""5"",""236972""
""focus"",""7"",""281757""
","""event"",""trial"",""time""
""fullscreenenter"",""1"",""3537""
","
","","","-1","","","25","10089","4598","&#9761;","elianto","#3366ff99","-1","-1","1","+10","[]","0","0","2","","","","","","","",""
"pit-trial","48","835028","0.0-2.0-11.2-0.2","battery-v0.2","","""event"",""trial"",""time""
""fullscreenenter"",""1"",""3537""
""blur"",""2"",""15266""
""focus"",""2"",""27142""
""blur"",""2"",""29357""
""focus"",""2"",""35007""
""blur"",""5"",""234929""
""focus"",""5"",""236972""
""blur"",""7"",""260605""
""focus"",""7"",""281757""
","""event"",""trial"",""time""
""blur"",""2"",""15266""
""blur"",""2"",""29357""
""blur"",""5"",""234929""
""blur"",""7"",""260605""
","""event"",""trial"",""time""
""focus"",""2"",""27142""
""focus"",""2"",""35007""
""focus"",""5"",""236972""
""focus"",""7"",""281757""
","""event"",""trial"",""time""
""fullscreenenter"",""1"",""3537""
","
","","","938.4000000953674","","","25","10089","4598","&#9761;","elianto","#3366ff99","-1"," ","0","0","[1792.2999997138977]","1","0","2","","","","","","","",""
"pit-trial","49","839899","0.0-2.0-11.2-1.2","battery-v0.2","","""event"",""trial"",""time""
""fullscreenenter"",""1"",""3537""
""blur"",""2"",""15266""
""focus"",""2"",""27142""
""blur"",""2"",""29357""
""focus"",""2"",""35007""
""blur"",""5"",""234929""
""focus"",""5"",""236972""
""blur"",""7"",""260605""
""focus"",""7"",""281757""
","""event"",""trial"",""time""
""blur"",""2"",""15266""
""blur"",""2"",""29357""
""blur"",""5"",""234929""
""blur"",""7"",""260605""
","""event"",""trial"",""time""
""focus"",""2"",""27142""
""focus"",""2"",""35007""
""focus"",""5"",""236972""
""focus"",""7"",""281757""
","""event"",""trial"",""time""
""fullscreenenter"",""1"",""3537""
","
","","","-1","","","25","10089","4598","&#9761;","elianto","#3366ff99","-1","-1","1","+10","[]","0","0","2","","","","","","","",""
"pit-trial","50","844763","0.0-2.0-11.2-2.2","battery-v0.2","","""event"",""trial"",""time""
""fullscreenenter"",""1"",""3537""
""blur"",""2"",""15266""
""focus"",""2"",""27142""
""blur"",""2"",""29357""
""focus"",""2"",""35007""
""blur"",""5"",""234929""
""focus"",""5"",""236972""
""blur"",""7"",""260605""
""focus"",""7"",""281757""
","""event"",""trial"",""time""
""blur"",""2"",""15266""
""blur"",""2"",""29357""
""blur"",""5"",""234929""
""blur"",""7"",""260605""
","""event"",""trial"",""time""
""focus"",""2"",""27142""
""focus"",""2"",""35007""
""focus"",""5"",""236972""
""focus"",""7"",""281757""
","""event"",""trial"",""time""
""fullscreenenter"",""1"",""3537""
","
","","","-1","","","25","10089","4598","&#9761;","elianto","#3366ff99","-1","-1","1","+10","[2936.5]","1","0","2","","","","","","","",""
"pit-trial","51","848292","0.0-2.0-11.2-3.2","battery-v0.2","","""event"",""trial"",""time""
""fullscreenenter"",""1"",""3537""
""blur"",""2"",""15266""
""focus"",""2"",""27142""
""blur"",""2"",""29357""
""focus"",""2"",""35007""
""blur"",""5"",""234929""
""focus"",""5"",""236972""
""blur"",""7"",""260605""
""focus"",""7"",""281757""
","""event"",""trial"",""time""
""blur"",""2"",""15266""
""blur"",""2"",""29357""
""blur"",""5"",""234929""
""blur"",""7"",""260605""
","""event"",""trial"",""time""
""focus"",""2"",""27142""
""focus"",""2"",""35007""
""focus"",""5"",""236972""
""focus"",""7"",""281757""
","""event"",""trial"",""time""
""fullscreenenter"",""1"",""3537""
","
","","","667.2999997138977","","","25","10089","4598","&#9761;","elianto","#3366ff99","-1"," ","0","+10","[1517.4000000953674]","1","0","2","","","","","","","",""
"pit-trial","52","853155","0.0-2.0-11.2-4.2","battery-v0.2","","""event"",""trial"",""time""
""fullscreenenter"",""1"",""3537""
""blur"",""2"",""15266""
""focus"",""2"",""27142""
""blur"",""2"",""29357""
""focus"",""2"",""35007""
""blur"",""5"",""234929""
""focus"",""5"",""236972""
""blur"",""7"",""260605""
""focus"",""7"",""281757""
","""event"",""trial"",""time""
""blur"",""2"",""15266""
""blur"",""2"",""29357""
""blur"",""5"",""234929""
""blur"",""7"",""260605""
","""event"",""trial"",""time""
""focus"",""2"",""27142""
""focus"",""2"",""35007""
""focus"",""5"",""236972""
""focus"",""7"",""281757""
","""event"",""trial"",""time""
""fullscreenenter"",""1"",""3537""
","
","","","-1","","","25","10089","4598","&#9761;","elianto","#3366ff99","-1","-1","1","+10","[]","0","0","2","","","","","","","",""
"pit-trial","53","856634","0.0-2.0-11.3-0.3","battery-v0.2","","""event"",""trial"",""time""
""fullscreenenter"",""1"",""3537""
""blur"",""2"",""15266""
""focus"",""2"",""27142""
""blur"",""2"",""29357""
""focus"",""2"",""35007""
""blur"",""5"",""234929""
""focus"",""5"",""236972""
""blur"",""7"",""260605""
""focus"",""7"",""281757""
","""event"",""trial"",""time""
""blur"",""2"",""15266""
""blur"",""2"",""29357""
""blur"",""5"",""234929""
""blur"",""7"",""260605""
","""event"",""trial"",""time""
""focus"",""2"",""27142""
""focus"",""2"",""35007""
""focus"",""5"",""236972""
""focus"",""7"",""281757""
","""event"",""trial"",""time""
""fullscreenenter"",""1"",""3537""
","
","","","610.9000000953674","","","25","10089","4598","&#9761;","elianto","#3366ff99","-1"," ","0","0","[1465.6000003814697]","1","0","2","","","","","","","",""
"pit-trial","54","861502","0.0-2.0-11.3-1.3","battery-v0.2","","""event"",""trial"",""time""
""fullscreenenter"",""1"",""3537""
""blur"",""2"",""15266""
""focus"",""2"",""27142""
""blur"",""2"",""29357""
""focus"",""2"",""35007""
""blur"",""5"",""234929""
""focus"",""5"",""236972""
""blur"",""7"",""260605""
""focus"",""7"",""281757""
","""event"",""trial"",""time""
""blur"",""2"",""15266""
""blur"",""2"",""29357""
""blur"",""5"",""234929""
""blur"",""7"",""260605""
","""event"",""trial"",""time""
""focus"",""2"",""27142""
""focus"",""2"",""35007""
""focus"",""5"",""236972""
""focus"",""7"",""281757""
","""event"",""trial"",""time""
""fullscreenenter"",""1"",""3537""
","
","","","-1","","","25","10089","4598","&#9761;","elianto","#3366ff99","-1","-1","1","+10","[]","0","0","2","","","","","","","",""
"pit-trial","55","866367","0.0-2.0-11.3-2.3","battery-v0.2","","""event"",""trial"",""time""
""fullscreenenter"",""1"",""3537""
""blur"",""2"",""15266""
""focus"",""2"",""27142""
""blur"",""2"",""29357""
""focus"",""2"",""35007""
""blur"",""5"",""234929""
""focus"",""5"",""236972""
""blur"",""7"",""260605""
""focus"",""7"",""281757""
","""event"",""trial"",""time""
""blur"",""2"",""15266""
""blur"",""2"",""29357""
""blur"",""5"",""234929""
""blur"",""7"",""260605""
","""event"",""trial"",""time""
""focus"",""2"",""27142""
""focus"",""2"",""35007""
""focus"",""5"",""236972""
""focus"",""7"",""281757""
","""event"",""trial"",""time""
""fullscreenenter"",""1"",""3537""
","
","","","-1","","","25","10089","4598","&#9761;","elianto","#3366ff99","-1","-1","1","+10","[]","0","0","2","","","","","","","",""
"pit-trial","56","871227","0.0-2.0-11.3-3.3","battery-v0.2","","""event"",""trial"",""time""
""fullscreenenter"",""1"",""3537""
""blur"",""2"",""15266""
""focus"",""2"",""27142""
""blur"",""2"",""29357""
""focus"",""2"",""35007""
""blur"",""5"",""234929""
""focus"",""5"",""236972""
""blur"",""7"",""260605""
""focus"",""7"",""281757""
","""event"",""trial"",""time""
""blur"",""2"",""15266""
""blur"",""2"",""29357""
""blur"",""5"",""234929""
""blur"",""7"",""260605""
","""event"",""trial"",""time""
""focus"",""2"",""27142""
""focus"",""2"",""35007""
""focus"",""5"",""236972""
""focus"",""7"",""281757""
","""event"",""trial"",""time""
""fullscreenenter"",""1"",""3537""
","
","","","-1","","","25","10089","4598","&#9761;","elianto","#3366ff99","-1","-1","1","0","[]","0","0","2","","","","","","","",""
"pit-trial","57","875300","0.0-2.0-11.3-4.3","battery-v0.2","","""event"",""trial"",""time""
""fullscreenenter"",""1"",""3537""
""blur"",""2"",""15266""
""focus"",""2"",""27142""
""blur"",""2"",""29357""
""focus"",""2"",""35007""
""blur"",""5"",""234929""
""focus"",""5"",""236972""
""blur"",""7"",""260605""
""focus"",""7"",""281757""
","""event"",""trial"",""time""
""blur"",""2"",""15266""
""blur"",""2"",""29357""
""blur"",""5"",""234929""
""blur"",""7"",""260605""
","""event"",""trial"",""time""
""focus"",""2"",""27142""
""focus"",""2"",""35007""
""focus"",""5"",""236972""
""focus"",""7"",""281757""
","""event"",""trial"",""time""
""fullscreenenter"",""1"",""3537""
","
","","","1210.7000002861023","","","25","10089","4598","&#9761;","elianto","#3366ff99","-1"," ","0","0","[2062.0999999046326]","1","0","2","","","","","","","",""
"call-function","58","875303","0.0-2.0-12.0","battery-v0.2","","""event"",""trial"",""time""
""fullscreenenter"",""1"",""3537""
""blur"",""2"",""15266""
""focus"",""2"",""27142""
""blur"",""2"",""29357""
""focus"",""2"",""35007""
""blur"",""5"",""234929""
""focus"",""5"",""236972""
""blur"",""7"",""260605""
""focus"",""7"",""281757""
","""event"",""trial"",""time""
""blur"",""2"",""15266""
""blur"",""2"",""29357""
""blur"",""5"",""234929""
""blur"",""7"",""260605""
","""event"",""trial"",""time""
""focus"",""2"",""27142""
""focus"",""2"",""35007""
""focus"",""5"",""236972""
""focus"",""7"",""281757""
","""event"",""trial"",""time""
""fullscreenenter"",""1"",""3537""
","
","","","","","","","","","","","","","","","","","","","","","","","","","","",""
"pit-instructions","59","917520","0.0-2.0-13.0","battery-v0.2","","""event"",""trial"",""time""
""fullscreenenter"",""1"",""3537""
""blur"",""2"",""15266""
""focus"",""2"",""27142""
""blur"",""2"",""29357""
""focus"",""2"",""35007""
""blur"",""5"",""234929""
""focus"",""5"",""236972""
""blur"",""7"",""260605""
""focus"",""7"",""281757""
","""event"",""trial"",""time""
""blur"",""2"",""15266""
""blur"",""2"",""29357""
""blur"",""5"",""234929""
""blur"",""7"",""260605""
","""event"",""trial"",""time""
""focus"",""2"",""27142""
""focus"",""2"",""35007""
""focus"",""5"",""236972""
""focus"",""7"",""281757""
","""event"",""trial"",""time""
""fullscreenenter"",""1"",""3537""
","
","","[{""page_index"":0,""viewing_time"":16350.099999904633},{""page_index"":1,""viewing_time"":6221.400000095367},{""page_index"":2,""viewing_time"":4670.89999961853},{""page_index"":3,""viewing_time"":10638.60000038147},{""page_index"":4,""viewing_time"":4334.199999809265}]","42215.89999961853","","","","","","","","","","","","","","","","","","","","","","","",""
"pit-trial","60","921535","0.0-2.0-14.0-0.0","battery-v0.2","","""event"",""trial"",""time""
""fullscreenenter"",""1"",""3537""
""blur"",""2"",""15266""
""focus"",""2"",""27142""
""blur"",""2"",""29357""
""focus"",""2"",""35007""
""blur"",""5"",""234929""
""focus"",""5"",""236972""
""blur"",""7"",""260605""
""focus"",""7"",""281757""
","""event"",""trial"",""time""
""blur"",""2"",""15266""
""blur"",""2"",""29357""
""blur"",""5"",""234929""
""blur"",""7"",""260605""
","""event"",""trial"",""time""
""focus"",""2"",""27142""
""focus"",""2"",""35007""
""focus"",""5"",""236972""
""focus"",""7"",""281757""
","""event"",""trial"",""time""
""fullscreenenter"",""1"",""3537""
","
","","","1138.5999999046326","","","25","10089","4598","&#9826;","elianto","#f73b6a7A","-1"," ","0","-10","[1996.8000001907349]","1","0","3","","","","","","","",""
"pit-trial","61","926413","0.0-2.0-14.0-1.0","battery-v0.2","","""event"",""trial"",""time""
""fullscreenenter"",""1"",""3537""
""blur"",""2"",""15266""
""focus"",""2"",""27142""
""blur"",""2"",""29357""
""focus"",""2"",""35007""
""blur"",""5"",""234929""
""focus"",""5"",""236972""
""blur"",""7"",""260605""
""focus"",""7"",""281757""
","""event"",""trial"",""time""
""blur"",""2"",""15266""
""blur"",""2"",""29357""
""blur"",""5"",""234929""
""blur"",""7"",""260605""
","""event"",""trial"",""time""
""focus"",""2"",""27142""
""focus"",""2"",""35007""
""focus"",""5"",""236972""
""focus"",""7"",""281757""
","""event"",""trial"",""time""
""fullscreenenter"",""1"",""3537""
","
","","","-1","","","25","10089","4598","&#9826;","elianto","#f73b6a7A","-1","-1","1","0","[]","0","0","3","","","","","","","",""
"pit-trial","62","931286","0.0-2.0-14.0-2.0","battery-v0.2","","""event"",""trial"",""time""
""fullscreenenter"",""1"",""3537""
""blur"",""2"",""15266""
""focus"",""2"",""27142""
""blur"",""2"",""29357""
""focus"",""2"",""35007""
""blur"",""5"",""234929""
""focus"",""5"",""236972""
""blur"",""7"",""260605""
""focus"",""7"",""281757""
","""event"",""trial"",""time""
""blur"",""2"",""15266""
""blur"",""2"",""29357""
""blur"",""5"",""234929""
""blur"",""7"",""260605""
","""event"",""trial"",""time""
""focus"",""2"",""27142""
""focus"",""2"",""35007""
""focus"",""5"",""236972""
""focus"",""7"",""281757""
","""event"",""trial"",""time""
""fullscreenenter"",""1"",""3537""
","
","","","-1","","","25","10089","4598","&#9826;","elianto","#f73b6a7A","-1","-1","1","0","[]","0","0","3","","","","","","","",""
"pit-trial","63","936153","0.0-2.0-14.0-3.0","battery-v0.2","","""event"",""trial"",""time""
""fullscreenenter"",""1"",""3537""
""blur"",""2"",""15266""
""focus"",""2"",""27142""
""blur"",""2"",""29357""
""focus"",""2"",""35007""
""blur"",""5"",""234929""
""focus"",""5"",""236972""
""blur"",""7"",""260605""
""focus"",""7"",""281757""
","""event"",""trial"",""time""
""blur"",""2"",""15266""
""blur"",""2"",""29357""
""blur"",""5"",""234929""
""blur"",""7"",""260605""
","""event"",""trial"",""time""
""focus"",""2"",""27142""
""focus"",""2"",""35007""
""focus"",""5"",""236972""
""focus"",""7"",""281757""
","""event"",""trial"",""time""
""fullscreenenter"",""1"",""3537""
","
","","","-1","","","25","10089","4598","&#9826;","elianto","#f73b6a7A","-1","-1","1","-10","[]","0","0","3","","","","","","","",""
"pit-trial","64","941036","0.0-2.0-14.0-4.0","battery-v0.2","","""event"",""trial"",""time""
""fullscreenenter"",""1"",""3537""
""blur"",""2"",""15266""
""focus"",""2"",""27142""
""blur"",""2"",""29357""
""focus"",""2"",""35007""
""blur"",""5"",""234929""
""focus"",""5"",""236972""
""blur"",""7"",""260605""
""focus"",""7"",""281757""
","""event"",""trial"",""time""
""blur"",""2"",""15266""
""blur"",""2"",""29357""
""blur"",""5"",""234929""
""blur"",""7"",""260605""
","""event"",""trial"",""time""
""focus"",""2"",""27142""
""focus"",""2"",""35007""
""focus"",""5"",""236972""
""focus"",""7"",""281757""
","""event"",""trial"",""time""
""fullscreenenter"",""1"",""3537""
","
","","","-1","","","25","10089","4598","&#9826;","elianto","#f73b6a7A","-1","-1","1","0","[]","0","0","3","","","","","","","",""
"pit-trial","65","945914","0.0-2.0-14.1-0.1","battery-v0.2","","""event"",""trial"",""time""
""fullscreenenter"",""1"",""3537""
""blur"",""2"",""15266""
""focus"",""2"",""27142""
""blur"",""2"",""29357""
""focus"",""2"",""35007""
""blur"",""5"",""234929""
""focus"",""5"",""236972""
""blur"",""7"",""260605""
""focus"",""7"",""281757""
","""event"",""trial"",""time""
""blur"",""2"",""15266""
""blur"",""2"",""29357""
""blur"",""5"",""234929""
""blur"",""7"",""260605""
","""event"",""trial"",""time""
""focus"",""2"",""27142""
""focus"",""2"",""35007""
""focus"",""5"",""236972""
""focus"",""7"",""281757""
","""event"",""trial"",""time""
""fullscreenenter"",""1"",""3537""
","
","","","-1","","","25","10089","4598","&#9826;","elianto","#f73b6a7A","-1","-1","1","0","[]","0","0","3","","","","","","","",""
"pit-trial","66","950775","0.0-2.0-14.1-1.1","battery-v0.2","","""event"",""trial"",""time""
""fullscreenenter"",""1"",""3537""
""blur"",""2"",""15266""
""focus"",""2"",""27142""
""blur"",""2"",""29357""
""focus"",""2"",""35007""
""blur"",""5"",""234929""
""focus"",""5"",""236972""
""blur"",""7"",""260605""
""focus"",""7"",""281757""
","""event"",""trial"",""time""
""blur"",""2"",""15266""
""blur"",""2"",""29357""
""blur"",""5"",""234929""
""blur"",""7"",""260605""
","""event"",""trial"",""time""
""focus"",""2"",""27142""
""focus"",""2"",""35007""
""focus"",""5"",""236972""
""focus"",""7"",""281757""
","""event"",""trial"",""time""
""fullscreenenter"",""1"",""3537""
","
","","","-1","","","25","10089","4598","&#9826;","elianto","#f73b6a7A","-1","-1","1","0","[]","0","0","3","","","","","","","",""
"pit-trial","67","955638","0.0-2.0-14.1-2.1","battery-v0.2","","""event"",""trial"",""time""
""fullscreenenter"",""1"",""3537""
""blur"",""2"",""15266""
""focus"",""2"",""27142""
""blur"",""2"",""29357""
""focus"",""2"",""35007""
""blur"",""5"",""234929""
""focus"",""5"",""236972""
""blur"",""7"",""260605""
""focus"",""7"",""281757""
","""event"",""trial"",""time""
""blur"",""2"",""15266""
""blur"",""2"",""29357""
""blur"",""5"",""234929""
""blur"",""7"",""260605""
","""event"",""trial"",""time""
""focus"",""2"",""27142""
""focus"",""2"",""35007""
""focus"",""5"",""236972""
""focus"",""7"",""281757""
","""event"",""trial"",""time""
""fullscreenenter"",""1"",""3537""
","
","","","-1","","","25","10089","4598","&#9826;","elianto","#f73b6a7A","-1","-1","1","0","[]","0","0","3","","","","","","","",""
"pit-trial","68","960513","0.0-2.0-14.1-3.1","battery-v0.2","","""event"",""trial"",""time""
""fullscreenenter"",""1"",""3537""
""blur"",""2"",""15266""
""focus"",""2"",""27142""
""blur"",""2"",""29357""
""focus"",""2"",""35007""
""blur"",""5"",""234929""
""focus"",""5"",""236972""
""blur"",""7"",""260605""
""focus"",""7"",""281757""
","""event"",""trial"",""time""
""blur"",""2"",""15266""
""blur"",""2"",""29357""
""blur"",""5"",""234929""
""blur"",""7"",""260605""
","""event"",""trial"",""time""
""focus"",""2"",""27142""
""focus"",""2"",""35007""
""focus"",""5"",""236972""
""focus"",""7"",""281757""
","""event"",""trial"",""time""
""fullscreenenter"",""1"",""3537""
","
","","","-1","","","25","10089","4598","&#9826;","elianto","#f73b6a7A","-1","-1","1","-10","[]","0","0","3","","","","","","","",""
"pit-trial","69","965387","0.0-2.0-14.1-4.1","battery-v0.2","","""event"",""trial"",""time""
""fullscreenenter"",""1"",""3537""
""blur"",""2"",""15266""
""focus"",""2"",""27142""
""blur"",""2"",""29357""
""focus"",""2"",""35007""
""blur"",""5"",""234929""
""focus"",""5"",""236972""
""blur"",""7"",""260605""
""focus"",""7"",""281757""
","""event"",""trial"",""time""
""blur"",""2"",""15266""
""blur"",""2"",""29357""
""blur"",""5"",""234929""
""blur"",""7"",""260605""
","""event"",""trial"",""time""
""focus"",""2"",""27142""
""focus"",""2"",""35007""
""focus"",""5"",""236972""
""focus"",""7"",""281757""
","""event"",""trial"",""time""
""fullscreenenter"",""1"",""3537""
","
","","","-1","","","25","10089","4598","&#9826;","elianto","#f73b6a7A","-1","-1","1","0","[]","0","0","3","","","","","","","",""
"pit-trial","70","970247","0.0-2.0-14.2-0.2","battery-v0.2","","""event"",""trial"",""time""
""fullscreenenter"",""1"",""3537""
""blur"",""2"",""15266""
""focus"",""2"",""27142""
""blur"",""2"",""29357""
""focus"",""2"",""35007""
""blur"",""5"",""234929""
""focus"",""5"",""236972""
""blur"",""7"",""260605""
""focus"",""7"",""281757""
","""event"",""trial"",""time""
""blur"",""2"",""15266""
""blur"",""2"",""29357""
""blur"",""5"",""234929""
""blur"",""7"",""260605""
","""event"",""trial"",""time""
""focus"",""2"",""27142""
""focus"",""2"",""35007""
""focus"",""5"",""236972""
""focus"",""7"",""281757""
","""event"",""trial"",""time""
""fullscreenenter"",""1"",""3537""
","
","","","-1","","","25","10089","4598","&#9826;","elianto","#f73b6a7A","-1","-1","1","0","[]","0","0","3","","","","","","","",""
"pit-trial","71","973671","0.0-2.0-14.2-1.2","battery-v0.2","","""event"",""trial"",""time""
""fullscreenenter"",""1"",""3537""
""blur"",""2"",""15266""
""focus"",""2"",""27142""
""blur"",""2"",""29357""
""focus"",""2"",""35007""
""blur"",""5"",""234929""
""focus"",""5"",""236972""
""blur"",""7"",""260605""
""focus"",""7"",""281757""
","""event"",""trial"",""time""
""blur"",""2"",""15266""
""blur"",""2"",""29357""
""blur"",""5"",""234929""
""blur"",""7"",""260605""
","""event"",""trial"",""time""
""focus"",""2"",""27142""
""focus"",""2"",""35007""
""focus"",""5"",""236972""
""focus"",""7"",""281757""
","""event"",""trial"",""time""
""fullscreenenter"",""1"",""3537""
","
","","","554","","","25","10089","4598","&#9826;","elianto","#f73b6a7A","-1"," ","0","-10","[1405.5999999046326]","1","0","3","","","","","","","",""
"pit-trial","72","978535","0.0-2.0-14.2-2.2","battery-v0.2","","""event"",""trial"",""time""
""fullscreenenter"",""1"",""3537""
""blur"",""2"",""15266""
""focus"",""2"",""27142""
""blur"",""2"",""29357""
""focus"",""2"",""35007""
""blur"",""5"",""234929""
""focus"",""5"",""236972""
""blur"",""7"",""260605""
""focus"",""7"",""281757""
","""event"",""trial"",""time""
""blur"",""2"",""15266""
""blur"",""2"",""29357""
""blur"",""5"",""234929""
""blur"",""7"",""260605""
","""event"",""trial"",""time""
""focus"",""2"",""27142""
""focus"",""2"",""35007""
""focus"",""5"",""236972""
""focus"",""7"",""281757""
","""event"",""trial"",""time""
""fullscreenenter"",""1"",""3537""
","
","","","-1","","","25","10089","4598","&#9826;","elianto","#f73b6a7A","-1","-1","1","0","[]","0","0","3","","","","","","","",""
"pit-trial","73","982442","0.0-2.0-14.2-3.2","battery-v0.2","","""event"",""trial"",""time""
""fullscreenenter"",""1"",""3537""
""blur"",""2"",""15266""
""focus"",""2"",""27142""
""blur"",""2"",""29357""
""focus"",""2"",""35007""
""blur"",""5"",""234929""
""focus"",""5"",""236972""
""blur"",""7"",""260605""
""focus"",""7"",""281757""
","""event"",""trial"",""time""
""blur"",""2"",""15266""
""blur"",""2"",""29357""
""blur"",""5"",""234929""
""blur"",""7"",""260605""
","""event"",""trial"",""time""
""focus"",""2"",""27142""
""focus"",""2"",""35007""
""focus"",""5"",""236972""
""focus"",""7"",""281757""
","""event"",""trial"",""time""
""fullscreenenter"",""1"",""3537""
","
","","","1050.9000000953674","","","25","10089","4598","&#9826;","elianto","#f73b6a7A","-1"," ","0","0","[1902.7000002861023]","1","0","3","","","","","","","",""
"pit-trial","74","987303","0.0-2.0-14.2-4.2","battery-v0.2","","""event"",""trial"",""time""
""fullscreenenter"",""1"",""3537""
""blur"",""2"",""15266""
""focus"",""2"",""27142""
""blur"",""2"",""29357""
""focus"",""2"",""35007""
""blur"",""5"",""234929""
""focus"",""5"",""236972""
""blur"",""7"",""260605""
""focus"",""7"",""281757""
","""event"",""trial"",""time""
""blur"",""2"",""15266""
""blur"",""2"",""29357""
""blur"",""5"",""234929""
""blur"",""7"",""260605""
","""event"",""trial"",""time""
""focus"",""2"",""27142""
""focus"",""2"",""35007""
""focus"",""5"",""236972""
""focus"",""7"",""281757""
","""event"",""trial"",""time""
""fullscreenenter"",""1"",""3537""
","
","","","-1","","","25","10089","4598","&#9826;","elianto","#f73b6a7A","-1","-1","1","0","[]","0","0","3","","","","","","","",""
"pit-trial","75","992172","0.0-2.0-14.3-0.3","battery-v0.2","","""event"",""trial"",""time""
""fullscreenenter"",""1"",""3537""
""blur"",""2"",""15266""
""focus"",""2"",""27142""
""blur"",""2"",""29357""
""focus"",""2"",""35007""
""blur"",""5"",""234929""
""focus"",""5"",""236972""
""blur"",""7"",""260605""
""focus"",""7"",""281757""
","""event"",""trial"",""time""
""blur"",""2"",""15266""
""blur"",""2"",""29357""
""blur"",""5"",""234929""
""blur"",""7"",""260605""
","""event"",""trial"",""time""
""focus"",""2"",""27142""
""focus"",""2"",""35007""
""focus"",""5"",""236972""
""focus"",""7"",""281757""
","""event"",""trial"",""time""
""fullscreenenter"",""1"",""3537""
","
","","","-1","","","25","10089","4598","&#9826;","elianto","#f73b6a7A","-1","-1","1","0","[]","0","0","3","","","","","","","",""
"pit-trial","76","997030","0.0-2.0-14.3-1.3","battery-v0.2","","""event"",""trial"",""time""
""fullscreenenter"",""1"",""3537""
""blur"",""2"",""15266""
""focus"",""2"",""27142""
""blur"",""2"",""29357""
""focus"",""2"",""35007""
""blur"",""5"",""234929""
""focus"",""5"",""236972""
""blur"",""7"",""260605""
""focus"",""7"",""281757""
","""event"",""trial"",""time""
""blur"",""2"",""15266""
""blur"",""2"",""29357""
""blur"",""5"",""234929""
""blur"",""7"",""260605""
","""event"",""trial"",""time""
""focus"",""2"",""27142""
""focus"",""2"",""35007""
""focus"",""5"",""236972""
""focus"",""7"",""281757""
","""event"",""trial"",""time""
""fullscreenenter"",""1"",""3537""
","
","","","-1","","","25","10089","4598","&#9826;","elianto","#f73b6a7A","-1","-1","1","0","[]","0","0","3","","","","","","","",""
"pit-trial","77","1001911","0.0-2.0-14.3-2.3","battery-v0.2","","""event"",""trial"",""time""
""fullscreenenter"",""1"",""3537""
""blur"",""2"",""15266""
""focus"",""2"",""27142""
""blur"",""2"",""29357""
""focus"",""2"",""35007""
""blur"",""5"",""234929""
""focus"",""5"",""236972""
""blur"",""7"",""260605""
""focus"",""7"",""281757""
","""event"",""trial"",""time""
""blur"",""2"",""15266""
""blur"",""2"",""29357""
""blur"",""5"",""234929""
""blur"",""7"",""260605""
","""event"",""trial"",""time""
""focus"",""2"",""27142""
""focus"",""2"",""35007""
""focus"",""5"",""236972""
""focus"",""7"",""281757""
","""event"",""trial"",""time""
""fullscreenenter"",""1"",""3537""
","
","","","-1","","","25","10089","4598","&#9826;","elianto","#f73b6a7A","-1","-1","1","0","[]","0","0","3","","","","","","","",""
"pit-trial","78","1006772","0.0-2.0-14.3-3.3","battery-v0.2","","""event"",""trial"",""time""
""fullscreenenter"",""1"",""3537""
""blur"",""2"",""15266""
""focus"",""2"",""27142""
""blur"",""2"",""29357""
""focus"",""2"",""35007""
""blur"",""5"",""234929""
""focus"",""5"",""236972""
""blur"",""7"",""260605""
""focus"",""7"",""281757""
","""event"",""trial"",""time""
""blur"",""2"",""15266""
""blur"",""2"",""29357""
""blur"",""5"",""234929""
""blur"",""7"",""260605""
","""event"",""trial"",""time""
""focus"",""2"",""27142""
""focus"",""2"",""35007""
""focus"",""5"",""236972""
""focus"",""7"",""281757""
","""event"",""trial"",""time""
""fullscreenenter"",""1"",""3537""
","
","","","-1","","","25","10089","4598","&#9826;","elianto","#f73b6a7A","-1","-1","1","-10","[]","0","0","3","","","","","","","",""
"pit-trial","79","1011636","0.0-2.0-14.3-4.3","battery-v0.2","","""event"",""trial"",""time""
""fullscreenenter"",""1"",""3537""
""blur"",""2"",""15266""
""focus"",""2"",""27142""
""blur"",""2"",""29357""
""focus"",""2"",""35007""
""blur"",""5"",""234929""
""focus"",""5"",""236972""
""blur"",""7"",""260605""
""focus"",""7"",""281757""
","""event"",""trial"",""time""
""blur"",""2"",""15266""
""blur"",""2"",""29357""
""blur"",""5"",""234929""
""blur"",""7"",""260605""
","""event"",""trial"",""time""
""focus"",""2"",""27142""
""focus"",""2"",""35007""
""focus"",""5"",""236972""
""focus"",""7"",""281757""
","""event"",""trial"",""time""
""fullscreenenter"",""1"",""3537""
","
","","","-1","","","25","10089","4598","&#9826;","elianto","#f73b6a7A","-1","-1","1","0","[]","0","0","3","","","","","","","",""
"call-function","80","1011639","0.0-2.0-15.0","battery-v0.2","","""event"",""trial"",""time""
""fullscreenenter"",""1"",""3537""
""blur"",""2"",""15266""
""focus"",""2"",""27142""
""blur"",""2"",""29357""
""focus"",""2"",""35007""
""blur"",""5"",""234929""
""focus"",""5"",""236972""
""blur"",""7"",""260605""
""focus"",""7"",""281757""
","""event"",""trial"",""time""
""blur"",""2"",""15266""
""blur"",""2"",""29357""
""blur"",""5"",""234929""
""blur"",""7"",""260605""
","""event"",""trial"",""time""
""focus"",""2"",""27142""
""focus"",""2"",""35007""
""focus"",""5"",""236972""
""focus"",""7"",""281757""
","""event"",""trial"",""time""
""fullscreenenter"",""1"",""3537""
","
","","","","","","","","","","","","","","","","","","","","","","","","","","",""
"pit-instructions","81","1040828","0.0-2.0-16.0","battery-v0.2","","""event"",""trial"",""time""
""fullscreenenter"",""1"",""3537""
""blur"",""2"",""15266""
""focus"",""2"",""27142""
""blur"",""2"",""29357""
""focus"",""2"",""35007""
""blur"",""5"",""234929""
""focus"",""5"",""236972""
""blur"",""7"",""260605""
""focus"",""7"",""281757""
","""event"",""trial"",""time""
""blur"",""2"",""15266""
""blur"",""2"",""29357""
""blur"",""5"",""234929""
""blur"",""7"",""260605""
","""event"",""trial"",""time""
""focus"",""2"",""27142""
""focus"",""2"",""35007""
""focus"",""5"",""236972""
""focus"",""7"",""281757""
","""event"",""trial"",""time""
""fullscreenenter"",""1"",""3537""
","
","","[{""page_index"":0,""viewing_time"":7531.800000190735},{""page_index"":1,""viewing_time"":11014.099999904633},{""page_index"":2,""viewing_time"":4126.599999904633},{""page_index"":3,""viewing_time"":6514.900000095367}]","29188.300000190735","","","","","","","","","","","","","","","","","","","","","","","",""
"pit-trial","82","1045406","0.0-2.0-17.0-0.0","battery-v0.2","","""event"",""trial"",""time""
""fullscreenenter"",""1"",""3537""
""blur"",""2"",""15266""
""focus"",""2"",""27142""
""blur"",""2"",""29357""
""focus"",""2"",""35007""
""blur"",""5"",""234929""
""focus"",""5"",""236972""
""blur"",""7"",""260605""
""focus"",""7"",""281757""
","""event"",""trial"",""time""
""blur"",""2"",""15266""
""blur"",""2"",""29357""
""blur"",""5"",""234929""
""blur"",""7"",""260605""
","""event"",""trial"",""time""
""focus"",""2"",""27142""
""focus"",""2"",""35007""
""focus"",""5"",""236972""
""focus"",""7"",""281757""
","""event"",""trial"",""time""
""fullscreenenter"",""1"",""3537""
","
","","","1706.0999999046326","","","25","10089","4598","&#9789;","elianto","#f73b6a7A"," "," ","1","0","[2562.1000003814697]","1","0","4","","","","","","","",""
"pit-trial","83","1050275","0.0-2.0-17.0-1.0","battery-v0.2","","""event"",""trial"",""time""
""fullscreenenter"",""1"",""3537""
""blur"",""2"",""15266""
""focus"",""2"",""27142""
""blur"",""2"",""29357""
""focus"",""2"",""35007""
""blur"",""5"",""234929""
""focus"",""5"",""236972""
""blur"",""7"",""260605""
""focus"",""7"",""281757""
","""event"",""trial"",""time""
""blur"",""2"",""15266""
""blur"",""2"",""29357""
""blur"",""5"",""234929""
""blur"",""7"",""260605""
","""event"",""trial"",""time""
""focus"",""2"",""27142""
""focus"",""2"",""35007""
""focus"",""5"",""236972""
""focus"",""7"",""281757""
","""event"",""trial"",""time""
""fullscreenenter"",""1"",""3537""
","
","","","-1","","","25","10089","4598","&#9789;","elianto","#f73b6a7A"," ","-1","0","-10","[]","0","0","4","","","","","","","",""
"pit-trial","84","1055149","0.0-2.0-17.0-2.0","battery-v0.2","","""event"",""trial"",""time""
""fullscreenenter"",""1"",""3537""
""blur"",""2"",""15266""
""focus"",""2"",""27142""
""blur"",""2"",""29357""
""focus"",""2"",""35007""
""blur"",""5"",""234929""
""focus"",""5"",""236972""
""blur"",""7"",""260605""
""focus"",""7"",""281757""
","""event"",""trial"",""time""
""blur"",""2"",""15266""
""blur"",""2"",""29357""
""blur"",""5"",""234929""
""blur"",""7"",""260605""
","""event"",""trial"",""time""
""focus"",""2"",""27142""
""focus"",""2"",""35007""
""focus"",""5"",""236972""
""focus"",""7"",""281757""
","""event"",""trial"",""time""
""fullscreenenter"",""1"",""3537""
","
","","","-1","","","25","10089","4598","&#9789;","elianto","#f73b6a7A"," ","-1","0","-10","[]","0","0","4","","","","","","","",""
"pit-trial","85","1060020","0.0-2.0-17.0-3.0","battery-v0.2","","""event"",""trial"",""time""
""fullscreenenter"",""1"",""3537""
""blur"",""2"",""15266""
""focus"",""2"",""27142""
""blur"",""2"",""29357""
""focus"",""2"",""35007""
""blur"",""5"",""234929""
""focus"",""5"",""236972""
""blur"",""7"",""260605""
""focus"",""7"",""281757""
","""event"",""trial"",""time""
""blur"",""2"",""15266""
""blur"",""2"",""29357""
""blur"",""5"",""234929""
""blur"",""7"",""260605""
","""event"",""trial"",""time""
""focus"",""2"",""27142""
""focus"",""2"",""35007""
""focus"",""5"",""236972""
""focus"",""7"",""281757""
","""event"",""trial"",""time""
""fullscreenenter"",""1"",""3537""
","
","","","-1","","","25","10089","4598","&#9789;","elianto","#f73b6a7A"," ","-1","0","0","[]","0","0","4","","","","","","","",""
"pit-trial","86","1064886","0.0-2.0-17.0-4.0","battery-v0.2","","""event"",""trial"",""time""
""fullscreenenter"",""1"",""3537""
""blur"",""2"",""15266""
""focus"",""2"",""27142""
""blur"",""2"",""29357""
""focus"",""2"",""35007""
""blur"",""5"",""234929""
""focus"",""5"",""236972""
""blur"",""7"",""260605""
""focus"",""7"",""281757""
","""event"",""trial"",""time""
""blur"",""2"",""15266""
""blur"",""2"",""29357""
""blur"",""5"",""234929""
""blur"",""7"",""260605""
","""event"",""trial"",""time""
""focus"",""2"",""27142""
""focus"",""2"",""35007""
""focus"",""5"",""236972""
""focus"",""7"",""281757""
","""event"",""trial"",""time""
""fullscreenenter"",""1"",""3537""
","
","","","-1","","","25","10089","4598","&#9789;","elianto","#f73b6a7A"," ","-1","0","-10","[]","0","0","4","","","","","","","",""
"pit-trial","87","1069758","0.0-2.0-17.1-0.1","battery-v0.2","","""event"",""trial"",""time""
""fullscreenenter"",""1"",""3537""
""blur"",""2"",""15266""
""focus"",""2"",""27142""
""blur"",""2"",""29357""
""focus"",""2"",""35007""
""blur"",""5"",""234929""
""focus"",""5"",""236972""
""blur"",""7"",""260605""
""focus"",""7"",""281757""
","""event"",""trial"",""time""
""blur"",""2"",""15266""
""blur"",""2"",""29357""
""blur"",""5"",""234929""
""blur"",""7"",""260605""
","""event"",""trial"",""time""
""focus"",""2"",""27142""
""focus"",""2"",""35007""
""focus"",""5"",""236972""
""focus"",""7"",""281757""
","""event"",""trial"",""time""
""fullscreenenter"",""1"",""3537""
","
","","","-1","","","25","10089","4598","&#9789;","elianto","#f73b6a7A"," ","-1","0","-10","[]","0","0","4","","","","","","","",""
"pit-trial","88","1074628","0.0-2.0-17.1-1.1","battery-v0.2","","""event"",""trial"",""time""
""fullscreenenter"",""1"",""3537""
""blur"",""2"",""15266""
""focus"",""2"",""27142""
""blur"",""2"",""29357""
""focus"",""2"",""35007""
""blur"",""5"",""234929""
""focus"",""5"",""236972""
""blur"",""7"",""260605""
""focus"",""7"",""281757""
","""event"",""trial"",""time""
""blur"",""2"",""15266""
""blur"",""2"",""29357""
""blur"",""5"",""234929""
""blur"",""7"",""260605""
","""event"",""trial"",""time""
""focus"",""2"",""27142""
""focus"",""2"",""35007""
""focus"",""5"",""236972""
""focus"",""7"",""281757""
","""event"",""trial"",""time""
""fullscreenenter"",""1"",""3537""
","
","","","-1","","","25","10089","4598","&#9789;","elianto","#f73b6a7A"," ","-1","0","-10","[]","0","0","4","","","","","","","",""
"pit-trial","89","1079489","0.0-2.0-17.1-2.1","battery-v0.2","","""event"",""trial"",""time""
""fullscreenenter"",""1"",""3537""
""blur"",""2"",""15266""
""focus"",""2"",""27142""
""blur"",""2"",""29357""
""focus"",""2"",""35007""
""blur"",""5"",""234929""
""focus"",""5"",""236972""
""blur"",""7"",""260605""
""focus"",""7"",""281757""
","""event"",""trial"",""time""
""blur"",""2"",""15266""
""blur"",""2"",""29357""
""blur"",""5"",""234929""
""blur"",""7"",""260605""
","""event"",""trial"",""time""
""focus"",""2"",""27142""
""focus"",""2"",""35007""
""focus"",""5"",""236972""
""focus"",""7"",""281757""
","""event"",""trial"",""time""
""fullscreenenter"",""1"",""3537""
","
","","","-1","","","25","10089","4598","&#9789;","elianto","#f73b6a7A"," ","-1","0","-10","[]","0","0","4","","","","","","","",""
"pit-trial","90","1084363","0.0-2.0-17.1-3.1","battery-v0.2","","""event"",""trial"",""time""
""fullscreenenter"",""1"",""3537""
""blur"",""2"",""15266""
""focus"",""2"",""27142""
""blur"",""2"",""29357""
""focus"",""2"",""35007""
""blur"",""5"",""234929""
""focus"",""5"",""236972""
""blur"",""7"",""260605""
""focus"",""7"",""281757""
","""event"",""trial"",""time""
""blur"",""2"",""15266""
""blur"",""2"",""29357""
""blur"",""5"",""234929""
""blur"",""7"",""260605""
","""event"",""trial"",""time""
""focus"",""2"",""27142""
""focus"",""2"",""35007""
""focus"",""5"",""236972""
""focus"",""7"",""281757""
","""event"",""trial"",""time""
""fullscreenenter"",""1"",""3537""
","
","","","-1","","","25","10089","4598","&#9789;","elianto","#f73b6a7A"," ","-1","0","0","[]","0","0","4","","","","","","","",""
"pit-trial","91","1089229","0.0-2.0-17.1-4.1","battery-v0.2","","""event"",""trial"",""time""
""fullscreenenter"",""1"",""3537""
""blur"",""2"",""15266""
""focus"",""2"",""27142""
""blur"",""2"",""29357""
""focus"",""2"",""35007""
""blur"",""5"",""234929""
""focus"",""5"",""236972""
""blur"",""7"",""260605""
""focus"",""7"",""281757""
","""event"",""trial"",""time""
""blur"",""2"",""15266""
""blur"",""2"",""29357""
""blur"",""5"",""234929""
""blur"",""7"",""260605""
","""event"",""trial"",""time""
""focus"",""2"",""27142""
""focus"",""2"",""35007""
""focus"",""5"",""236972""
""focus"",""7"",""281757""
","""event"",""trial"",""time""
""fullscreenenter"",""1"",""3537""
","
","","","-1","","","25","10089","4598","&#9789;","elianto","#f73b6a7A"," ","-1","0","-10","[]","0","0","4","","","","","","","",""
"pit-trial","92","1094098","0.0-2.0-17.2-0.2","battery-v0.2","","""event"",""trial"",""time""
""fullscreenenter"",""1"",""3537""
""blur"",""2"",""15266""
""focus"",""2"",""27142""
""blur"",""2"",""29357""
""focus"",""2"",""35007""
""blur"",""5"",""234929""
""focus"",""5"",""236972""
""blur"",""7"",""260605""
""focus"",""7"",""281757""
","""event"",""trial"",""time""
""blur"",""2"",""15266""
""blur"",""2"",""29357""
""blur"",""5"",""234929""
""blur"",""7"",""260605""
","""event"",""trial"",""time""
""focus"",""2"",""27142""
""focus"",""2"",""35007""
""focus"",""5"",""236972""
""focus"",""7"",""281757""
","""event"",""trial"",""time""
""fullscreenenter"",""1"",""3537""
","
","","","-1","","","25","10089","4598","&#9789;","elianto","#f73b6a7A"," ","-1","0","-10","[]","0","0","4","","","","","","","",""
"pit-trial","93","1098970","0.0-2.0-17.2-1.2","battery-v0.2","","""event"",""trial"",""time""
""fullscreenenter"",""1"",""3537""
""blur"",""2"",""15266""
""focus"",""2"",""27142""
""blur"",""2"",""29357""
""focus"",""2"",""35007""
""blur"",""5"",""234929""
""focus"",""5"",""236972""
""blur"",""7"",""260605""
""focus"",""7"",""281757""
","""event"",""trial"",""time""
""blur"",""2"",""15266""
""blur"",""2"",""29357""
""blur"",""5"",""234929""
""blur"",""7"",""260605""
","""event"",""trial"",""time""
""focus"",""2"",""27142""
""focus"",""2"",""35007""
""focus"",""5"",""236972""
""focus"",""7"",""281757""
","""event"",""trial"",""time""
""fullscreenenter"",""1"",""3537""
","
","","","-1","","","25","10089","4598","&#9789;","elianto","#f73b6a7A"," ","-1","0","-10","[]","0","0","4","","","","","","","",""
"pit-trial","94","1103838","0.0-2.0-17.2-2.2","battery-v0.2","","""event"",""trial"",""time""
""fullscreenenter"",""1"",""3537""
""blur"",""2"",""15266""
""focus"",""2"",""27142""
""blur"",""2"",""29357""
""focus"",""2"",""35007""
""blur"",""5"",""234929""
""focus"",""5"",""236972""
""blur"",""7"",""260605""
""focus"",""7"",""281757""
","""event"",""trial"",""time""
""blur"",""2"",""15266""
""blur"",""2"",""29357""
""blur"",""5"",""234929""
""blur"",""7"",""260605""
","""event"",""trial"",""time""
""focus"",""2"",""27142""
""focus"",""2"",""35007""
""focus"",""5"",""236972""
""focus"",""7"",""281757""
","""event"",""trial"",""time""
""fullscreenenter"",""1"",""3537""
","
","","","-1","","","25","10089","4598","&#9789;","elianto","#f73b6a7A"," ","-1","0","-10","[]","0","0","4","","","","","","","",""
"pit-trial","95","1108701","0.0-2.0-17.2-3.2","battery-v0.2","","""event"",""trial"",""time""
""fullscreenenter"",""1"",""3537""
""blur"",""2"",""15266""
""focus"",""2"",""27142""
""blur"",""2"",""29357""
""focus"",""2"",""35007""
""blur"",""5"",""234929""
""focus"",""5"",""236972""
""blur"",""7"",""260605""
""focus"",""7"",""281757""
","""event"",""trial"",""time""
""blur"",""2"",""15266""
""blur"",""2"",""29357""
""blur"",""5"",""234929""
""blur"",""7"",""260605""
","""event"",""trial"",""time""
""focus"",""2"",""27142""
""focus"",""2"",""35007""
""focus"",""5"",""236972""
""focus"",""7"",""281757""
","""event"",""trial"",""time""
""fullscreenenter"",""1"",""3537""
","
","","","-1","","","25","10089","4598","&#9789;","elianto","#f73b6a7A"," ","-1","0","0","[]","0","0","4","","","","","","","",""
"pit-trial","96","1113567","0.0-2.0-17.2-4.2","battery-v0.2","","""event"",""trial"",""time""
""fullscreenenter"",""1"",""3537""
""blur"",""2"",""15266""
""focus"",""2"",""27142""
""blur"",""2"",""29357""
""focus"",""2"",""35007""
""blur"",""5"",""234929""
""focus"",""5"",""236972""
""blur"",""7"",""260605""
""focus"",""7"",""281757""
","""event"",""trial"",""time""
""blur"",""2"",""15266""
""blur"",""2"",""29357""
""blur"",""5"",""234929""
""blur"",""7"",""260605""
","""event"",""trial"",""time""
""focus"",""2"",""27142""
""focus"",""2"",""35007""
""focus"",""5"",""236972""
""focus"",""7"",""281757""
","""event"",""trial"",""time""
""fullscreenenter"",""1"",""3537""
","
","","","-1","","","25","10089","4598","&#9789;","elianto","#f73b6a7A"," ","-1","0","-10","[]","0","0","4","","","","","","","",""
"pit-trial","97","1118434","0.0-2.0-17.3-0.3","battery-v0.2","","""event"",""trial"",""time""
""fullscreenenter"",""1"",""3537""
""blur"",""2"",""15266""
""focus"",""2"",""27142""
""blur"",""2"",""29357""
""focus"",""2"",""35007""
""blur"",""5"",""234929""
""focus"",""5"",""236972""
""blur"",""7"",""260605""
""focus"",""7"",""281757""
","""event"",""trial"",""time""
""blur"",""2"",""15266""
""blur"",""2"",""29357""
""blur"",""5"",""234929""
""blur"",""7"",""260605""
","""event"",""trial"",""time""
""focus"",""2"",""27142""
""focus"",""2"",""35007""
""focus"",""5"",""236972""
""focus"",""7"",""281757""
","""event"",""trial"",""time""
""fullscreenenter"",""1"",""3537""
","
","","","-1","","","25","10089","4598","&#9789;","elianto","#f73b6a7A"," ","-1","0","-10","[]","0","0","4","","","","","","","",""
"pit-trial","98","1123304","0.0-2.0-17.3-1.3","battery-v0.2","","""event"",""trial"",""time""
""fullscreenenter"",""1"",""3537""
""blur"",""2"",""15266""
""focus"",""2"",""27142""
""blur"",""2"",""29357""
""focus"",""2"",""35007""
""blur"",""5"",""234929""
""focus"",""5"",""236972""
""blur"",""7"",""260605""
""focus"",""7"",""281757""
","""event"",""trial"",""time""
""blur"",""2"",""15266""
""blur"",""2"",""29357""
""blur"",""5"",""234929""
""blur"",""7"",""260605""
","""event"",""trial"",""time""
""focus"",""2"",""27142""
""focus"",""2"",""35007""
""focus"",""5"",""236972""
""focus"",""7"",""281757""
","""event"",""trial"",""time""
""fullscreenenter"",""1"",""3537""
","
","","","-1","","","25","10089","4598","&#9789;","elianto","#f73b6a7A"," ","-1","0","-10","[]","0","0","4","","","","","","","",""
"pit-trial","99","1128170","0.0-2.0-17.3-2.3","battery-v0.2","","""event"",""trial"",""time""
""fullscreenenter"",""1"",""3537""
""blur"",""2"",""15266""
""focus"",""2"",""27142""
""blur"",""2"",""29357""
""focus"",""2"",""35007""
""blur"",""5"",""234929""
""focus"",""5"",""236972""
""blur"",""7"",""260605""
""focus"",""7"",""281757""
","""event"",""trial"",""time""
""blur"",""2"",""15266""
""blur"",""2"",""29357""
""blur"",""5"",""234929""
""blur"",""7"",""260605""
","""event"",""trial"",""time""
""focus"",""2"",""27142""
""focus"",""2"",""35007""
""focus"",""5"",""236972""
""focus"",""7"",""281757""
","""event"",""trial"",""time""
""fullscreenenter"",""1"",""3537""
","
","","","-1","","","25","10089","4598","&#9789;","elianto","#f73b6a7A"," ","-1","0","-10","[]","0","0","4","","","","","","","",""
"pit-trial","100","1133036","0.0-2.0-17.3-3.3","battery-v0.2","","""event"",""trial"",""time""
""fullscreenenter"",""1"",""3537""
""blur"",""2"",""15266""
""focus"",""2"",""27142""
""blur"",""2"",""29357""
""focus"",""2"",""35007""
""blur"",""5"",""234929""
""focus"",""5"",""236972""
""blur"",""7"",""260605""
""focus"",""7"",""281757""
","""event"",""trial"",""time""
""blur"",""2"",""15266""
""blur"",""2"",""29357""
""blur"",""5"",""234929""
""blur"",""7"",""260605""
","""event"",""trial"",""time""
""focus"",""2"",""27142""
""focus"",""2"",""35007""
""focus"",""5"",""236972""
""focus"",""7"",""281757""
","""event"",""trial"",""time""
""fullscreenenter"",""1"",""3537""
","
","","","-1","","","25","10089","4598","&#9789;","elianto","#f73b6a7A"," ","-1","0","0","[]","0","0","4","","","","","","","",""
"pit-trial","101","1137897","0.0-2.0-17.3-4.3","battery-v0.2","","""event"",""trial"",""time""
""fullscreenenter"",""1"",""3537""
""blur"",""2"",""15266""
""focus"",""2"",""27142""
""blur"",""2"",""29357""
""focus"",""2"",""35007""
""blur"",""5"",""234929""
""focus"",""5"",""236972""
""blur"",""7"",""260605""
""focus"",""7"",""281757""
","""event"",""trial"",""time""
""blur"",""2"",""15266""
""blur"",""2"",""29357""
""blur"",""5"",""234929""
""blur"",""7"",""260605""
","""event"",""trial"",""time""
""focus"",""2"",""27142""
""focus"",""2"",""35007""
""focus"",""5"",""236972""
""focus"",""7"",""281757""
","""event"",""trial"",""time""
""fullscreenenter"",""1"",""3537""
","
","","","-1","","","25","10089","4598","&#9789;","elianto","#f73b6a7A"," ","-1","0","-10","[]","0","0","4","","","","","","","",""
"call-function","102","1137899","0.0-2.0-18.0","battery-v0.2","","""event"",""trial"",""time""
""fullscreenenter"",""1"",""3537""
""blur"",""2"",""15266""
""focus"",""2"",""27142""
""blur"",""2"",""29357""
""focus"",""2"",""35007""
""blur"",""5"",""234929""
""focus"",""5"",""236972""
""blur"",""7"",""260605""
""focus"",""7"",""281757""
","""event"",""trial"",""time""
""blur"",""2"",""15266""
""blur"",""2"",""29357""
""blur"",""5"",""234929""
""blur"",""7"",""260605""
","""event"",""trial"",""time""
""focus"",""2"",""27142""
""focus"",""2"",""35007""
""focus"",""5"",""236972""
""focus"",""7"",""281757""
","""event"",""trial"",""time""
""fullscreenenter"",""1"",""3537""
","
","","","","","","","","","","","","","","","","","","","","","","","","","","",""
"pit-instructions","103","1211960","0.0-2.0-19.0","battery-v0.2","","""event"",""trial"",""time""
""fullscreenenter"",""1"",""3537""
""blur"",""2"",""15266""
""focus"",""2"",""27142""
""blur"",""2"",""29357""
""focus"",""2"",""35007""
""blur"",""5"",""234929""
""focus"",""5"",""236972""
""blur"",""7"",""260605""
""focus"",""7"",""281757""
","""event"",""trial"",""time""
""blur"",""2"",""15266""
""blur"",""2"",""29357""
""blur"",""5"",""234929""
""blur"",""7"",""260605""
","""event"",""trial"",""time""
""focus"",""2"",""27142""
""focus"",""2"",""35007""
""focus"",""5"",""236972""
""focus"",""7"",""281757""
","""event"",""trial"",""time""
""fullscreenenter"",""1"",""3537""
","
","","[{""page_index"":0,""viewing_time"":27668.10000038147},{""page_index"":1,""viewing_time"":4175.799999713898},{""page_index"":2,""viewing_time"":8402.099999904633},{""page_index"":3,""viewing_time"":6659.900000095367},{""page_index"":4,""viewing_time"":6390.099999904633},{""page_index"":5,""viewing_time"":8103.10000038147},{""page_index"":6,""viewing_time"":4200.39999961853},{""page_index"":7,""viewing_time"":5388.900000095367},{""page_index"":8,""viewing_time"":3069.9000000953674}]","74059","","","","","","","","","","","","","","","","","","","","","","","",""
"pit-comprehension","104","1220013","0.0-2.0-20.0-0.0","battery-v0.2","","""event"",""trial"",""time""
""fullscreenenter"",""1"",""3537""
""blur"",""2"",""15266""
""focus"",""2"",""27142""
""blur"",""2"",""29357""
""focus"",""2"",""35007""
""blur"",""5"",""234929""
""focus"",""5"",""236972""
""blur"",""7"",""260605""
""focus"",""7"",""281757""
","""event"",""trial"",""time""
""blur"",""2"",""15266""
""blur"",""2"",""29357""
""blur"",""5"",""234929""
""blur"",""7"",""260605""
","""event"",""trial"",""time""
""focus"",""2"",""27142""
""focus"",""2"",""35007""
""focus"",""5"",""236972""
""focus"",""7"",""281757""
","""event"",""trial"",""time""
""fullscreenenter"",""1"",""3537""
","
","","","8044.300000190735","[""SPACE""]","0","25","10089","4598","","","","","","","","","","","","","","","","","","",""
"pit-instructions","105","1223328","0.0-2.0-20.0-1.0","battery-v0.2","","""event"",""trial"",""time""
""fullscreenenter"",""1"",""3537""
""blur"",""2"",""15266""
""focus"",""2"",""27142""
""blur"",""2"",""29357""
""focus"",""2"",""35007""
""blur"",""5"",""234929""
""focus"",""5"",""236972""
""blur"",""7"",""260605""
""focus"",""7"",""281757""
","""event"",""trial"",""time""
""blur"",""2"",""15266""
""blur"",""2"",""29357""
""blur"",""5"",""234929""
""blur"",""7"",""260605""
","""event"",""trial"",""time""
""focus"",""2"",""27142""
""focus"",""2"",""35007""
""focus"",""5"",""236972""
""focus"",""7"",""281757""
","""event"",""trial"",""time""
""fullscreenenter"",""1"",""3537""
","
","","[{""page_index"":0,""viewing_time"":3218.9000000953674}]","3219.5999999046326","","","","","","","","","","","","","","","","","","","","","","","",""
"pit-comprehension","106","1230895","0.0-2.0-21.0-0.0","battery-v0.2","","""event"",""trial"",""time""
""fullscreenenter"",""1"",""3537""
""blur"",""2"",""15266""
""focus"",""2"",""27142""
""blur"",""2"",""29357""
""focus"",""2"",""35007""
""blur"",""5"",""234929""
""focus"",""5"",""236972""
""blur"",""7"",""260605""
""focus"",""7"",""281757""
","""event"",""trial"",""time""
""blur"",""2"",""15266""
""blur"",""2"",""29357""
""blur"",""5"",""234929""
""blur"",""7"",""260605""
","""event"",""trial"",""time""
""focus"",""2"",""27142""
""focus"",""2"",""35007""
""focus"",""5"",""236972""
""focus"",""7"",""281757""
","""event"",""trial"",""time""
""fullscreenenter"",""1"",""3537""
","
","","","7557.800000190735","[""10""]","0","25","10089","4598","","","","","","","","","","","","","","","","","","",""
"pit-instructions","107","1232616","0.0-2.0-21.0-1.0","battery-v0.2","","""event"",""trial"",""time""
""fullscreenenter"",""1"",""3537""
""blur"",""2"",""15266""
""focus"",""2"",""27142""
""blur"",""2"",""29357""
""focus"",""2"",""35007""
""blur"",""5"",""234929""
""focus"",""5"",""236972""
""blur"",""7"",""260605""
""focus"",""7"",""281757""
","""event"",""trial"",""time""
""blur"",""2"",""15266""
""blur"",""2"",""29357""
""blur"",""5"",""234929""
""blur"",""7"",""260605""
","""event"",""trial"",""time""
""focus"",""2"",""27142""
""focus"",""2"",""35007""
""focus"",""5"",""236972""
""focus"",""7"",""281757""
","""event"",""trial"",""time""
""fullscreenenter"",""1"",""3537""
","
","","[{""page_index"":0,""viewing_time"":1621}]","1621.8000001907349","","","","","","","","","","","","","","","","","","","","","","","",""
"pit-comprehension","108","1239155","0.0-2.0-22.0-0.0","battery-v0.2","","""event"",""trial"",""time""
""fullscreenenter"",""1"",""3537""
""blur"",""2"",""15266""
""focus"",""2"",""27142""
""blur"",""2"",""29357""
""focus"",""2"",""35007""
""blur"",""5"",""234929""
""focus"",""5"",""236972""
""blur"",""7"",""260605""
""focus"",""7"",""281757""
","""event"",""trial"",""time""
""blur"",""2"",""15266""
""blur"",""2"",""29357""
""blur"",""5"",""234929""
""blur"",""7"",""260605""
","""event"",""trial"",""time""
""focus"",""2"",""27142""
""focus"",""2"",""35007""
""focus"",""5"",""236972""
""focus"",""7"",""281757""
","""event"",""trial"",""time""
""fullscreenenter"",""1"",""3537""
","
","","","6529.299999713898","[""0""]","0","25","10089","4598","","","","","","","","","","","","","","","","","","",""
"pit-instructions","109","1242247","0.0-2.0-22.0-1.0","battery-v0.2","","""event"",""trial"",""time""
""fullscreenenter"",""1"",""3537""
""blur"",""2"",""15266""
""focus"",""2"",""27142""
""blur"",""2"",""29357""
""focus"",""2"",""35007""
""blur"",""5"",""234929""
""focus"",""5"",""236972""
""blur"",""7"",""260605""
""focus"",""7"",""281757""
","""event"",""trial"",""time""
""blur"",""2"",""15266""
""blur"",""2"",""29357""
""blur"",""5"",""234929""
""blur"",""7"",""260605""
","""event"",""trial"",""time""
""focus"",""2"",""27142""
""focus"",""2"",""35007""
""focus"",""5"",""236972""
""focus"",""7"",""281757""
","""event"",""trial"",""time""
""fullscreenenter"",""1"",""3537""
","
","","[{""page_index"":0,""viewing_time"":2992.5}]","2993.0999999046326","","","","","","","","","","","","","","","","","","","","","","","",""
"pit-comprehension","110","1254995","0.0-2.0-23.0-0.0","battery-v0.2","","""event"",""trial"",""time""
""fullscreenenter"",""1"",""3537""
""blur"",""2"",""15266""
""focus"",""2"",""27142""
""blur"",""2"",""29357""
""focus"",""2"",""35007""
""blur"",""5"",""234929""
""focus"",""5"",""236972""
""blur"",""7"",""260605""
""focus"",""7"",""281757""
","""event"",""trial"",""time""
""blur"",""2"",""15266""
""blur"",""2"",""29357""
""blur"",""5"",""234929""
""blur"",""7"",""260605""
","""event"",""trial"",""time""
""focus"",""2"",""27142""
""focus"",""2"",""35007""
""focus"",""5"",""236972""
""focus"",""7"",""281757""
","""event"",""trial"",""time""
""fullscreenenter"",""1"",""3537""
","
","","","12737.599999904633","[""False""]","1","25","10089","4598","","","","","","","","","","","","","","","","","","",""
"pit-instructions","111","1257387","0.0-2.0-23.0-1.0","battery-v0.2","","""event"",""trial"",""time""
""fullscreenenter"",""1"",""3537""
""blur"",""2"",""15266""
""focus"",""2"",""27142""
""blur"",""2"",""29357""
""focus"",""2"",""35007""
""blur"",""5"",""234929""
""focus"",""5"",""236972""
""blur"",""7"",""260605""
""focus"",""7"",""281757""
","""event"",""trial"",""time""
""blur"",""2"",""15266""
""blur"",""2"",""29357""
""blur"",""5"",""234929""
""blur"",""7"",""260605""
","""event"",""trial"",""time""
""focus"",""2"",""27142""
""focus"",""2"",""35007""
""focus"",""5"",""236972""
""focus"",""7"",""281757""
","""event"",""trial"",""time""
""fullscreenenter"",""1"",""3537""
","
","","[{""page_index"":0,""viewing_time"":2282}]","2282.5999999046326","","","","","","","","","","","","","","","","","","","","","","","",""
"pit-instructions","112","1258195","0.0-2.0-23.0-2.0-0.0","battery-v0.2","","""event"",""trial"",""time""
""fullscreenenter"",""1"",""3537""
""blur"",""2"",""15266""
""focus"",""2"",""27142""
""blur"",""2"",""29357""
""focus"",""2"",""35007""
""blur"",""5"",""234929""
""focus"",""5"",""236972""
""blur"",""7"",""260605""
""focus"",""7"",""281757""
","""event"",""trial"",""time""
""blur"",""2"",""15266""
""blur"",""2"",""29357""
""blur"",""5"",""234929""
""blur"",""7"",""260605""
","""event"",""trial"",""time""
""focus"",""2"",""27142""
""focus"",""2"",""35007""
""focus"",""5"",""236972""
""focus"",""7"",""281757""
","""event"",""trial"",""time""
""fullscreenenter"",""1"",""3537""
","
","","[{""page_index"":0,""viewing_time"":803.9000000953674}]","804.9000000953674","","","","","","","","","","","","","","","","","","","","","","","",""
"pit-comprehension","113","1266606","0.0-2.0-23.1-0.1","battery-v0.2","","""event"",""trial"",""time""
""fullscreenenter"",""1"",""3537""
""blur"",""2"",""15266""
""focus"",""2"",""27142""
""blur"",""2"",""29357""
""focus"",""2"",""35007""
""blur"",""5"",""234929""
""focus"",""5"",""236972""
""blur"",""7"",""260605""
""focus"",""7"",""281757""
","""event"",""trial"",""time""
""blur"",""2"",""15266""
""blur"",""2"",""29357""
""blur"",""5"",""234929""
""blur"",""7"",""260605""
","""event"",""trial"",""time""
""focus"",""2"",""27142""
""focus"",""2"",""35007""
""focus"",""5"",""236972""
""focus"",""7"",""281757""
","""event"",""trial"",""time""
""fullscreenenter"",""1"",""3537""
","
","","","8403.599999904633","[""True""]","0","25","10089","4598","","","","","","","","","","","","","","","","","","",""
"pit-instructions","114","1279068","0.0-2.0-23.1-1.1","battery-v0.2","","""event"",""trial"",""time""
""fullscreenenter"",""1"",""3537""
""blur"",""2"",""15266""
""focus"",""2"",""27142""
""blur"",""2"",""29357""
""focus"",""2"",""35007""
""blur"",""5"",""234929""
""focus"",""5"",""236972""
""blur"",""7"",""260605""
""focus"",""7"",""281757""
","""event"",""trial"",""time""
""blur"",""2"",""15266""
""blur"",""2"",""29357""
""blur"",""5"",""234929""
""blur"",""7"",""260605""
","""event"",""trial"",""time""
""focus"",""2"",""27142""
""focus"",""2"",""35007""
""focus"",""5"",""236972""
""focus"",""7"",""281757""
","""event"",""trial"",""time""
""fullscreenenter"",""1"",""3537""
","
","","[{""page_index"":0,""viewing_time"":12367.5}]","12368.10000038147","","","","","","","","","","","","","","","","","","","","","","","",""
"pit-comprehension","115","1288709","0.0-2.0-24.0-0.0","battery-v0.2","","""event"",""trial"",""time""
""fullscreenenter"",""1"",""3537""
""blur"",""2"",""15266""
""focus"",""2"",""27142""
""blur"",""2"",""29357""
""focus"",""2"",""35007""
""blur"",""5"",""234929""
""focus"",""5"",""236972""
""blur"",""7"",""260605""
""focus"",""7"",""281757""
","""event"",""trial"",""time""
""blur"",""2"",""15266""
""blur"",""2"",""29357""
""blur"",""5"",""234929""
""blur"",""7"",""260605""
","""event"",""trial"",""time""
""focus"",""2"",""27142""
""focus"",""2"",""35007""
""focus"",""5"",""236972""
""focus"",""7"",""281757""
","""event"",""trial"",""time""
""fullscreenenter"",""1"",""3537""
","
","","","9633.400000095367","[""True""]","0","25","10089","4598","","","","","","","","","","","","","","","","","","",""
"pit-instructions","116","1298480","0.0-2.0-24.0-1.0","battery-v0.2","","""event"",""trial"",""time""
""fullscreenenter"",""1"",""3537""
""blur"",""2"",""15266""
""focus"",""2"",""27142""
""blur"",""2"",""29357""
""focus"",""2"",""35007""
""blur"",""5"",""234929""
""focus"",""5"",""236972""
""blur"",""7"",""260605""
""focus"",""7"",""281757""
","""event"",""trial"",""time""
""blur"",""2"",""15266""
""blur"",""2"",""29357""
""blur"",""5"",""234929""
""blur"",""7"",""260605""
