"trial_type","trial_index","time_elapsed","internal_node_id","task_version","subject_id","interactions","blur_events","focus_events","fullscreenenter_events","fullscreenexit_events","success","view_history","rt","responses","num_errors","age","subject","participantId","rune","rune_set","hex","correct","choice","accuracy","outcome","keys","total_keys","block","practice","value","sub","trial","stimulus","robot","valence","action","sham"
"pavlovia","0","14","0.0-0.0","battery-v0.2","","""event"",""trial"",""time""
""fullscreenenter"",""1"",""2593""
","
","
","""event"",""trial"",""time""
""fullscreenenter"",""1"",""2593""
","
","","","","","","","","","","","","","","","","","","","","","","","","","","",""
"fullscreen","1","3576","0.0-1.0","battery-v0.2","","""event"",""trial"",""time""
""fullscreenenter"",""1"",""2593""
","
","
","""event"",""trial"",""time""
""fullscreenenter"",""1"",""2593""
","
","true","","","","","","","","","","","","","","","","","","","","","","","","","",""
"pit-instructions","2","10124","0.0-2.0-0.0","battery-v0.2","","""event"",""trial"",""time""
""fullscreenenter"",""1"",""2593""
","
","
","""event"",""trial"",""time""
""fullscreenenter"",""1"",""2593""
","
","","[{""page_index"":0,""viewing_time"":6540.900000095367}]","6541.800000190735","","","","","","","","","","","","","","","","","","","","","","","",""
"pit-comprehension","3","13334","0.0-2.0-1.0-0.0","battery-v0.2","","""event"",""trial"",""time""
""fullscreenenter"",""1"",""2593""
","
","
","""event"",""trial"",""time""
""fullscreenenter"",""1"",""2593""
","
","","","3205.2000000476837","[""shark""]","0","19","11042","3863","","","","","","","","","","","","","","","","","","",""
"pit-instructions","4","18790","0.0-2.0-1.0-1.0","battery-v0.2","","""event"",""trial"",""time""
""fullscreenenter"",""1"",""2593""
","
","
","""event"",""trial"",""time""
""fullscreenenter"",""1"",""2593""
","
","","[{""page_index"":0,""viewing_time"":5432.400000095367}]","5433.100000143051","","","","","","","","","","","","","","","","","","","","","","","",""
"pit-comprehension","5","22595","0.0-2.0-2.0-0.0","battery-v0.2","","""event"",""trial"",""time""
""fullscreenenter"",""1"",""2593""
","
","
","""event"",""trial"",""time""
""fullscreenenter"",""1"",""2593""
","
","","","3799.699999809265","[""tiger""]","0","19","11042","3863","","","","","","","","","","","","","","","","","","",""
"pit-instructions","6","24079","0.0-2.0-2.0-1.0","battery-v0.2","","""event"",""trial"",""time""
""fullscreenenter"",""1"",""2593""
","
","
","""event"",""trial"",""time""
""fullscreenenter"",""1"",""2593""
","
","","[{""page_index"":0,""viewing_time"":1479.2000000476837}]","1479.9000000953674","","","","","","","","","","","","","","","","","","","","","","","",""
"pit-instructions","7","119620","0.0-2.0-3.0","battery-v0.2","","""event"",""trial"",""time""
""fullscreenenter"",""1"",""2593""
","
","
","""event"",""trial"",""time""
""fullscreenenter"",""1"",""2593""
","
","","[{""page_index"":0,""viewing_time"":7825.600000143051},{""page_index"":1,""viewing_time"":6324},{""page_index"":2,""viewing_time"":7779},{""page_index"":3,""viewing_time"":6414.299999952316},{""page_index"":4,""viewing_time"":5904.599999904633},{""page_index"":5,""viewing_time"":5663.400000095367},{""page_index"":6,""viewing_time"":6792.099999904633},{""page_index"":7,""viewing_time"":6254.100000143051},{""page_index"":8,""viewing_time"":7767.599999904633},{""page_index"":9,""viewing_time"":8479.200000047684},{""page_index"":10,""viewing_time"":7845.099999904633},{""page_index"":11,""viewing_time"":6675.200000047684},{""page_index"":12,""viewing_time"":6560.600000143051},{""page_index"":13,""viewing_time"":5250.399999856949}]","95536.40000009537","","","","","","","","","","","","","","","","","","","","","","","",""
"pit-trial","8","123325","0.0-2.0-4.0-0.0","battery-v0.2","","""event"",""trial"",""time""
""fullscreenenter"",""1"",""2593""
","
","
","""event"",""trial"",""time""
""fullscreenenter"",""1"",""2593""
","
","","","843.5","","","19","11042","3863","&#9784;","elianto","#FFFFF080"," "," ","1","&#10004","[1695.0999999046326]","1","0","0","","","","","","","",""
"pit-trial","9","126996","0.0-2.0-4.1-0.1","battery-v0.2","","""event"",""trial"",""time""
""fullscreenenter"",""1"",""2593""
","
","
","""event"",""trial"",""time""
""fullscreenenter"",""1"",""2593""
","
","","","809","","","19","11042","3863","&#9784;","elianto","#FFFFF080"," "," ","1","&#10004","[1659.5]","1","0","0","","","","","","","",""
"pit-trial","10","130502","0.0-2.0-4.2-0.2","battery-v0.2","","""event"",""trial"",""time""
""fullscreenenter"",""1"",""2593""
","
","
","""event"",""trial"",""time""
""fullscreenenter"",""1"",""2593""
","
","","","646.4000000953674","","","19","11042","3863","&#9784;","elianto","#FFFFF080"," "," ","1","&#10004","[1496.1000001430511]","1","0","0","","","","","","","",""
"pit-trial","11","133893","0.0-2.0-4.3-0.3","battery-v0.2","","""event"",""trial"",""time""
""fullscreenenter"",""1"",""2593""
","
","
","""event"",""trial"",""time""
""fullscreenenter"",""1"",""2593""
","
","","","530","","","19","11042","3863","&#9784;","elianto","#FFFFF080"," "," ","1","&#10004","[1382.2999999523163]","1","0","0","","","","","","","",""
"pit-trial","12","137195","0.0-2.0-4.4-0.4","battery-v0.2","","""event"",""trial"",""time""
""fullscreenenter"",""1"",""2593""
","
","
","""event"",""trial"",""time""
""fullscreenenter"",""1"",""2593""
","
","","","442.09999990463257","","","19","11042","3863","&#9784;","elianto","#FFFFF080"," "," ","1","&#10004","[1293.3999998569489]","1","0","0","","","","","","","",""
"pit-instructions","13","159998","0.0-2.0-5.0","battery-v0.2","","""event"",""trial"",""time""
""fullscreenenter"",""1"",""2593""
","
","
","""event"",""trial"",""time""
""fullscreenenter"",""1"",""2593""
","
","","[{""page_index"":0,""viewing_time"":5966.400000095367},{""page_index"":1,""viewing_time"":6549},{""page_index"":2,""viewing_time"":4882.399999856949},{""page_index"":3,""viewing_time"":5399.600000143051}]","22798.099999904633","","","","","","","","","","","","","","","","","","","","","","","",""
"pit-trial","14","164858","0.0-2.0-6.0-0.0","battery-v0.2","","""event"",""trial"",""time""
""fullscreenenter"",""1"",""2593""
","
","
","""event"",""trial"",""time""
""fullscreenenter"",""1"",""2593""
","
","","","-1","","","19","11042","3863","&#9854;","elianto","#FFFFF080","-1","-1","1","&#10004","[]","0","0","1","","","","","","","",""
"pit-trial","15","169719","0.0-2.0-6.1-0.1","battery-v0.2","","""event"",""trial"",""time""
""fullscreenenter"",""1"",""2593""
","
","
","""event"",""trial"",""time""
""fullscreenenter"",""1"",""2593""
","
","","","-1","","","19","11042","3863","&#9854;","elianto","#FFFFF080","-1","-1","1","&#10004","[]","0","0","1","","","","","","","",""
"pit-trial","16","174584","0.0-2.0-6.2-0.2","battery-v0.2","","""event"",""trial"",""time""
""fullscreenenter"",""1"",""2593""
","
","
","""event"",""trial"",""time""
""fullscreenenter"",""1"",""2593""
","
","","","-1","","","19","11042","3863","&#9854;","elianto","#FFFFF080","-1","-1","1","&#10004","[]","0","0","1","","","","","","","",""
"pit-trial","17","179445","0.0-2.0-6.3-0.3","battery-v0.2","","""event"",""trial"",""time""
""fullscreenenter"",""1"",""2593""
","
","
","""event"",""trial"",""time""
""fullscreenenter"",""1"",""2593""
","
","","","-1","","","19","11042","3863","&#9854;","elianto","#FFFFF080","-1","-1","1","&#10004","[]","0","0","1","","","","","","","",""
"pit-trial","18","184309","0.0-2.0-6.4-0.4","battery-v0.2","","""event"",""trial"",""time""
""fullscreenenter"",""1"",""2593""
","
","
","""event"",""trial"",""time""
""fullscreenenter"",""1"",""2593""
","
","","","-1","","","19","11042","3863","&#9854;","elianto","#FFFFF080","-1","-1","1","&#10004","[]","0","0","1","","","","","","","",""
"pit-instructions","19","304147","0.0-2.0-7.0","battery-v0.2","","""event"",""trial"",""time""
""fullscreenenter"",""1"",""2593""
","
","
","""event"",""trial"",""time""
""fullscreenenter"",""1"",""2593""
","
","","[{""page_index"":0,""viewing_time"":5873.200000047684},{""page_index"":1,""viewing_time"":8259.700000047684},{""page_index"":2,""viewing_time"":6358},{""page_index"":3,""viewing_time"":6105.099999904633},{""page_index"":4,""viewing_time"":5111.900000095367},{""page_index"":5,""viewing_time"":7646.299999952316},{""page_index"":6,""viewing_time"":6894.700000047684},{""page_index"":7,""viewing_time"":7212.899999856949},{""page_index"":8,""viewing_time"":7776.5},{""page_index"":9,""viewing_time"":6082.100000143051},{""page_index"":10,""viewing_time"":6024.699999809265},{""page_index"":11,""viewing_time"":4068.100000143051},{""page_index"":12,""viewing_time"":6462.799999952316},{""page_index"":13,""viewing_time"":6903.799999952316},{""page_index"":14,""viewing_time"":7183.799999952316},{""page_index"":15,""viewing_time"":7519},{""page_index"":16,""viewing_time"":6692},{""page_index"":17,""viewing_time"":7658.800000190735}]","119833.90000009537","","","","","","","","","","","","","","","","","","","","","","","",""
"pit-trial","20","308047","0.0-2.0-8.0-0.0","battery-v0.2","","""event"",""trial"",""time""
""fullscreenenter"",""1"",""2593""
","
","
","""event"",""trial"",""time""
""fullscreenenter"",""1"",""2593""
","
","","","1039.6000001430511","","","19","11042","3863","&#9776;","elianto","#3366ff99"," "," ","1","+10","[1889.7999999523163]","1","0","1","","","","","","","",""
"pit-trial","21","311441","0.0-2.0-8.0-1.0","battery-v0.2","","""event"",""trial"",""time""
""fullscreenenter"",""1"",""2593""
","
","
","""event"",""trial"",""time""
""fullscreenenter"",""1"",""2593""
","
","","","535.1000001430511","","","19","11042","3863","&#9776;","elianto","#3366ff99"," "," ","1","+10","[1385.5]","1","0","1","","","","","","","",""
"pit-trial","22","314825","0.0-2.0-8.0-2.0","battery-v0.2","","""event"",""trial"",""time""
""fullscreenenter"",""1"",""2593""
","
","
","""event"",""trial"",""time""
""fullscreenenter"",""1"",""2593""
","
","","","522.6000001430511","","","19","11042","3863","&#9776;","elianto","#3366ff99"," "," ","1","+10","[1375.2000000476837]","1","0","1","","","","","","","",""
"pit-trial","23","318243","0.0-2.0-8.0-3.0","battery-v0.2","","""event"",""trial"",""time""
""fullscreenenter"",""1"",""2593""
","
","
","""event"",""trial"",""time""
""fullscreenenter"",""1"",""2593""
","
","","","558.6000001430511","","","19","11042","3863","&#9776;","elianto","#3366ff99"," "," ","1","0","[1409.9000000953674]","1","0","1","","","","","","","",""
"pit-trial","24","321986","0.0-2.0-8.0-4.0","battery-v0.2","","""event"",""trial"",""time""
""fullscreenenter"",""1"",""2593""
","
","
","""event"",""trial"",""time""
""fullscreenenter"",""1"",""2593""
","
","","","881.5","","","19","11042","3863","&#9776;","elianto","#3366ff99"," "," ","1","+10","[1734.2000000476837]","1","0","1","","","","","","","",""
"pit-trial","25","325551","0.0-2.0-8.1-0.1","battery-v0.2","","""event"",""trial"",""time""
""fullscreenenter"",""1"",""2593""
","
","
","""event"",""trial"",""time""
""fullscreenenter"",""1"",""2593""
","
","","","704.8999998569489","","","19","11042","3863","&#9776;","elianto","#3366ff99"," "," ","1","+10","[1557.4000000953674]","1","0","1","","","","","","","",""
"pit-trial","26","329179","0.0-2.0-8.1-1.1","battery-v0.2","","""event"",""trial"",""time""
""fullscreenenter"",""1"",""2593""
","
","
","""event"",""trial"",""time""
""fullscreenenter"",""1"",""2593""
","
","","","769.6000001430511","","","19","11042","3863","&#9776;","elianto","#3366ff99"," "," ","1","+10","[1620.0999999046326]","1","0","1","","","","","","","",""
"pit-trial","27","333017","0.0-2.0-8.1-2.1","battery-v0.2","","""event"",""trial"",""time""
""fullscreenenter"",""1"",""2593""
","
","
","""event"",""trial"",""time""
""fullscreenenter"",""1"",""2593""
","
","","","980","","","19","11042","3863","&#9776;","elianto","#3366ff99"," "," ","1","+10","[1831.8999998569489]","1","0","1","","","","","","","",""
"pit-trial","28","336746","0.0-2.0-8.1-3.1","battery-v0.2","","""event"",""trial"",""time""
""fullscreenenter"",""1"",""2593""
","
","
","""event"",""trial"",""time""
""fullscreenenter"",""1"",""2593""
","
","","","868.7999999523163","","","19","11042","3863","&#9776;","elianto","#3366ff99"," "," ","1","0","[1719.6000001430511]","1","0","1","","","","","","","",""
"pit-trial","29","340365","0.0-2.0-8.1-4.1","battery-v0.2","","""event"",""trial"",""time""
""fullscreenenter"",""1"",""2593""
","
","
","""event"",""trial"",""time""
""fullscreenenter"",""1"",""2593""
","
","","","759.2000000476837","","","19","11042","3863","&#9776;","elianto","#3366ff99"," "," ","1","+10","[1610]","1","0","1","","","","","","","",""
"pit-trial","30","343943","0.0-2.0-8.2-0.2","battery-v0.2","","""event"",""trial"",""time""
""fullscreenenter"",""1"",""2593""
","
","
","""event"",""trial"",""time""
""fullscreenenter"",""1"",""2593""
","
","","","716.5","","","19","11042","3863","&#9776;","elianto","#3366ff99"," "," ","1","+10","[1568.5]","1","0","1","","","","","","","",""
"pit-trial","31","347901","0.0-2.0-8.2-1.2","battery-v0.2","","""event"",""trial"",""time""
""fullscreenenter"",""1"",""2593""
","
","
","""event"",""trial"",""time""
""fullscreenenter"",""1"",""2593""
","
","","","1097.3000001907349","","","19","11042","3863","&#9776;","elianto","#3366ff99"," "," ","1","+10","[1949.8000001907349]","1","0","1","","","","","","","",""
"pit-trial","32","352765","0.0-2.0-8.2-2.2","battery-v0.2","","""event"",""trial"",""time""
""fullscreenenter"",""1"",""2593""
","
","
","""event"",""trial"",""time""
""fullscreenenter"",""1"",""2593""
","
","","","-1","","","19","11042","3863","&#9776;","elianto","#3366ff99"," ","-1","0","0","[]","0","0","1","","","","","","","",""
"pit-trial","33","356455","0.0-2.0-8.2-3.2","battery-v0.2","","""event"",""trial"",""time""
""fullscreenenter"",""1"",""2593""
","
","
","""event"",""trial"",""time""
""fullscreenenter"",""1"",""2593""
","
","","","829.7000000476837","","","19","11042","3863","&#9776;","elianto","#3366ff99"," "," ","1","0","[1680.8999998569489]","1","0","1","","","","","","","",""
"pit-trial","34","359878","0.0-2.0-8.2-4.2","battery-v0.2","","""event"",""trial"",""time""
""fullscreenenter"",""1"",""2593""
","
","
","""event"",""trial"",""time""
""fullscreenenter"",""1"",""2593""
","
","","","561.5","","","19","11042","3863","&#9776;","elianto","#3366ff99"," "," ","1","+10","[1414.2999999523163]","1","0","1","","","","","","","",""
"call-function","35","359881","0.0-2.0-9.0","battery-v0.2","","""event"",""trial"",""time""
""fullscreenenter"",""1"",""2593""
","
","
","""event"",""trial"",""time""
""fullscreenenter"",""1"",""2593""
","
","","","","","","","","","","","","","","","","","","","","","","","","","","",""
"pit-instructions","36","399950","0.0-2.0-10.0","battery-v0.2","","""event"",""trial"",""time""
""fullscreenenter"",""1"",""2593""
","
","
","""event"",""trial"",""time""
""fullscreenenter"",""1"",""2593""
","
","","[{""page_index"":0,""viewing_time"":5763.200000047684},{""page_index"":1,""viewing_time"":7444.699999809265},{""page_index"":2,""viewing_time"":9577.100000143051},{""page_index"":3,""viewing_time"":9484.399999856949},{""page_index"":4,""viewing_time"":7797.900000095367}]","40067.89999985695","","","","","","","","","","","","","","","","","","","","","","","",""
"pit-trial","37","403580","0.0-2.0-11.0-0.0","battery-v0.2","","""event"",""trial"",""time""
""fullscreenenter"",""1"",""2593""
","
","
","""event"",""trial"",""time""
""fullscreenenter"",""1"",""2593""
","
","","","774.5","","","19","11042","3863","&#9761;","elianto","#3366ff99","-1"," ","0","0","[1625.3999998569489]","1","0","2","","","","","","","",""
"pit-trial","38","406971","0.0-2.0-11.0-1.0","battery-v0.2","","""event"",""trial"",""time""
""fullscreenenter"",""1"",""2593""
","
","
","""event"",""trial"",""time""
""fullscreenenter"",""1"",""2593""
","
","","","531.5999999046326","","","19","11042","3863","&#9761;","elianto","#3366ff99","-1"," ","0","0","[1383]","1","0","2","","","","","","","",""
"pit-trial","39","411836","0.0-2.0-11.0-2.0","battery-v0.2","","""event"",""trial"",""time""
""fullscreenenter"",""1"",""2593""
","
","
","""event"",""trial"",""time""
""fullscreenenter"",""1"",""2593""
","
","","","-1","","","19","11042","3863","&#9761;","elianto","#3366ff99","-1","-1","1","+10","[]","0","0","2","","","","","","","",""
"pit-trial","40","415601","0.0-2.0-11.0-3.0","battery-v0.2","","""event"",""trial"",""time""
""fullscreenenter"",""1"",""2593""
","
","
","""event"",""trial"",""time""
""fullscreenenter"",""1"",""2593""
","
","","","906.4000000953674","","","19","11042","3863","&#9761;","elianto","#3366ff99","-1"," ","0","+10","[1758.2999999523163]","1","0","2","","","","","","","",""
"pit-trial","41","419213","0.0-2.0-11.0-4.0","battery-v0.2","","""event"",""trial"",""time""
""fullscreenenter"",""1"",""2593""
","
","
","""event"",""trial"",""time""
""fullscreenenter"",""1"",""2593""
","
","","","750.6000001430511","","","19","11042","3863","&#9761;","elianto","#3366ff99","-1"," ","0","0","[1602.9000000953674]","1","0","2","","","","","","","",""
"pit-trial","42","422886","0.0-2.0-11.1-0.1","battery-v0.2","","""event"",""trial"",""time""
""fullscreenenter"",""1"",""2593""
","
","
","""event"",""trial"",""time""
""fullscreenenter"",""1"",""2593""
","
","","","812.1999998092651","","","19","11042","3863","&#9761;","elianto","#3366ff99","-1"," ","0","0","[1662.6999998092651]","1","0","2","","","","","","","",""
"pit-trial","43","426298","0.0-2.0-11.1-1.1","battery-v0.2","","""event"",""trial"",""time""
""fullscreenenter"",""1"",""2593""
","
","
","""event"",""trial"",""time""
""fullscreenenter"",""1"",""2593""
","
","","","551.4000000953674","","","19","11042","3863","&#9761;","elianto","#3366ff99","-1"," ","0","0","[1403.5]","1","0","2","","","","","","","",""
"pit-trial","44","429895","0.0-2.0-11.1-2.1","battery-v0.2","","""event"",""trial"",""time""
""fullscreenenter"",""1"",""2593""
","
","
","""event"",""trial"",""time""
""fullscreenenter"",""1"",""2593""
","
","","","738.5","","","19","11042","3863","&#9761;","elianto","#3366ff99","-1"," ","0","0","[1589]","1","0","2","","","","","","","",""
"pit-trial","45","434760","0.0-2.0-11.1-3.1","battery-v0.2","","""event"",""trial"",""time""
""fullscreenenter"",""1"",""2593""
","
","
","""event"",""trial"",""time""
""fullscreenenter"",""1"",""2593""
","
","","","-1","","","19","11042","3863","&#9761;","elianto","#3366ff99","-1","-1","1","0","[]","0","0","2","","","","","","","",""
"pit-trial","46","439621","0.0-2.0-11.1-4.1","battery-v0.2","","""event"",""trial"",""time""
""fullscreenenter"",""1"",""2593""
","
","
","""event"",""trial"",""time""
""fullscreenenter"",""1"",""2593""
","
","","","-1","","","19","11042","3863","&#9761;","elianto","#3366ff99","-1","-1","1","+10","[]","0","0","2","","","","","","","",""
"pit-trial","47","444486","0.0-2.0-11.2-0.2","battery-v0.2","","""event"",""trial"",""time""
""fullscreenenter"",""1"",""2593""
","
","
","""event"",""trial"",""time""
""fullscreenenter"",""1"",""2593""
","
","","","-1","","","19","11042","3863","&#9761;","elianto","#3366ff99","-1","-1","1","+10","[]","0","0","2","","","","","","","",""
"pit-trial","48","448069","0.0-2.0-11.2-1.2","battery-v0.2","","""event"",""trial"",""time""
""fullscreenenter"",""1"",""2593""
","
","
","""event"",""trial"",""time""
""fullscreenenter"",""1"",""2593""
","
","","","722.7000000476837","","","19","11042","3863","&#9761;","elianto","#3366ff99","-1"," ","0","0","[1574.5]","1","0","2","","","","","","","",""
"pit-trial","49","451569","0.0-2.0-11.2-2.2","battery-v0.2","","""event"",""trial"",""time""
""fullscreenenter"",""1"",""2593""
","
","
","""event"",""trial"",""time""
""fullscreenenter"",""1"",""2593""
","
","","","641.5999999046326","","","19","11042","3863","&#9761;","elianto","#3366ff99","-1"," ","0","0","[1492.7000000476837]","1","0","2","","","","","","","",""
"pit-trial","50","456433","0.0-2.0-11.2-3.2","battery-v0.2","","""event"",""trial"",""time""
""fullscreenenter"",""1"",""2593""
","
","
","""event"",""trial"",""time""
""fullscreenenter"",""1"",""2593""
","
","","","-1","","","19","11042","3863","&#9761;","elianto","#3366ff99","-1","-1","1","0","[]","0","0","2","","","","","","","",""
"pit-trial","51","461293","0.0-2.0-11.2-4.2","battery-v0.2","","""event"",""trial"",""time""
""fullscreenenter"",""1"",""2593""
","
","
","""event"",""trial"",""time""
""fullscreenenter"",""1"",""2593""
","
","","","-1","","","19","11042","3863","&#9761;","elianto","#3366ff99","-1","-1","1","+10","[]","0","0","2","","","","","","","",""
"pit-trial","52","464605","0.0-2.0-11.3-0.3","battery-v0.2","","""event"",""trial"",""time""
""fullscreenenter"",""1"",""2593""
","
","
","""event"",""trial"",""time""
""fullscreenenter"",""1"",""2593""
","
","","","451.89999985694885","","","19","11042","3863","&#9761;","elianto","#3366ff99","-1"," ","0","0","[1302.6000001430511]","1","0","2","","","","","","","",""
"pit-trial","53","468104","0.0-2.0-11.3-1.3","battery-v0.2","","""event"",""trial"",""time""
""fullscreenenter"",""1"",""2593""
","
","
","""event"",""trial"",""time""
""fullscreenenter"",""1"",""2593""
","
","","","636.7999999523163","","","19","11042","3863","&#9761;","elianto","#3366ff99","-1"," ","0","0","[1489.2000000476837]","1","0","2","","","","","","","",""
"pit-trial","54","471537","0.0-2.0-11.3-2.3","battery-v0.2","","""event"",""trial"",""time""
""fullscreenenter"",""1"",""2593""
","
","
","""event"",""trial"",""time""
""fullscreenenter"",""1"",""2593""
","
","","","571.6000001430511","","","19","11042","3863","&#9761;","elianto","#3366ff99","-1"," ","0","0","[1423.5999999046326]","1","0","2","","","","","","","",""
"pit-trial","55","475047","0.0-2.0-11.3-3.3","battery-v0.2","","""event"",""trial"",""time""
""fullscreenenter"",""1"",""2593""
","
","
","""event"",""trial"",""time""
""fullscreenenter"",""1"",""2593""
","
","","","651.2999999523163","","","19","11042","3863","&#9761;","elianto","#3366ff99","-1"," ","0","+10","[1503.6000001430511]","1","0","2","","","","","","","",""
"pit-trial","56","478439","0.0-2.0-11.3-4.3","battery-v0.2","","""event"",""trial"",""time""
""fullscreenenter"",""1"",""2593""
","
","
","""event"",""trial"",""time""
""fullscreenenter"",""1"",""2593""
","
","","","534.2000000476837","","","19","11042","3863","&#9761;","elianto","#3366ff99","-1"," ","0","0","[1384.5]","1","0","2","","","","","","","",""
"call-function","57","478442","0.0-2.0-12.0","battery-v0.2","","""event"",""trial"",""time""
""fullscreenenter"",""1"",""2593""
","
","
","""event"",""trial"",""time""
""fullscreenenter"",""1"",""2593""
","
","","","","","","","","","","","","","","","","","","","","","","","","","","",""
"pit-instructions","58","512097","0.0-2.0-13.0","battery-v0.2","","""event"",""trial"",""time""
""fullscreenenter"",""1"",""2593""
","
","
","""event"",""trial"",""time""
""fullscreenenter"",""1"",""2593""
","
","","[{""page_index"":0,""viewing_time"":5895.400000095367},{""page_index"":1,""viewing_time"":7426.5},{""page_index"":2,""viewing_time"":3948.5},{""page_index"":3,""viewing_time"":10932},{""page_index"":4,""viewing_time"":5450.400000095367}]","33653.5","","","","","","","","","","","","","","","","","","","","","","","",""
"pit-trial","59","516957","0.0-2.0-14.0-0.0","battery-v0.2","","""event"",""trial"",""time""
""fullscreenenter"",""1"",""2593""
","
","
","""event"",""trial"",""time""
""fullscreenenter"",""1"",""2593""
","
","","","-1","","","19","11042","3863","&#9826;","elianto","#f73b6a7A","-1","-1","1","0","[]","0","0","3","","","","","","","",""
"pit-trial","60","521821","0.0-2.0-14.0-1.0","battery-v0.2","","""event"",""trial"",""time""
""fullscreenenter"",""1"",""2593""
","
","
","""event"",""trial"",""time""
""fullscreenenter"",""1"",""2593""
","
","","","-1","","","19","11042","3863","&#9826;","elianto","#f73b6a7A","-1","-1","1","0","[]","0","0","3","","","","","","","",""
"pit-trial","61","526682","0.0-2.0-14.0-2.0","battery-v0.2","","""event"",""trial"",""time""
""fullscreenenter"",""1"",""2593""
","
","
","""event"",""trial"",""time""
""fullscreenenter"",""1"",""2593""
","
","","","-1","","","19","11042","3863","&#9826;","elianto","#f73b6a7A","-1","-1","1","0","[]","0","0","3","","","","","","","",""
"pit-trial","62","531547","0.0-2.0-14.0-3.0","battery-v0.2","","""event"",""trial"",""time""
""fullscreenenter"",""1"",""2593""
","
","
","""event"",""trial"",""time""
""fullscreenenter"",""1"",""2593""
","
","","","-1","","","19","11042","3863","&#9826;","elianto","#f73b6a7A","-1","-1","1","-10","[]","0","0","3","","","","","","","",""
"pit-trial","63","536406","0.0-2.0-14.0-4.0","battery-v0.2","","""event"",""trial"",""time""
""fullscreenenter"",""1"",""2593""
","
","
","""event"",""trial"",""time""
""fullscreenenter"",""1"",""2593""
","
","","","-1","","","19","11042","3863","&#9826;","elianto","#f73b6a7A","-1","-1","1","0","[]","0","0","3","","","","","","","",""
"pit-trial","64","541268","0.0-2.0-14.1-0.1","battery-v0.2","","""event"",""trial"",""time""
""fullscreenenter"",""1"",""2593""
","
","
","""event"",""trial"",""time""
""fullscreenenter"",""1"",""2593""
","
","","","-1","","","19","11042","3863","&#9826;","elianto","#f73b6a7A","-1","-1","1","0","[]","0","0","3","","","","","","","",""
"pit-trial","65","545144","0.0-2.0-14.1-1.1","battery-v0.2","","""event"",""trial"",""time""
""fullscreenenter"",""1"",""2593""
","
","
","""event"",""trial"",""time""
""fullscreenenter"",""1"",""2593""
","
","","","1017.3999998569489","","","19","11042","3863","&#9826;","elianto","#f73b6a7A","-1"," ","0","-10","[1868.8999998569489]","1","0","3","","","","","","","",""
"pit-trial","66","550009","0.0-2.0-14.1-2.1","battery-v0.2","","""event"",""trial"",""time""
""fullscreenenter"",""1"",""2593""
","
","
","""event"",""trial"",""time""
""fullscreenenter"",""1"",""2593""
","
","","","-1","","","19","11042","3863","&#9826;","elianto","#f73b6a7A","-1","-1","1","0","[]","0","0","3","","","","","","","",""
"pit-trial","67","554870","0.0-2.0-14.1-3.1","battery-v0.2","","""event"",""trial"",""time""
""fullscreenenter"",""1"",""2593""
","
","
","""event"",""trial"",""time""
""fullscreenenter"",""1"",""2593""
","
","","","-1","","","19","11042","3863","&#9826;","elianto","#f73b6a7A","-1","-1","1","-10","[]","0","0","3","","","","","","","",""
"pit-trial","68","559731","0.0-2.0-14.1-4.1","battery-v0.2","","""event"",""trial"",""time""
""fullscreenenter"",""1"",""2593""
","
","
","""event"",""trial"",""time""
""fullscreenenter"",""1"",""2593""
","
","","","-1","","","19","11042","3863","&#9826;","elianto","#f73b6a7A","-1","-1","1","0","[]","0","0","3","","","","","","","",""
"pit-trial","69","564596","0.0-2.0-14.2-0.2","battery-v0.2","","""event"",""trial"",""time""
""fullscreenenter"",""1"",""2593""
","
","
","""event"",""trial"",""time""
""fullscreenenter"",""1"",""2593""
","
","","","-1","","","19","11042","3863","&#9826;","elianto","#f73b6a7A","-1","-1","1","0","[]","0","0","3","","","","","","","",""
"pit-trial","70","569458","0.0-2.0-14.2-1.2","battery-v0.2","","""event"",""trial"",""time""
""fullscreenenter"",""1"",""2593""
","
","
","""event"",""trial"",""time""
""fullscreenenter"",""1"",""2593""
","
","","","-1","","","19","11042","3863","&#9826;","elianto","#f73b6a7A","-1","-1","1","0","[]","0","0","3","","","","","","","",""
"pit-trial","71","574319","0.0-2.0-14.2-2.2","battery-v0.2","","""event"",""trial"",""time""
""fullscreenenter"",""1"",""2593""
","
","
","""event"",""trial"",""time""
""fullscreenenter"",""1"",""2593""
","
","","","-1","","","19","11042","3863","&#9826;","elianto","#f73b6a7A","-1","-1","1","0","[]","0","0","3","","","","","","","",""
"pit-trial","72","579183","0.0-2.0-14.2-3.2","battery-v0.2","","""event"",""trial"",""time""
""fullscreenenter"",""1"",""2593""
","
","
","""event"",""trial"",""time""
""fullscreenenter"",""1"",""2593""
","
","","","-1","","","19","11042","3863","&#9826;","elianto","#f73b6a7A","-1","-1","1","-10","[]","0","0","3","","","","","","","",""
"pit-trial","73","584047","0.0-2.0-14.2-4.2","battery-v0.2","","""event"",""trial"",""time""
""fullscreenenter"",""1"",""2593""
","
","
","""event"",""trial"",""time""
""fullscreenenter"",""1"",""2593""
","
","","","-1","","","19","11042","3863","&#9826;","elianto","#f73b6a7A","-1","-1","1","0","[]","0","0","3","","","","","","","",""
"pit-trial","74","588470","0.0-2.0-14.3-0.3","battery-v0.2","","""event"",""trial"",""time""
""fullscreenenter"",""1"",""2593""
","
","
","""event"",""trial"",""time""
""fullscreenenter"",""1"",""2593""
","
","","","1564","","","19","11042","3863","&#9826;","elianto","#f73b6a7A","-1"," ","0","-10","[2414.100000143051]","1","0","3","","","","","","","",""
"pit-trial","75","592884","0.0-2.0-14.3-1.3","battery-v0.2","","""event"",""trial"",""time""
""fullscreenenter"",""1"",""2593""
","
","
","""event"",""trial"",""time""
""fullscreenenter"",""1"",""2593""
","
","","","1553.7999999523163","","","19","11042","3863","&#9826;","elianto","#f73b6a7A","-1"," ","0","-10","[2405.899999856949]","1","0","3","","","","","","","",""
"pit-trial","76","597069","0.0-2.0-14.3-2.3","battery-v0.2","","""event"",""trial"",""time""
""fullscreenenter"",""1"",""2593""
","
","
","""event"",""trial"",""time""
""fullscreenenter"",""1"",""2593""
","
","","","1324.2000000476837","","","19","11042","3863","&#9826;","elianto","#f73b6a7A","-1"," ","0","-10","[2175.7999999523163]","1","0","3","","","","","","","",""
"pit-trial","77","601926","0.0-2.0-14.3-3.3","battery-v0.2","","""event"",""trial"",""time""
""fullscreenenter"",""1"",""2593""
","
","
","""event"",""trial"",""time""
""fullscreenenter"",""1"",""2593""
","
","","","-1","","","19","11042","3863","&#9826;","elianto","#f73b6a7A","-1","-1","1","-10","[]","0","0","3","","","","","","","",""
"pit-trial","78","606788","0.0-2.0-14.3-4.3","battery-v0.2","","""event"",""trial"",""time""
""fullscreenenter"",""1"",""2593""
","
","
","""event"",""trial"",""time""
""fullscreenenter"",""1"",""2593""
","
","","","-1","","","19","11042","3863","&#9826;","elianto","#f73b6a7A","-1","-1","1","0","[]","0","0","3","","","","","","","",""
"call-function","79","606791","0.0-2.0-15.0","battery-v0.2","","""event"",""trial"",""time""
""fullscreenenter"",""1"",""2593""
","
","
","""event"",""trial"",""time""
""fullscreenenter"",""1"",""2593""
","
","","","","","","","","","","","","","","","","","","","","","","","","","","",""
"pit-instructions","80","633571","0.0-2.0-16.0","battery-v0.2","","""event"",""trial"",""time""
""fullscreenenter"",""1"",""2593""
","
","
","""event"",""trial"",""time""
""fullscreenenter"",""1"",""2593""
","
","","[{""page_index"":0,""viewing_time"":6645.899999856949},{""page_index"":1,""viewing_time"":9532.200000047684},{""page_index"":2,""viewing_time"":5081.299999952316},{""page_index"":3,""viewing_time"":5519.100000143051}]","26779.099999904633","","","","","","","","","","","","","","","","","","","","","","","",""
"pit-trial","81","638432","0.0-2.0-17.0-0.0","battery-v0.2","","""event"",""trial"",""time""
""fullscreenenter"",""1"",""2593""
","
","
","""event"",""trial"",""time""
""fullscreenenter"",""1"",""2593""
","
","","","-1","","","19","11042","3863","&#9789;","elianto","#f73b6a7A"," ","-1","0","-10","[]","0","0","4","","","","","","","",""
"pit-trial","82","643291","0.0-2.0-17.0-1.0","battery-v0.2","","""event"",""trial"",""time""
""fullscreenenter"",""1"",""2593""
","
","
","""event"",""trial"",""time""
""fullscreenenter"",""1"",""2593""
","
","","","-1","","","19","11042","3863","&#9789;","elianto","#f73b6a7A"," ","-1","0","-10","[]","0","0","4","","","","","","","",""
"pit-trial","83","647383","0.0-2.0-17.0-2.0","battery-v0.2","","""event"",""trial"",""time""
""fullscreenenter"",""1"",""2593""
","
","
","""event"",""trial"",""time""
""fullscreenenter"",""1"",""2593""
","
","","","1236.4000000953674","","","19","11042","3863","&#9789;","elianto","#f73b6a7A"," "," ","1","0","[2089.0999999046326]","1","0","4","","","","","","","",""
"pit-trial","84","650820","0.0-2.0-17.0-3.0","battery-v0.2","","""event"",""trial"",""time""
""fullscreenenter"",""1"",""2593""
","
","
","""event"",""trial"",""time""
""fullscreenenter"",""1"",""2593""
","
","","","582.2999999523163","","","19","11042","3863","&#9789;","elianto","#f73b6a7A"," "," ","1","-10","[1433.9000000953674]","1","0","4","","","","","","","",""
"pit-trial","85","654827","0.0-2.0-17.0-4.0","battery-v0.2","","""event"",""trial"",""time""
""fullscreenenter"",""1"",""2593""
","
","
","""event"",""trial"",""time""
""fullscreenenter"",""1"",""2593""
","
","","","1149.1999998092651","","","19","11042","3863","&#9789;","elianto","#f73b6a7A"," "," ","1","0","[2000.3999998569489]","1","0","4","","","","","","","",""
"pit-trial","86","659687","0.0-2.0-17.1-0.1","battery-v0.2","","""event"",""trial"",""time""
""fullscreenenter"",""1"",""2593""
","
","
","""event"",""trial"",""time""
""fullscreenenter"",""1"",""2593""
","
","","","-1","","","19","11042","3863","&#9789;","elianto","#f73b6a7A"," ","-1","0","-10","[]","0","0","4","","","","","","","",""
"pit-trial","87","663257","0.0-2.0-17.1-1.1","battery-v0.2","","""event"",""trial"",""time""
""fullscreenenter"",""1"",""2593""
","
","
","""event"",""trial"",""time""
""fullscreenenter"",""1"",""2593""
","
","","","710.1999998092651","","","19","11042","3863","&#9789;","elianto","#f73b6a7A"," "," ","1","0","[1560.5]","1","0","4","","","","","","","",""
"pit-trial","88","666867","0.0-2.0-17.1-2.1","battery-v0.2","","""event"",""trial"",""time""
""fullscreenenter"",""1"",""2593""
","
","
","""event"",""trial"",""time""
""fullscreenenter"",""1"",""2593""
","
","","","750.4000000953674","","","19","11042","3863","&#9789;","elianto","#f73b6a7A"," "," ","1","0","[1603.2000000476837]","1","0","4","","","","","","","",""
"pit-trial","89","670425","0.0-2.0-17.1-3.1","battery-v0.2","","""event"",""trial"",""time""
""fullscreenenter"",""1"",""2593""
","
","
","""event"",""trial"",""time""
""fullscreenenter"",""1"",""2593""
","
","","","703","","","19","11042","3863","&#9789;","elianto","#f73b6a7A"," "," ","1","-10","[1553]","1","0","4","","","","","","","",""
"pit-trial","90","674178","0.0-2.0-17.1-4.1","battery-v0.2","","""event"",""trial"",""time""
""fullscreenenter"",""1"",""2593""
","
","
","""event"",""trial"",""time""
""fullscreenenter"",""1"",""2593""
","
","","","893.2999999523163","","","19","11042","3863","&#9789;","elianto","#f73b6a7A"," "," ","1","0","[1744.0999999046326]","1","0","4","","","","","","","",""
"pit-trial","91","677880","0.0-2.0-17.2-0.2","battery-v0.2","","""event"",""trial"",""time""
""fullscreenenter"",""1"",""2593""
","
","
","""event"",""trial"",""time""
""fullscreenenter"",""1"",""2593""
","
","","","840.7000000476837","","","19","11042","3863","&#9789;","elianto","#f73b6a7A"," "," ","1","0","[1691.6000001430511]","1","0","4","","","","","","","",""
"pit-trial","92","681546","0.0-2.0-17.2-1.2","battery-v0.2","","""event"",""trial"",""time""
""fullscreenenter"",""1"",""2593""
","
","
","""event"",""trial"",""time""
""fullscreenenter"",""1"",""2593""
","
","","","809.2000000476837","","","19","11042","3863","&#9789;","elianto","#f73b6a7A"," "," ","1","0","[1660.8000001907349]","1","0","4","","","","","","","",""
"pit-trial","93","685049","0.0-2.0-17.2-2.2","battery-v0.2","","""event"",""trial"",""time""
""fullscreenenter"",""1"",""2593""
","
","
","""event"",""trial"",""time""
""fullscreenenter"",""1"",""2593""
","
","","","643.7999999523163","","","19","11042","3863","&#9789;","elianto","#f73b6a7A"," "," ","1","0","[1495]","1","0","4","","","","","","","",""
"pit-trial","94","688668","0.0-2.0-17.2-3.2","battery-v0.2","","""event"",""trial"",""time""
""fullscreenenter"",""1"",""2593""
","
","
","""event"",""trial"",""time""
""fullscreenenter"",""1"",""2593""
","
","","","759.1000001430511","","","19","11042","3863","&#9789;","elianto","#f73b6a7A"," "," ","1","-10","[1610.1000001430511]","1","0","4","","","","","","","",""
"pit-trial","95","692190","0.0-2.0-17.2-4.2","battery-v0.2","","""event"",""trial"",""time""
""fullscreenenter"",""1"",""2593""
","
","
","""event"",""trial"",""time""
""fullscreenenter"",""1"",""2593""
","
","","","665.2999999523163","","","19","11042","3863","&#9789;","elianto","#f73b6a7A"," "," ","1","0","[1516.5999999046326]","1","0","4","","","","","","","",""
"pit-trial","96","696449","0.0-2.0-17.3-0.3","battery-v0.2","","""event"",""trial"",""time""
""fullscreenenter"",""1"",""2593""
","
","
","""event"",""trial"",""time""
""fullscreenenter"",""1"",""2593""
","
","","","1397","","","19","11042","3863","&#9789;","elianto","#f73b6a7A"," "," ","1","0","[2249.4000000953674]","1","0","4","","","","","","","",""
"pit-trial","97","701314","0.0-2.0-17.3-1.3","battery-v0.2","","""event"",""trial"",""time""
""fullscreenenter"",""1"",""2593""
","
","
","""event"",""trial"",""time""
""fullscreenenter"",""1"",""2593""
","
","","","-1","","","19","11042","3863","&#9789;","elianto","#f73b6a7A"," ","-1","0","-10","[]","0","0","4","","","","","","","",""
"pit-trial","98","704762","0.0-2.0-17.3-2.3","battery-v0.2","","""event"",""trial"",""time""
""fullscreenenter"",""1"",""2593""
","
","
","""event"",""trial"",""time""
""fullscreenenter"",""1"",""2593""
","
","","","587.6000001430511","","","19","11042","3863","&#9789;","elianto","#f73b6a7A"," "," ","1","0","[1438.6999998092651]","1","0","4","","","","","","","",""
"pit-trial","99","708027","0.0-2.0-17.3-3.3","battery-v0.2","","""event"",""trial"",""time""
""fullscreenenter"",""1"",""2593""
","
","
","""event"",""trial"",""time""
""fullscreenenter"",""1"",""2593""
","
","","","406.2000000476837","","","19","11042","3863","&#9789;","elianto","#f73b6a7A"," "," ","1","-10","[1257]","1","0","4","","","","","","","",""
"pit-trial","100","711078","0.0-2.0-17.3-4.3","battery-v0.2","","""event"",""trial"",""time""
""fullscreenenter"",""1"",""2593""
","
","
","""event"",""trial"",""time""
""fullscreenenter"",""1"",""2593""
","
","","","188.60000014305115","","","19","11042","3863","&#9789;","elianto","#f73b6a7A"," "," ","1","0","[1042.2000000476837]","1","0","4","","","","","","","",""
"call-function","101","711081","0.0-2.0-18.0","battery-v0.2","","""event"",""trial"",""time""
""fullscreenenter"",""1"",""2593""
","
","
","""event"",""trial"",""time""
""fullscreenenter"",""1"",""2593""
","
","","","","","","","","","","","","","","","","","","","","","","","","","","",""
"pit-instructions","102","778406","0.0-2.0-19.0","battery-v0.2","","""event"",""trial"",""time""
""fullscreenenter"",""1"",""2593""
","
","
","""event"",""trial"",""time""
""fullscreenenter"",""1"",""2593""
","
","","[{""page_index"":0,""viewing_time"":6641.900000095367},{""page_index"":1,""viewing_time"":6629.5},{""page_index"":2,""viewing_time"":9829.099999904633},{""page_index"":3,""viewing_time"":8152.200000047684},{""page_index"":4,""viewing_time"":8588.700000047684},{""page_index"":5,""viewing_time"":8864},{""page_index"":6,""viewing_time"":7960.700000047684},{""page_index"":7,""viewing_time"":6778.799999952316},{""page_index"":8,""viewing_time"":3878.2000000476837}]","67323.90000009537","","","","","","","","","","","","","","","","","","","","","","","",""
"pit-comprehension","103","783252","0.0-2.0-20.0-0.0","battery-v0.2","","""event"",""trial"",""time""
""fullscreenenter"",""1"",""2593""
","
","
","""event"",""trial"",""time""
""fullscreenenter"",""1"",""2593""
","
","","","4839.400000095367","[""SPACE""]","0","19","11042","3863","","","","","","","","","","","","","","","","","","",""
"pit-instructions","104","789285","0.0-2.0-20.0-1.0","battery-v0.2","","""event"",""trial"",""time""
""fullscreenenter"",""1"",""2593""
","
","
","""event"",""trial"",""time""
""fullscreenenter"",""1"",""2593""
","
","","[{""page_index"":0,""viewing_time"":6000.800000190735}]","6001.5","","","","","","","","","","","","","","","","","","","","","","","",""
"pit-comprehension","105","796406","0.0-2.0-21.0-0.0","battery-v0.2","","""event"",""trial"",""time""
""fullscreenenter"",""1"",""2593""
","
","
","""event"",""trial"",""time""
""fullscreenenter"",""1"",""2593""
","
","","","7115.200000047684","[""10""]","0","19","11042","3863","","","","","","","","","","","","","","","","","","",""
"pit-instructions","106","799116","0.0-2.0-21.0-1.0","battery-v0.2","","""event"",""trial"",""time""
""fullscreenenter"",""1"",""2593""
","
","
","""event"",""trial"",""time""
""fullscreenenter"",""1"",""2593""
","
","","[{""page_index"":0,""viewing_time"":2678.199999809265}]","2678.899999856949","","","","","","","","","","","","","","","","","","","","","","","",""
"pit-comprehension","107","806054","0.0-2.0-22.0-0.0","battery-v0.2","","""event"",""trial"",""time""
""fullscreenenter"",""1"",""2593""
","
","
","""event"",""trial"",""time""
""fullscreenenter"",""1"",""2593""
","
","","","6931.599999904633","[""0""]","0","19","11042","3863","","","","","","","","","","","","","","","","","","",""
"pit-instructions","108","809273","0.0-2.0-22.0-1.0","battery-v0.2","","""event"",""trial"",""time""
""fullscreenenter"",""1"",""2593""
","
","
","""event"",""trial"",""time""
""fullscreenenter"",""1"",""2593""
","
","","[{""page_index"":0,""viewing_time"":3185}]","3185.7000000476837","","","","","","","","","","","","","","","","","","","","","","","",""
"pit-comprehension","109","819350","0.0-2.0-23.0-0.0","battery-v0.2","","""event"",""trial"",""time""
""fullscreenenter"",""1"",""2593""
","
","
","""event"",""trial"",""time""
""fullscreenenter"",""1"",""2593""
","
","","","10071.600000143051","[""True""]","0","19","11042","3863","","","","","","","","","","","","","","","","","","",""
"pit-instructions","110","820886","0.0-2.0-23.0-1.0","battery-v0.2","","""event"",""trial"",""time""
""fullscreenenter"",""1"",""2593""
","
","
","""event"",""trial"",""time""
""fullscreenenter"",""1"",""2593""
","
","","[{""page_index"":0,""viewing_time"":1505.2999999523163}]","1505.7999999523163","","","","","","","","","","","","","","","","","","","","","","","",""
"pit-comprehension","111","829143","0.0-2.0-24.0-0.0","battery-v0.2","","""event"",""trial"",""time""
""fullscreenenter"",""1"",""2593""
","
","
","""event"",""trial"",""time""
""fullscreenenter"",""1"",""2593""
","
","","","8251","[""True""]","0","19","11042","3863","","","","","","","","","","","","","","","","","","",""
"pit-instructions","112","831471","0.0-2.0-24.0-1.0","battery-v0.2","","""event"",""trial"",""time""
""fullscreenenter"",""1"",""2593""
","
","
","""event"",""trial"",""time""
""fullscreenenter"",""1"",""2593""
","
","","[{""page_index"":0,""viewing_time"":2296.0999999046326}]","2296.5999999046326","","","","","","","","","","","","","","","","","","","","","","","",""
"pit-comprehension","113","838299","0.0-2.0-25.0-0.0","battery-v0.2","","""event"",""trial"",""time""
""fullscreenenter"",""1"",""2593""
","
","
","""event"",""trial"",""time""
""fullscreenenter"",""1"",""2593""
","
","","","6822.299999952316","[""True""]","0","19","11042","3863","","","","","","","","","","","","","","","","","","",""
"pit-instructions","114","839941","0.0-2.0-25.0-1.0","battery-v0.2","","""event"",""trial"",""time""
""fullscreenenter"",""1"",""2593""
","
","
","""event"",""trial"",""time""
""fullscreenenter"",""1"",""2593""
","
","","[{""page_index"":0,""viewing_time"":1610.2999999523163}]","1610.9000000953674","","","","","","","","","","","","","","","","","","","","","","","",""
"pit-comprehension","115","845593","0.0-2.0-26.0-0.0","battery-v0.2","","""event"",""trial"",""time""
""fullscreenenter"",""1"",""2593""
","
","
","""event"",""trial"",""time""
""fullscreenenter"",""1"",""2593""
","
","","","5647.100000143051","[""False""]","0","19","11042","3863","","","","","","","","","","","","","","","","","","",""
"pit-instructions","116","847020","0.0-2.0-26.0-1.0","battery-v0.2","","""event"",""trial"",""time""
""fullscreenenter"",""1"",""2593""
","
","
","""event"",""trial"",""time""
""fullscreenenter"",""1"",""2593""
","
","","[{""page_index"":0,""viewing_time"":1396.2999999523163}]","1396.9000000953674","","","","","","","","","","","","","","","","","","","","","","","",""
"pit-instructions","117","865614","0.0-3.0","battery-v0.2","","""event"",""trial"",""time""
""fullscreenenter"",""1"",""2593""
","
","
","""event"",""trial"",""time""
""fullscreenenter"",""1"",""2593""
","
","","[{""page_index"":0,""viewing_time"":4379.099999904633},{""page_index"":1,""viewing_time"":6521.200000047684},{""page_index"":2,""viewing_time"":7690.099999904633}]","18590.89999985695","","","","","","","","","","","","","","","","","","","","","","","",""
"pit-trial","118","869563","0.0-4.0","battery-v0.2","","""event"",""trial"",""time""
""fullscreenenter"",""1"",""2593""
","
","
","""event"",""trial"",""time""
""fullscreenenter"",""1"",""2593""
","
","","","1089.0999999046326","","","19","11042","3863","&#9733;","elianto","#3366ff99","-1"," ","0","0","[1939.5999999046326]","1","1","","","11042","1","2","2","win","no-go","0"
"pit-trial","119","874419","0.0-5.0","battery-v0.2","","""event"",""trial"",""time""
""fullscreenenter"",""1"",""2593""
","
","
","""event"",""trial"",""time""
""fullscreenenter"",""1"",""2593""
","
","","","-1","","","19","11042","3863","&#9728;","elianto","#f73b6a7A","-1","-1","1","0","[]","0","1","","","11042","2","0","4","lose","no-go","0"
"pit-trial","120","879282","0.0-6.0","battery-v0.2","","""event"",""trial"",""time""
""fullscreenenter"",""1"",""2593""
","
","
","""event"",""trial"",""time""
""fullscreenenter"",""1"",""2593""
","
","","","-1","","","19","11042","3863","&#9752;","elianto","#f73b6a7A"," ","-1","0","-10","[]","0","1","","","11042","3","3","3","lose","go","0"
"pit-trial","121","883058","0.0-7.0","battery-v0.2","","""event"",""trial"",""time""
""fullscreenenter"",""1"",""2593""
","
","
","""event"",""trial"",""time""
""fullscreenenter"",""1"",""2593""
","
","","","915.5","","","19","11042","3863","&#9730;","elianto","#3366ff99"," "," ","1","+10","[1766.3000001907349]","1","1","","","11042","4","1","1","win","go","0"
"pit-trial","122","886720","0.0-8.0","battery-v0.2","","""event"",""trial"",""time""
""fullscreenenter"",""1"",""2593""
","
","
","""event"",""trial"",""time""
""fullscreenenter"",""1"",""2593""
","
","","","803.2000000476837","","","19","11042","3863","&#9730;","elianto","#3366ff99"," "," ","1","0","[1656.6000001430511]","1","1","","","11042","5","1","1","win","go","1"
"pit-trial","123","891579","0.0-9.0","battery-v0.2","","""event"",""trial"",""time""
""fullscreenenter"",""1"",""2593""
","
","
","""event"",""trial"",""time""
""fullscreenenter"",""1"",""2593""
","
","","","-1","","","19","11042","3863","&#9728;","elianto","#f73b6a7A","-1","-1","1","0","[]","0","1","","","11042","6","0","4","lose","no-go","0"
"pit-trial","124","895271","0.0-10.0","battery-v0.2","","""event"",""trial"",""time""
""fullscreenenter"",""1"",""2593""
","
","
","""event"",""trial"",""time""
""fullscreenenter"",""1"",""2593""
","
","","","834.1000001430511","","","19","11042","3863","&#9752;","elianto","#f73b6a7A"," "," ","1","0","[1686.7999999523163]","1","1","","","11042","7","3","3","lose","go","0"
"pit-trial","125","899019","0.0-11.0","battery-v0.2","","""event"",""trial"",""time""
""fullscreenenter"",""1"",""2593""
","
","
","""event"",""trial"",""time""
""fullscreenenter"",""1"",""2593""
","
","","","887","","","19","11042","3863","&#9733;","elianto","#3366ff99","-1"," ","0","0","[1738.7000000476837]","1","1","","","11042","8","2","2","win","no-go","0"
"pit-trial","126","903882","0.0-12.0","battery-v0.2","","""event"",""trial"",""time""
""fullscreenenter"",""1"",""2593""
","
","
","""event"",""trial"",""time""
""fullscreenenter"",""1"",""2593""
","
","","","-1","","","19","11042","3863","&#9733;","elianto","#3366ff99","-1","-1","1","+10","[]","0","1","","","11042","9","2","2","win","no-go","0"
"pit-trial","127","908747","0.0-13.0","battery-v0.2","","""event"",""trial"",""time""
""fullscreenenter"",""1"",""2593""
","
","
","""event"",""trial"",""time""
""fullscreenenter"",""1"",""2593""
","
","","","-1","","","19","11042","3863","&#9752;","elianto","#f73b6a7A"," ","-1","0","-10","[]","0","1","","","11042","10","3","3","lose","go","0"
"pit-trial","128","912493","0.0-14.0","battery-v0.2","","""event"",""trial"",""time""
""fullscreenenter"",""1"",""2593""
","
","
","""event"",""trial"",""time""
""fullscreenenter"",""1"",""2593""
","
","","","889.7000000476837","","","19","11042","3863","&#9730;","elianto","#3366ff99"," "," ","1","0","[1741]","1","1","","","11042","11","1","1","win","go","1"
"pit-trial","129","917358","0.0-15.0","battery-v0.2","","""event"",""trial"",""time""
""fullscreenenter"",""1"",""2593""
","
","
","""event"",""trial"",""time""
""fullscreenenter"",""1"",""2593""
","
","","","-1","","","19","11042","3863","&#9728;","elianto","#f73b6a7A","-1","-1","1","0","[]","0","1","","","11042","12","0","4","lose","no-go","0"
"pit-trial","130","921112","0.0-16.0","battery-v0.2","","""event"",""trial"",""time""
""fullscreenenter"",""1"",""2593""
","
","
","""event"",""trial"",""time""
""fullscreenenter"",""1"",""2593""
","
","","","892.5","","","19","11042","3863","&#9733;","elianto","#3366ff99","-1"," ","0","0","[1745.5]","1","1","","","11042","13","2","2","win","no-go","0"
"pit-trial","131","925976","0.0-17.0","battery-v0.2","","""event"",""trial"",""time""
""fullscreenenter"",""1"",""2593""
","
","
","""event"",""trial"",""time""
""fullscreenenter"",""1"",""2593""
","
","","","-1","","","19","11042","3863","&#9752;","elianto","#f73b6a7A"," ","-1","0","-10","[]","0","1","","","11042","14","3","3","lose","go","0"
"pit-trial","132","929652","0.0-18.0","battery-v0.2","","""event"",""trial"",""time""
""fullscreenenter"",""1"",""2593""
","
","
","""event"",""trial"",""time""
""fullscreenenter"",""1"",""2593""
","
","","","812.8000001907349","","","19","11042","3863","&#9730;","elianto","#3366ff99"," "," ","1","+10","[1665.7999999523163]","1","1","","","11042","15","1","1","win","go","0"
"pit-trial","133","934516","0.0-19.0","battery-v0.2","","""event"",""trial"",""time""
""fullscreenenter"",""1"",""2593""
","
","
","""event"",""trial"",""time""
""fullscreenenter"",""1"",""2593""
","
","","","-1","","","19","11042","3863","&#9728;","elianto","#f73b6a7A","-1","-1","1","-10","[]","0","1","","","11042","16","0","4","lose","no-go","1"
"pit-trial","134","938099","0.0-20.0","battery-v0.2","","""event"",""trial"",""time""
""fullscreenenter"",""1"",""2593""
","
","
","""event"",""trial"",""time""
""fullscreenenter"",""1"",""2593""
","
","","","723.6000001430511","","","19","11042","3863","&#9728;","elianto","#f73b6a7A","-1"," ","0","-10","[1573.8999998569489]","1","1","","","11042","17","0","4","lose","no-go","0"
"pit-trial","135","941737","0.0-21.0","battery-v0.2","","""event"",""trial"",""time""
""fullscreenenter"",""1"",""2593""
","
","
","""event"",""trial"",""time""
""fullscreenenter"",""1"",""2593""
","
","","","779.2000000476837","","","19","11042","3863","&#9730;","elianto","#3366ff99"," "," ","1","+10","[1629.6000001430511]","1","1","","","11042","18","1","1","win","go","0"
"pit-trial","136","945455","0.0-22.0","battery-v0.2","","""event"",""trial"",""time""
""fullscreenenter"",""1"",""2593""
","
","
","""event"",""trial"",""time""
""fullscreenenter"",""1"",""2593""
","
","","","857","","","19","11042","3863","&#9733;","elianto","#3366ff99","-1"," ","0","0","[1708.3999998569489]","1","1","","","11042","19","2","2","win","no-go","0"
"pit-trial","137","949120","0.0-23.0","battery-v0.2","","""event"",""trial"",""time""
""fullscreenenter"",""1"",""2593""
","
","
","""event"",""trial"",""time""
""fullscreenenter"",""1"",""2593""
","
","","","805","","","19","11042","3863","&#9752;","elianto","#f73b6a7A"," "," ","1","-10","[1655.4000000953674]","1","1","","","11042","20","3","3","lose","go","1"
"pit-instructions","138","996539","0.0-24.0","battery-v0.2","","""event"",""trial"",""time""
""fullscreenenter"",""1"",""2593""
","
","
","""event"",""trial"",""time""
""fullscreenenter"",""1"",""2593""
","
","","[{""page_index"":0,""viewing_time"":6173.699999809265},{""page_index"":1,""viewing_time"":41242.200000047684}]","47416.39999985695","","","","","","","","","","","","","","","","","","","","","","","",""
"pit-trial","139","1001402","0.0-25.0","battery-v0.2","","""event"",""trial"",""time""
""fullscreenenter"",""1"",""2593""
","
","
","""event"",""trial"",""time""
""fullscreenenter"",""1"",""2593""
","
","","","-1","","","19","11042","3863","e","elianto","#f73b6a7A","-1","-1","1","0","[]","0","2","","","11042","21","2","4","lose","no-go","0"
"pit-trial","140","1006267","0.0-26.0","battery-v0.2","","""event"",""trial"",""time""
""fullscreenenter"",""1"",""2593""
","
","
","""event"",""trial"",""time""
""fullscreenenter"",""1"",""2593""
","
","","","-1","","","19","11042","3863","j","elianto","#f73b6a7A","-1","-1","1","0","[]","0","2","","","11042","22","0","4","lose","no-go","0"
"pit-trial","141","1011131","0.0-27.0","battery-v0.2","","""event"",""trial"",""time""
""fullscreenenter"",""1"",""2593""
","
","
","""event"",""trial"",""time""
""fullscreenenter"",""1"",""2593""
","
","","","-1","","","19","11042","3863","w","elianto","#f73b6a7A"," ","-1","0","0","[]","0","2","","","11042","23","3","3","lose","go","1"
"pit-trial","142","1014650","0.0-28.0","battery-v0.2","","""event"",""trial"",""time""
""fullscreenenter"",""1"",""2593""
","
","
","""event"",""trial"",""time""
""fullscreenenter"",""1"",""2593""
","
","","","656.7000000476837","","","19","11042","3863","d","elianto","#3366ff99"," "," ","1","+10","[1509.2000000476837]","1","2","","","11042","24","1","1","win","go","0"
"pit-trial","143","1019515","0.0-29.0","battery-v0.2","","""event"",""trial"",""time""
""fullscreenenter"",""1"",""2593""
","
","
","""event"",""trial"",""time""
""fullscreenenter"",""1"",""2593""
","
","","","-1","","","19","11042","3863","w","elianto","#f73b6a7A"," ","-1","0","-10","[]","0","2","","","11042","25","3","3","lose","go","0"
"pit-trial","144","1023043","0.0-30.0","battery-v0.2","","""event"",""trial"",""time""
""fullscreenenter"",""1"",""2593""
","
","
","""event"",""trial"",""time""
""fullscreenenter"",""1"",""2593""
","
","","","668.2000000476837","","","19","11042","3863","d","elianto","#3366ff99"," "," ","1","+10","[1520.5]","1","2","","","11042","26","1","1","win","go","0"
"pit-trial","145","1027905","0.0-31.0","battery-v0.2","","""event"",""trial"",""time""
""fullscreenenter"",""1"",""2593""
","
","
","""event"",""trial"",""time""
""fullscreenenter"",""1"",""2593""
","
","","","-1","","","19","11042","3863","e","elianto","#f73b6a7A","-1","-1","1","0","[]","0","2","","","11042","27","2","4","lose","no-go","0"
"pit-trial","146","1031488","0.0-32.0","battery-v0.2","","""event"",""trial"",""time""
""fullscreenenter"",""1"",""2593""
","
","
","""event"",""trial"",""time""
""fullscreenenter"",""1"",""2593""
","
","","","725.2000000476837","","","19","11042","3863","j","elianto","#f73b6a7A","-1"," ","0","-10","[1576.2999999523163]","1","2","","","11042","28","0","4","lose","no-go","0"
"pit-trial","147","1036352","0.0-33.0","battery-v0.2","","""event"",""trial"",""time""
""fullscreenenter"",""1"",""2593""
","
","
","""event"",""trial"",""time""
""fullscreenenter"",""1"",""2593""
","
","","","-1","","","19","11042","3863","e","elianto","#f73b6a7A","-1","-1","1","0","[]","0","2","","","11042","29","2","4","lose","no-go","0"
"pit-trial","148","1041210","0.0-34.0","battery-v0.2","","""event"",""trial"",""time""
""fullscreenenter"",""1"",""2593""
","
","
","""event"",""trial"",""time""
""fullscreenenter"",""1"",""2593""
","
","","","-1","","","19","11042","3863","j","elianto","#f73b6a7A","-1","-1","1","-10","[]","0","2","","","11042","30","0","4","lose","no-go","1"
"pit-trial","149","1046072","0.0-35.0","battery-v0.2","","""event"",""trial"",""time""
""fullscreenenter"",""1"",""2593""
","
","
","""event"",""trial"",""time""
""fullscreenenter"",""1"",""2593""
","
","","","-1","","","19","11042","3863","w","elianto","#f73b6a7A"," ","-1","0","-10","[]","0","2","","","11042","31","3","3","lose","go","0"
"pit-trial","150","1049476","0.0-36.0","battery-v0.2","","""event"",""trial"",""time""
""fullscreenenter"",""1"",""2593""
","
","
","""event"",""trial"",""time""
""fullscreenenter"",""1"",""2593""
","
","","","543.8999998569489","","","19","11042","3863","d","elianto","#3366ff99"," "," ","1","+10","[1394.2999999523163]","1","2","","","11042","32","1","1","win","go","0"
"pit-trial","151","1053765","0.0-37.0","battery-v0.2","","""event"",""trial"",""time""
""fullscreenenter"",""1"",""2593""
","
","
","""event"",""trial"",""time""
""fullscreenenter"",""1"",""2593""
","
","","","1427.7000000476837","","","19","11042","3863","j","elianto","#f73b6a7A","-1"," ","0","-10","[2280.2000000476837]","1","2","","","11042","33","0","4","lose","no-go","0"
"pit-trial","152","1057508","0.0-38.0","battery-v0.2","","""event"",""trial"",""time""
""fullscreenenter"",""1"",""2593""
","
","
","""event"",""trial"",""time""
""fullscreenenter"",""1"",""2593""
","
","","","883.7999999523163","","","19","11042","3863","e","elianto","#f73b6a7A","-1"," ","0","-10","[1735.3999998569489]","1","2","","","11042","34","2","4","lose","no-go","0"
"pit-trial","153","1062372","0.0-39.0","battery-v0.2","","""event"",""trial"",""time""
""fullscreenenter"",""1"",""2593""
","
","
","""event"",""trial"",""time""
""fullscreenenter"",""1"",""2593""
","
","","","-1","","","19","11042","3863","w","elianto","#f73b6a7A"," ","-1","0","0","[]","0","2","","","11042","35","3","3","lose","go","1"
"pit-trial","154","1065764","0.0-40.0","battery-v0.2","","""event"",""trial"",""time""
""fullscreenenter"",""1"",""2593""
","
","
","""event"",""trial"",""time""
""fullscreenenter"",""1"",""2593""
","
","","","533.0999999046326","","","19","11042","3863","d","elianto","#3366ff99"," "," ","1","+10","[1384.0999999046326]","1","2","","","11042","36","1","1","win","go","0"
"pit-trial","155","1070628","0.0-41.0","battery-v0.2","","""event"",""trial"",""time""
""fullscreenenter"",""1"",""2593""
","
","
","""event"",""trial"",""time""
""fullscreenenter"",""1"",""2593""
","
","","","-1","","","19","11042","3863","j","elianto","#f73b6a7A","-1","-1","1","0","[]","0","2","","","11042","37","0","4","lose","no-go","0"
"pit-trial","156","1075493","0.0-42.0","battery-v0.2","","""event"",""trial"",""time""
""fullscreenenter"",""1"",""2593""
","
","
","""event"",""trial"",""time""
""fullscreenenter"",""1"",""2593""
","
","","","-1","","","19","11042","3863","w","elianto","#f73b6a7A"," ","-1","0","-10","[]","0","2","","","11042","38","3","3","lose","go","0"
"pit-trial","157","1079106","0.0-43.0","battery-v0.2","","""event"",""trial"",""time""
""fullscreenenter"",""1"",""2593""
","
","
","""event"",""trial"",""time""
""fullscreenenter"",""1"",""2593""
","
","","","752.2999999523163","","","19","11042","3863","d","elianto","#3366ff99"," "," ","1","+10","[1604.5999999046326]","1","2","","","11042","39","1","1","win","go","0"
"pit-trial","158","1083968","0.0-44.0","battery-v0.2","","""event"",""trial"",""time""
""fullscreenenter"",""1"",""2593""
","
","
","""event"",""trial"",""time""
""fullscreenenter"",""1"",""2593""
","
","","","-1","","","19","11042","3863","e","elianto","#f73b6a7A","-1","-1","1","0","[]","0","2","","","11042","40","2","4","lose","no-go","0"
"pit-trial","159","1088832","0.0-45.0","battery-v0.2","","""event"",""trial"",""time""
""fullscreenenter"",""1"",""2593""
","
","
","""event"",""trial"",""time""
""fullscreenenter"",""1"",""2593""
","
","","","-1","","","19","11042","3863","e","elianto","#f73b6a7A","-1","-1","1","0","[]","0","2","","","11042","41","2","4","lose","no-go","0"
"pit-trial","160","1093697","0.0-46.0","battery-v0.2","","""event"",""trial"",""time""
""fullscreenenter"",""1"",""2593""
","
","
","""event"",""trial"",""time""
""fullscreenenter"",""1"",""2593""
","
","","","-1","","","19","11042","3863","w","elianto","#f73b6a7A"," ","-1","0","-10","[]","0","2","","","11042","42","3","3","lose","go","0"
"pit-trial","161","1098252","0.0-47.0","battery-v0.2","","""event"",""trial"",""time""
""fullscreenenter"",""1"",""2593""
","
","
","""event"",""trial"",""time""
""fullscreenenter"",""1"",""2593""
","
","","","1693","","","19","11042","3863","j","elianto","#f73b6a7A","-1"," ","0","-10","[2546.2000000476837]","1","2","","","11042","43","0","4","lose","no-go","0"
"pit-trial","162","1101620","0.0-48.0","battery-v0.2","","""event"",""trial"",""time""
""fullscreenenter"",""1"",""2593""
","
","
","""event"",""trial"",""time""
""fullscreenenter"",""1"",""2593""
","
","","","507.89999985694885","","","19","11042","3863","d","elianto","#3366ff99"," "," ","1","+10","[1358.7999999523163]","1","2","","","11042","44","1","1","win","go","0"
"pit-trial","163","1106485","0.0-49.0","battery-v0.2","","""event"",""trial"",""time""
""fullscreenenter"",""1"",""2593""
","
","
","""event"",""trial"",""time""
""fullscreenenter"",""1"",""2593""
","
","","","-1","","","19","11042","3863","w","elianto","#f73b6a7A"," ","-1","0","-10","[]","0","2","","","11042","45","3","3","lose","go","0"
"pit-trial","164","1110353","0.0-50.0","battery-v0.2","","""event"",""trial"",""time""
""fullscreenenter"",""1"",""2593""
","
","
","""event"",""trial"",""time""
""fullscreenenter"",""1"",""2593""
","
","","","1014.5999999046326","","","19","11042","3863","j","elianto","#f73b6a7A","-1"," ","0","-10","[1864.7000000476837]","1","2","","","11042","46","0","4","lose","no-go","0"
"pit-trial","165","1113770","0.0-51.0","battery-v0.2","","""event"",""trial"",""time""
""fullscreenenter"",""1"",""2593""
","
","
","""event"",""trial"",""time""
""fullscreenenter"",""1"",""2593""
","
","","","561.4000000953674","","","19","11042","3863","s","elianto","#3366ff99","-1"," ","0","0","[1411.5999999046326]","1","2","","","11042","47","4","2","win","no-go","0"
"pit-trial","166","1118635","0.0-52.0","battery-v0.2","","""event"",""trial"",""time""
""fullscreenenter"",""1"",""2593""
","
","
","""event"",""trial"",""time""
""fullscreenenter"",""1"",""2593""
","
","","","-1","","","19","11042","3863","e","elianto","#f73b6a7A","-1","-1","1","0","[]","0","2","","","11042","48","2","4","lose","no-go","0"
"pit-trial","167","1122165","0.0-53.0","battery-v0.2","","""event"",""trial"",""time""
""fullscreenenter"",""1"",""2593""
","
","
","""event"",""trial"",""time""
""fullscreenenter"",""1"",""2593""
","
","","","670","","","19","11042","3863","d","elianto","#3366ff99"," "," ","1","+10","[1521.2999999523163]","1","2","","","11042","49","1","1","win","go","0"
"pit-trial","168","1126833","0.0-54.0","battery-v0.2","","""event"",""trial"",""time""
""fullscreenenter"",""1"",""2593""
","
","
","""event"",""trial"",""time""
""fullscreenenter"",""1"",""2593""
","
","","","1806.0999999046326","","","19","11042","3863","j","elianto","#f73b6a7A","-1"," ","0","-10","[2659.4000000953674]","1","2","","","11042","50","0","4","lose","no-go","0"
"pit-trial","169","1130496","0.0-55.0","battery-v0.2","","""event"",""trial"",""time""
""fullscreenenter"",""1"",""2593""
","
","
","""event"",""trial"",""time""
""fullscreenenter"",""1"",""2593""
","
","","","803","","","19","11042","3863","s","elianto","#3366ff99","-1"," ","0","0","[1655]","1","2","","","11042","51","4","2","win","no-go","0"
"pit-trial","170","1134652","0.0-56.0","battery-v0.2","","""event"",""trial"",""time""
""fullscreenenter"",""1"",""2593""
","
","
","""event"",""trial"",""time""
""fullscreenenter"",""1"",""2593""
","
","","","1295","","","19","11042","3863","w","elianto","#f73b6a7A"," "," ","1","0","[2147.5]","1","2","","","11042","52","3","3","lose","go","0"
"pit-trial","171","1138154","0.0-57.0","battery-v0.2","","""event"",""trial"",""time""
""fullscreenenter"",""1"",""2593""
","
","
","""event"",""trial"",""time""
""fullscreenenter"",""1"",""2593""
","
","","","642.5999999046326","","","19","11042","3863","s","elianto","#3366ff99","-1"," ","0","0","[1493]","1","2","","","11042","53","4","2","win","no-go","0"
"pit-trial","172","1143020","0.0-58.0","battery-v0.2","","""event"",""trial"",""time""
""fullscreenenter"",""1"",""2593""
","
","
","""event"",""trial"",""time""
""fullscreenenter"",""1"",""2593""
","
","","","-1","","","19","11042","3863","j","elianto","#f73b6a7A","-1","-1","1","0","[]","0","2","","","11042","54","0","4","lose","no-go","0"
"pit-trial","173","1146625","0.0-59.0","battery-v0.2","","""event"",""trial"",""time""
""fullscreenenter"",""1"",""2593""
","
","
","""event"",""trial"",""time""
""fullscreenenter"",""1"",""2593""
","
","","","745.5","","","19","11042","3863","d","elianto","#3366ff99"," "," ","1","+10","[1596.5]","1","2","","","11042","55","1","1","win","go","0"
"pit-trial","174","1151487","0.0-60.0","battery-v0.2","","""event"",""trial"",""time""
""fullscreenenter"",""1"",""2593""
","
","
","""event"",""trial"",""time""
""fullscreenenter"",""1"",""2593""
","
","","","-1","","","19","11042","3863","e","elianto","#f73b6a7A","-1","-1","1","-10","[]","0","2","","","11042","56","2","4","lose","no-go","1"
"pit-trial","175","1156352","0.0-61.0","battery-v0.2","","""event"",""trial"",""time""
""fullscreenenter"",""1"",""2593""
","
","
","""event"",""trial"",""time""
""fullscreenenter"",""1"",""2593""
","
","","","-1","","","19","11042","3863","j","elianto","#f73b6a7A","-1","-1","1","0","[]","0","2","","","11042","57","0","4","lose","no-go","0"
"pit-trial","176","1159920","0.0-62.0","battery-v0.2","","""event"",""trial"",""time""
""fullscreenenter"",""1"",""2593""
","
","
","""event"",""trial"",""time""
""fullscreenenter"",""1"",""2593""
","
","","","708.0999999046326","","","19","11042","3863","d","elianto","#3366ff99"," "," ","1","+10","[1559.0999999046326]","1","2","","","11042","58","1","1","win","go","0"
"pit-trial","177","1163909","0.0-63.0","battery-v0.2","","""event"",""trial"",""time""
""fullscreenenter"",""1"",""2593""
","
","
","""event"",""trial"",""time""
""fullscreenenter"",""1"",""2593""
","
","","","1128.7000000476837","","","19","11042","3863","w","elianto","#f73b6a7A"," "," ","1","0","[1979.5999999046326]","1","2","","","11042","59","3","3","lose","go","0"
"pit-trial","178","1167712","0.0-64.0","battery-v0.2","","""event"",""trial"",""time""
""fullscreenenter"",""1"",""2593""
","
","
","""event"",""trial"",""time""
""fullscreenenter"",""1"",""2593""
","
","","","942.8999998569489","","","19","11042","3863","s","elianto","#3366ff99","-1"," ","0","0","[1794.9000000953674]","1","2","","","11042","60","4","2","win","no-go","0"
"pit-trial","179","1171817","0.0-65.0","battery-v0.2","","""event"",""trial"",""time""
""fullscreenenter"",""1"",""2593""
","
","
","""event"",""trial"",""time""
""fullscreenenter"",""1"",""2593""
","
","","","1243.2999999523163","","","19","11042","3863","w","elianto","#f73b6a7A"," "," ","1","0","[2095.7999999523163]","1","2","","","11042","61","3","3","lose","go","0"
"pit-trial","180","1176677","0.0-66.0","battery-v0.2","","""event"",""trial"",""time""
""fullscreenenter"",""1"",""2593""
","
","
","""event"",""trial"",""time""
""fullscreenenter"",""1"",""2593""
","
","","","-1","","","19","11042","3863","e","elianto","#f73b6a7A","-1","-1","1","0","[]","0","2","","","11042","62","2","4","lose","no-go","0"
"pit-trial","181","1180244","0.0-67.0","battery-v0.2","","""event"",""trial"",""time""
""fullscreenenter"",""1"",""2593""
","
","
","""event"",""trial"",""time""
""fullscreenenter"",""1"",""2593""
","
","","","705.3000001907349","","","19","11042","3863","s","elianto","#3366ff99","-1"," ","0","0","[1557.7000000476837]","1","2","","","11042","63","4","2","win","no-go","0"
"pit-trial","182","1183976","0.0-68.0","battery-v0.2","","""event"",""trial"",""time""
""fullscreenenter"",""1"",""2593""
","
","
","""event"",""trial"",""time""
""fullscreenenter"",""1"",""2593""
","
","","","869.7000000476837","","","19","11042","3863","d","elianto","#3366ff99"," "," ","1","+10","[1722.2999999523163]","1","2","","","11042","64","1","1","win","go","0"
"pit-trial","183","1188837","0.0-69.0","battery-v0.2","","""event"",""trial"",""time""
""fullscreenenter"",""1"",""2593""
","
","
","""event"",""trial"",""time""
""fullscreenenter"",""1"",""2593""
","
","","","-1","","","19","11042","3863","e","elianto","#f73b6a7A","-1","-1","1","0","[]","0","2","","","11042","65","2","4","lose","no-go","0"
"pit-trial","184","1192419","0.0-70.0","battery-v0.2","","""event"",""trial"",""time""
""fullscreenenter"",""1"",""2593""
","
","
","""event"",""trial"",""time""
""fullscreenenter"",""1"",""2593""
","
","","","721.6000001430511","","","19","11042","3863","d","elianto","#3366ff99"," "," ","1","+10","[1572.3000001907349]","1","2","","","11042","66","1","1","win","go","0"
"pit-trial","185","1197189","0.0-71.0","battery-v0.2","","""event"",""trial"",""time""
""fullscreenenter"",""1"",""2593""
","
","
","""event"",""trial"",""time""
""fullscreenenter"",""1"",""2593""
","
","","","1911.7999999523163","","","19","11042","3863","w","elianto","#f73b6a7A"," "," ","1","0","[2762.199999809265]","1","2","","","11042","67","3","3","lose","go","0"
"pit-trial","186","1202053","0.0-72.0","battery-v0.2","","""event"",""trial"",""time""
""fullscreenenter"",""1"",""2593""
","
","
","""event"",""trial"",""time""
""fullscreenenter"",""1"",""2593""
","
","","","-1","","","19","11042","3863","s","elianto","#3366ff99","-1","-1","1","+10","[]","0","2","","","11042","68","4","2","win","no-go","0"
"pit-trial","187","1205999","0.0-73.0","battery-v0.2","","""event"",""trial"",""time""
""fullscreenenter"",""1"",""2593""
","
","
","""event"",""trial"",""time""
""fullscreenenter"",""1"",""2593""
","
","","","1086.7000000476837","","","19","11042","3863","p","elianto","#3366ff99"," "," ","1","+10","[1936.7999999523163]","1","2","","","11042","69","5","1","win","go","0"
"pit-trial","188","1209817","0.0-74.0","battery-v0.2","","""event"",""trial"",""time""
""fullscreenenter"",""1"",""2593""
","
","
","""event"",""trial"",""time""
""fullscreenenter"",""1"",""2593""
","
","","","955.7999999523163","","","19","11042","3863","s","elianto","#3366ff99","-1"," ","0","+10","[1809.2999999523163]","1","2","","","11042","70","4","2","win","no-go","1"
"pit-trial","189","1213784","0.0-75.0","battery-v0.2","","""event"",""trial"",""time""
""fullscreenenter"",""1"",""2593""
","
","
","""event"",""trial"",""time""
""fullscreenenter"",""1"",""2593""
","
","","","1106.5999999046326","","","19","11042","3863","w","elianto","#f73b6a7A"," "," ","1","0","[1956.9000000953674]","1","2","","","11042","71","3","3","lose","go","0"
"pit-trial","190","1217480","0.0-76.0","battery-v0.2","","""event"",""trial"",""time""
""fullscreenenter"",""1"",""2593""
","
","
","""event"",""trial"",""time""
""fullscreenenter"",""1"",""2593""
","
","","","836","","","19","11042","3863","d","elianto","#3366ff99"," "," ","1","+10","[1686.9000000953674]","1","2","","","11042","72","1","1","win","go","0"
"pit-trial","191","1221776","0.0-77.0","battery-v0.2","","""event"",""trial"",""time""
""fullscreenenter"",""1"",""2593""
","
","
","""event"",""trial"",""time""
""fullscreenenter"",""1"",""2593""
","
","","","1433.2000000476837","","","19","11042","3863","d","elianto","#3366ff99"," "," ","1","0","[2286.2000000476837]","1","2","","","11042","73","1","1","win","go","1"
"pit-trial","192","1225707","0.0-78.0","battery-v0.2","","""event"",""trial"",""time""
""fullscreenenter"",""1"",""2593""
","
","
","""event"",""trial"",""time""
""fullscreenenter"",""1"",""2593""
","
","","","1074.2999999523163","","","19","11042","3863","w","elianto","#f73b6a7A"," "," ","1","0","[1925.9000000953674]","1","2","","","11042","74","3","3","lose","go","0"
"pit-trial","193","1229930","0.0-79.0","battery-v0.2","","""event"",""trial"",""time""
""fullscreenenter"",""1"",""2593""
","
","
","""event"",""trial"",""time""
""fullscreenenter"",""1"",""2593""
","
","","","1362","","","19","11042","3863","s","elianto","#3366ff99","-1"," ","0","0","[2213.399999856949]","1","2","","","11042","75","4","2","win","no-go","0"
"pit-trial","194","1233832","0.0-80.0","battery-v0.2","","""event"",""trial"",""time""
""fullscreenenter"",""1"",""2593""
","
","
","""event"",""trial"",""time""
""fullscreenenter"",""1"",""2593""
","
","","","1041","","","19","11042","3863","p","elianto","#3366ff99"," "," ","1","+10","[1893.5999999046326]","1","2","","","11042","76","5","1","win","go","0"
"pit-trial","195","1238697","0.0-81.0","battery-v0.2","","""event"",""trial"",""time""
""fullscreenenter"",""1"",""2593""
","
","
","""event"",""trial"",""time""
""fullscreenenter"",""1"",""2593""
","
","","","-1","","","19","11042","3863","w","elianto","#f73b6a7A"," ","-1","0","-10","[]","0","2","","","11042","77","3","3","lose","go","0"
"pit-trial","196","1242885","0.0-82.0","battery-v0.2","","""event"",""trial"",""time""
""fullscreenenter"",""1"",""2593""
","
","
","""event"",""trial"",""time""
""fullscreenenter"",""1"",""2593""
","
","","","1326.5","","","19","11042","3863","s","elianto","#3366ff99","-1"," ","0","0","[2180.2999999523163]","1","2","","","11042","78","4","2","win","no-go","0"
"pit-trial","197","1246442","0.0-83.0","battery-v0.2","","""event"",""trial"",""time""
""fullscreenenter"",""1"",""2593""
","
","
","""event"",""trial"",""time""
""fullscreenenter"",""1"",""2593""
","
","","","699.6999998092651","","","19","11042","3863","p","elianto","#3366ff99"," "," ","1","+10","[1550.9000000953674]","1","2","","","11042","79","5","1","win","go","0"
"pit-trial","198","1251306","0.0-84.0","battery-v0.2","","""event"",""trial"",""time""
""fullscreenenter"",""1"",""2593""
","
","
","""event"",""trial"",""time""
""fullscreenenter"",""1"",""2593""
","
","","","-1","","","19","11042","3863","g","elianto","#f73b6a7A","-1","-1","1","0","[]","0","2","","","11042","80","6","4","lose","no-go","0"
"pit-trial","199","1256171","0.0-85.0","battery-v0.2","","""event"",""trial"",""time""
""fullscreenenter"",""1"",""2593""
","
","
","""event"",""trial"",""time""
""fullscreenenter"",""1"",""2593""
","
","","","-1","","","19","11042","3863","g","elianto","#f73b6a7A","-1","-1","1","-10","[]","0","2","","","11042","81","6","4","lose","no-go","1"
"pit-trial","200","1261035","0.0-86.0","battery-v0.2","","""event"",""trial"",""time""
""fullscreenenter"",""1"",""2593""
","
","
","""event"",""trial"",""time""
""fullscreenenter"",""1"",""2593""
","
","","","-1","","","19","11042","3863","a","elianto","#f73b6a7A"," ","-1","0","-10","[]","0","2","","","11042","82","7","3","lose","go","0"
"pit-trial","201","1265007","0.0-87.0","battery-v0.2","","""event"",""trial"",""time""
""fullscreenenter"",""1"",""2593""
","
","
","""event"",""trial"",""time""
""fullscreenenter"",""1"",""2593""
","
","","","1116.4000000953674","","","19","11042","3863","p","elianto","#3366ff99"," "," ","1","+10","[1966.5]","1","2","","","11042","83","5","1","win","go","0"
"pit-trial","202","1268546","0.0-88.0","battery-v0.2","","""event"",""trial"",""time""
""fullscreenenter"",""1"",""2593""
","
","
","""event"",""trial"",""time""
""fullscreenenter"",""1"",""2593""
","
","","","677.5","","","19","11042","3863","s","elianto","#3366ff99","-1"," ","0","0","[1528.5999999046326]","1","2","","","11042","84","4","2","win","no-go","0"
"pit-trial","203","1272744","0.0-89.0","battery-v0.2","","""event"",""trial"",""time""
""fullscreenenter"",""1"",""2593""
","
","
","""event"",""trial"",""time""
""fullscreenenter"",""1"",""2593""
","
","","","1336.3999998569489","","","19","11042","3863","g","elianto","#f73b6a7A","-1"," ","0","-10","[2188.4000000953674]","1","2","","","11042","85","6","4","lose","no-go","0"
"pit-trial","204","1276703","0.0-90.0","battery-v0.2","","""event"",""trial"",""time""
""fullscreenenter"",""1"",""2593""
","
","
","""event"",""trial"",""time""
""fullscreenenter"",""1"",""2593""
","
","","","1102.7000000476837","","","19","11042","3863","a","elianto","#f73b6a7A"," "," ","1","-10","[1955.2000000476837]","1","2","","","11042","86","7","3","lose","go","1"
"pit-trial","205","1280309","0.0-91.0","battery-v0.2","","""event"",""trial"",""time""
""fullscreenenter"",""1"",""2593""
","
","
","""event"",""trial"",""time""
""fullscreenenter"",""1"",""2593""
","
","","","745.2000000476837","","","19","11042","3863","s","elianto","#3366ff99","-1"," ","0","0","[1595.5999999046326]","1","2","","","11042","87","4","2","win","no-go","0"
"pit-trial","206","1283916","0.0-92.0","battery-v0.2","","""event"",""trial"",""time""
""fullscreenenter"",""1"",""2593""
","
","
","""event"",""trial"",""time""
""fullscreenenter"",""1"",""2593""
","
","","","747.2999999523163","","","19","11042","3863","p","elianto","#3366ff99"," "," ","1","+10","[1598.2000000476837]","1","2","","","11042","88","5","1","win","go","0"
"pit-trial","207","1287550","0.0-93.0","battery-v0.2","","""event"",""trial"",""time""
""fullscreenenter"",""1"",""2593""
","
","
","""event"",""trial"",""time""
""fullscreenenter"",""1"",""2593""
","
","","","772.1000001430511","","","19","11042","3863","p","elianto","#3366ff99"," "," ","1","0","[1624.7999999523163]","1","2","","","11042","89","5","1","win","go","1"
"pit-trial","208","1292415","0.0-94.0","battery-v0.2","","""event"",""trial"",""time""
""fullscreenenter"",""1"",""2593""
","
","
","""event"",""trial"",""time""
""fullscreenenter"",""1"",""2593""
","
","","","-1","","","19","11042","3863","a","elianto","#f73b6a7A"," ","-1","0","-10","[]","0","2","","","11042","90","7","3","lose","go","0"
"pit-trial","209","1296020","0.0-95.0","battery-v0.2","","""event"",""trial"",""time""
""fullscreenenter"",""1"",""2593""
","
","
","""event"",""trial"",""time""
""fullscreenenter"",""1"",""2593""
","
","","","741.5999999046326","","","19","11042","3863","s","elianto","#3366ff99","-1"," ","0","0","[1595]","1","2","","","11042","91","4","2","win","no-go","0"
"pit-trial","210","1300884","0.0-96.0","battery-v0.2","","""event"",""trial"",""time""
""fullscreenenter"",""1"",""2593""
","
","
","""event"",""trial"",""time""
""fullscreenenter"",""1"",""2593""
","
","","","-1","","","19","11042","3863","g","elianto","#f73b6a7A","-1","-1","1","0","[]","0","2","","","11042","92","6","4","lose","no-go","0"
"pit-trial","211","1304791","0.0-97.0","battery-v0.2","","""event"",""trial"",""time""
""fullscreenenter"",""1"",""2593""
","
","
","""event"",""trial"",""time""
""fullscreenenter"",""1"",""2593""
","
","","","1046.2999999523163","","","19","11042","3863","p","elianto","#3366ff99"," "," ","1","+10","[1897.5]","1","2","","","11042","93","5","1","win","go","0"
"pit-trial","212","1308713","0.0-98.0","battery-v0.2","","""event"",""trial"",""time""
""fullscreenenter"",""1"",""2593""
","
","
","""event"",""trial"",""time""
""fullscreenenter"",""1"",""2593""
","
","","","1061.9000000953674","","","19","11042","3863","l","elianto","#3366ff99","-1"," ","0","0","[1913]","1","2","","","11042","94","8","2","win","no-go","0"
"pit-trial","213","1313573","0.0-99.0","battery-v0.2","","""event"",""trial"",""time""
""fullscreenenter"",""1"",""2593""
","
","
","""event"",""trial"",""time""
""fullscreenenter"",""1"",""2593""
","
","","","-1","","","19","11042","3863","g","elianto","#f73b6a7A","-1","-1","1","-10","[]","0","2","","","11042","95","6","4","lose","no-go","1"
"pit-trial","214","1318438","0.0-100.0","battery-v0.2","","""event"",""trial"",""time""
""fullscreenenter"",""1"",""2593""
","
","
","""event"",""trial"",""time""
""fullscreenenter"",""1"",""2593""
","
","","","-1","","","19","11042","3863","a","elianto","#f73b6a7A"," ","-1","0","-10","[]","0","2","","","11042","96","7","3","lose","go","0"
"pit-trial","215","1322163","0.0-101.0","battery-v0.2","","""event"",""trial"",""time""
""fullscreenenter"",""1"",""2593""
","
","
","""event"",""trial"",""time""
""fullscreenenter"",""1"",""2593""
","
","","","865.5999999046326","","","19","11042","3863","p","elianto","#3366ff99"," "," ","1","0","[1716.5999999046326]","1","2","","","11042","97","5","1","win","go","1"
"pit-trial","216","1325996","0.0-102.0","battery-v0.2","","""event"",""trial"",""time""
""fullscreenenter"",""1"",""2593""
","
","
","""event"",""trial"",""time""
""fullscreenenter"",""1"",""2593""
","
","","","970.5","","","19","11042","3863","a","elianto","#f73b6a7A"," "," ","1","-10","[1823.2999999523163]","1","2","","","11042","98","7","3","lose","go","1"
"pit-trial","217","1329573","0.0-103.0","battery-v0.2","","""event"",""trial"",""time""
""fullscreenenter"",""1"",""2593""
","
","
","""event"",""trial"",""time""
""fullscreenenter"",""1"",""2593""
","
","","","717.5999999046326","","","19","11042","3863","g","elianto","#f73b6a7A","-1"," ","0","-10","[1569.5]","1","2","","","11042","99","6","4","lose","no-go","0"
"pit-trial","218","1334438","0.0-104.0","battery-v0.2","","""event"",""trial"",""time""
""fullscreenenter"",""1"",""2593""
","
","
","""event"",""trial"",""time""
""fullscreenenter"",""1"",""2593""
","
","","","-1","","","19","11042","3863","l","elianto","#3366ff99","-1","-1","1","+10","[]","0","2","","","11042","100","8","2","win","no-go","0"
"pit-trial","219","1338028","0.0-105.0","battery-v0.2","","""event"",""trial"",""time""
""fullscreenenter"",""1"",""2593""
","
","
","""event"",""trial"",""time""
""fullscreenenter"",""1"",""2593""
","
","","","730.2000000476837","","","19","11042","3863","u","elianto","#3366ff99","-1"," ","0","0","[1581.1000001430511]","1","2","","","11042","101","9","2","win","no-go","0"
"pit-trial","220","1341454","0.0-106.0","battery-v0.2","","""event"",""trial"",""time""
""fullscreenenter"",""1"",""2593""
","
","
","""event"",""trial"",""time""
""fullscreenenter"",""1"",""2593""
","
","","","564.7999999523163","","","19","11042","3863","l","elianto","#3366ff99","-1"," ","0","0","[1416.6999998092651]","1","2","","","11042","102","8","2","win","no-go","0"
"pit-trial","221","1345124","0.0-107.0","battery-v0.2","","""event"",""trial"",""time""
""fullscreenenter"",""1"",""2593""
","
","
","""event"",""trial"",""time""
""fullscreenenter"",""1"",""2593""
","
","","","810.2999999523163","","","19","11042","3863","p","elianto","#3366ff99"," "," ","1","0","[1661.5]","1","2","","","11042","103","5","1","win","go","1"
"pit-trial","222","1349216","0.0-108.0","battery-v0.2","","""event"",""trial"",""time""
""fullscreenenter"",""1"",""2593""
","
","
","""event"",""trial"",""time""
""fullscreenenter"",""1"",""2593""
","
","","","1232.1000001430511","","","19","11042","3863","g","elianto","#f73b6a7A","-1"," ","0","-10","[2082.5999999046326]","1","2","","","11042","104","6","4","lose","no-go","0"
"pit-trial","223","1352872","0.0-109.0","battery-v0.2","","""event"",""trial"",""time""
""fullscreenenter"",""1"",""2593""
","
","
","""event"",""trial"",""time""
""fullscreenenter"",""1"",""2593""
","
","","","799.2999999523163","","","19","11042","3863","p","elianto","#3366ff99"," "," ","1","+10","[1649.7999999523163]","1","2","","","11042","105","5","1","win","go","0"
"pit-trial","224","1356464","0.0-110.0","battery-v0.2","","""event"",""trial"",""time""
""fullscreenenter"",""1"",""2593""
","
","
","""event"",""trial"",""time""
""fullscreenenter"",""1"",""2593""
","
","","","733","","","19","11042","3863","l","elianto","#3366ff99","-1"," ","0","+10","[1583]","1","2","","","11042","106","8","2","win","no-go","1"
"pit-trial","225","1360118","0.0-111.0","battery-v0.2","","""event"",""trial"",""time""
""fullscreenenter"",""1"",""2593""
","
","
","""event"",""trial"",""time""
""fullscreenenter"",""1"",""2593""
","
","","","791.7000000476837","","","19","11042","3863","u","elianto","#3366ff99","-1"," ","0","0","[1644.5]","1","2","","","11042","107","9","2","win","no-go","0"
"pit-trial","226","1364983","0.0-112.0","battery-v0.2","","""event"",""trial"",""time""
""fullscreenenter"",""1"",""2593""
","
","
","""event"",""trial"",""time""
""fullscreenenter"",""1"",""2593""
","
","","","-1","","","19","11042","3863","g","elianto","#f73b6a7A","-1","-1","1","0","[]","0","2","","","11042","108","6","4","lose","no-go","0"
"pit-trial","227","1369845","0.0-113.0","battery-v0.2","","""event"",""trial"",""time""
""fullscreenenter"",""1"",""2593""
","
","
","""event"",""trial"",""time""
""fullscreenenter"",""1"",""2593""
","
","","","-1","","","19","11042","3863","g","elianto","#f73b6a7A","-1","-1","1","-10","[]","0","2","","","11042","109","6","4","lose","no-go","1"
"pit-trial","228","1374710","0.0-114.0","battery-v0.2","","""event"",""trial"",""time""
""fullscreenenter"",""1"",""2593""
","
","
","""event"",""trial"",""time""
""fullscreenenter"",""1"",""2593""
","
","","","-1","","","19","11042","3863","p","elianto","#3366ff99"," ","-1","0","0","[]","0","2","","","11042","110","5","1","win","go","0"
"pit-trial","229","1378223","0.0-115.0","battery-v0.2","","""event"",""trial"",""time""
""fullscreenenter"",""1"",""2593""
","
","
","""event"",""trial"",""time""
""fullscreenenter"",""1"",""2593""
","
","","","650.5999999046326","","","19","11042","3863","l","elianto","#3366ff99","-1"," ","0","+10","[1503.5999999046326]","1","2","","","11042","111","8","2","win","no-go","1"
"pit-trial","230","1381653","0.0-116.0","battery-v0.2","","""event"",""trial"",""time""
""fullscreenenter"",""1"",""2593""
","
","
","""event"",""trial"",""time""
""fullscreenenter"",""1"",""2593""
","
","","","574.8999998569489","","","19","11042","3863","u","elianto","#3366ff99","-1"," ","0","0","[1425.7000000476837]","1","2","","","11042","112","9","2","win","no-go","0"
"pit-trial","231","1385087","0.0-117.0","battery-v0.2","","""event"",""trial"",""time""
""fullscreenenter"",""1"",""2593""
","
","
","""event"",""trial"",""time""
""fullscreenenter"",""1"",""2593""
","
","","","578.9000000953674","","","19","11042","3863","l","elianto","#3366ff99","-1"," ","0","0","[1428.7000000476837]","1","2","","","11042","113","8","2","win","no-go","0"
"pit-trial","232","1389887","0.0-118.0","battery-v0.2","","""event"",""trial"",""time""
""fullscreenenter"",""1"",""2593""
","
","
","""event"",""trial"",""time""
""fullscreenenter"",""1"",""2593""
","
","","","1944.2000000476837","","","19","11042","3863","u","elianto","#3366ff99","-1"," ","0","0","[2794.100000143051]","1","2","","","11042","114","9","2","win","no-go","0"
"pit-trial","233","1394753","0.0-119.0","battery-v0.2","","""event"",""trial"",""time""
""fullscreenenter"",""1"",""2593""
","
","
","""event"",""trial"",""time""
""fullscreenenter"",""1"",""2593""
","
","","","-1","","","19","11042","3863","a","elianto","#f73b6a7A"," ","-1","0","-10","[]","0","2","","","11042","115","7","3","lose","go","0"
"pit-trial","234","1398246","0.0-120.0","battery-v0.2","","""event"",""trial"",""time""
""fullscreenenter"",""1"",""2593""
","
","
","""event"",""trial"",""time""
""fullscreenenter"",""1"",""2593""
","
","","","634","","","19","11042","3863","p","elianto","#3366ff99"," "," ","1","+10","[1484.4000000953674]","1","2","","","11042","116","5","1","win","go","0"
"pit-trial","235","1403103","0.0-121.0","battery-v0.2","","""event"",""trial"",""time""
""fullscreenenter"",""1"",""2593""
","
","
","""event"",""trial"",""time""
""fullscreenenter"",""1"",""2593""
","
","","","-1","","","19","11042","3863","g","elianto","#f73b6a7A","-1","-1","1","0","[]","0","2","","","11042","117","6","4","lose","no-go","0"
"pit-trial","236","1406735","0.0-122.0","battery-v0.2","","""event"",""trial"",""time""
""fullscreenenter"",""1"",""2593""
","
","
","""event"",""trial"",""time""
""fullscreenenter"",""1"",""2593""
","
","","","771.9000000953674","","","19","11042","3863","p","elianto","#3366ff99"," "," ","1","+10","[1621.8999998569489]","1","2","","","11042","118","5","1","win","go","0"
"pit-trial","237","1411258","0.0-123.0","battery-v0.2","","""event"",""trial"",""time""
""fullscreenenter"",""1"",""2593""
","
","
","""event"",""trial"",""time""
""fullscreenenter"",""1"",""2593""
","
","","","1667.7999999523163","","","19","11042","3863","u","elianto","#3366ff99","-1"," ","0","0","[2519]","1","2","","","11042","119","9","2","win","no-go","0"
"pit-trial","238","1416123","0.0-124.0","battery-v0.2","","""event"",""trial"",""time""
""fullscreenenter"",""1"",""2593""
","
","
","""event"",""trial"",""time""
""fullscreenenter"",""1"",""2593""
","
","","","-1","","","19","11042","3863","l","elianto","#3366ff99","-1","-1","1","0","[]","0","2","","","11042","120","8","2","win","no-go","1"
"pit-trial","239","1419718","0.0-125.0","battery-v0.2","","""event"",""trial"",""time""
""fullscreenenter"",""1"",""2593""
","
","
","""event"",""trial"",""time""
""fullscreenenter"",""1"",""2593""
","
","","","735.0999999046326","","","19","11042","3863","u","elianto","#3366ff99","-1"," ","0","0","[1585.2999999523163]","1","2","","","11042","121","9","2","win","no-go","0"
"pit-trial","240","1423178","0.0-126.0","battery-v0.2","","""event"",""trial"",""time""
""fullscreenenter"",""1"",""2593""
","
","
","""event"",""trial"",""time""
""fullscreenenter"",""1"",""2593""
","
","","","599.5999999046326","","","19","11042","3863","l","elianto","#3366ff99","-1"," ","0","+10","[1451.7999999523163]","1","2","","","11042","122","8","2","win","no-go","1"
"pit-trial","241","1428042","0.0-127.0","battery-v0.2","","""event"",""trial"",""time""
""fullscreenenter"",""1"",""2593""
","
","
","""event"",""trial"",""time""
""fullscreenenter"",""1"",""2593""
","
","","","-1","","","19","11042","3863","a","elianto","#f73b6a7A"," ","-1","0","-10","[]","0","2","","","11042","123","7","3","lose","go","0"
"pit-trial","242","1431703","0.0-128.0","battery-v0.2","","""event"",""trial"",""time""
""fullscreenenter"",""1"",""2593""
","
","
","""event"",""trial"",""time""
""fullscreenenter"",""1"",""2593""
","
","","","803.0999999046326","","","19","11042","3863","p","elianto","#3366ff99"," "," ","1","+10","[1654.5]","1","2","","","11042","124","5","1","win","go","0"
"pit-trial","243","1436567","0.0-129.0","battery-v0.2","","""event"",""trial"",""time""
""fullscreenenter"",""1"",""2593""
","
","
","""event"",""trial"",""time""
""fullscreenenter"",""1"",""2593""
","
","","","-1","","","19","11042","3863","g","elianto","#f73b6a7A","-1","-1","1","0","[2952.899999856949]","1","2","","","11042","125","6","4","lose","no-go","0"
"pit-trial","244","1440672","0.0-130.0","battery-v0.2","","""event"",""trial"",""time""
""fullscreenenter"",""1"",""2593""
","
","
","""event"",""trial"",""time""
""fullscreenenter"",""1"",""2593""
","
","","","1244.8999998569489","","","19","11042","3863","a","elianto","#f73b6a7A"," "," ","1","0","[2095.7000000476837]","1","2","","","11042","126","7","3","lose","go","0"
"pit-trial","245","1444223","0.0-131.0","battery-v0.2","","""event"",""trial"",""time""
""fullscreenenter"",""1"",""2593""
","
","
","""event"",""trial"",""time""
""fullscreenenter"",""1"",""2593""
","
","","","690.8999998569489","","","19","11042","3863","l","elianto","#3366ff99","-1"," ","0","+10","[1542.5999999046326]","1","2","","","11042","127","8","2","win","no-go","1"
"pit-trial","246","1447765","0.0-132.0","battery-v0.2","","""event"",""trial"",""time""
""fullscreenenter"",""1"",""2593""
","
","
","""event"",""trial"",""time""
""fullscreenenter"",""1"",""2593""
","
","","","685.8000001907349","","","19","11042","3863","u","elianto","#3366ff99","-1"," ","0","0","[1536.3999998569489]","1","2","","","11042","128","9","2","win","no-go","0"
"pit-trial","247","1451530","0.0-133.0","battery-v0.2","","""event"",""trial"",""time""
""fullscreenenter"",""1"",""2593""
","
","
","""event"",""trial"",""time""
""fullscreenenter"",""1"",""2593""
","
","","","907.2999999523163","","","19","11042","3863","l","elianto","#3366ff99","-1"," ","0","+10","[1759.5999999046326]","1","2","","","11042","129","8","2","win","no-go","1"
"pit-trial","248","1456395","0.0-134.0","battery-v0.2","","""event"",""trial"",""time""
""fullscreenenter"",""1"",""2593""
","
","
","""event"",""trial"",""time""
""fullscreenenter"",""1"",""2593""
","
","","","-1","","","19","11042","3863","g","elianto","#f73b6a7A","-1","-1","1","0","[]","0","2","","","11042","130","6","4","lose","no-go","0"
"pit-trial","249","1460179","0.0-135.0","battery-v0.2","","""event"",""trial"",""time""
""fullscreenenter"",""1"",""2593""
","
","
","""event"",""trial"",""time""
""fullscreenenter"",""1"",""2593""
","
","","","922.4000000953674","","","19","11042","3863","a","elianto","#f73b6a7A"," "," ","1","0","[1774.1000001430511]","1","2","","","11042","131","7","3","lose","go","0"
"pit-trial","250","1463813","0.0-136.0","battery-v0.2","","""event"",""trial"",""time""
""fullscreenenter"",""1"",""2593""
","
","
","""event"",""trial"",""time""
""fullscreenenter"",""1"",""2593""
","
","","","774.4000000953674","","","19","11042","3863","u","elianto","#3366ff99","-1"," ","0","+10","[1626.4000000953674]","1","2","","","11042","132","9","2","win","no-go","1"
"pit-trial","251","1468677","0.0-137.0","battery-v0.2","","""event"",""trial"",""time""
""fullscreenenter"",""1"",""2593""
","
","
","""event"",""trial"",""time""
""fullscreenenter"",""1"",""2593""
","
","","","-1","","","19","11042","3863","g","elianto","#f73b6a7A","-1","-1","1","0","[3017.4000000953674]","1","2","","","11042","133","6","4","lose","no-go","0"
"pit-trial","252","1472478","0.0-138.0","battery-v0.2","","""event"",""trial"",""time""
""fullscreenenter"",""1"",""2593""
","
","
","""event"",""trial"",""time""
""fullscreenenter"",""1"",""2593""
","
","","","940.1999998092651","","","19","11042","3863","l","elianto","#3366ff99","-1"," ","0","+10","[1790.6999998092651]","1","2","","","11042","134","8","2","win","no-go","1"
"pit-trial","253","1476579","0.0-139.0","battery-v0.2","","""event"",""trial"",""time""
""fullscreenenter"",""1"",""2593""
","
","
","""event"",""trial"",""time""
""fullscreenenter"",""1"",""2593""
","
","","","1239.1000001430511","","","19","11042","3863","u","elianto","#3366ff99","-1"," ","0","+10","[2091.5]","1","2","","","11042","135","9","2","win","no-go","1"
"pit-trial","254","1481442","0.0-140.0","battery-v0.2","","""event"",""trial"",""time""
""fullscreenenter"",""1"",""2593""
","
","
","""event"",""trial"",""time""
""fullscreenenter"",""1"",""2593""
","
","","","-1","","","19","11042","3863","a","elianto","#f73b6a7A"," ","-1","0","0","[2870]","1","2","","","11042","136","7","3","lose","go","1"
"pit-trial","255","1486305","0.0-141.0","battery-v0.2","","""event"",""trial"",""time""
""fullscreenenter"",""1"",""2593""
","
","
","""event"",""trial"",""time""
""fullscreenenter"",""1"",""2593""
","
","","","-1","","","19","11042","3863","g","elianto","#f73b6a7A","-1","-1","1","0","[]","0","2","","","11042","137","6","4","lose","no-go","0"
"pit-trial","256","1490394","0.0-142.0","battery-v0.2","","""event"",""trial"",""time""
""fullscreenenter"",""1"",""2593""
","
","
","""event"",""trial"",""time""
""fullscreenenter"",""1"",""2593""
","
","","","1229.5","","","19","11042","3863","a","elianto","#f73b6a7A"," "," ","1","0","[2079.7999999523163]","1","2","","","11042","138","7","3","lose","go","0"
"pit-trial","257","1494034","0.0-143.0","battery-v0.2","","""event"",""trial"",""time""
""fullscreenenter"",""1"",""2593""
","
","
","""event"",""trial"",""time""
""fullscreenenter"",""1"",""2593""
","
","","","778.9000000953674","","","19","11042","3863","l","elianto","#3366ff99","-1"," ","0","0","[1630.7999999523163]","1","2","","","11042","139","8","2","win","no-go","0"
"pit-trial","258","1497861","0.0-144.0","battery-v0.2","","""event"",""trial"",""time""
""fullscreenenter"",""1"",""2593""
","
","
","""event"",""trial"",""time""
""fullscreenenter"",""1"",""2593""
","
","","","961.8999998569489","","","19","11042","3863","u","elianto","#3366ff99","-1"," ","0","0","[1818]","1","2","","","11042","140","9","2","win","no-go","0"
"pit-instructions","259","1511920","0.0-145.0","battery-v0.2","","""event"",""trial"",""time""
""fullscreenenter"",""1"",""2593""
","
","
","""event"",""trial"",""time""
""fullscreenenter"",""1"",""2593""
","
","","[{""page_index"":0,""viewing_time"":5617},{""page_index"":1,""viewing_time"":8438.600000143051}]","14056.200000047684","","","","","","","","","","","","","","","","","","","","","","","",""
"pit-trial","260","1516170","0.0-146.0","battery-v0.2","","""event"",""trial"",""time""
""fullscreenenter"",""1"",""2593""
","
","
","""event"",""trial"",""time""
""fullscreenenter"",""1"",""2593""
","
","","","1386.2999999523163","","","19","11042","3863","r","elianto","#3366ff99","-1"," ","0","+10","[2237.100000143051]","1","3","","","11042","141","1","2","win","no-go","1"
"pit-trial","261","1521030","0.0-147.0","battery-v0.2","","""event"",""trial"",""time""
""fullscreenenter"",""1"",""2593""
","
","
","""event"",""trial"",""time""
""fullscreenenter"",""1"",""2593""
","
","","","-1","","","19","11042","3863","m","elianto","#f73b6a7A"," ","-1","0","-10","[]","0","3","","","11042","142","0","3","lose","go","0"
"pit-trial","262","1525381","0.0-148.0","battery-v0.2","","""event"",""trial"",""time""
""fullscreenenter"",""1"",""2593""
","
","
","""event"",""trial"",""time""
""fullscreenenter"",""1"",""2593""
","
","","","1488.6999998092651","","","19","11042","3863","h","elianto","#f73b6a7A","-1"," ","0","-10","[2341.9000000953674]","1","3","","","11042","143","3","4","lose","no-go","0"
"pit-trial","263","1530242","0.0-149.0","battery-v0.2","","""event"",""trial"",""time""
""fullscreenenter"",""1"",""2593""
","
","
","""event"",""trial"",""time""
""fullscreenenter"",""1"",""2593""
","
","","","-1","","","19","11042","3863","y","elianto","#f73b6a7A"," ","-1","0","-10","[]","0","3","","","11042","144","2","3","lose","go","0"
"pit-trial","264","1534939","0.0-150.0","battery-v0.2","","""event"",""trial"",""time""
""fullscreenenter"",""1"",""2593""
","
","
","""event"",""trial"",""time""
""fullscreenenter"",""1"",""2593""
","
","","","1836.8999998569489","","","19","11042","3863","y","elianto","#f73b6a7A"," "," ","1","0","[2688.399999856949]","1","3","","","11042","145","2","3","lose","go","0"
"pit-trial","265","1539805","0.0-151.0","battery-v0.2","","""event"",""trial"",""time""
""fullscreenenter"",""1"",""2593""
","
","
","""event"",""trial"",""time""
