"trial_type","trial_index","time_elapsed","internal_node_id","task_version","subject_id","interactions","blur_events","focus_events","fullscreenenter_events","fullscreenexit_events","success","view_history","rt","responses","num_errors","age","subject","participantId","rune","rune_set","hex","correct","choice","accuracy","outcome","keys","total_keys","block","practice","value","sub","trial","stimulus","robot","valence","action","sham"
"pavlovia","0","7","0.0-0.0","battery-v0.2","","""event"",""trial"",""time""
""fullscreenenter"",""1"",""1042""
","
","
","""event"",""trial"",""time""
""fullscreenenter"",""1"",""1042""
","
","","","","","","","","","","","","","","","","","","","","","","","","","","",""
"fullscreen","1","2036","0.0-1.0","battery-v0.2","","""event"",""trial"",""time""
""fullscreenenter"",""1"",""1042""
","
","
","""event"",""trial"",""time""
""fullscreenenter"",""1"",""1042""
","
","true","","","","","","","","","","","","","","","","","","","","","","","","","",""
"pit-instructions","2","5372","0.0-2.0-0.0","battery-v0.2","","""event"",""trial"",""time""
""fullscreenenter"",""1"",""1042""
","
","
","""event"",""trial"",""time""
""fullscreenenter"",""1"",""1042""
","
","","[{""page_index"":0,""viewing_time"":3331.2999999523163}]","3331.5999999046326","","","","","","","","","","","","","","","","","","","","","","","",""
"pit-comprehension","3","8080","0.0-2.0-1.0-0.0","battery-v0.2","","""event"",""trial"",""time""
""fullscreenenter"",""1"",""1042""
","
","
","""event"",""trial"",""time""
""fullscreenenter"",""1"",""1042""
","
","","","2705.7999999523163","[""shark""]","0","24","9137","3189","","","","","","","","","","","","","","","","","","",""
"pit-instructions","4","8975","0.0-2.0-1.0-1.0","battery-v0.2","","""event"",""trial"",""time""
""fullscreenenter"",""1"",""1042""
","
","
","""event"",""trial"",""time""
""fullscreenenter"",""1"",""1042""
","
","","[{""page_index"":0,""viewing_time"":881.7000000476837}]","881.9000000953674","","","","","","","","","","","","","","","","","","","","","","","",""
"pit-comprehension","5","10483","0.0-2.0-2.0-0.0","battery-v0.2","","""event"",""trial"",""time""
""fullscreenenter"",""1"",""1042""
","
","
","""event"",""trial"",""time""
""fullscreenenter"",""1"",""1042""
","
","","","1506.0999999046326","[""tiger""]","0","24","9137","3189","","","","","","","","","","","","","","","","","","",""
"pit-instructions","6","11051","0.0-2.0-2.0-1.0","battery-v0.2","","""event"",""trial"",""time""
""fullscreenenter"",""1"",""1042""
","
","
","""event"",""trial"",""time""
""fullscreenenter"",""1"",""1042""
","
","","[{""page_index"":0,""viewing_time"":565.9000000953674}]","566.2000000476837","","","","","","","","","","","","","","","","","","","","","","","",""
"pit-instructions","7","124707","0.0-2.0-3.0","battery-v0.2","","""event"",""trial"",""time""
""fullscreenenter"",""1"",""1042""
","
","
","""event"",""trial"",""time""
""fullscreenenter"",""1"",""1042""
","
","","[{""page_index"":0,""viewing_time"":8326.599999904633},{""page_index"":1,""viewing_time"":8341.799999952316},{""page_index"":2,""viewing_time"":6062.100000143051},{""page_index"":3,""viewing_time"":7540.199999809265},{""page_index"":4,""viewing_time"":6346.5},{""page_index"":5,""viewing_time"":8873.800000190735},{""page_index"":6,""viewing_time"":7631.699999809265},{""page_index"":7,""viewing_time"":8224},{""page_index"":8,""viewing_time"":9298.200000047684},{""page_index"":9,""viewing_time"":9863.400000095367},{""page_index"":10,""viewing_time"":7718.5},{""page_index"":11,""viewing_time"":8763.5},{""page_index"":12,""viewing_time"":10568.200000047684},{""page_index"":13,""viewing_time"":6094.5}]","113653.5","","","","","","","","","","","","","","","","","","","","","","","",""
"pit-trial","8","128146","0.0-2.0-4.0-0.0","battery-v0.2","","""event"",""trial"",""time""
""fullscreenenter"",""1"",""1042""
","
","
","""event"",""trial"",""time""
""fullscreenenter"",""1"",""1042""
","
","","","575.4000000953674","","","24","9137","3189","&#9784;","elianto","#FFFFF080"," "," ","1","&#10004","[1428]","1","0","0","","","","","","","",""
"pit-trial","9","131443","0.0-2.0-4.1-0.1","battery-v0.2","","""event"",""trial"",""time""
""fullscreenenter"",""1"",""1042""
","
","
","""event"",""trial"",""time""
""fullscreenenter"",""1"",""1042""
","
","","","430.2999999523163","","","24","9137","3189","&#9784;","elianto","#FFFFF080"," "," ","1","&#10004","[1282.4000000953674]","1","0","0","","","","","","","",""
"pit-trial","10","134837","0.0-2.0-4.2-0.2","battery-v0.2","","""event"",""trial"",""time""
""fullscreenenter"",""1"",""1042""
","
","
","""event"",""trial"",""time""
""fullscreenenter"",""1"",""1042""
","
","","","528.0999999046326","","","24","9137","3189","&#9784;","elianto","#FFFFF080"," "," ","1","&#10004","[1382.5]","1","0","0","","","","","","","",""
"pit-trial","11","138206","0.0-2.0-4.3-0.3","battery-v0.2","","""event"",""trial"",""time""
""fullscreenenter"",""1"",""1042""
","
","
","""event"",""trial"",""time""
""fullscreenenter"",""1"",""1042""
","
","","","505.10000014305115","","","24","9137","3189","&#9784;","elianto","#FFFFF080"," "," ","1","&#10004","[1355.1000001430511]","1","0","0","","","","","","","",""
"pit-trial","12","141551","0.0-2.0-4.4-0.4","battery-v0.2","","""event"",""trial"",""time""
""fullscreenenter"",""1"",""1042""
","
","
","""event"",""trial"",""time""
""fullscreenenter"",""1"",""1042""
","
","","","488.89999985694885","","","24","9137","3189","&#9784;","elianto","#FFFFF080"," "," ","1","&#10004","[1341]","1","0","0","","","","","","","",""
"pit-instructions","13","170145","0.0-2.0-5.0","battery-v0.2","","""event"",""trial"",""time""
""fullscreenenter"",""1"",""1042""
","
","
","""event"",""trial"",""time""
""fullscreenenter"",""1"",""1042""
","
","","[{""page_index"":0,""viewing_time"":7866.799999952316},{""page_index"":1,""viewing_time"":6785.300000190735},{""page_index"":2,""viewing_time"":7264.199999809265},{""page_index"":3,""viewing_time"":6674.300000190735}]","28590.700000047684","","","","","","","","","","","","","","","","","","","","","","","",""
"pit-trial","14","175014","0.0-2.0-6.0-0.0","battery-v0.2","","""event"",""trial"",""time""
""fullscreenenter"",""1"",""1042""
","
","
","""event"",""trial"",""time""
""fullscreenenter"",""1"",""1042""
","
","","","-1","","","24","9137","3189","&#9854;","elianto","#FFFFF080","-1","-1","1","&#10004","[]","0","0","1","","","","","","","",""
"pit-trial","15","179884","0.0-2.0-6.1-0.1","battery-v0.2","","""event"",""trial"",""time""
""fullscreenenter"",""1"",""1042""
","
","
","""event"",""trial"",""time""
""fullscreenenter"",""1"",""1042""
","
","","","-1","","","24","9137","3189","&#9854;","elianto","#FFFFF080","-1","-1","1","&#10004","[]","0","0","1","","","","","","","",""
"pit-trial","16","184757","0.0-2.0-6.2-0.2","battery-v0.2","","""event"",""trial"",""time""
""fullscreenenter"",""1"",""1042""
","
","
","""event"",""trial"",""time""
""fullscreenenter"",""1"",""1042""
","
","","","-1","","","24","9137","3189","&#9854;","elianto","#FFFFF080","-1","-1","1","&#10004","[]","0","0","1","","","","","","","",""
"pit-trial","17","189622","0.0-2.0-6.3-0.3","battery-v0.2","","""event"",""trial"",""time""
""fullscreenenter"",""1"",""1042""
","
","
","""event"",""trial"",""time""
""fullscreenenter"",""1"",""1042""
","
","","","-1","","","24","9137","3189","&#9854;","elianto","#FFFFF080","-1","-1","1","&#10004","[]","0","0","1","","","","","","","",""
"pit-trial","18","194487","0.0-2.0-6.4-0.4","battery-v0.2","","""event"",""trial"",""time""
""fullscreenenter"",""1"",""1042""
","
","
","""event"",""trial"",""time""
""fullscreenenter"",""1"",""1042""
","
","","","-1","","","24","9137","3189","&#9854;","elianto","#FFFFF080","-1","-1","1","&#10004","[]","0","0","1","","","","","","","",""
"pit-instructions","19","355618","0.0-2.0-7.0","battery-v0.2","","""event"",""trial"",""time""
""fullscreenenter"",""1"",""1042""
","
","
","""event"",""trial"",""time""
""fullscreenenter"",""1"",""1042""
","
","","[{""page_index"":0,""viewing_time"":13248},{""page_index"":1,""viewing_time"":9470.599999904633},{""page_index"":2,""viewing_time"":9283.799999952316},{""page_index"":3,""viewing_time"":8055.400000095367},{""page_index"":4,""viewing_time"":6118.599999904633},{""page_index"":5,""viewing_time"":7851.600000143051},{""page_index"":6,""viewing_time"":5222.099999904633},{""page_index"":7,""viewing_time"":9579.600000143051},{""page_index"":8,""viewing_time"":8638.099999904633},{""page_index"":9,""viewing_time"":6612.5},{""page_index"":10,""viewing_time"":6501.599999904633},{""page_index"":11,""viewing_time"":5404.100000143051},{""page_index"":12,""viewing_time"":12082.099999904633},{""page_index"":13,""viewing_time"":7948},{""page_index"":14,""viewing_time"":13578.299999952316},{""page_index"":15,""viewing_time"":9267.200000047684},{""page_index"":16,""viewing_time"":11318},{""page_index"":17,""viewing_time"":10946.799999952316}]","161126.79999995232","","","","","","","","","","","","","","","","","","","","","","","",""
"pit-trial","20","358909","0.0-2.0-8.0-0.0","battery-v0.2","","""event"",""trial"",""time""
""fullscreenenter"",""1"",""1042""
","
","
","""event"",""trial"",""time""
""fullscreenenter"",""1"",""1042""
","
","","","423.30000019073486","","","24","9137","3189","&#9776;","elianto","#3366ff99"," "," ","1","+10","[1275.7000000476837]","1","0","1","","","","","","","",""
"pit-trial","21","362089","0.0-2.0-8.0-1.0","battery-v0.2","","""event"",""trial"",""time""
""fullscreenenter"",""1"",""1042""
","
","
","""event"",""trial"",""time""
""fullscreenenter"",""1"",""1042""
","
","","","318","","","24","9137","3189","&#9776;","elianto","#3366ff99"," "," ","1","+10","[1170.5]","1","0","1","","","","","","","",""
"pit-trial","22","365256","0.0-2.0-8.0-2.0","battery-v0.2","","""event"",""trial"",""time""
""fullscreenenter"",""1"",""1042""
","
","
","""event"",""trial"",""time""
""fullscreenenter"",""1"",""1042""
","
","","","300.60000014305115","","","24","9137","3189","&#9776;","elianto","#3366ff99"," "," ","1","+10","[1151.1000001430511]","1","0","1","","","","","","","",""
"pit-trial","23","368381","0.0-2.0-8.0-3.0","battery-v0.2","","""event"",""trial"",""time""
""fullscreenenter"",""1"",""1042""
","
","
","""event"",""trial"",""time""
""fullscreenenter"",""1"",""1042""
","
","","","263.2999999523163","","","24","9137","3189","&#9776;","elianto","#3366ff99"," "," ","1","0","[1114.1999998092651]","1","0","1","","","","","","","",""
"pit-trial","24","372071","0.0-2.0-8.0-4.0","battery-v0.2","","""event"",""trial"",""time""
""fullscreenenter"",""1"",""1042""
","
","
","""event"",""trial"",""time""
""fullscreenenter"",""1"",""1042""
","
","","","830.2999999523163","","","24","9137","3189","&#9776;","elianto","#3366ff99"," "," ","1","+10","[1684.6000001430511]","1","0","1","","","","","","","",""
"pit-trial","25","375287","0.0-2.0-8.1-0.1","battery-v0.2","","""event"",""trial"",""time""
""fullscreenenter"",""1"",""1042""
","
","
","""event"",""trial"",""time""
""fullscreenenter"",""1"",""1042""
","
","","","348.39999985694885","","","24","9137","3189","&#9776;","elianto","#3366ff99"," "," ","1","+10","[1198.5999999046326]","1","0","1","","","","","","","",""
"pit-trial","26","378654","0.0-2.0-8.1-1.1","battery-v0.2","","""event"",""trial"",""time""
""fullscreenenter"",""1"",""1042""
","
","
","""event"",""trial"",""time""
""fullscreenenter"",""1"",""1042""
","
","","","497.09999990463257","","","24","9137","3189","&#9776;","elianto","#3366ff99"," "," ","1","+10","[1351.5]","1","0","1","","","","","","","",""
"pit-trial","27","381853","0.0-2.0-8.1-2.1","battery-v0.2","","""event"",""trial"",""time""
""fullscreenenter"",""1"",""1042""
","
","
","""event"",""trial"",""time""
""fullscreenenter"",""1"",""1042""
","
","","","329.69999980926514","","","24","9137","3189","&#9776;","elianto","#3366ff99"," "," ","1","+10","[1184.2999999523163]","1","0","1","","","","","","","",""
"pit-trial","28","385077","0.0-2.0-8.1-3.1","battery-v0.2","","""event"",""trial"",""time""
""fullscreenenter"",""1"",""1042""
","
","
","""event"",""trial"",""time""
""fullscreenenter"",""1"",""1042""
","
","","","353.60000014305115","","","24","9137","3189","&#9776;","elianto","#3366ff99"," "," ","1","0","[1207.7999999523163]","1","0","1","","","","","","","",""
"pit-trial","29","388417","0.0-2.0-8.1-4.1","battery-v0.2","","""event"",""trial"",""time""
""fullscreenenter"",""1"",""1042""
","
","
","""event"",""trial"",""time""
""fullscreenenter"",""1"",""1042""
","
","","","485.7999999523163","","","24","9137","3189","&#9776;","elianto","#3366ff99"," "," ","1","+10","[1337.2000000476837]","1","0","1","","","","","","","",""
"pit-trial","30","391733","0.0-2.0-8.2-0.2","battery-v0.2","","""event"",""trial"",""time""
""fullscreenenter"",""1"",""1042""
","
","
","""event"",""trial"",""time""
""fullscreenenter"",""1"",""1042""
","
","","","459.40000009536743","","","24","9137","3189","&#9776;","elianto","#3366ff99"," "," ","1","+10","[1310.1000001430511]","1","0","1","","","","","","","",""
"pit-trial","31","395055","0.0-2.0-8.2-1.2","battery-v0.2","","""event"",""trial"",""time""
""fullscreenenter"",""1"",""1042""
","
","
","""event"",""trial"",""time""
""fullscreenenter"",""1"",""1042""
","
","","","469.69999980926514","","","24","9137","3189","&#9776;","elianto","#3366ff99"," "," ","1","+10","[1320.0999999046326]","1","0","1","","","","","","","",""
"pit-trial","32","398061","0.0-2.0-8.2-2.2","battery-v0.2","","""event"",""trial"",""time""
""fullscreenenter"",""1"",""1042""
","
","
","""event"",""trial"",""time""
""fullscreenenter"",""1"",""1042""
","
","","","151.5","","","24","9137","3189","&#9776;","elianto","#3366ff99"," "," ","1","+10","[1002.7000000476837]","1","0","1","","","","","","","",""
"pit-trial","33","401289","0.0-2.0-8.2-3.2","battery-v0.2","","""event"",""trial"",""time""
""fullscreenenter"",""1"",""1042""
","
","
","""event"",""trial"",""time""
""fullscreenenter"",""1"",""1042""
","
","","","375.2999999523163","","","24","9137","3189","&#9776;","elianto","#3366ff99"," "," ","1","0","[1225.5]","1","0","1","","","","","","","",""
"pit-trial","34","404679","0.0-2.0-8.2-4.2","battery-v0.2","","""event"",""trial"",""time""
""fullscreenenter"",""1"",""1042""
","
","
","""event"",""trial"",""time""
""fullscreenenter"",""1"",""1042""
","
","","","537.6000001430511","","","24","9137","3189","&#9776;","elianto","#3366ff99"," "," ","1","+10","[1387.8999998569489]","1","0","1","","","","","","","",""
"call-function","35","404682","0.0-2.0-9.0","battery-v0.2","","""event"",""trial"",""time""
""fullscreenenter"",""1"",""1042""
","
","
","""event"",""trial"",""time""
""fullscreenenter"",""1"",""1042""
","
","","","","","","","","","","","","","","","","","","","","","","","","","","",""
"pit-instructions","36","451807","0.0-2.0-10.0","battery-v0.2","","""event"",""trial"",""time""
""fullscreenenter"",""1"",""1042""
","
","
","""event"",""trial"",""time""
""fullscreenenter"",""1"",""1042""
","
","","[{""page_index"":0,""viewing_time"":8771.899999856949},{""page_index"":1,""viewing_time"":8873.799999952316},{""page_index"":2,""viewing_time"":10763.800000190735},{""page_index"":3,""viewing_time"":9888.699999809265},{""page_index"":4,""viewing_time"":8825.200000047684}]","47123.39999985695","","","","","","","","","","","","","","","","","","","","","","","",""
"pit-trial","37","456669","0.0-2.0-11.0-0.0","battery-v0.2","","""event"",""trial"",""time""
""fullscreenenter"",""1"",""1042""
","
","
","""event"",""trial"",""time""
""fullscreenenter"",""1"",""1042""
","
","","","-1","","","24","9137","3189","&#9761;","elianto","#3366ff99","-1","-1","1","+10","[]","0","0","2","","","","","","","",""
"pit-trial","38","461543","0.0-2.0-11.0-1.0","battery-v0.2","","""event"",""trial"",""time""
""fullscreenenter"",""1"",""1042""
","
","
","""event"",""trial"",""time""
""fullscreenenter"",""1"",""1042""
","
","","","-1","","","24","9137","3189","&#9761;","elianto","#3366ff99","-1","-1","1","+10","[]","0","0","2","","","","","","","",""
"pit-trial","39","466400","0.0-2.0-11.0-2.0","battery-v0.2","","""event"",""trial"",""time""
""fullscreenenter"",""1"",""1042""
","
","
","""event"",""trial"",""time""
""fullscreenenter"",""1"",""1042""
","
","","","-1","","","24","9137","3189","&#9761;","elianto","#3366ff99","-1","-1","1","+10","[]","0","0","2","","","","","","","",""
"pit-trial","40","471274","0.0-2.0-11.0-3.0","battery-v0.2","","""event"",""trial"",""time""
""fullscreenenter"",""1"",""1042""
","
","
","""event"",""trial"",""time""
""fullscreenenter"",""1"",""1042""
","
","","","-1","","","24","9137","3189","&#9761;","elianto","#3366ff99","-1","-1","1","0","[]","0","0","2","","","","","","","",""
"pit-trial","41","476137","0.0-2.0-11.0-4.0","battery-v0.2","","""event"",""trial"",""time""
""fullscreenenter"",""1"",""1042""
","
","
","""event"",""trial"",""time""
""fullscreenenter"",""1"",""1042""
","
","","","-1","","","24","9137","3189","&#9761;","elianto","#3366ff99","-1","-1","1","+10","[]","0","0","2","","","","","","","",""
"pit-trial","42","480993","0.0-2.0-11.1-0.1","battery-v0.2","","""event"",""trial"",""time""
""fullscreenenter"",""1"",""1042""
","
","
","""event"",""trial"",""time""
""fullscreenenter"",""1"",""1042""
","
","","","-1","","","24","9137","3189","&#9761;","elianto","#3366ff99","-1","-1","1","+10","[]","0","0","2","","","","","","","",""
"pit-trial","43","485848","0.0-2.0-11.1-1.1","battery-v0.2","","""event"",""trial"",""time""
""fullscreenenter"",""1"",""1042""
","
","
","""event"",""trial"",""time""
""fullscreenenter"",""1"",""1042""
","
","","","-1","","","24","9137","3189","&#9761;","elianto","#3366ff99","-1","-1","1","+10","[]","0","0","2","","","","","","","",""
"pit-trial","44","490702","0.0-2.0-11.1-2.1","battery-v0.2","","""event"",""trial"",""time""
""fullscreenenter"",""1"",""1042""
","
","
","""event"",""trial"",""time""
""fullscreenenter"",""1"",""1042""
","
","","","-1","","","24","9137","3189","&#9761;","elianto","#3366ff99","-1","-1","1","+10","[]","0","0","2","","","","","","","",""
"pit-trial","45","495556","0.0-2.0-11.1-3.1","battery-v0.2","","""event"",""trial"",""time""
""fullscreenenter"",""1"",""1042""
","
","
","""event"",""trial"",""time""
""fullscreenenter"",""1"",""1042""
","
","","","-1","","","24","9137","3189","&#9761;","elianto","#3366ff99","-1","-1","1","0","[]","0","0","2","","","","","","","",""
"pit-trial","46","500409","0.0-2.0-11.1-4.1","battery-v0.2","","""event"",""trial"",""time""
""fullscreenenter"",""1"",""1042""
","
","
","""event"",""trial"",""time""
""fullscreenenter"",""1"",""1042""
","
","","","-1","","","24","9137","3189","&#9761;","elianto","#3366ff99","-1","-1","1","+10","[]","0","0","2","","","","","","","",""
"pit-trial","47","505263","0.0-2.0-11.2-0.2","battery-v0.2","","""event"",""trial"",""time""
""fullscreenenter"",""1"",""1042""
","
","
","""event"",""trial"",""time""
""fullscreenenter"",""1"",""1042""
","
","","","-1","","","24","9137","3189","&#9761;","elianto","#3366ff99","-1","-1","1","+10","[]","0","0","2","","","","","","","",""
"pit-trial","48","510118","0.0-2.0-11.2-1.2","battery-v0.2","","""event"",""trial"",""time""
""fullscreenenter"",""1"",""1042""
","
","
","""event"",""trial"",""time""
""fullscreenenter"",""1"",""1042""
","
","","","-1","","","24","9137","3189","&#9761;","elianto","#3366ff99","-1","-1","1","+10","[]","0","0","2","","","","","","","",""
"pit-trial","49","514971","0.0-2.0-11.2-2.2","battery-v0.2","","""event"",""trial"",""time""
""fullscreenenter"",""1"",""1042""
","
","
","""event"",""trial"",""time""
""fullscreenenter"",""1"",""1042""
","
","","","-1","","","24","9137","3189","&#9761;","elianto","#3366ff99","-1","-1","1","+10","[]","0","0","2","","","","","","","",""
"pit-trial","50","519826","0.0-2.0-11.2-3.2","battery-v0.2","","""event"",""trial"",""time""
""fullscreenenter"",""1"",""1042""
","
","
","""event"",""trial"",""time""
""fullscreenenter"",""1"",""1042""
","
","","","-1","","","24","9137","3189","&#9761;","elianto","#3366ff99","-1","-1","1","0","[]","0","0","2","","","","","","","",""
"pit-trial","51","524679","0.0-2.0-11.2-4.2","battery-v0.2","","""event"",""trial"",""time""
""fullscreenenter"",""1"",""1042""
","
","
","""event"",""trial"",""time""
""fullscreenenter"",""1"",""1042""
","
","","","-1","","","24","9137","3189","&#9761;","elianto","#3366ff99","-1","-1","1","+10","[]","0","0","2","","","","","","","",""
"pit-trial","52","529533","0.0-2.0-11.3-0.3","battery-v0.2","","""event"",""trial"",""time""
""fullscreenenter"",""1"",""1042""
","
","
","""event"",""trial"",""time""
""fullscreenenter"",""1"",""1042""
","
","","","-1","","","24","9137","3189","&#9761;","elianto","#3366ff99","-1","-1","1","+10","[]","0","0","2","","","","","","","",""
"pit-trial","53","534387","0.0-2.0-11.3-1.3","battery-v0.2","","""event"",""trial"",""time""
""fullscreenenter"",""1"",""1042""
","
","
","""event"",""trial"",""time""
""fullscreenenter"",""1"",""1042""
","
","","","-1","","","24","9137","3189","&#9761;","elianto","#3366ff99","-1","-1","1","+10","[]","0","0","2","","","","","","","",""
"pit-trial","54","539239","0.0-2.0-11.3-2.3","battery-v0.2","","""event"",""trial"",""time""
""fullscreenenter"",""1"",""1042""
","
","
","""event"",""trial"",""time""
""fullscreenenter"",""1"",""1042""
","
","","","-1","","","24","9137","3189","&#9761;","elianto","#3366ff99","-1","-1","1","+10","[]","0","0","2","","","","","","","",""
"pit-trial","55","544092","0.0-2.0-11.3-3.3","battery-v0.2","","""event"",""trial"",""time""
""fullscreenenter"",""1"",""1042""
","
","
","""event"",""trial"",""time""
""fullscreenenter"",""1"",""1042""
","
","","","-1","","","24","9137","3189","&#9761;","elianto","#3366ff99","-1","-1","1","0","[]","0","0","2","","","","","","","",""
"pit-trial","56","548945","0.0-2.0-11.3-4.3","battery-v0.2","","""event"",""trial"",""time""
""fullscreenenter"",""1"",""1042""
","
","
","""event"",""trial"",""time""
""fullscreenenter"",""1"",""1042""
","
","","","-1","","","24","9137","3189","&#9761;","elianto","#3366ff99","-1","-1","1","+10","[]","0","0","2","","","","","","","",""
"call-function","57","548947","0.0-2.0-12.0","battery-v0.2","","""event"",""trial"",""time""
""fullscreenenter"",""1"",""1042""
","
","
","""event"",""trial"",""time""
""fullscreenenter"",""1"",""1042""
","
","","","","","","","","","","","","","","","","","","","","","","","","","","",""
"pit-instructions","58","592197","0.0-2.0-13.0","battery-v0.2","","""event"",""trial"",""time""
""fullscreenenter"",""1"",""1042""
","
","
","""event"",""trial"",""time""
""fullscreenenter"",""1"",""1042""
","
","","[{""page_index"":0,""viewing_time"":8962},{""page_index"":1,""viewing_time"":8981.200000047684},{""page_index"":2,""viewing_time"":6425},{""page_index"":3,""viewing_time"":11599.099999904633},{""page_index"":4,""viewing_time"":7282.599999904633}]","43250.09999990463","","","","","","","","","","","","","","","","","","","","","","","",""
"pit-trial","59","597050","0.0-2.0-14.0-0.0","battery-v0.2","","""event"",""trial"",""time""
""fullscreenenter"",""1"",""1042""
","
","
","""event"",""trial"",""time""
""fullscreenenter"",""1"",""1042""
","
","","","-1","","","24","9137","3189","&#9826;","elianto","#f73b6a7A","-1","-1","1","0","[]","0","0","3","","","","","","","",""
"pit-trial","60","600326","0.0-2.0-14.0-1.0","battery-v0.2","","""event"",""trial"",""time""
""fullscreenenter"",""1"",""1042""
","
","
","""event"",""trial"",""time""
""fullscreenenter"",""1"",""1042""
","
","","","408.5","","","24","9137","3189","&#9826;","elianto","#f73b6a7A","-1"," ","0","-10","[1262.6000001430511]","1","0","3","","","","","","","",""
"pit-trial","61","605195","0.0-2.0-14.0-2.0","battery-v0.2","","""event"",""trial"",""time""
""fullscreenenter"",""1"",""1042""
","
","
","""event"",""trial"",""time""
""fullscreenenter"",""1"",""1042""
","
","","","-1","","","24","9137","3189","&#9826;","elianto","#f73b6a7A","-1","-1","1","0","[]","0","0","3","","","","","","","",""
"pit-trial","62","610053","0.0-2.0-14.0-3.0","battery-v0.2","","""event"",""trial"",""time""
""fullscreenenter"",""1"",""1042""
","
","
","""event"",""trial"",""time""
""fullscreenenter"",""1"",""1042""
","
","","","-1","","","24","9137","3189","&#9826;","elianto","#f73b6a7A","-1","-1","1","-10","[]","0","0","3","","","","","","","",""
"pit-trial","63","614910","0.0-2.0-14.0-4.0","battery-v0.2","","""event"",""trial"",""time""
""fullscreenenter"",""1"",""1042""
","
","
","""event"",""trial"",""time""
""fullscreenenter"",""1"",""1042""
","
","","","-1","","","24","9137","3189","&#9826;","elianto","#f73b6a7A","-1","-1","1","0","[]","0","0","3","","","","","","","",""
"pit-trial","64","619793","0.0-2.0-14.1-0.1","battery-v0.2","","""event"",""trial"",""time""
""fullscreenenter"",""1"",""1042""
","
","
","""event"",""trial"",""time""
""fullscreenenter"",""1"",""1042""
","
","","","-1","","","24","9137","3189","&#9826;","elianto","#f73b6a7A","-1","-1","1","0","[]","0","0","3","","","","","","","",""
"pit-trial","65","624647","0.0-2.0-14.1-1.1","battery-v0.2","","""event"",""trial"",""time""
""fullscreenenter"",""1"",""1042""
","
","
","""event"",""trial"",""time""
""fullscreenenter"",""1"",""1042""
","
","","","-1","","","24","9137","3189","&#9826;","elianto","#f73b6a7A","-1","-1","1","0","[]","0","0","3","","","","","","","",""
"pit-trial","66","629502","0.0-2.0-14.1-2.1","battery-v0.2","","""event"",""trial"",""time""
""fullscreenenter"",""1"",""1042""
","
","
","""event"",""trial"",""time""
""fullscreenenter"",""1"",""1042""
","
","","","-1","","","24","9137","3189","&#9826;","elianto","#f73b6a7A","-1","-1","1","0","[]","0","0","3","","","","","","","",""
"pit-trial","67","634356","0.0-2.0-14.1-3.1","battery-v0.2","","""event"",""trial"",""time""
""fullscreenenter"",""1"",""1042""
","
","
","""event"",""trial"",""time""
""fullscreenenter"",""1"",""1042""
","
","","","-1","","","24","9137","3189","&#9826;","elianto","#f73b6a7A","-1","-1","1","-10","[]","0","0","3","","","","","","","",""
"pit-trial","68","639211","0.0-2.0-14.1-4.1","battery-v0.2","","""event"",""trial"",""time""
""fullscreenenter"",""1"",""1042""
","
","
","""event"",""trial"",""time""
""fullscreenenter"",""1"",""1042""
","
","","","-1","","","24","9137","3189","&#9826;","elianto","#f73b6a7A","-1","-1","1","0","[]","0","0","3","","","","","","","",""
"pit-trial","69","644067","0.0-2.0-14.2-0.2","battery-v0.2","","""event"",""trial"",""time""
""fullscreenenter"",""1"",""1042""
","
","
","""event"",""trial"",""time""
""fullscreenenter"",""1"",""1042""
","
","","","-1","","","24","9137","3189","&#9826;","elianto","#f73b6a7A","-1","-1","1","0","[]","0","0","3","","","","","","","",""
"pit-trial","70","648922","0.0-2.0-14.2-1.2","battery-v0.2","","""event"",""trial"",""time""
""fullscreenenter"",""1"",""1042""
","
","
","""event"",""trial"",""time""
""fullscreenenter"",""1"",""1042""
","
","","","-1","","","24","9137","3189","&#9826;","elianto","#f73b6a7A","-1","-1","1","0","[]","0","0","3","","","","","","","",""
"pit-trial","71","653775","0.0-2.0-14.2-2.2","battery-v0.2","","""event"",""trial"",""time""
""fullscreenenter"",""1"",""1042""
","
","
","""event"",""trial"",""time""
""fullscreenenter"",""1"",""1042""
","
","","","-1","","","24","9137","3189","&#9826;","elianto","#f73b6a7A","-1","-1","1","0","[]","0","0","3","","","","","","","",""
"pit-trial","72","658629","0.0-2.0-14.2-3.2","battery-v0.2","","""event"",""trial"",""time""
""fullscreenenter"",""1"",""1042""
","
","
","""event"",""trial"",""time""
""fullscreenenter"",""1"",""1042""
","
","","","-1","","","24","9137","3189","&#9826;","elianto","#f73b6a7A","-1","-1","1","-10","[]","0","0","3","","","","","","","",""
"pit-trial","73","663481","0.0-2.0-14.2-4.2","battery-v0.2","","""event"",""trial"",""time""
""fullscreenenter"",""1"",""1042""
","
","
","""event"",""trial"",""time""
""fullscreenenter"",""1"",""1042""
","
","","","-1","","","24","9137","3189","&#9826;","elianto","#f73b6a7A","-1","-1","1","0","[]","0","0","3","","","","","","","",""
"pit-trial","74","668334","0.0-2.0-14.3-0.3","battery-v0.2","","""event"",""trial"",""time""
""fullscreenenter"",""1"",""1042""
","
","
","""event"",""trial"",""time""
""fullscreenenter"",""1"",""1042""
","
","","","-1","","","24","9137","3189","&#9826;","elianto","#f73b6a7A","-1","-1","1","0","[]","0","0","3","","","","","","","",""
"pit-trial","75","673187","0.0-2.0-14.3-1.3","battery-v0.2","","""event"",""trial"",""time""
""fullscreenenter"",""1"",""1042""
","
","
","""event"",""trial"",""time""
""fullscreenenter"",""1"",""1042""
","
","","","-1","","","24","9137","3189","&#9826;","elianto","#f73b6a7A","-1","-1","1","0","[]","0","0","3","","","","","","","",""
"pit-trial","76","678039","0.0-2.0-14.3-2.3","battery-v0.2","","""event"",""trial"",""time""
""fullscreenenter"",""1"",""1042""
","
","
","""event"",""trial"",""time""
""fullscreenenter"",""1"",""1042""
","
","","","-1","","","24","9137","3189","&#9826;","elianto","#f73b6a7A","-1","-1","1","0","[]","0","0","3","","","","","","","",""
"pit-trial","77","682892","0.0-2.0-14.3-3.3","battery-v0.2","","""event"",""trial"",""time""
""fullscreenenter"",""1"",""1042""
","
","
","""event"",""trial"",""time""
""fullscreenenter"",""1"",""1042""
","
","","","-1","","","24","9137","3189","&#9826;","elianto","#f73b6a7A","-1","-1","1","-10","[]","0","0","3","","","","","","","",""
"pit-trial","78","687745","0.0-2.0-14.3-4.3","battery-v0.2","","""event"",""trial"",""time""
""fullscreenenter"",""1"",""1042""
","
","
","""event"",""trial"",""time""
""fullscreenenter"",""1"",""1042""
","
","","","-1","","","24","9137","3189","&#9826;","elianto","#f73b6a7A","-1","-1","1","0","[]","0","0","3","","","","","","","",""
"call-function","79","687746","0.0-2.0-15.0","battery-v0.2","","""event"",""trial"",""time""
""fullscreenenter"",""1"",""1042""
","
","
","""event"",""trial"",""time""
""fullscreenenter"",""1"",""1042""
","
","","","","","","","","","","","","","","","","","","","","","","","","","","",""
"pit-instructions","80","725759","0.0-2.0-16.0","battery-v0.2","","""event"",""trial"",""time""
""fullscreenenter"",""1"",""1042""
","
","
","""event"",""trial"",""time""
""fullscreenenter"",""1"",""1042""
","
","","[{""page_index"":0,""viewing_time"":8160.599999904633},{""page_index"":1,""viewing_time"":11945.799999952316},{""page_index"":2,""viewing_time"":8190.299999952316},{""page_index"":3,""viewing_time"":9715.800000190735}]","38012.699999809265","","","","","","","","","","","","","","","","","","","","","","","",""
"pit-trial","81","730627","0.0-2.0-17.0-0.0","battery-v0.2","","""event"",""trial"",""time""
""fullscreenenter"",""1"",""1042""
","
","
","""event"",""trial"",""time""
""fullscreenenter"",""1"",""1042""
","
","","","-1","","","24","9137","3189","&#9789;","elianto","#f73b6a7A"," ","-1","0","-10","[]","0","0","4","","","","","","","",""
"pit-trial","82","733789","0.0-2.0-17.0-1.0","battery-v0.2","","""event"",""trial"",""time""
""fullscreenenter"",""1"",""1042""
","
","
","""event"",""trial"",""time""
""fullscreenenter"",""1"",""1042""
","
","","","299.59999990463257","","","24","9137","3189","&#9789;","elianto","#f73b6a7A"," "," ","1","0","[1150.7000000476837]","1","0","4","","","","","","","",""
"pit-trial","83","737036","0.0-2.0-17.0-2.0","battery-v0.2","","""event"",""trial"",""time""
""fullscreenenter"",""1"",""1042""
","
","
","""event"",""trial"",""time""
""fullscreenenter"",""1"",""1042""
","
","","","389.60000014305115","","","24","9137","3189","&#9789;","elianto","#f73b6a7A"," "," ","1","0","[1240.4000000953674]","1","0","4","","","","","","","",""
"pit-trial","84","740014","0.0-2.0-17.0-3.0","battery-v0.2","","""event"",""trial"",""time""
""fullscreenenter"",""1"",""1042""
","
","
","""event"",""trial"",""time""
""fullscreenenter"",""1"",""1042""
","
","","","113.69999980926514","","","24","9137","3189","&#9789;","elianto","#f73b6a7A"," "," ","1","-10","[967.5999999046326]","1","0","4","","","","","","","",""
"pit-trial","85","743148","0.0-2.0-17.0-4.0","battery-v0.2","","""event"",""trial"",""time""
""fullscreenenter"",""1"",""1042""
","
","
","""event"",""trial"",""time""
""fullscreenenter"",""1"",""1042""
","
","","","269.39999985694885","","","24","9137","3189","&#9789;","elianto","#f73b6a7A"," "," ","1","0","[1119.2999999523163]","1","0","4","","","","","","","",""
"pit-trial","86","746294","0.0-2.0-17.1-0.1","battery-v0.2","","""event"",""trial"",""time""
""fullscreenenter"",""1"",""1042""
","
","
","""event"",""trial"",""time""
""fullscreenenter"",""1"",""1042""
","
","","","280.40000009536743","","","24","9137","3189","&#9789;","elianto","#f73b6a7A"," "," ","1","0","[1136]","1","0","4","","","","","","","",""
"pit-trial","87","749501","0.0-2.0-17.1-1.1","battery-v0.2","","""event"",""trial"",""time""
""fullscreenenter"",""1"",""1042""
","
","
","""event"",""trial"",""time""
""fullscreenenter"",""1"",""1042""
","
","","","348.5","","","24","9137","3189","&#9789;","elianto","#f73b6a7A"," "," ","1","0","[1201.9000000953674]","1","0","4","","","","","","","",""
"pit-trial","88","752728","0.0-2.0-17.1-2.1","battery-v0.2","","""event"",""trial"",""time""
""fullscreenenter"",""1"",""1042""
","
","
","""event"",""trial"",""time""
""fullscreenenter"",""1"",""1042""
","
","","","369.7999999523163","","","24","9137","3189","&#9789;","elianto","#f73b6a7A"," "," ","1","0","[1223.1000001430511]","1","0","4","","","","","","","",""
"pit-trial","89","757581","0.0-2.0-17.1-3.1","battery-v0.2","","""event"",""trial"",""time""
""fullscreenenter"",""1"",""1042""
","
","
","""event"",""trial"",""time""
""fullscreenenter"",""1"",""1042""
","
","","","-1","","","24","9137","3189","&#9789;","elianto","#f73b6a7A"," ","-1","0","0","[]","0","0","4","","","","","","","",""
"pit-trial","90","760640","0.0-2.0-17.1-4.1","battery-v0.2","","""event"",""trial"",""time""
""fullscreenenter"",""1"",""1042""
","
","
","""event"",""trial"",""time""
""fullscreenenter"",""1"",""1042""
","
","","","206.29999995231628","","","24","9137","3189","&#9789;","elianto","#f73b6a7A"," "," ","1","0","[1056.6000001430511]","1","0","4","","","","","","","",""
"pit-trial","91","763764","0.0-2.0-17.2-0.2","battery-v0.2","","""event"",""trial"",""time""
""fullscreenenter"",""1"",""1042""
","
","
","""event"",""trial"",""time""
""fullscreenenter"",""1"",""1042""
","
","","","269.69999980926514","","","24","9137","3189","&#9789;","elianto","#f73b6a7A"," "," ","1","0","[1120]","1","0","4","","","","","","","",""
"pit-trial","92","768618","0.0-2.0-17.2-1.2","battery-v0.2","","""event"",""trial"",""time""
""fullscreenenter"",""1"",""1042""
","
","
","""event"",""trial"",""time""
""fullscreenenter"",""1"",""1042""
","
","","","-1","","","24","9137","3189","&#9789;","elianto","#f73b6a7A"," ","-1","0","-10","[]","0","0","4","","","","","","","",""
"pit-trial","93","771635","0.0-2.0-17.2-2.2","battery-v0.2","","""event"",""trial"",""time""
""fullscreenenter"",""1"",""1042""
","
","
","""event"",""trial"",""time""
""fullscreenenter"",""1"",""1042""
","
","","","164.39999985694885","","","24","9137","3189","&#9789;","elianto","#f73b6a7A"," "," ","1","0","[1014.5999999046326]","1","0","4","","","","","","","",""
"pit-trial","94","775190","0.0-2.0-17.2-3.2","battery-v0.2","","""event"",""trial"",""time""
""fullscreenenter"",""1"",""1042""
","
","
","""event"",""trial"",""time""
""fullscreenenter"",""1"",""1042""
","
","","","702.9000000953674","","","24","9137","3189","&#9789;","elianto","#f73b6a7A"," "," ","1","-10","[1553.2000000476837]","1","0","4","","","","","","","",""
"pit-trial","95","778282","0.0-2.0-17.2-4.2","battery-v0.2","","""event"",""trial"",""time""
""fullscreenenter"",""1"",""1042""
","
","
","""event"",""trial"",""time""
""fullscreenenter"",""1"",""1042""
","
","","","238.10000014305115","","","24","9137","3189","&#9789;","elianto","#f73b6a7A"," "," ","1","0","[1088.7000000476837]","1","0","4","","","","","","","",""
"pit-trial","96","781427","0.0-2.0-17.3-0.3","battery-v0.2","","""event"",""trial"",""time""
""fullscreenenter"",""1"",""1042""
","
","
","""event"",""trial"",""time""
""fullscreenenter"",""1"",""1042""
","
","","","290.5","","","24","9137","3189","&#9789;","elianto","#f73b6a7A"," "," ","1","0","[1141.2000000476837]","1","0","4","","","","","","","",""
"pit-trial","97","785244","0.0-2.0-17.3-1.3","battery-v0.2","","""event"",""trial"",""time""
""fullscreenenter"",""1"",""1042""
","
","
","""event"",""trial"",""time""
""fullscreenenter"",""1"",""1042""
","
","","","964.2999999523163","","","24","9137","3189","&#9789;","elianto","#f73b6a7A"," "," ","1","0","[1814.2999999523163]","1","0","4","","","","","","","",""
"pit-trial","98","788528","0.0-2.0-17.3-2.3","battery-v0.2","","""event"",""trial"",""time""
""fullscreenenter"",""1"",""1042""
","
","
","""event"",""trial"",""time""
""fullscreenenter"",""1"",""1042""
","
","","","431.39999985694885","","","24","9137","3189","&#9789;","elianto","#f73b6a7A"," "," ","1","0","[1282.1000001430511]","1","0","4","","","","","","","",""
"pit-trial","99","792679","0.0-2.0-17.3-3.3","battery-v0.2","","""event"",""trial"",""time""
""fullscreenenter"",""1"",""1042""
","
","
","""event"",""trial"",""time""
""fullscreenenter"",""1"",""1042""
","
","","","1298.4000000953674","","","24","9137","3189","&#9789;","elianto","#f73b6a7A"," "," ","1","-10","[2148.9000000953674]","1","0","4","","","","","","","",""
"pit-trial","100","795595","0.0-2.0-17.3-4.3","battery-v0.2","","""event"",""trial"",""time""
""fullscreenenter"",""1"",""1042""
","
","
","""event"",""trial"",""time""
""fullscreenenter"",""1"",""1042""
","
","","","62.700000047683716","","","24","9137","3189","&#9789;","elianto","#f73b6a7A"," "," ","1","0","[913.4000000953674]","1","0","4","","","","","","","",""
"call-function","101","795596","0.0-2.0-18.0","battery-v0.2","","""event"",""trial"",""time""
""fullscreenenter"",""1"",""1042""
","
","
","""event"",""trial"",""time""
""fullscreenenter"",""1"",""1042""
","
","","","","","","","","","","","","","","","","","","","","","","","","","","",""
"pit-instructions","102","854337","0.0-2.0-19.0","battery-v0.2","","""event"",""trial"",""time""
""fullscreenenter"",""1"",""1042""
","
","
","""event"",""trial"",""time""
""fullscreenenter"",""1"",""1042""
","
","","[{""page_index"":0,""viewing_time"":6985.299999952316},{""page_index"":1,""viewing_time"":6447.5},{""page_index"":2,""viewing_time"":8968.799999952316},{""page_index"":3,""viewing_time"":5613.799999952316},{""page_index"":4,""viewing_time"":6125.800000190735},{""page_index"":5,""viewing_time"":8248.399999856949},{""page_index"":6,""viewing_time"":7091.5},{""page_index"":7,""viewing_time"":5567.900000095367},{""page_index"":8,""viewing_time"":3692.2000000476837}]","58741.39999985695","","","","","","","","","","","","","","","","","","","","","","","",""
"pit-comprehension","103","858658","0.0-2.0-20.0-0.0","battery-v0.2","","""event"",""trial"",""time""
""fullscreenenter"",""1"",""1042""
","
","
","""event"",""trial"",""time""
""fullscreenenter"",""1"",""1042""
","
","","","4317.200000047684","[""SPACE""]","0","24","9137","3189","","","","","","","","","","","","","","","","","","",""
"pit-instructions","104","861226","0.0-2.0-20.0-1.0","battery-v0.2","","""event"",""trial"",""time""
""fullscreenenter"",""1"",""1042""
","
","
","""event"",""trial"",""time""
""fullscreenenter"",""1"",""1042""
","
","","[{""page_index"":0,""viewing_time"":2532.7000000476837}]","2533","","","","","","","","","","","","","","","","","","","","","","","",""
"pit-comprehension","105","867617","0.0-2.0-21.0-0.0","battery-v0.2","","""event"",""trial"",""time""
""fullscreenenter"",""1"",""1042""
","
","
","""event"",""trial"",""time""
""fullscreenenter"",""1"",""1042""
","
","","","6389.900000095367","[""10""]","0","24","9137","3189","","","","","","","","","","","","","","","","","","",""
"pit-instructions","106","872338","0.0-2.0-21.0-1.0","battery-v0.2","","""event"",""trial"",""time""
""fullscreenenter"",""1"",""1042""
","
","
","""event"",""trial"",""time""
""fullscreenenter"",""1"",""1042""
","
","","[{""page_index"":0,""viewing_time"":4692.600000143051}]","4692.800000190735","","","","","","","","","","","","","","","","","","","","","","","",""
"pit-comprehension","107","878676","0.0-2.0-22.0-0.0","battery-v0.2","","""event"",""trial"",""time""
""fullscreenenter"",""1"",""1042""
","
","
","""event"",""trial"",""time""
""fullscreenenter"",""1"",""1042""
","
","","","6335.800000190735","[""0""]","0","24","9137","3189","","","","","","","","","","","","","","","","","","",""
"pit-instructions","108","880529","0.0-2.0-22.0-1.0","battery-v0.2","","""event"",""trial"",""time""
""fullscreenenter"",""1"",""1042""
","
","
","""event"",""trial"",""time""
""fullscreenenter"",""1"",""1042""
","
","","[{""page_index"":0,""viewing_time"":1824.9000000953674}]","1825.2000000476837","","","","","","","","","","","","","","","","","","","","","","","",""
"pit-comprehension","109","888853","0.0-2.0-23.0-0.0","battery-v0.2","","""event"",""trial"",""time""
""fullscreenenter"",""1"",""1042""
","
","
","""event"",""trial"",""time""
""fullscreenenter"",""1"",""1042""
","
","","","8322.300000190735","[""True""]","0","24","9137","3189","","","","","","","","","","","","","","","","","","",""
"pit-instructions","110","890887","0.0-2.0-23.0-1.0","battery-v0.2","","""event"",""trial"",""time""
""fullscreenenter"",""1"",""1042""
","
","
","""event"",""trial"",""time""
""fullscreenenter"",""1"",""1042""
","
","","[{""page_index"":0,""viewing_time"":2006.2000000476837}]","2006.3000001907349","","","","","","","","","","","","","","","","","","","","","","","",""
"pit-comprehension","111","898310","0.0-2.0-24.0-0.0","battery-v0.2","","""event"",""trial"",""time""
""fullscreenenter"",""1"",""1042""
","
","
","""event"",""trial"",""time""
""fullscreenenter"",""1"",""1042""
","
","","","7420.200000047684","[""True""]","0","24","9137","3189","","","","","","","","","","","","","","","","","","",""
"pit-instructions","112","901498","0.0-2.0-24.0-1.0","battery-v0.2","","""event"",""trial"",""time""
""fullscreenenter"",""1"",""1042""
","
","
","""event"",""trial"",""time""
""fullscreenenter"",""1"",""1042""
","
","","[{""page_index"":0,""viewing_time"":3158.7000000476837}]","3158.9000000953674","","","","","","","","","","","","","","","","","","","","","","","",""
"pit-comprehension","113","907790","0.0-2.0-25.0-0.0","battery-v0.2","","""event"",""trial"",""time""
""fullscreenenter"",""1"",""1042""
","
","
","""event"",""trial"",""time""
""fullscreenenter"",""1"",""1042""
","
","","","6289.399999856949","[""True""]","0","24","9137","3189","","","","","","","","","","","","","","","","","","",""
"pit-instructions","114","911918","0.0-2.0-25.0-1.0","battery-v0.2","","""event"",""trial"",""time""
""fullscreenenter"",""1"",""1042""
","
","
","""event"",""trial"",""time""
""fullscreenenter"",""1"",""1042""
","
","","[{""page_index"":0,""viewing_time"":4088.100000143051}]","4088.2000000476837","","","","","","","","","","","","","","","","","","","","","","","",""
"pit-comprehension","115","916357","0.0-2.0-26.0-0.0","battery-v0.2","","""event"",""trial"",""time""
""fullscreenenter"",""1"",""1042""
","
","
","""event"",""trial"",""time""
""fullscreenenter"",""1"",""1042""
","
","","","4437.600000143051","[""False""]","0","24","9137","3189","","","","","","","","","","","","","","","","","","",""
"pit-instructions","116","918125","0.0-2.0-26.0-1.0","battery-v0.2","","""event"",""trial"",""time""
""fullscreenenter"",""1"",""1042""
","
","
","""event"",""trial"",""time""
""fullscreenenter"",""1"",""1042""
","
","","[{""page_index"":0,""viewing_time"":1738.6000001430511}]","1738.7000000476837","","","","","","","","","","","","","","","","","","","","","","","",""
"pit-instructions","117","933305","0.0-3.0","battery-v0.2","","""event"",""trial"",""time""
""fullscreenenter"",""1"",""1042""
","
","
","""event"",""trial"",""time""
""fullscreenenter"",""1"",""1042""
","
","","[{""page_index"":0,""viewing_time"":3334.7999999523163},{""page_index"":1,""viewing_time"":5811.899999856949},{""page_index"":2,""viewing_time"":6032.200000047684}]","15179.099999904633","","","","","","","","","","","","","","","","","","","","","","","",""
"pit-trial","118","936911","0.0-4.0","battery-v0.2","","""event"",""trial"",""time""
""fullscreenenter"",""1"",""1042""
","
","
","""event"",""trial"",""time""
""fullscreenenter"",""1"",""1042""
","
","","","736.4000000953674","","","24","9137","3189","&#9728;","elianto","#f73b6a7A","-1"," ","0","-10","[1589.1000001430511]","1","1","","","9137","1","0","4","lose","no-go","0"
"pit-trial","119","940421","0.0-5.0","battery-v0.2","","""event"",""trial"",""time""
""fullscreenenter"",""1"",""1042""
","
","
","""event"",""trial"",""time""
""fullscreenenter"",""1"",""1042""
","
","","","645.7999999523163","","","24","9137","3189","&#9752;","elianto","#f73b6a7A"," "," ","1","0","[1497.2000000476837]","1","1","","","9137","2","3","3","lose","go","0"
"pit-trial","120","943987","0.0-6.0","battery-v0.2","","""event"",""trial"",""time""
""fullscreenenter"",""1"",""1042""
","
","
","""event"",""trial"",""time""
""fullscreenenter"",""1"",""1042""
","
","","","697.5","","","24","9137","3189","&#9733;","elianto","#3366ff99","-1"," ","0","0","[1548.7999999523163]","1","1","","","9137","3","2","2","win","no-go","0"
"pit-trial","121","947473","0.0-7.0","battery-v0.2","","""event"",""trial"",""time""
""fullscreenenter"",""1"",""1042""
","
","
","""event"",""trial"",""time""
""fullscreenenter"",""1"",""1042""
","
","","","615.3999998569489","","","24","9137","3189","&#9730;","elianto","#3366ff99"," "," ","1","+10","[1467.5999999046326]","1","1","","","9137","4","1","1","win","go","0"
"pit-trial","122","952336","0.0-8.0","battery-v0.2","","""event"",""trial"",""time""
""fullscreenenter"",""1"",""1042""
","
","
","""event"",""trial"",""time""
""fullscreenenter"",""1"",""1042""
","
","","","-1","","","24","9137","3189","&#9728;","elianto","#f73b6a7A","-1","-1","1","0","[]","0","1","","","9137","5","0","4","lose","no-go","0"
"pit-trial","123","955772","0.0-9.0","battery-v0.2","","""event"",""trial"",""time""
""fullscreenenter"",""1"",""1042""
","
","
","""event"",""trial"",""time""
""fullscreenenter"",""1"",""1042""
","
","","","564.2000000476837","","","24","9137","3189","&#9752;","elianto","#f73b6a7A"," "," ","1","0","[1420.3999998569489]","1","1","","","9137","6","3","3","lose","go","0"
"pit-trial","124","960650","0.0-10.0","battery-v0.2","","""event"",""trial"",""time""
""fullscreenenter"",""1"",""1042""
","
","
","""event"",""trial"",""time""
""fullscreenenter"",""1"",""1042""
","
","","","-1","","","24","9137","3189","&#9733;","elianto","#3366ff99","-1","-1","1","0","[]","0","1","","","9137","7","2","2","win","no-go","1"
"pit-trial","125","963977","0.0-11.0","battery-v0.2","","""event"",""trial"",""time""
""fullscreenenter"",""1"",""1042""
","
","
","""event"",""trial"",""time""
""fullscreenenter"",""1"",""1042""
","
","","","455.90000009536743","","","24","9137","3189","&#9730;","elianto","#3366ff99"," "," ","1","+10","[1310.9000000953674]","1","1","","","9137","8","1","1","win","go","0"
"pit-trial","126","968837","0.0-12.0","battery-v0.2","","""event"",""trial"",""time""
""fullscreenenter"",""1"",""1042""
","
","
","""event"",""trial"",""time""
""fullscreenenter"",""1"",""1042""
","
","","","-1","","","24","9137","3189","&#9733;","elianto","#3366ff99","-1","-1","1","+10","[]","0","1","","","9137","9","2","2","win","no-go","0"
"pit-trial","127","972240","0.0-13.0","battery-v0.2","","""event"",""trial"",""time""
""fullscreenenter"",""1"",""1042""
","
","
","""event"",""trial"",""time""
""fullscreenenter"",""1"",""1042""
","
","","","548.7000000476837","","","24","9137","3189","&#9730;","elianto","#3366ff99"," "," ","1","+10","[1398.9000000953674]","1","1","","","9137","10","1","1","win","go","0"
"pit-trial","128","975755","0.0-14.0","battery-v0.2","","""event"",""trial"",""time""
""fullscreenenter"",""1"",""1042""
","
","
","""event"",""trial"",""time""
""fullscreenenter"",""1"",""1042""
","
","","","660.7999999523163","","","24","9137","3189","&#9752;","elianto","#f73b6a7A"," "," ","1","0","[1513.7000000476837]","1","1","","","9137","11","3","3","lose","go","0"
"pit-trial","129","979334","0.0-15.0","battery-v0.2","","""event"",""trial"",""time""
""fullscreenenter"",""1"",""1042""
","
","
","""event"",""trial"",""time""
""fullscreenenter"",""1"",""1042""
","
","","","725.8999998569489","","","24","9137","3189","&#9728;","elianto","#f73b6a7A","-1"," ","0","-10","[1577]","1","1","","","9137","12","0","4","lose","no-go","0"
"pit-trial","130","982787","0.0-16.0","battery-v0.2","","""event"",""trial"",""time""
""fullscreenenter"",""1"",""1042""
","
","
","""event"",""trial"",""time""
""fullscreenenter"",""1"",""1042""
","
","","","596.7999999523163","","","24","9137","3189","&#9752;","elianto","#f73b6a7A"," "," ","1","0","[1449.5]","1","1","","","9137","13","3","3","lose","go","0"
"pit-trial","131","987643","0.0-17.0","battery-v0.2","","""event"",""trial"",""time""
""fullscreenenter"",""1"",""1042""
","
","
","""event"",""trial"",""time""
""fullscreenenter"",""1"",""1042""
","
","","","-1","","","24","9137","3189","&#9728;","elianto","#f73b6a7A","-1","-1","1","0","[]","0","1","","","9137","14","0","4","lose","no-go","0"
"pit-trial","132","992496","0.0-18.0","battery-v0.2","","""event"",""trial"",""time""
""fullscreenenter"",""1"",""1042""
","
","
","""event"",""trial"",""time""
""fullscreenenter"",""1"",""1042""
","
","","","-1","","","24","9137","3189","&#9733;","elianto","#3366ff99","-1","-1","1","+10","[]","0","1","","","9137","15","2","2","win","no-go","0"
"pit-trial","133","995824","0.0-19.0","battery-v0.2","","""event"",""trial"",""time""
""fullscreenenter"",""1"",""1042""
","
","
","""event"",""trial"",""time""
""fullscreenenter"",""1"",""1042""
","
","","","474.09999990463257","","","24","9137","3189","&#9730;","elianto","#3366ff99"," "," ","1","+10","[1324.9000000953674]","1","1","","","9137","16","1","1","win","go","0"
"pit-trial","134","999249","0.0-20.0","battery-v0.2","","""event"",""trial"",""time""
""fullscreenenter"",""1"",""1042""
","
","
","""event"",""trial"",""time""
""fullscreenenter"",""1"",""1042""
","
","","","570.2999999523163","","","24","9137","3189","&#9730;","elianto","#3366ff99"," "," ","1","+10","[1420.5]","1","1","","","9137","17","1","1","win","go","0"
"pit-trial","135","1002725","0.0-21.0","battery-v0.2","","""event"",""trial"",""time""
""fullscreenenter"",""1"",""1042""
","
","
","""event"",""trial"",""time""
""fullscreenenter"",""1"",""1042""
","
","","","621.5","","","24","9137","3189","&#9752;","elianto","#f73b6a7A"," "," ","1","0","[1472.3999998569489]","1","1","","","9137","18","3","3","lose","go","0"
"pit-trial","136","1007579","0.0-22.0","battery-v0.2","","""event"",""trial"",""time""
""fullscreenenter"",""1"",""1042""
","
","
","""event"",""trial"",""time""
""fullscreenenter"",""1"",""1042""
","
","","","-1","","","24","9137","3189","&#9733;","elianto","#3366ff99","-1","-1","1","0","[]","0","1","","","9137","19","2","2","win","no-go","1"
"pit-trial","137","1012433","0.0-23.0","battery-v0.2","","""event"",""trial"",""time""
""fullscreenenter"",""1"",""1042""
","
","
","""event"",""trial"",""time""
""fullscreenenter"",""1"",""1042""
","
","","","-1","","","24","9137","3189","&#9728;","elianto","#f73b6a7A","-1","-1","1","0","[]","0","1","","","9137","20","0","4","lose","no-go","0"
"pit-instructions","138","1025059","0.0-24.0","battery-v0.2","","""event"",""trial"",""time""
""fullscreenenter"",""1"",""1042""
","
","
","""event"",""trial"",""time""
""fullscreenenter"",""1"",""1042""
","
","","[{""page_index"":0,""viewing_time"":5502.099999904633},{""page_index"":1,""viewing_time"":7121.800000190735}]","12624.099999904633","","","","","","","","","","","","","","","","","","","","","","","",""
"pit-trial","139","1028306","0.0-25.0","battery-v0.2","","""event"",""trial"",""time""
""fullscreenenter"",""1"",""1042""
","
","
","""event"",""trial"",""time""
""fullscreenenter"",""1"",""1042""
","
","","","387.7999999523163","","","24","9137","3189","g","elianto","#f73b6a7A"," "," ","1","-10","[1239.8000001907349]","1","2","","","9137","21","3","3","lose","go","1"
"pit-trial","140","1031528","0.0-26.0","battery-v0.2","","""event"",""trial"",""time""
""fullscreenenter"",""1"",""1042""
","
","
","""event"",""trial"",""time""
""fullscreenenter"",""1"",""1042""
","
","","","360.30000019073486","","","24","9137","3189","l","elianto","#3366ff99"," "," ","1","+10","[1212.8999998569489]","1","2","","","9137","22","1","1","win","go","0"
"pit-trial","141","1034814","0.0-27.0","battery-v0.2","","""event"",""trial"",""time""
""fullscreenenter"",""1"",""1042""
","
","
","""event"",""trial"",""time""
""fullscreenenter"",""1"",""1042""
","
","","","422.2000000476837","","","24","9137","3189","u","elianto","#f73b6a7A","-1"," ","0","-10","[1273.9000000953674]","1","2","","","9137","23","0","4","lose","no-go","0"
"pit-trial","142","1038170","0.0-28.0","battery-v0.2","","""event"",""trial"",""time""
""fullscreenenter"",""1"",""1042""
","
","
","""event"",""trial"",""time""
""fullscreenenter"",""1"",""1042""
","
","","","496.7999999523163","","","24","9137","3189","a","elianto","#f73b6a7A","-1"," ","0","-10","[1347.1000001430511]","1","2","","","9137","24","2","4","lose","no-go","0"
"pit-trial","143","1041442","0.0-29.0","battery-v0.2","","""event"",""trial"",""time""
""fullscreenenter"",""1"",""1042""
","
","
","""event"",""trial"",""time""
""fullscreenenter"",""1"",""1042""
","
","","","413.2000000476837","","","24","9137","3189","l","elianto","#3366ff99"," "," ","1","+10","[1266]","1","2","","","9137","25","1","1","win","go","0"
"pit-trial","144","1046313","0.0-30.0","battery-v0.2","","""event"",""trial"",""time""
""fullscreenenter"",""1"",""1042""
","
","
","""event"",""trial"",""time""
""fullscreenenter"",""1"",""1042""
","
","","","-1","","","24","9137","3189","g","elianto","#f73b6a7A"," ","-1","0","0","[]","0","2","","","9137","26","3","3","lose","go","1"
"pit-trial","145","1051194","0.0-31.0","battery-v0.2","","""event"",""trial"",""time""
""fullscreenenter"",""1"",""1042""
","
","
","""event"",""trial"",""time""
""fullscreenenter"",""1"",""1042""
","
","","","-1","","","24","9137","3189","a","elianto","#f73b6a7A","-1","-1","1","0","[]","0","2","","","9137","27","2","4","lose","no-go","0"
"pit-trial","146","1056049","0.0-32.0","battery-v0.2","","""event"",""trial"",""time""
""fullscreenenter"",""1"",""1042""
","
","
","""event"",""trial"",""time""
""fullscreenenter"",""1"",""1042""
","
","","","-1","","","24","9137","3189","u","elianto","#f73b6a7A","-1","-1","1","-10","[]","0","2","","","9137","28","0","4","lose","no-go","1"
"pit-trial","147","1060903","0.0-33.0","battery-v0.2","","""event"",""trial"",""time""
""fullscreenenter"",""1"",""1042""
","
","
","""event"",""trial"",""time""
""fullscreenenter"",""1"",""1042""
","
","","","-1","","","24","9137","3189","g","elianto","#f73b6a7A"," ","-1","0","-10","[]","0","2","","","9137","29","3","3","lose","go","0"
"pit-trial","148","1064161","0.0-34.0","battery-v0.2","","""event"",""trial"",""time""
""fullscreenenter"",""1"",""1042""
","
","
","""event"",""trial"",""time""
""fullscreenenter"",""1"",""1042""
","
","","","404.30000019073486","","","24","9137","3189","l","elianto","#3366ff99"," "," ","1","+10","[1255.2000000476837]","1","2","","","9137","30","1","1","win","go","0"
"pit-trial","149","1067524","0.0-35.0","battery-v0.2","","""event"",""trial"",""time""
""fullscreenenter"",""1"",""1042""
","
","
","""event"",""trial"",""time""
""fullscreenenter"",""1"",""1042""
","
","","","509.2999999523163","","","24","9137","3189","a","elianto","#f73b6a7A","-1"," ","0","-10","[1359.7999999523163]","1","2","","","9137","31","2","4","lose","no-go","0"
"pit-trial","150","1070915","0.0-36.0","battery-v0.2","","""event"",""trial"",""time""
""fullscreenenter"",""1"",""1042""
","
","
","""event"",""trial"",""time""
""fullscreenenter"",""1"",""1042""
","
","","","538.3999998569489","","","24","9137","3189","u","elianto","#f73b6a7A","-1"," ","0","-10","[1389.5]","1","2","","","9137","32","0","4","lose","no-go","0"
"pit-trial","151","1074215","0.0-37.0","battery-v0.2","","""event"",""trial"",""time""
""fullscreenenter"",""1"",""1042""
","
","
","""event"",""trial"",""time""
""fullscreenenter"",""1"",""1042""
","
","","","445.40000009536743","","","24","9137","3189","a","elianto","#f73b6a7A","-1"," ","0","-10","[1296.3000001907349]","1","2","","","9137","33","2","4","lose","no-go","0"
"pit-trial","152","1077526","0.0-38.0","battery-v0.2","","""event"",""trial"",""time""
""fullscreenenter"",""1"",""1042""
","
","
","""event"",""trial"",""time""
""fullscreenenter"",""1"",""1042""
","
","","","457.7000000476837","","","24","9137","3189","l","elianto","#3366ff99"," "," ","1","+10","[1308.6000001430511]","1","2","","","9137","34","1","1","win","go","0"
"pit-trial","153","1082379","0.0-39.0","battery-v0.2","","""event"",""trial"",""time""
""fullscreenenter"",""1"",""1042""
","
","
","""event"",""trial"",""time""
""fullscreenenter"",""1"",""1042""
","
","","","-1","","","24","9137","3189","u","elianto","#f73b6a7A","-1","-1","1","0","[]","0","2","","","9137","35","0","4","lose","no-go","0"
"pit-trial","154","1085622","0.0-40.0","battery-v0.2","","""event"",""trial"",""time""
""fullscreenenter"",""1"",""1042""
","
","
","""event"",""trial"",""time""
""fullscreenenter"",""1"",""1042""
","
","","","390","","","24","9137","3189","g","elianto","#f73b6a7A"," "," ","1","0","[1240.4000000953674]","1","2","","","9137","36","3","3","lose","go","0"
"pit-trial","155","1090475","0.0-41.0","battery-v0.2","","""event"",""trial"",""time""
""fullscreenenter"",""1"",""1042""
","
","
","""event"",""trial"",""time""
""fullscreenenter"",""1"",""1042""
","
","","","-1","","","24","9137","3189","a","elianto","#f73b6a7A","-1","-1","1","0","[]","0","2","","","9137","37","2","4","lose","no-go","0"
"pit-trial","156","1093882","0.0-42.0","battery-v0.2","","""event"",""trial"",""time""
""fullscreenenter"",""1"",""1042""
","
","
","""event"",""trial"",""time""
""fullscreenenter"",""1"",""1042""
","
","","","551.1999998092651","","","24","9137","3189","g","elianto","#f73b6a7A"," "," ","1","0","[1401.8999998569489]","1","2","","","9137","38","3","3","lose","go","0"
"pit-trial","157","1098736","0.0-43.0","battery-v0.2","","""event"",""trial"",""time""
""fullscreenenter"",""1"",""1042""
","
","
","""event"",""trial"",""time""
""fullscreenenter"",""1"",""1042""
","
","","","-1","","","24","9137","3189","u","elianto","#f73b6a7A","-1","-1","1","-10","[]","0","2","","","9137","39","0","4","lose","no-go","1"
"pit-trial","158","1102038","0.0-44.0","battery-v0.2","","""event"",""trial"",""time""
""fullscreenenter"",""1"",""1042""
","
","
","""event"",""trial"",""time""
""fullscreenenter"",""1"",""1042""
","
","","","447.69999980926514","","","24","9137","3189","l","elianto","#3366ff99"," "," ","1","+10","[1298.2000000476837]","1","2","","","9137","40","1","1","win","go","0"
"pit-trial","159","1105306","0.0-45.0","battery-v0.2","","""event"",""trial"",""time""
""fullscreenenter"",""1"",""1042""
","
","
","""event"",""trial"",""time""
""fullscreenenter"",""1"",""1042""
","
","","","415.89999985694885","","","24","9137","3189","g","elianto","#f73b6a7A"," "," ","1","0","[1266.6999998092651]","1","2","","","9137","41","3","3","lose","go","0"
"pit-trial","160","1110159","0.0-46.0","battery-v0.2","","""event"",""trial"",""time""
""fullscreenenter"",""1"",""1042""
","
","
","""event"",""trial"",""time""
""fullscreenenter"",""1"",""1042""
","
","","","-1","","","24","9137","3189","a","elianto","#f73b6a7A","-1","-1","1","0","[]","0","2","","","9137","42","2","4","lose","no-go","0"
"pit-trial","161","1114019","0.0-47.0","battery-v0.2","","""event"",""trial"",""time""
""fullscreenenter"",""1"",""1042""
","
","
","""event"",""trial"",""time""
""fullscreenenter"",""1"",""1042""
","
","","","1006","","","24","9137","3189","u","elianto","#f73b6a7A","-1"," ","0","0","[1856.6000001430511]","1","2","","","9137","43","0","4","lose","no-go","1"
"pit-trial","162","1117411","0.0-48.0","battery-v0.2","","""event"",""trial"",""time""
""fullscreenenter"",""1"",""1042""
","
","
","""event"",""trial"",""time""
""fullscreenenter"",""1"",""1042""
","
","","","538.2999999523163","","","24","9137","3189","l","elianto","#3366ff99"," "," ","1","+10","[1389.5]","1","2","","","9137","44","1","1","win","go","0"
"pit-trial","163","1122270","0.0-49.0","battery-v0.2","","""event"",""trial"",""time""
""fullscreenenter"",""1"",""1042""
","
","
","""event"",""trial"",""time""
""fullscreenenter"",""1"",""1042""
","
","","","-1","","","24","9137","3189","a","elianto","#f73b6a7A","-1","-1","1","0","[]","0","2","","","9137","45","2","4","lose","no-go","0"
"pit-trial","164","1125868","0.0-50.0","battery-v0.2","","""event"",""trial"",""time""
""fullscreenenter"",""1"",""1042""
","
","
","""event"",""trial"",""time""
""fullscreenenter"",""1"",""1042""
","
","","","745.6000001430511","","","24","9137","3189","p","elianto","#3366ff99","-1"," ","0","0","[1596.1000001430511]","1","2","","","9137","46","4","2","win","no-go","0"
"pit-trial","165","1129241","0.0-51.0","battery-v0.2","","""event"",""trial"",""time""
""fullscreenenter"",""1"",""1042""
","
","
","""event"",""trial"",""time""
""fullscreenenter"",""1"",""1042""
","
","","","520","","","24","9137","3189","g","elianto","#f73b6a7A"," "," ","1","0","[1370.9000000953674]","1","2","","","9137","47","3","3","lose","go","0"
"pit-trial","166","1133078","0.0-52.0","battery-v0.2","","""event"",""trial"",""time""
""fullscreenenter"",""1"",""1042""
","
","
","""event"",""trial"",""time""
""fullscreenenter"",""1"",""1042""
","
","","","982.5","","","24","9137","3189","u","elianto","#f73b6a7A","-1"," ","0","-10","[1833.0999999046326]","1","2","","","9137","48","0","4","lose","no-go","0"
"pit-trial","167","1136729","0.0-53.0","battery-v0.2","","""event"",""trial"",""time""
""fullscreenenter"",""1"",""1042""
","
","
","""event"",""trial"",""time""
""fullscreenenter"",""1"",""1042""
","
","","","797.2000000476837","","","24","9137","3189","p","elianto","#3366ff99","-1"," ","0","0","[1647.5999999046326]","1","2","","","9137","49","4","2","win","no-go","0"
"pit-trial","168","1141582","0.0-54.0","battery-v0.2","","""event"",""trial"",""time""
""fullscreenenter"",""1"",""1042""
","
","
","""event"",""trial"",""time""
""fullscreenenter"",""1"",""1042""
","
","","","-1","","","24","9137","3189","u","elianto","#f73b6a7A","-1","-1","1","0","[]","0","2","","","9137","50","0","4","lose","no-go","0"
"pit-trial","169","1145033","0.0-55.0","battery-v0.2","","""event"",""trial"",""time""
""fullscreenenter"",""1"",""1042""
","
","
","""event"",""trial"",""time""
""fullscreenenter"",""1"",""1042""
","
","","","597.4000000953674","","","24","9137","3189","l","elianto","#3366ff99"," "," ","1","+10","[1447.7999999523163]","1","2","","","9137","51","1","1","win","go","0"
"pit-trial","170","1148505","0.0-56.0","battery-v0.2","","""event"",""trial"",""time""
""fullscreenenter"",""1"",""1042""
","
","
","""event"",""trial"",""time""
""fullscreenenter"",""1"",""1042""
","
","","","617.6000001430511","","","24","9137","3189","g","elianto","#f73b6a7A"," "," ","1","-10","[1467.8000001907349]","1","2","","","9137","52","3","3","lose","go","1"
"pit-trial","171","1153360","0.0-57.0","battery-v0.2","","""event"",""trial"",""time""
""fullscreenenter"",""1"",""1042""
","
","
","""event"",""trial"",""time""
""fullscreenenter"",""1"",""1042""
","
","","","-1","","","24","9137","3189","u","elianto","#f73b6a7A","-1","-1","1","0","[2935.300000190735]","1","2","","","9137","53","0","4","lose","no-go","0"
"pit-trial","172","1158214","0.0-58.0","battery-v0.2","","""event"",""trial"",""time""
""fullscreenenter"",""1"",""1042""
","
","
","""event"",""trial"",""time""
""fullscreenenter"",""1"",""1042""
","
","","","-1","","","24","9137","3189","p","elianto","#3366ff99","-1","-1","1","+10","[]","0","2","","","9137","54","4","2","win","no-go","0"
"pit-trial","173","1163066","0.0-59.0","battery-v0.2","","""event"",""trial"",""time""
""fullscreenenter"",""1"",""1042""
","
","
","""event"",""trial"",""time""
""fullscreenenter"",""1"",""1042""
","
","","","-1","","","24","9137","3189","a","elianto","#f73b6a7A","-1","-1","1","0","[]","0","2","","","9137","55","2","4","lose","no-go","0"
"pit-trial","174","1166481","0.0-60.0","battery-v0.2","","""event"",""trial"",""time""
""fullscreenenter"",""1"",""1042""
","
","
","""event"",""trial"",""time""
""fullscreenenter"",""1"",""1042""
","
","","","560","","","24","9137","3189","l","elianto","#3366ff99"," "," ","1","+10","[1411.2999999523163]","1","2","","","9137","56","1","1","win","go","0"
"pit-trial","175","1169824","0.0-61.0","battery-v0.2","","""event"",""trial"",""time""
""fullscreenenter"",""1"",""1042""
","
","
","""event"",""trial"",""time""
""fullscreenenter"",""1"",""1042""
","
","","","486.19999980926514","","","24","9137","3189","l","elianto","#3366ff99"," "," ","1","+10","[1338.1999998092651]","1","2","","","9137","57","1","1","win","go","0"
"pit-trial","176","1174678","0.0-62.0","battery-v0.2","","""event"",""trial"",""time""
""fullscreenenter"",""1"",""1042""
","
","
","""event"",""trial"",""time""
""fullscreenenter"",""1"",""1042""
","
","","","-1","","","24","9137","3189","u","elianto","#f73b6a7A","-1","-1","1","0","[]","0","2","","","9137","58","0","4","lose","no-go","0"
"pit-trial","177","1178180","0.0-63.0","battery-v0.2","","""event"",""trial"",""time""
""fullscreenenter"",""1"",""1042""
","
","
","""event"",""trial"",""time""
""fullscreenenter"",""1"",""1042""
","
","","","647.1000001430511","","","24","9137","3189","g","elianto","#f73b6a7A"," "," ","1","0","[1497.4000000953674]","1","2","","","9137","59","3","3","lose","go","0"
"pit-trial","178","1183031","0.0-64.0","battery-v0.2","","""event"",""trial"",""time""
""fullscreenenter"",""1"",""1042""
","
","
","""event"",""trial"",""time""
""fullscreenenter"",""1"",""1042""
","
","","","-1","","","24","9137","3189","p","elianto","#3366ff99","-1","-1","1","+10","[]","0","2","","","9137","60","4","2","win","no-go","0"
"pit-trial","179","1186629","0.0-65.0","battery-v0.2","","""event"",""trial"",""time""
""fullscreenenter"",""1"",""1042""
","
","
","""event"",""trial"",""time""
""fullscreenenter"",""1"",""1042""
","
","","","745.7000000476837","","","24","9137","3189","l","elianto","#3366ff99"," "," ","1","+10","[1596.1000001430511]","1","2","","","9137","61","1","1","win","go","0"
"pit-trial","180","1191482","0.0-66.0","battery-v0.2","","""event"",""trial"",""time""
""fullscreenenter"",""1"",""1042""
","
","
","""event"",""trial"",""time""
""fullscreenenter"",""1"",""1042""
","
","","","-1","","","24","9137","3189","a","elianto","#f73b6a7A","-1","-1","1","0","[]","0","2","","","9137","62","2","4","lose","no-go","0"
"pit-trial","181","1196337","0.0-67.0","battery-v0.2","","""event"",""trial"",""time""
""fullscreenenter"",""1"",""1042""
","
","
","""event"",""trial"",""time""
""fullscreenenter"",""1"",""1042""
","
","","","-1","","","24","9137","3189","p","elianto","#3366ff99","-1","-1","1","+10","[]","0","2","","","9137","63","4","2","win","no-go","0"
"pit-trial","182","1199817","0.0-68.0","battery-v0.2","","""event"",""trial"",""time""
""fullscreenenter"",""1"",""1042""
","
","
","""event"",""trial"",""time""
""fullscreenenter"",""1"",""1042""
","
","","","626.1000001430511","","","24","9137","3189","g","elianto","#f73b6a7A"," "," ","1","0","[1477.2000000476837]","1","2","","","9137","64","3","3","lose","go","0"
"pit-trial","183","1204670","0.0-69.0","battery-v0.2","","""event"",""trial"",""time""
""fullscreenenter"",""1"",""1042""
","
","
","""event"",""trial"",""time""
""fullscreenenter"",""1"",""1042""
","
","","","-1","","","24","9137","3189","p","elianto","#3366ff99","-1","-1","1","+10","[]","0","2","","","9137","65","4","2","win","no-go","0"
"pit-trial","184","1208207","0.0-70.0","battery-v0.2","","""event"",""trial"",""time""
""fullscreenenter"",""1"",""1042""
","
","
","""event"",""trial"",""time""
""fullscreenenter"",""1"",""1042""
","
","","","685.4000000953674","","","24","9137","3189","g","elianto","#f73b6a7A"," "," ","1","-10","[1536.0999999046326]","1","2","","","9137","66","3","3","lose","go","1"
"pit-trial","185","1213071","0.0-71.0","battery-v0.2","","""event"",""trial"",""time""
""fullscreenenter"",""1"",""1042""
","
","
","""event"",""trial"",""time""
""fullscreenenter"",""1"",""1042""
","
","","","-1","","","24","9137","3189","a","elianto","#f73b6a7A","-1","-1","1","0","[]","0","2","","","9137","67","2","4","lose","no-go","0"
"pit-trial","186","1216593","0.0-72.0","battery-v0.2","","""event"",""trial"",""time""
""fullscreenenter"",""1"",""1042""
","
","
","""event"",""trial"",""time""
""fullscreenenter"",""1"",""1042""
","
","","","668.9000000953674","","","24","9137","3189","l","elianto","#3366ff99"," "," ","1","0","[1518.8999998569489]","1","2","","","9137","68","1","1","win","go","1"
"pit-trial","187","1220156","0.0-73.0","battery-v0.2","","""event"",""trial"",""time""
""fullscreenenter"",""1"",""1042""
","
","
","""event"",""trial"",""time""
""fullscreenenter"",""1"",""1042""
","
","","","710.2999999523163","","","24","9137","3189","g","elianto","#f73b6a7A"," "," ","1","0","[1560.6000001430511]","1","2","","","9137","69","3","3","lose","go","0"
"pit-trial","188","1223572","0.0-74.0","battery-v0.2","","""event"",""trial"",""time""
""fullscreenenter"",""1"",""1042""
","
","
","""event"",""trial"",""time""
""fullscreenenter"",""1"",""1042""
","
","","","563","","","24","9137","3189","l","elianto","#3366ff99"," "," ","1","+10","[1414.2000000476837]","1","2","","","9137","70","1","1","win","go","0"
"pit-trial","189","1228426","0.0-75.0","battery-v0.2","","""event"",""trial"",""time""
""fullscreenenter"",""1"",""1042""
","
","
","""event"",""trial"",""time""
""fullscreenenter"",""1"",""1042""
","
","","","-1","","","24","9137","3189","p","elianto","#3366ff99","-1","-1","1","0","[]","0","2","","","9137","71","4","2","win","no-go","1"
"pit-trial","190","1232405","0.0-76.0","battery-v0.2","","""event"",""trial"",""time""
""fullscreenenter"",""1"",""1042""
","
","
","""event"",""trial"",""time""
""fullscreenenter"",""1"",""1042""
","
","","","1125.5999999046326","","","24","9137","3189","s","elianto","#3366ff99"," "," ","1","+10","[1976.2000000476837]","1","2","","","9137","72","5","1","win","go","0"
"pit-trial","191","1235905","0.0-77.0","battery-v0.2","","""event"",""trial"",""time""
""fullscreenenter"",""1"",""1042""
","
","
","""event"",""trial"",""time""
""fullscreenenter"",""1"",""1042""
","
","","","648.4000000953674","","","24","9137","3189","g","elianto","#f73b6a7A"," "," ","1","0","[1499.5]","1","2","","","9137","73","3","3","lose","go","0"
"pit-trial","192","1239270","0.0-78.0","battery-v0.2","","""event"",""trial"",""time""
""fullscreenenter"",""1"",""1042""
","
","
","""event"",""trial"",""time""
""fullscreenenter"",""1"",""1042""
","
","","","512.0999999046326","","","24","9137","3189","s","elianto","#3366ff99"," "," ","1","0","[1362.5]","1","2","","","9137","74","5","1","win","go","1"
"pit-trial","193","1242596","0.0-79.0","battery-v0.2","","""event"",""trial"",""time""
""fullscreenenter"",""1"",""1042""
","
","
","""event"",""trial"",""time""
""fullscreenenter"",""1"",""1042""
","
","","","473.5","","","24","9137","3189","l","elianto","#3366ff99"," "," ","1","+10","[1323.8999998569489]","1","2","","","9137","75","1","1","win","go","0"
"pit-trial","194","1247451","0.0-80.0","battery-v0.2","","""event"",""trial"",""time""
""fullscreenenter"",""1"",""1042""
","
","
","""event"",""trial"",""time""
""fullscreenenter"",""1"",""1042""
","
","","","-1","","","24","9137","3189","p","elianto","#3366ff99","-1","-1","1","+10","[]","0","2","","","9137","76","4","2","win","no-go","0"
"pit-trial","195","1250852","0.0-81.0","battery-v0.2","","""event"",""trial"",""time""
""fullscreenenter"",""1"",""1042""
","
","
","""event"",""trial"",""time""
""fullscreenenter"",""1"",""1042""
","
","","","548.5999999046326","","","24","9137","3189","s","elianto","#3366ff99"," "," ","1","0","[1398.7999999523163]","1","2","","","9137","77","5","1","win","go","1"
"pit-trial","196","1254591","0.0-82.0","battery-v0.2","","""event"",""trial"",""time""
""fullscreenenter"",""1"",""1042""
","
","
","""event"",""trial"",""time""
""fullscreenenter"",""1"",""1042""
","
","","","884.5","","","24","9137","3189","w","elianto","#f73b6a7A","-1"," ","0","-10","[1737.1000001430511]","1","2","","","9137","78","6","4","lose","no-go","0"
"pit-trial","197","1259447","0.0-83.0","battery-v0.2","","""event"",""trial"",""time""
""fullscreenenter"",""1"",""1042""
","
","
","""event"",""trial"",""time""
""fullscreenenter"",""1"",""1042""
","
","","","-1","","","24","9137","3189","p","elianto","#3366ff99","-1","-1","1","+10","[]","0","2","","","9137","79","4","2","win","no-go","0"
"pit-trial","198","1263055","0.0-84.0","battery-v0.2","","""event"",""trial"",""time""
""fullscreenenter"",""1"",""1042""
","
","
","""event"",""trial"",""time""
""fullscreenenter"",""1"",""1042""
","
","","","754.8999998569489","","","24","9137","3189","g","elianto","#f73b6a7A"," "," ","1","0","[1605.8999998569489]","1","2","","","9137","80","3","3","lose","go","0"
"pit-trial","199","1267911","0.0-85.0","battery-v0.2","","""event"",""trial"",""time""
""fullscreenenter"",""1"",""1042""
","
","
","""event"",""trial"",""time""
""fullscreenenter"",""1"",""1042""
","
","","","-1","","","24","9137","3189","w","elianto","#f73b6a7A","-1","-1","1","0","[]","0","2","","","9137","81","6","4","lose","no-go","0"
"pit-trial","200","1272771","0.0-86.0","battery-v0.2","","""event"",""trial"",""time""
""fullscreenenter"",""1"",""1042""
","
","
","""event"",""trial"",""time""
""fullscreenenter"",""1"",""1042""
","
","","","-1","","","24","9137","3189","s","elianto","#3366ff99"," ","-1","0","0","[]","0","2","","","9137","82","5","1","win","go","0"
"pit-trial","201","1276702","0.0-87.0","battery-v0.2","","""event"",""trial"",""time""
""fullscreenenter"",""1"",""1042""
","
","
","""event"",""trial"",""time""
""fullscreenenter"",""1"",""1042""
","
","","","1078.5","","","24","9137","3189","e","elianto","#f73b6a7A"," "," ","1","0","[1928.5999999046326]","1","2","","","9137","83","7","3","lose","go","0"
"pit-trial","202","1281556","0.0-88.0","battery-v0.2","","""event"",""trial"",""time""
""fullscreenenter"",""1"",""1042""
","
","
","""event"",""trial"",""time""
""fullscreenenter"",""1"",""1042""
","
","","","-1","","","24","9137","3189","p","elianto","#3366ff99","-1","-1","1","+10","[]","0","2","","","9137","84","4","2","win","no-go","0"
"pit-trial","203","1285219","0.0-89.0","battery-v0.2","","""event"",""trial"",""time""
""fullscreenenter"",""1"",""1042""
","
","
","""event"",""trial"",""time""
""fullscreenenter"",""1"",""1042""
","
","","","808.3000001907349","","","24","9137","3189","e","elianto","#f73b6a7A"," "," ","1","0","[1659.3000001907349]","1","2","","","9137","85","7","3","lose","go","0"
"pit-trial","204","1290074","0.0-90.0","battery-v0.2","","""event"",""trial"",""time""
""fullscreenenter"",""1"",""1042""
","
","
","""event"",""trial"",""time""
""fullscreenenter"",""1"",""1042""
","
","","","-1","","","24","9137","3189","p","elianto","#3366ff99","-1","-1","1","+10","[]","0","2","","","9137","86","4","2","win","no-go","0"
"pit-trial","205","1293937","0.0-91.0","battery-v0.2","","""event"",""trial"",""time""
""fullscreenenter"",""1"",""1042""
","
","
","""event"",""trial"",""time""
""fullscreenenter"",""1"",""1042""
","
","","","1009.0999999046326","","","24","9137","3189","w","elianto","#f73b6a7A","-1"," ","0","-10","[1859.7999999523163]","1","2","","","9137","87","6","4","lose","no-go","0"
"pit-trial","206","1297681","0.0-92.0","battery-v0.2","","""event"",""trial"",""time""
""fullscreenenter"",""1"",""1042""
","
","
","""event"",""trial"",""time""
""fullscreenenter"",""1"",""1042""
","
","","","891.7999999523163","","","24","9137","3189","s","elianto","#3366ff99"," "," ","1","0","[1742.5]","1","2","","","9137","88","5","1","win","go","1"
"pit-trial","207","1301468","0.0-93.0","battery-v0.2","","""event"",""trial"",""time""
""fullscreenenter"",""1"",""1042""
","
","
","""event"",""trial"",""time""
""fullscreenenter"",""1"",""1042""
","
","","","934.6999998092651","","","24","9137","3189","s","elianto","#3366ff99"," "," ","1","+10","[1784.7999999523163]","1","2","","","9137","89","5","1","win","go","0"
"pit-trial","208","1305368","0.0-94.0","battery-v0.2","","""event"",""trial"",""time""
""fullscreenenter"",""1"",""1042""
","
","
","""event"",""trial"",""time""
""fullscreenenter"",""1"",""1042""
","
","","","1045.4000000953674","","","24","9137","3189","p","elianto","#3366ff99","-1"," ","0","0","[1896.2000000476837]","1","2","","","9137","90","4","2","win","no-go","0"
"pit-trial","209","1309385","0.0-95.0","battery-v0.2","","""event"",""trial"",""time""
""fullscreenenter"",""1"",""1042""
","
","
","""event"",""trial"",""time""
""fullscreenenter"",""1"",""1042""
","
","","","1161.4000000953674","","","24","9137","3189","e","elianto","#f73b6a7A"," "," ","1","0","[2012.5]","1","2","","","9137","91","7","3","lose","go","0"
"pit-trial","210","1314240","0.0-96.0","battery-v0.2","","""event"",""trial"",""time""
""fullscreenenter"",""1"",""1042""
","
","
","""event"",""trial"",""time""
""fullscreenenter"",""1"",""1042""
","
","","","-1","","","24","9137","3189","w","elianto","#f73b6a7A","-1","-1","1","0","[]","0","2","","","9137","92","6","4","lose","no-go","0"
"pit-trial","211","1318233","0.0-97.0","battery-v0.2","","""event"",""trial"",""time""
""fullscreenenter"",""1"",""1042""
","
","
","""event"",""trial"",""time""
""fullscreenenter"",""1"",""1042""
","
","","","1127.8999998569489","","","24","9137","3189","d","elianto","#3366ff99","-1"," ","0","0","[1978.2999999523163]","1","2","","","9137","93","8","2","win","no-go","0"
"pit-trial","212","1322212","0.0-98.0","battery-v0.2","","""event"",""trial"",""time""
""fullscreenenter"",""1"",""1042""
","
","
","""event"",""trial"",""time""
""fullscreenenter"",""1"",""1042""
","
","","","1126.3999998569489","","","24","9137","3189","e","elianto","#f73b6a7A"," "," ","1","0","[1976.7999999523163]","1","2","","","9137","94","7","3","lose","go","0"
"pit-trial","213","1326005","0.0-99.0","battery-v0.2","","""event"",""trial"",""time""
""fullscreenenter"",""1"",""1042""
","
","
","""event"",""trial"",""time""
""fullscreenenter"",""1"",""1042""
","
","","","940.0999999046326","","","24","9137","3189","w","elianto","#f73b6a7A","-1"," ","0","-10","[1790.1000001430511]","1","2","","","9137","95","6","4","lose","no-go","0"
"pit-trial","214","1330535","0.0-100.0","battery-v0.2","","""event"",""trial"",""time""
""fullscreenenter"",""1"",""1042""
","
","
","""event"",""trial"",""time""
""fullscreenenter"",""1"",""1042""
","
","","","1674.8000001907349","","","24","9137","3189","s","elianto","#3366ff99"," "," ","1","+10","[2526.7000000476837]","1","2","","","9137","96","5","1","win","go","0"
"pit-trial","215","1334556","0.0-101.0","battery-v0.2","","""event"",""trial"",""time""
""fullscreenenter"",""1"",""1042""
","
","
","""event"",""trial"",""time""
""fullscreenenter"",""1"",""1042""
","
","","","1169.7999999523163","","","24","9137","3189","d","elianto","#3366ff99","-1"," ","0","0","[2020]","1","2","","","9137","97","8","2","win","no-go","0"
"pit-trial","216","1338197","0.0-102.0","battery-v0.2","","""event"",""trial"",""time""
""fullscreenenter"",""1"",""1042""
","
","
","""event"",""trial"",""time""
""fullscreenenter"",""1"",""1042""
","
","","","788.5","","","24","9137","3189","w","elianto","#f73b6a7A","-1"," ","0","-10","[1639.7000000476837]","1","2","","","9137","98","6","4","lose","no-go","0"
"pit-trial","217","1343052","0.0-103.0","battery-v0.2","","""event"",""trial"",""time""
""fullscreenenter"",""1"",""1042""
","
","
","""event"",""trial"",""time""
""fullscreenenter"",""1"",""1042""
","
","","","-1","","","24","9137","3189","e","elianto","#f73b6a7A"," ","-1","0","0","[]","0","2","","","9137","99","7","3","lose","go","1"
"pit-trial","218","1346861","0.0-104.0","battery-v0.2","","""event"",""trial"",""time""
""fullscreenenter"",""1"",""1042""
","
","
","""event"",""trial"",""time""
""fullscreenenter"",""1"",""1042""
","
","","","954.3999998569489","","","24","9137","3189","s","elianto","#3366ff99"," "," ","1","+10","[1806.1000001430511]","1","2","","","9137","100","5","1","win","go","0"
"pit-trial","219","1350611","0.0-105.0","battery-v0.2","","""event"",""trial"",""time""
""fullscreenenter"",""1"",""1042""
","
","
","""event"",""trial"",""time""
""fullscreenenter"",""1"",""1042""
","
","","","897.2999999523163","","","24","9137","3189","w","elianto","#f73b6a7A","-1"," ","0","-10","[1747.6000001430511]","1","2","","","9137","101","6","4","lose","no-go","0"
"pit-trial","220","1354828","0.0-106.0","battery-v0.2","","""event"",""trial"",""time""
""fullscreenenter"",""1"",""1042""
","
","
","""event"",""trial"",""time""
""fullscreenenter"",""1"",""1042""
","
","","","1362.6999998092651","","","24","9137","3189","j","elianto","#3366ff99","-1"," ","0","0","[2214.0999999046326]","1","2","","","9137","102","9","2","win","no-go","0"
"pit-trial","221","1358474","0.0-107.0","battery-v0.2","","""event"",""trial"",""time""
""fullscreenenter"",""1"",""1042""
","
","
","""event"",""trial"",""time""
""fullscreenenter"",""1"",""1042""
","
","","","791.2999999523163","","","24","9137","3189","s","elianto","#3366ff99"," "," ","1","+10","[1641.7000000476837]","1","2","","","9137","103","5","1","win","go","0"
"pit-trial","222","1362151","0.0-108.0","battery-v0.2","","""event"",""trial"",""time""
""fullscreenenter"",""1"",""1042""
","
","
","""event"",""trial"",""time""
""fullscreenenter"",""1"",""1042""
","
","","","823.2000000476837","","","24","9137","3189","d","elianto","#3366ff99","-1"," ","0","0","[1673.7000000476837]","1","2","","","9137","104","8","2","win","no-go","0"
"pit-trial","223","1365815","0.0-109.0","battery-v0.2","","""event"",""trial"",""time""
""fullscreenenter"",""1"",""1042""
","
","
","""event"",""trial"",""time""
""fullscreenenter"",""1"",""1042""
","
","","","809.7999999523163","","","24","9137","3189","j","elianto","#3366ff99","-1"," ","0","0","[1659.9000000953674]","1","2","","","9137","105","9","2","win","no-go","0"
"pit-trial","224","1369437","0.0-110.0","battery-v0.2","","""event"",""trial"",""time""
""fullscreenenter"",""1"",""1042""
","
","
","""event"",""trial"",""time""
""fullscreenenter"",""1"",""1042""
","
","","","768.2999999523163","","","24","9137","3189","s","elianto","#3366ff99"," "," ","1","+10","[1618.5999999046326]","1","2","","","9137","106","5","1","win","go","0"
"pit-trial","225","1372920","0.0-111.0","battery-v0.2","","""event"",""trial"",""time""
""fullscreenenter"",""1"",""1042""
","
","
","""event"",""trial"",""time""
""fullscreenenter"",""1"",""1042""
","
","","","629.2999999523163","","","24","9137","3189","d","elianto","#3366ff99","-1"," ","0","0","[1480]","1","2","","","9137","107","8","2","win","no-go","0"
"pit-trial","226","1376637","0.0-112.0","battery-v0.2","","""event"",""trial"",""time""
""fullscreenenter"",""1"",""1042""
","
","
","""event"",""trial"",""time""
""fullscreenenter"",""1"",""1042""
","
","","","861.0999999046326","","","24","9137","3189","w","elianto","#f73b6a7A","-1"," ","0","-10","[1711.6999998092651]","1","2","","","9137","108","6","4","lose","no-go","0"
"pit-trial","227","1380168","0.0-113.0","battery-v0.2","","""event"",""trial"",""time""
""fullscreenenter"",""1"",""1042""
","
","
","""event"",""trial"",""time""
""fullscreenenter"",""1"",""1042""
","
","","","676.2999999523163","","","24","9137","3189","w","elianto","#f73b6a7A","-1"," ","0","0","[1527]","1","2","","","9137","109","6","4","lose","no-go","1"
"pit-trial","228","1383516","0.0-114.0","battery-v0.2","","""event"",""trial"",""time""
""fullscreenenter"",""1"",""1042""
","
","
","""event"",""trial"",""time""
""fullscreenenter"",""1"",""1042""
","
","","","496.39999985694885","","","24","9137","3189","j","elianto","#3366ff99","-1"," ","0","0","[1347]","1","2","","","9137","110","9","2","win","no-go","0"
"pit-trial","229","1387185","0.0-115.0","battery-v0.2","","""event"",""trial"",""time""
""fullscreenenter"",""1"",""1042""
","
","
","""event"",""trial"",""time""
""fullscreenenter"",""1"",""1042""
","
","","","809.6000001430511","","","24","9137","3189","d","elianto","#3366ff99","-1"," ","0","+10","[1660.1000001430511]","1","2","","","9137","111","8","2","win","no-go","1"
"pit-trial","230","1390623","0.0-116.0","battery-v0.2","","""event"",""trial"",""time""
""fullscreenenter"",""1"",""1042""
","
","
","""event"",""trial"",""time""
""fullscreenenter"",""1"",""1042""
","
","","","584.2000000476837","","","24","9137","3189","s","elianto","#3366ff99"," "," ","1","+10","[1435.5]","1","2","","","9137","112","5","1","win","go","0"
"pit-trial","231","1394190","0.0-117.0","battery-v0.2","","""event"",""trial"",""time""
""fullscreenenter"",""1"",""1042""
","
","
","""event"",""trial"",""time""
""fullscreenenter"",""1"",""1042""
","
","","","712.2000000476837","","","24","9137","3189","d","elianto","#3366ff99","-1"," ","0","0","[1562.6000001430511]","1","2","","","9137","113","8","2","win","no-go","0"
"pit-trial","232","1397619","0.0-118.0","battery-v0.2","","""event"",""trial"",""time""
""fullscreenenter"",""1"",""1042""
","
","
","""event"",""trial"",""time""
""fullscreenenter"",""1"",""1042""
","
","","","574.5999999046326","","","24","9137","3189","j","elianto","#3366ff99","-1"," ","0","0","[1426.0999999046326]","1","2","","","9137","114","9","2","win","no-go","0"
"pit-trial","233","1401325","0.0-119.0","battery-v0.2","","""event"",""trial"",""time""
""fullscreenenter"",""1"",""1042""
","
","
","""event"",""trial"",""time""
""fullscreenenter"",""1"",""1042""
","
","","","853.2999999523163","","","24","9137","3189","e","elianto","#f73b6a7A"," "," ","1","0","[1704.2000000476837]","1","2","","","9137","115","7","3","lose","go","0"
"pit-trial","234","1405096","0.0-120.0","battery-v0.2","","""event"",""trial"",""time""
""fullscreenenter"",""1"",""1042""
","
","
","""event"",""trial"",""time""
""fullscreenenter"",""1"",""1042""
","
","","","917.7000000476837","","","24","9137","3189","s","elianto","#3366ff99"," "," ","1","+10","[1768.4000000953674]","1","2","","","9137","116","5","1","win","go","0"
"pit-trial","235","1408523","0.0-121.0","battery-v0.2","","""event"",""trial"",""time""
""fullscreenenter"",""1"",""1042""
","
","
","""event"",""trial"",""time""
""fullscreenenter"",""1"",""1042""
","
","","","573.2000000476837","","","24","9137","3189","w","elianto","#f73b6a7A","-1"," ","0","-10","[1424]","1","2","","","9137","117","6","4","lose","no-go","0"
"pit-trial","236","1412183","0.0-122.0","battery-v0.2","","""event"",""trial"",""time""
""fullscreenenter"",""1"",""1042""
","
","
","""event"",""trial"",""time""
""fullscreenenter"",""1"",""1042""
","
","","","806.7000000476837","","","24","9137","3189","j","elianto","#3366ff99","-1"," ","0","+10","[1657.5]","1","2","","","9137","118","9","2","win","no-go","1"
"pit-trial","237","1417039","0.0-123.0","battery-v0.2","","""event"",""trial"",""time""
""fullscreenenter"",""1"",""1042""
","
","
","""event"",""trial"",""time""
""fullscreenenter"",""1"",""1042""
","
","","","-1","","","24","9137","3189","d","elianto","#3366ff99","-1","-1","1","+10","[]","0","2","","","9137","119","8","2","win","no-go","0"
"pit-trial","238","1420613","0.0-124.0","battery-v0.2","","""event"",""trial"",""time""
""fullscreenenter"",""1"",""1042""
","
","
","""event"",""trial"",""time""
""fullscreenenter"",""1"",""1042""
","
","","","720.0999999046326","","","24","9137","3189","s","elianto","#3366ff99"," "," ","1","0","[1571.3000001907349]","1","2","","","9137","120","5","1","win","go","1"
"pit-trial","239","1424095","0.0-125.0","battery-v0.2","","""event"",""trial"",""time""
""fullscreenenter"",""1"",""1042""
","
","
","""event"",""trial"",""time""
""fullscreenenter"",""1"",""1042""
","
","","","628.2000000476837","","","24","9137","3189","j","elianto","#3366ff99","-1"," ","0","0","[1478.5999999046326]","1","2","","","9137","121","9","2","win","no-go","0"
"pit-trial","240","1427536","0.0-126.0","battery-v0.2","","""event"",""trial"",""time""
""fullscreenenter"",""1"",""1042""
","
","
","""event"",""trial"",""time""
""fullscreenenter"",""1"",""1042""
","
","","","586.7000000476837","","","24","9137","3189","d","elianto","#3366ff99","-1"," ","0","0","[1437.4000000953674]","1","2","","","9137","122","8","2","win","no-go","0"
"pit-trial","241","1431601","0.0-127.0","battery-v0.2","","""event"",""trial"",""time""
""fullscreenenter"",""1"",""1042""
","
","
","""event"",""trial"",""time""
""fullscreenenter"",""1"",""1042""
","
","","","1210","","","24","9137","3189","e","elianto","#f73b6a7A"," "," ","1","0","[2061]","1","2","","","9137","123","7","3","lose","go","0"
"pit-trial","242","1436454","0.0-128.0","battery-v0.2","","""event"",""trial"",""time""
""fullscreenenter"",""1"",""1042""
","
","
","""event"",""trial"",""time""
""fullscreenenter"",""1"",""1042""
","
","","","-1","","","24","9137","3189","s","elianto","#3366ff99"," ","-1","0","+10","[]","0","2","","","9137","124","5","1","win","go","1"
"pit-trial","243","1441310","0.0-129.0","battery-v0.2","","""event"",""trial"",""time""
""fullscreenenter"",""1"",""1042""
","
","
","""event"",""trial"",""time""
""fullscreenenter"",""1"",""1042""
","
","","","-1","","","24","9137","3189","j","elianto","#3366ff99","-1","-1","1","+10","[]","0","2","","","9137","125","9","2","win","no-go","0"
"pit-trial","244","1445937","0.0-130.0","battery-v0.2","","""event"",""trial"",""time""
""fullscreenenter"",""1"",""1042""
","
","
","""event"",""trial"",""time""
""fullscreenenter"",""1"",""1042""
","
","","","1773.1000001430511","","","24","9137","3189","w","elianto","#f73b6a7A","-1"," ","0","-10","[2623.600000143051]","1","2","","","9137","126","6","4","lose","no-go","0"
"pit-trial","245","1450789","0.0-131.0","battery-v0.2","","""event"",""trial"",""time""
""fullscreenenter"",""1"",""1042""
","
","
","""event"",""trial"",""time""
""fullscreenenter"",""1"",""1042""
","
","","","-1","","","24","9137","3189","e","elianto","#f73b6a7A"," ","-1","0","-10","[]","0","2","","","9137","127","7","3","lose","go","0"
"pit-trial","246","1455644","0.0-132.0","battery-v0.2","","""event"",""trial"",""time""
""fullscreenenter"",""1"",""1042""
","
","
","""event"",""trial"",""time""
""fullscreenenter"",""1"",""1042""
","
","","","-1","","","24","9137","3189","d","elianto","#3366ff99","-1","-1","1","+10","[]","0","2","","","9137","128","8","2","win","no-go","0"
"pit-trial","247","1459400","0.0-133.0","battery-v0.2","","""event"",""trial"",""time""
""fullscreenenter"",""1"",""1042""
","
","
","""event"",""trial"",""time""
""fullscreenenter"",""1"",""1042""
","
","","","902.4000000953674","","","24","9137","3189","j","elianto","#3366ff99","-1"," ","0","0","[1753.3000001907349]","1","2","","","9137","129","9","2","win","no-go","0"
"pit-trial","248","1464253","0.0-134.0","battery-v0.2","","""event"",""trial"",""time""
""fullscreenenter"",""1"",""1042""
","
","
","""event"",""trial"",""time""
""fullscreenenter"",""1"",""1042""
","
","","","-1","","","24","9137","3189","d","elianto","#3366ff99","-1","-1","1","+10","[]","0","2","","","9137","130","8","2","win","no-go","0"
"pit-trial","249","1467862","0.0-135.0","battery-v0.2","","""event"",""trial"",""time""
""fullscreenenter"",""1"",""1042""
","
","
","""event"",""trial"",""time""
""fullscreenenter"",""1"",""1042""
","
","","","755.0999999046326","","","24","9137","3189","e","elianto","#f73b6a7A"," "," ","1","0","[1606]","1","2","","","9137","131","7","3","lose","go","0"
"pit-trial","250","1472716","0.0-136.0","battery-v0.2","","""event"",""trial"",""time""
""fullscreenenter"",""1"",""1042""
","
","
","""event"",""trial"",""time""
""fullscreenenter"",""1"",""1042""
","
","","","-1","","","24","9137","3189","w","elianto","#f73b6a7A","-1","-1","1","0","[]","0","2","","","9137","132","6","4","lose","no-go","0"
"pit-trial","251","1477573","0.0-137.0","battery-v0.2","","""event"",""trial"",""time""
""fullscreenenter"",""1"",""1042""
","
","
","""event"",""trial"",""time""
""fullscreenenter"",""1"",""1042""
","
","","","-1","","","24","9137","3189","w","elianto","#f73b6a7A","-1","-1","1","0","[]","0","2","","","9137","133","6","4","lose","no-go","0"
"pit-trial","252","1481266","0.0-138.0","battery-v0.2","","""event"",""trial"",""time""
""fullscreenenter"",""1"",""1042""
","
","
","""event"",""trial"",""time""
""fullscreenenter"",""1"",""1042""
","
","","","835.0999999046326","","","24","9137","3189","e","elianto","#f73b6a7A"," "," ","1","0","[1685.5]","1","2","","","9137","134","7","3","lose","go","0"
"pit-trial","253","1486122","0.0-139.0","battery-v0.2","","""event"",""trial"",""time""
""fullscreenenter"",""1"",""1042""
","
","
","""event"",""trial"",""time""
""fullscreenenter"",""1"",""1042""
","
","","","-1","","","24","9137","3189","d","elianto","#3366ff99","-1","-1","1","+10","[]","0","2","","","9137","135","8","2","win","no-go","0"
"pit-trial","254","1490977","0.0-140.0","battery-v0.2","","""event"",""trial"",""time""
""fullscreenenter"",""1"",""1042""
","
","
","""event"",""trial"",""time""
""fullscreenenter"",""1"",""1042""
","
","","","-1","","","24","9137","3189","j","elianto","#3366ff99","-1","-1","1","+10","[]","0","2","","","9137","136","9","2","win","no-go","0"
"pit-trial","255","1495832","0.0-141.0","battery-v0.2","","""event"",""trial"",""time""
""fullscreenenter"",""1"",""1042""
","
","
","""event"",""trial"",""time""
""fullscreenenter"",""1"",""1042""
","
","","","-1","","","24","9137","3189","w","elianto","#f73b6a7A","-1","-1","1","0","[]","0","2","","","9137","137","6","4","lose","no-go","0"
"pit-trial","256","1500685","0.0-142.0","battery-v0.2","","""event"",""trial"",""time""
""fullscreenenter"",""1"",""1042""
","
","
","""event"",""trial"",""time""
""fullscreenenter"",""1"",""1042""
","
","","","-1","","","24","9137","3189","j","elianto","#3366ff99","-1","-1","1","0","[]","0","2","","","9137","138","9","2","win","no-go","1"
"pit-trial","257","1504180","0.0-143.0","battery-v0.2","","""event"",""trial"",""time""
""fullscreenenter"",""1"",""1042""
","
","
","""event"",""trial"",""time""
""fullscreenenter"",""1"",""1042""
","
","","","642.5","","","24","9137","3189","e","elianto","#f73b6a7A"," "," ","1","-10","[1492.5]","1","2","","","9137","139","7","3","lose","go","1"
"pit-trial","258","1509034","0.0-144.0","battery-v0.2","","""event"",""trial"",""time""
""fullscreenenter"",""1"",""1042""
","
","
","""event"",""trial"",""time""
""fullscreenenter"",""1"",""1042""
","
","","","-1","","","24","9137","3189","d","elianto","#3366ff99","-1","-1","1","0","[]","0","2","","","9137","140","8","2","win","no-go","1"
"pit-instructions","259","1523197","0.0-145.0","battery-v0.2","","""event"",""trial"",""time""
""fullscreenenter"",""1"",""1042""
","
","
","""event"",""trial"",""time""
""fullscreenenter"",""1"",""1042""
","
","","[{""page_index"":0,""viewing_time"":5418.599999904633},{""page_index"":1,""viewing_time"":8742.5}]","14161.399999856949","","","","","","","","","","","","","","","","","","","","","","","",""
"pit-trial","260","1526664","0.0-146.0","battery-v0.2","","""event"",""trial"",""time""
""fullscreenenter"",""1"",""1042""
","
","
","""event"",""trial"",""time""
""fullscreenenter"",""1"",""1042""
","
","","","599.8999998569489","","","24","9137","3189","t","elianto","#f73b6a7A"," "," ","1","0","[1451]","1","3","","","9137","141","2","3","lose","go","0"
"pit-trial","261","1529912","0.0-147.0","battery-v0.2","","""event"",""trial"",""time""
""fullscreenenter"",""1"",""1042""
","
","
","""event"",""trial"",""time""
""fullscreenenter"",""1"",""1042""
","
","","","391","","","24","9137","3189","n","elianto","#f73b6a7A"," "," ","1","0","[1241.5]","1","3","","","9137","142","0","3","lose","go","0"
"pit-trial","262","1533146","0.0-148.0","battery-v0.2","","""event"",""trial"",""time""
""fullscreenenter"",""1"",""1042""
","
","
","""event"",""trial"",""time""
""fullscreenenter"",""1"",""1042""
","
","","","360.40000009536743","","","24","9137","3189","b","elianto","#f73b6a7A","-1"," ","0","0","[1217]","1","3","","","9137","143","3","4","lose","no-go","1"
"pit-trial","263","1536441","0.0-149.0","battery-v0.2","","""event"",""trial"",""time""
""fullscreenenter"",""1"",""1042""
","
","
","""event"",""trial"",""time""
""fullscreenenter"",""1"",""1042""
","
","","","432.30000019073486","","","24","9137","3189","f","elianto","#3366ff99","-1"," ","0","0","[1285.5]","1","3","","","9137","144","1","2","win","no-go","0"
"pit-trial","264","1539842","0.0-150.0","battery-v0.2","","""event"",""trial"",""time""
""fullscreenenter"",""1"",""1042""
","
","
","""event"",""trial"",""time""
""fullscreenenter"",""1"",""1042""
","
","","","540.1000001430511","","","24","9137","3189","t","elianto","#f73b6a7A"," "," ","1","0","[1392.1000001430511]","1","3","","","9137","145","2","3","lose","go","0"
"pit-trial","265","1544706","0.0-151.0","battery-v0.2","","""event"",""trial"",""time""
""fullscreenenter"",""1"",""1042""
","
","
","""event"",""trial"",""time""
""fullscreenenter"",""1"",""1042""
","
","","","-1","","","24","9137","3189","f","elianto","#3366ff99","-1","-1","1","+10","[]","0","3","","","9137","146","1","2","win","no-go","0"
"pit-trial","266","1547991","0.0-152.0","battery-v0.2","","""event"",""trial"",""time""
""fullscreenenter"",""1"",""1042""
","
","
","""event"",""trial"",""time""
""fullscreenenter"",""1"",""1042""
","
","","","417","","","24","9137","3189","b","elianto","#f73b6a7A","-1"," ","0","-10","[1270.8000001907349]","1","3","","","9137","147","3","4","lose","no-go","0"
