"trial_type","trial_index","time_elapsed","internal_node_id","task_version","subject_id","interactions","blur_events","focus_events","fullscreenenter_events","fullscreenexit_events","success","view_history","rt","responses","num_errors","age","subject","participantId","rune","rune_set","hex","correct","choice","accuracy","outcome","keys","total_keys","block","practice","value","sub","trial","stimulus","robot","valence","action","sham"
"pavlovia","0","8","0.0-0.0","battery-v0.2","","""event"",""trial"",""time""
""fullscreenenter"",""1"",""6112""
","
","
","""event"",""trial"",""time""
""fullscreenenter"",""1"",""6112""
","
","","","","","","","","","","","","","","","","","","","","","","","","","","",""
"fullscreen","1","7038","0.0-1.0","battery-v0.2","","""event"",""trial"",""time""
""fullscreenenter"",""1"",""6112""
","
","
","""event"",""trial"",""time""
""fullscreenenter"",""1"",""6112""
","
","true","","","","","","","","","","","","","","","","","","","","","","","","","",""
"pit-instructions","2","20163","0.0-2.0-0.0","battery-v0.2","","""event"",""trial"",""time""
""fullscreenenter"",""1"",""6112""
","
","
","""event"",""trial"",""time""
""fullscreenenter"",""1"",""6112""
","
","","[{""page_index"":0,""viewing_time"":13120.599999999977}]","13121.79999999993","","","","","","","","","","","","","","","","","","","","","","","",""
"pit-comprehension","3","25707","0.0-2.0-1.0-0.0","battery-v0.2","","""event"",""trial"",""time""
""fullscreenenter"",""1"",""6112""
","
","
","""event"",""trial"",""time""
""fullscreenenter"",""1"",""6112""
","
","","","5533","[""shark""]","0","10","10830","2153","","","","","","","","","","","","","","","","","","",""
"pit-instructions","4","27952","0.0-2.0-1.0-1.0","battery-v0.2","","""event"",""trial"",""time""
""fullscreenenter"",""1"",""6112""
","
","
","""event"",""trial"",""time""
""fullscreenenter"",""1"",""6112""
","
","","[{""page_index"":0,""viewing_time"":2232.9000000000233}]","2233.8000000000466","","","","","","","","","","","","","","","","","","","","","","","",""
"pit-comprehension","5","31030","0.0-2.0-2.0-0.0","battery-v0.2","","""event"",""trial"",""time""
""fullscreenenter"",""1"",""6112""
","
","
","""event"",""trial"",""time""
""fullscreenenter"",""1"",""6112""
","
","","","3066.6999999999534","[""tiger""]","0","10","10830","2153","","","","","","","","","","","","","","","","","","",""
"pit-instructions","6","32086","0.0-2.0-2.0-1.0","battery-v0.2","","""event"",""trial"",""time""
""fullscreenenter"",""1"",""6112""
","
","
","""event"",""trial"",""time""
""fullscreenenter"",""1"",""6112""
","
","","[{""page_index"":0,""viewing_time"":1044.1999999999534}]","1045.5","","","","","","","","","","","","","","","","","","","","","","","",""
"pit-instructions","7","135115","0.0-2.0-3.0","battery-v0.2","","""event"",""trial"",""time""
""fullscreenenter"",""1"",""6112""
","
","
","""event"",""trial"",""time""
""fullscreenenter"",""1"",""6112""
","
","","[{""page_index"":0,""viewing_time"":9744.300000000047},{""page_index"":1,""viewing_time"":6058.699999999953},{""page_index"":2,""viewing_time"":7694.900000000023},{""page_index"":3,""viewing_time"":6938},{""page_index"":4,""viewing_time"":6967.300000000047},{""page_index"":5,""viewing_time"":5316.29999999993},{""page_index"":6,""viewing_time"":7410.400000000023},{""page_index"":7,""viewing_time"":7237.099999999977},{""page_index"":8,""viewing_time"":6224.600000000093},{""page_index"":9,""viewing_time"":10762.5},{""page_index"":10,""viewing_time"":8032.599999999977},{""page_index"":11,""viewing_time"":8684.099999999977},{""page_index"":12,""viewing_time"":7073.599999999977},{""page_index"":13,""viewing_time"":4873.400000000023}]","103018.90000000002","","","","","","","","","","","","","","","","","","","","","","","",""
"pit-trial","8","139170","0.0-2.0-4.0-0.0","battery-v0.2","","""event"",""trial"",""time""
""fullscreenenter"",""1"",""6112""
","
","
","""event"",""trial"",""time""
""fullscreenenter"",""1"",""6112""
","
","","","1191.2000000000698","","","10","10830","2153","&#9784;","elianto","#FFFFF080"," "," ","1","&#10004","[2046]","1","0","0","","","","","","","",""
"pit-trial","9","142573","0.0-2.0-4.1-0.1","battery-v0.2","","""event"",""trial"",""time""
""fullscreenenter"",""1"",""6112""
","
","
","""event"",""trial"",""time""
""fullscreenenter"",""1"",""6112""
","
","","","545.1999999999534","","","10","10830","2153","&#9784;","elianto","#FFFFF080"," "," ","1","&#10004","[1395.4000000000233]","1","0","0","","","","","","","",""
"pit-trial","10","146008","0.0-2.0-4.2-0.2","battery-v0.2","","""event"",""trial"",""time""
""fullscreenenter"",""1"",""6112""
","
","
","""event"",""trial"",""time""
""fullscreenenter"",""1"",""6112""
","
","","","579.6000000000931","","","10","10830","2153","&#9784;","elianto","#FFFFF080"," "," ","1","&#10004","[1429.8000000000466]","1","0","0","","","","","","","",""
"pit-trial","11","149406","0.0-2.0-4.3-0.3","battery-v0.2","","""event"",""trial"",""time""
""fullscreenenter"",""1"",""6112""
","
","
","""event"",""trial"",""time""
""fullscreenenter"",""1"",""6112""
","
","","","543","","","10","10830","2153","&#9784;","elianto","#FFFFF080"," "," ","1","&#10004","[1393.1999999999534]","1","0","0","","","","","","","",""
"pit-trial","12","152810","0.0-2.0-4.4-0.4","battery-v0.2","","""event"",""trial"",""time""
""fullscreenenter"",""1"",""6112""
","
","
","""event"",""trial"",""time""
""fullscreenenter"",""1"",""6112""
","
","","","547.8000000000466","","","10","10830","2153","&#9784;","elianto","#FFFFF080"," "," ","1","&#10004","[1397.9000000000233]","1","0","0","","","","","","","",""
"pit-instructions","13","174520","0.0-2.0-5.0","battery-v0.2","","""event"",""trial"",""time""
""fullscreenenter"",""1"",""6112""
","
","
","""event"",""trial"",""time""
""fullscreenenter"",""1"",""6112""
","
","","[{""page_index"":0,""viewing_time"":4743.900000000023},{""page_index"":1,""viewing_time"":5459.5},{""page_index"":2,""viewing_time"":5587.300000000047},{""page_index"":3,""viewing_time"":5910.79999999993}]","21702.20000000007","","","","","","","","","","","","","","","","","","","","","","","",""
"pit-trial","14","179376","0.0-2.0-6.0-0.0","battery-v0.2","","""event"",""trial"",""time""
""fullscreenenter"",""1"",""6112""
","
","
","""event"",""trial"",""time""
""fullscreenenter"",""1"",""6112""
","
","","","-1","","","10","10830","2153","&#9854;","elianto","#FFFFF080","-1","-1","1","&#10004","[]","0","0","1","","","","","","","",""
"pit-trial","15","184229","0.0-2.0-6.1-0.1","battery-v0.2","","""event"",""trial"",""time""
""fullscreenenter"",""1"",""6112""
","
","
","""event"",""trial"",""time""
""fullscreenenter"",""1"",""6112""
","
","","","-1","","","10","10830","2153","&#9854;","elianto","#FFFFF080","-1","-1","1","&#10004","[]","0","0","1","","","","","","","",""
"pit-trial","16","189085","0.0-2.0-6.2-0.2","battery-v0.2","","""event"",""trial"",""time""
""fullscreenenter"",""1"",""6112""
","
","
","""event"",""trial"",""time""
""fullscreenenter"",""1"",""6112""
","
","","","-1","","","10","10830","2153","&#9854;","elianto","#FFFFF080","-1","-1","1","&#10004","[]","0","0","1","","","","","","","",""
"pit-trial","17","193940","0.0-2.0-6.3-0.3","battery-v0.2","","""event"",""trial"",""time""
""fullscreenenter"",""1"",""6112""
","
","
","""event"",""trial"",""time""
""fullscreenenter"",""1"",""6112""
","
","","","-1","","","10","10830","2153","&#9854;","elianto","#FFFFF080","-1","-1","1","&#10004","[]","0","0","1","","","","","","","",""
"pit-trial","18","198795","0.0-2.0-6.4-0.4","battery-v0.2","","""event"",""trial"",""time""
""fullscreenenter"",""1"",""6112""
""fullscreenexit"",""19"",""286230""
","
","
","""event"",""trial"",""time""
""fullscreenenter"",""1"",""6112""
","""event"",""trial"",""time""
""fullscreenexit"",""19"",""286230""
","","","-1","","","10","10830","2153","&#9854;","elianto","#FFFFF080","-1","-1","1","&#10004","[]","0","0","1","","","","","","","",""
"pit-instructions","19","323157","0.0-2.0-7.0","battery-v0.2","","""event"",""trial"",""time""
""fullscreenenter"",""1"",""6112""
""fullscreenexit"",""19"",""286230""
","
","
","""event"",""trial"",""time""
""fullscreenenter"",""1"",""6112""
","""event"",""trial"",""time""
""fullscreenexit"",""19"",""286230""
","","[{""page_index"":0,""viewing_time"":6713.100000000093},{""page_index"":1,""viewing_time"":7695.79999999993},{""page_index"":2,""viewing_time"":6816.20000000007},{""page_index"":3,""viewing_time"":5751.699999999953},{""page_index"":4,""viewing_time"":5259},{""page_index"":5,""viewing_time"":5016.099999999977},{""page_index"":6,""viewing_time"":4822},{""page_index"":7,""viewing_time"":8108.099999999977},{""page_index"":8,""viewing_time"":6013.600000000093},{""page_index"":9,""viewing_time"":5198.699999999953},{""page_index"":10,""viewing_time"":6524.699999999953},{""page_index"":11,""viewing_time"":8443.600000000093},{""page_index"":12,""viewing_time"":8310},{""page_index"":13,""viewing_time"":8878.899999999907},{""page_index"":14,""viewing_time"":6601.5},{""page_index"":15,""viewing_time"":6201.90000000014},{""page_index"":16,""viewing_time"":10289.899999999907},{""page_index"":17,""viewing_time"":7709}]","124354.80000000005","","","","","","","","","","","","","","","","","","","","","","","",""
"pit-trial","20","326731","0.0-2.0-8.0-0.0","battery-v0.2","","""event"",""trial"",""time""
""fullscreenenter"",""1"",""6112""
""fullscreenexit"",""19"",""286230""
","
","
","""event"",""trial"",""time""
""fullscreenenter"",""1"",""6112""
","""event"",""trial"",""time""
""fullscreenexit"",""19"",""286230""
","","","714.8999999999069","","","10","10830","2153","&#9776;","elianto","#3366ff99"," "," ","1","+10","[1568.4000000001397]","1","0","1","","","","","","","",""
"pit-trial","21","330030","0.0-2.0-8.0-1.0","battery-v0.2","","""event"",""trial"",""time""
""fullscreenenter"",""1"",""6112""
""fullscreenexit"",""19"",""286230""
","
","
","""event"",""trial"",""time""
""fullscreenenter"",""1"",""6112""
","""event"",""trial"",""time""
""fullscreenexit"",""19"",""286230""
","","","445","","","10","10830","2153","&#9776;","elianto","#3366ff99"," "," ","1","+10","[1295]","1","0","1","","","","","","","",""
"pit-trial","22","333322","0.0-2.0-8.0-2.0","battery-v0.2","","""event"",""trial"",""time""
""fullscreenenter"",""1"",""6112""
""fullscreenexit"",""19"",""286230""
","
","
","""event"",""trial"",""time""
""fullscreenenter"",""1"",""6112""
","""event"",""trial"",""time""
""fullscreenexit"",""19"",""286230""
","","","437.69999999995343","","","10","10830","2153","&#9776;","elianto","#3366ff99"," "," ","1","+10","[1287.8000000000466]","1","0","1","","","","","","","",""
"pit-trial","23","336578","0.0-2.0-8.0-3.0","battery-v0.2","","""event"",""trial"",""time""
""fullscreenenter"",""1"",""6112""
""fullscreenexit"",""19"",""286230""
","
","
","""event"",""trial"",""time""
""fullscreenenter"",""1"",""6112""
","""event"",""trial"",""time""
""fullscreenexit"",""19"",""286230""
","","","398.70000000018626","","","10","10830","2153","&#9776;","elianto","#3366ff99"," "," ","1","0","[1251.1000000000931,2595.100000000093,2811.2000000001863]","3","0","1","","","","","","","",""
"pit-trial","24","339846","0.0-2.0-8.0-4.0","battery-v0.2","","""event"",""trial"",""time""
""fullscreenenter"",""1"",""6112""
""fullscreenexit"",""19"",""286230""
","
","
","""event"",""trial"",""time""
""fullscreenenter"",""1"",""6112""
","""event"",""trial"",""time""
""fullscreenexit"",""19"",""286230""
","","","415.10000000009313","","","10","10830","2153","&#9776;","elianto","#3366ff99"," "," ","1","+10","[1265.1999999999534]","1","0","1","","","","","","","",""
"pit-trial","25","343125","0.0-2.0-8.1-0.1","battery-v0.2","","""event"",""trial"",""time""
""fullscreenenter"",""1"",""6112""
""fullscreenexit"",""19"",""286230""
","
","
","""event"",""trial"",""time""
""fullscreenenter"",""1"",""6112""
","""event"",""trial"",""time""
""fullscreenexit"",""19"",""286230""
","","","422.39999999990687","","","10","10830","2153","&#9776;","elianto","#3366ff99"," "," ","1","+10","[1272.6999999999534]","1","0","1","","","","","","","",""
"pit-trial","26","346229","0.0-2.0-8.1-1.1","battery-v0.2","","""event"",""trial"",""time""
""fullscreenenter"",""1"",""6112""
""fullscreenexit"",""19"",""286230""
","
","
","""event"",""trial"",""time""
""fullscreenenter"",""1"",""6112""
","""event"",""trial"",""time""
""fullscreenexit"",""19"",""286230""
","","","249.9000000001397","","","10","10830","2153","&#9776;","elianto","#3366ff99"," "," ","1","+10","[1101.1000000000931]","1","0","1","","","","","","","",""
"pit-trial","27","349477","0.0-2.0-8.1-2.1","battery-v0.2","","""event"",""trial"",""time""
""fullscreenenter"",""1"",""6112""
""fullscreenexit"",""19"",""286230""
","
","
","""event"",""trial"",""time""
""fullscreenenter"",""1"",""6112""
","""event"",""trial"",""time""
""fullscreenexit"",""19"",""286230""
","","","393.60000000009313","","","10","10830","2153","&#9776;","elianto","#3366ff99"," "," ","1","+10","[1243.6999999999534]","1","0","1","","","","","","","",""
"pit-trial","28","352650","0.0-2.0-8.1-3.1","battery-v0.2","","""event"",""trial"",""time""
""fullscreenenter"",""1"",""6112""
""fullscreenexit"",""19"",""286230""
","
","
","""event"",""trial"",""time""
""fullscreenenter"",""1"",""6112""
","""event"",""trial"",""time""
""fullscreenexit"",""19"",""286230""
","","","319.20000000018626","","","10","10830","2153","&#9776;","elianto","#3366ff99"," "," ","1","0","[1169.1999999999534]","1","0","1","","","","","","","",""
"pit-trial","29","355776","0.0-2.0-8.1-4.1","battery-v0.2","","""event"",""trial"",""time""
""fullscreenenter"",""1"",""6112""
""fullscreenexit"",""19"",""286230""
","
","
","""event"",""trial"",""time""
""fullscreenenter"",""1"",""6112""
","""event"",""trial"",""time""
""fullscreenexit"",""19"",""286230""
","","","272.39999999990687","","","10","10830","2153","&#9776;","elianto","#3366ff99"," "," ","1","+10","[1122.8000000000466]","1","0","1","","","","","","","",""
"pit-trial","30","358859","0.0-2.0-8.2-0.2","battery-v0.2","","""event"",""trial"",""time""
""fullscreenenter"",""1"",""6112""
""fullscreenexit"",""19"",""286230""
","
","
","""event"",""trial"",""time""
""fullscreenenter"",""1"",""6112""
","""event"",""trial"",""time""
""fullscreenexit"",""19"",""286230""
","","","227","","","10","10830","2153","&#9776;","elianto","#3366ff99"," "," ","1","+10","[1078.1999999999534]","1","0","1","","","","","","","",""
"pit-trial","31","361835","0.0-2.0-8.2-1.2","battery-v0.2","","""event"",""trial"",""time""
""fullscreenenter"",""1"",""6112""
""fullscreenexit"",""19"",""286230""
","
","
","""event"",""trial"",""time""
""fullscreenenter"",""1"",""6112""
","""event"",""trial"",""time""
""fullscreenexit"",""19"",""286230""
","","","122.5","","","10","10830","2153","&#9776;","elianto","#3366ff99"," "," ","1","+10","[178,972.6999999999534]","2","0","1","","","","","","","",""
"pit-trial","32","364784","0.0-2.0-8.2-2.2","battery-v0.2","","""event"",""trial"",""time""
""fullscreenenter"",""1"",""6112""
""fullscreenexit"",""19"",""286230""
","
","
","""event"",""trial"",""time""
""fullscreenenter"",""1"",""6112""
","""event"",""trial"",""time""
""fullscreenexit"",""19"",""286230""
","","","94.5","","","10","10830","2153","&#9776;","elianto","#3366ff99"," "," ","1","+10","[944.6999999999534]","1","0","1","","","","","","","",""
"pit-trial","33","368285","0.0-2.0-8.2-3.2","battery-v0.2","","""event"",""trial"",""time""
""fullscreenenter"",""1"",""6112""
""fullscreenexit"",""19"",""286230""
","
","
","""event"",""trial"",""time""
""fullscreenenter"",""1"",""6112""
","""event"",""trial"",""time""
""fullscreenexit"",""19"",""286230""
","","","647.6000000000931","","","10","10830","2153","&#9776;","elianto","#3366ff99"," "," ","1","0","[838,1497.6999999999534]","2","0","1","","","","","","","",""
"pit-trial","34","371220","0.0-2.0-8.2-4.2","battery-v0.2","","""event"",""trial"",""time""
""fullscreenenter"",""1"",""6112""
""fullscreenexit"",""19"",""286230""
","
","
","""event"",""trial"",""time""
""fullscreenenter"",""1"",""6112""
","""event"",""trial"",""time""
""fullscreenexit"",""19"",""286230""
","","","80.60000000009313","","","10","10830","2153","&#9776;","elianto","#3366ff99"," "," ","1","+10","[930.7999999998137]","1","0","1","","","","","","","",""
"call-function","35","371223","0.0-2.0-9.0","battery-v0.2","","""event"",""trial"",""time""
""fullscreenenter"",""1"",""6112""
""fullscreenexit"",""19"",""286230""
","
","
","""event"",""trial"",""time""
""fullscreenenter"",""1"",""6112""
","""event"",""trial"",""time""
""fullscreenexit"",""19"",""286230""
","","","","","","","","","","","","","","","","","","","","","","","","","","",""
"pit-instructions","36","415082","0.0-2.0-10.0","battery-v0.2","","""event"",""trial"",""time""
""fullscreenenter"",""1"",""6112""
""fullscreenexit"",""19"",""286230""
","
","
","""event"",""trial"",""time""
""fullscreenenter"",""1"",""6112""
","""event"",""trial"",""time""
""fullscreenexit"",""19"",""286230""
","","[{""page_index"":0,""viewing_time"":5459.899999999907},{""page_index"":1,""viewing_time"":7115.40000000014},{""page_index"":2,""viewing_time"":10057.399999999907},{""page_index"":3,""viewing_time"":10964.600000000093},{""page_index"":4,""viewing_time"":10259.399999999907}]","43857.69999999995","","","","","","","","","","","","","","","","","","","","","","","",""
"pit-trial","37","419938","0.0-2.0-11.0-0.0","battery-v0.2","","""event"",""trial"",""time""
""fullscreenenter"",""1"",""6112""
""fullscreenexit"",""19"",""286230""
","
","
","""event"",""trial"",""time""
""fullscreenenter"",""1"",""6112""
","""event"",""trial"",""time""
""fullscreenexit"",""19"",""286230""
","","","-1","","","10","10830","2153","&#9761;","elianto","#3366ff99","-1","-1","1","+10","[]","0","0","2","","","","","","","",""
"pit-trial","38","424791","0.0-2.0-11.0-1.0","battery-v0.2","","""event"",""trial"",""time""
""fullscreenenter"",""1"",""6112""
""fullscreenexit"",""19"",""286230""
","
","
","""event"",""trial"",""time""
""fullscreenenter"",""1"",""6112""
","""event"",""trial"",""time""
""fullscreenexit"",""19"",""286230""
","","","-1","","","10","10830","2153","&#9761;","elianto","#3366ff99","-1","-1","1","+10","[]","0","0","2","","","","","","","",""
"pit-trial","39","429646","0.0-2.0-11.0-2.0","battery-v0.2","","""event"",""trial"",""time""
""fullscreenenter"",""1"",""6112""
""fullscreenexit"",""19"",""286230""
","
","
","""event"",""trial"",""time""
""fullscreenenter"",""1"",""6112""
","""event"",""trial"",""time""
""fullscreenexit"",""19"",""286230""
","","","-1","","","10","10830","2153","&#9761;","elianto","#3366ff99","-1","-1","1","+10","[]","0","0","2","","","","","","","",""
"pit-trial","40","434498","0.0-2.0-11.0-3.0","battery-v0.2","","""event"",""trial"",""time""
""fullscreenenter"",""1"",""6112""
""fullscreenexit"",""19"",""286230""
","
","
","""event"",""trial"",""time""
""fullscreenenter"",""1"",""6112""
","""event"",""trial"",""time""
""fullscreenexit"",""19"",""286230""
","","","-1","","","10","10830","2153","&#9761;","elianto","#3366ff99","-1","-1","1","0","[]","0","0","2","","","","","","","",""
"pit-trial","41","439350","0.0-2.0-11.0-4.0","battery-v0.2","","""event"",""trial"",""time""
""fullscreenenter"",""1"",""6112""
""fullscreenexit"",""19"",""286230""
","
","
","""event"",""trial"",""time""
""fullscreenenter"",""1"",""6112""
","""event"",""trial"",""time""
""fullscreenexit"",""19"",""286230""
","","","-1","","","10","10830","2153","&#9761;","elianto","#3366ff99","-1","-1","1","+10","[]","0","0","2","","","","","","","",""
"pit-trial","42","444204","0.0-2.0-11.1-0.1","battery-v0.2","","""event"",""trial"",""time""
""fullscreenenter"",""1"",""6112""
""fullscreenexit"",""19"",""286230""
","
","
","""event"",""trial"",""time""
""fullscreenenter"",""1"",""6112""
","""event"",""trial"",""time""
""fullscreenexit"",""19"",""286230""
","","","-1","","","10","10830","2153","&#9761;","elianto","#3366ff99","-1","-1","1","+10","[]","0","0","2","","","","","","","",""
"pit-trial","43","449058","0.0-2.0-11.1-1.1","battery-v0.2","","""event"",""trial"",""time""
""fullscreenenter"",""1"",""6112""
""fullscreenexit"",""19"",""286230""
","
","
","""event"",""trial"",""time""
""fullscreenenter"",""1"",""6112""
","""event"",""trial"",""time""
""fullscreenexit"",""19"",""286230""
","","","-1","","","10","10830","2153","&#9761;","elianto","#3366ff99","-1","-1","1","+10","[]","0","0","2","","","","","","","",""
"pit-trial","44","453912","0.0-2.0-11.1-2.1","battery-v0.2","","""event"",""trial"",""time""
""fullscreenenter"",""1"",""6112""
""fullscreenexit"",""19"",""286230""
","
","
","""event"",""trial"",""time""
""fullscreenenter"",""1"",""6112""
","""event"",""trial"",""time""
""fullscreenexit"",""19"",""286230""
","","","-1","","","10","10830","2153","&#9761;","elianto","#3366ff99","-1","-1","1","+10","[]","0","0","2","","","","","","","",""
"pit-trial","45","458765","0.0-2.0-11.1-3.1","battery-v0.2","","""event"",""trial"",""time""
""fullscreenenter"",""1"",""6112""
""fullscreenexit"",""19"",""286230""
","
","
","""event"",""trial"",""time""
""fullscreenenter"",""1"",""6112""
","""event"",""trial"",""time""
""fullscreenexit"",""19"",""286230""
","","","-1","","","10","10830","2153","&#9761;","elianto","#3366ff99","-1","-1","1","0","[]","0","0","2","","","","","","","",""
"pit-trial","46","463619","0.0-2.0-11.1-4.1","battery-v0.2","","""event"",""trial"",""time""
""fullscreenenter"",""1"",""6112""
""fullscreenexit"",""19"",""286230""
","
","
","""event"",""trial"",""time""
""fullscreenenter"",""1"",""6112""
","""event"",""trial"",""time""
""fullscreenexit"",""19"",""286230""
","","","-1","","","10","10830","2153","&#9761;","elianto","#3366ff99","-1","-1","1","+10","[]","0","0","2","","","","","","","",""
"pit-trial","47","468473","0.0-2.0-11.2-0.2","battery-v0.2","","""event"",""trial"",""time""
""fullscreenenter"",""1"",""6112""
""fullscreenexit"",""19"",""286230""
","
","
","""event"",""trial"",""time""
""fullscreenenter"",""1"",""6112""
","""event"",""trial"",""time""
""fullscreenexit"",""19"",""286230""
","","","-1","","","10","10830","2153","&#9761;","elianto","#3366ff99","-1","-1","1","+10","[]","0","0","2","","","","","","","",""
"pit-trial","48","473326","0.0-2.0-11.2-1.2","battery-v0.2","","""event"",""trial"",""time""
""fullscreenenter"",""1"",""6112""
""fullscreenexit"",""19"",""286230""
","
","
","""event"",""trial"",""time""
""fullscreenenter"",""1"",""6112""
","""event"",""trial"",""time""
""fullscreenexit"",""19"",""286230""
","","","-1","","","10","10830","2153","&#9761;","elianto","#3366ff99","-1","-1","1","+10","[]","0","0","2","","","","","","","",""
"pit-trial","49","478178","0.0-2.0-11.2-2.2","battery-v0.2","","""event"",""trial"",""time""
""fullscreenenter"",""1"",""6112""
""fullscreenexit"",""19"",""286230""
","
","
","""event"",""trial"",""time""
""fullscreenenter"",""1"",""6112""
","""event"",""trial"",""time""
""fullscreenexit"",""19"",""286230""
","","","-1","","","10","10830","2153","&#9761;","elianto","#3366ff99","-1","-1","1","+10","[]","0","0","2","","","","","","","",""
"pit-trial","50","483032","0.0-2.0-11.2-3.2","battery-v0.2","","""event"",""trial"",""time""
""fullscreenenter"",""1"",""6112""
""fullscreenexit"",""19"",""286230""
","
","
","""event"",""trial"",""time""
""fullscreenenter"",""1"",""6112""
","""event"",""trial"",""time""
""fullscreenexit"",""19"",""286230""
","","","-1","","","10","10830","2153","&#9761;","elianto","#3366ff99","-1","-1","1","0","[]","0","0","2","","","","","","","",""
"pit-trial","51","487885","0.0-2.0-11.2-4.2","battery-v0.2","","""event"",""trial"",""time""
""fullscreenenter"",""1"",""6112""
""fullscreenexit"",""19"",""286230""
","
","
","""event"",""trial"",""time""
""fullscreenenter"",""1"",""6112""
","""event"",""trial"",""time""
""fullscreenexit"",""19"",""286230""
","","","-1","","","10","10830","2153","&#9761;","elianto","#3366ff99","-1","-1","1","+10","[]","0","0","2","","","","","","","",""
"pit-trial","52","492741","0.0-2.0-11.3-0.3","battery-v0.2","","""event"",""trial"",""time""
""fullscreenenter"",""1"",""6112""
""fullscreenexit"",""19"",""286230""
","
","
","""event"",""trial"",""time""
""fullscreenenter"",""1"",""6112""
","""event"",""trial"",""time""
""fullscreenexit"",""19"",""286230""
","","","-1","","","10","10830","2153","&#9761;","elianto","#3366ff99","-1","-1","1","+10","[]","0","0","2","","","","","","","",""
"pit-trial","53","497595","0.0-2.0-11.3-1.3","battery-v0.2","","""event"",""trial"",""time""
""fullscreenenter"",""1"",""6112""
""fullscreenexit"",""19"",""286230""
","
","
","""event"",""trial"",""time""
""fullscreenenter"",""1"",""6112""
","""event"",""trial"",""time""
""fullscreenexit"",""19"",""286230""
","","","-1","","","10","10830","2153","&#9761;","elianto","#3366ff99","-1","-1","1","+10","[]","0","0","2","","","","","","","",""
"pit-trial","54","502449","0.0-2.0-11.3-2.3","battery-v0.2","","""event"",""trial"",""time""
""fullscreenenter"",""1"",""6112""
""fullscreenexit"",""19"",""286230""
","
","
","""event"",""trial"",""time""
""fullscreenenter"",""1"",""6112""
","""event"",""trial"",""time""
""fullscreenexit"",""19"",""286230""
","","","-1","","","10","10830","2153","&#9761;","elianto","#3366ff99","-1","-1","1","+10","[]","0","0","2","","","","","","","",""
"pit-trial","55","507303","0.0-2.0-11.3-3.3","battery-v0.2","","""event"",""trial"",""time""
""fullscreenenter"",""1"",""6112""
""fullscreenexit"",""19"",""286230""
","
","
","""event"",""trial"",""time""
""fullscreenenter"",""1"",""6112""
","""event"",""trial"",""time""
""fullscreenexit"",""19"",""286230""
","","","-1","","","10","10830","2153","&#9761;","elianto","#3366ff99","-1","-1","1","0","[]","0","0","2","","","","","","","",""
"pit-trial","56","512158","0.0-2.0-11.3-4.3","battery-v0.2","","""event"",""trial"",""time""
""fullscreenenter"",""1"",""6112""
""fullscreenexit"",""19"",""286230""
","
","
","""event"",""trial"",""time""
""fullscreenenter"",""1"",""6112""
","""event"",""trial"",""time""
""fullscreenexit"",""19"",""286230""
","","","-1","","","10","10830","2153","&#9761;","elianto","#3366ff99","-1","-1","1","+10","[]","0","0","2","","","","","","","",""
"call-function","57","512161","0.0-2.0-12.0","battery-v0.2","","""event"",""trial"",""time""
""fullscreenenter"",""1"",""6112""
""fullscreenexit"",""19"",""286230""
","
","
","""event"",""trial"",""time""
""fullscreenenter"",""1"",""6112""
","""event"",""trial"",""time""
""fullscreenexit"",""19"",""286230""
","","","","","","","","","","","","","","","","","","","","","","","","","","",""
"pit-instructions","58","543209","0.0-2.0-13.0","battery-v0.2","","""event"",""trial"",""time""
""fullscreenenter"",""1"",""6112""
""fullscreenexit"",""19"",""286230""
","
","
","""event"",""trial"",""time""
""fullscreenenter"",""1"",""6112""
","""event"",""trial"",""time""
""fullscreenexit"",""19"",""286230""
","","[{""page_index"":0,""viewing_time"":5621.699999999953},{""page_index"":1,""viewing_time"":6225.699999999953},{""page_index"":2,""viewing_time"":4776.800000000047},{""page_index"":3,""viewing_time"":10177.100000000093},{""page_index"":4,""viewing_time"":4244.899999999907}]","31047","","","","","","","","","","","","","","","","","","","","","","","",""
"pit-trial","59","548064","0.0-2.0-14.0-0.0","battery-v0.2","","""event"",""trial"",""time""
""fullscreenenter"",""1"",""6112""
""fullscreenexit"",""19"",""286230""
","
","
","""event"",""trial"",""time""
""fullscreenenter"",""1"",""6112""
","""event"",""trial"",""time""
""fullscreenexit"",""19"",""286230""
","","","-1","","","10","10830","2153","&#9826;","elianto","#f73b6a7A","-1","-1","1","0","[]","0","0","3","","","","","","","",""
"pit-trial","60","551170","0.0-2.0-14.0-1.0","battery-v0.2","","""event"",""trial"",""time""
""fullscreenenter"",""1"",""6112""
""fullscreenexit"",""19"",""286230""
","
","
","""event"",""trial"",""time""
""fullscreenenter"",""1"",""6112""
","""event"",""trial"",""time""
""fullscreenexit"",""19"",""286230""
","","","249.30000000004657","","","10","10830","2153","&#9826;","elianto","#f73b6a7A","-1"," ","0","-10","[1102.1000000000931]","1","0","3","","","","","","","",""
"pit-trial","61","556024","0.0-2.0-14.0-2.0","battery-v0.2","","""event"",""trial"",""time""
""fullscreenenter"",""1"",""6112""
""fullscreenexit"",""19"",""286230""
","
","
","""event"",""trial"",""time""
""fullscreenenter"",""1"",""6112""
","""event"",""trial"",""time""
""fullscreenexit"",""19"",""286230""
","","","-1","","","10","10830","2153","&#9826;","elianto","#f73b6a7A","-1","-1","1","0","[]","0","0","3","","","","","","","",""
"pit-trial","62","560879","0.0-2.0-14.0-3.0","battery-v0.2","","""event"",""trial"",""time""
""fullscreenenter"",""1"",""6112""
""fullscreenexit"",""19"",""286230""
","
","
","""event"",""trial"",""time""
""fullscreenenter"",""1"",""6112""
","""event"",""trial"",""time""
""fullscreenexit"",""19"",""286230""
","","","-1","","","10","10830","2153","&#9826;","elianto","#f73b6a7A","-1","-1","1","-10","[]","0","0","3","","","","","","","",""
"pit-trial","63","565732","0.0-2.0-14.0-4.0","battery-v0.2","","""event"",""trial"",""time""
""fullscreenenter"",""1"",""6112""
""fullscreenexit"",""19"",""286230""
","
","
","""event"",""trial"",""time""
""fullscreenenter"",""1"",""6112""
","""event"",""trial"",""time""
""fullscreenexit"",""19"",""286230""
","","","-1","","","10","10830","2153","&#9826;","elianto","#f73b6a7A","-1","-1","1","0","[]","0","0","3","","","","","","","",""
"pit-trial","64","570588","0.0-2.0-14.1-0.1","battery-v0.2","","""event"",""trial"",""time""
""fullscreenenter"",""1"",""6112""
""fullscreenexit"",""19"",""286230""
","
","
","""event"",""trial"",""time""
""fullscreenenter"",""1"",""6112""
","""event"",""trial"",""time""
""fullscreenexit"",""19"",""286230""
","","","-1","","","10","10830","2153","&#9826;","elianto","#f73b6a7A","-1","-1","1","0","[]","0","0","3","","","","","","","",""
"pit-trial","65","575442","0.0-2.0-14.1-1.1","battery-v0.2","","""event"",""trial"",""time""
""fullscreenenter"",""1"",""6112""
""fullscreenexit"",""19"",""286230""
","
","
","""event"",""trial"",""time""
""fullscreenenter"",""1"",""6112""
","""event"",""trial"",""time""
""fullscreenexit"",""19"",""286230""
","","","-1","","","10","10830","2153","&#9826;","elianto","#f73b6a7A","-1","-1","1","0","[]","0","0","3","","","","","","","",""
"pit-trial","66","580296","0.0-2.0-14.1-2.1","battery-v0.2","","""event"",""trial"",""time""
""fullscreenenter"",""1"",""6112""
""fullscreenexit"",""19"",""286230""
","
","
","""event"",""trial"",""time""
""fullscreenenter"",""1"",""6112""
","""event"",""trial"",""time""
""fullscreenexit"",""19"",""286230""
","","","-1","","","10","10830","2153","&#9826;","elianto","#f73b6a7A","-1","-1","1","0","[]","0","0","3","","","","","","","",""
"pit-trial","67","585150","0.0-2.0-14.1-3.1","battery-v0.2","","""event"",""trial"",""time""
""fullscreenenter"",""1"",""6112""
""fullscreenexit"",""19"",""286230""
","
","
","""event"",""trial"",""time""
""fullscreenenter"",""1"",""6112""
","""event"",""trial"",""time""
""fullscreenexit"",""19"",""286230""
","","","-1","","","10","10830","2153","&#9826;","elianto","#f73b6a7A","-1","-1","1","-10","[]","0","0","3","","","","","","","",""
"pit-trial","68","590004","0.0-2.0-14.1-4.1","battery-v0.2","","""event"",""trial"",""time""
""fullscreenenter"",""1"",""6112""
""fullscreenexit"",""19"",""286230""
","
","
","""event"",""trial"",""time""
""fullscreenenter"",""1"",""6112""
","""event"",""trial"",""time""
""fullscreenexit"",""19"",""286230""
","","","-1","","","10","10830","2153","&#9826;","elianto","#f73b6a7A","-1","-1","1","0","[]","0","0","3","","","","","","","",""
"pit-trial","69","594859","0.0-2.0-14.2-0.2","battery-v0.2","","""event"",""trial"",""time""
""fullscreenenter"",""1"",""6112""
""fullscreenexit"",""19"",""286230""
","
","
","""event"",""trial"",""time""
""fullscreenenter"",""1"",""6112""
","""event"",""trial"",""time""
""fullscreenexit"",""19"",""286230""
","","","-1","","","10","10830","2153","&#9826;","elianto","#f73b6a7A","-1","-1","1","0","[]","0","0","3","","","","","","","",""
"pit-trial","70","599713","0.0-2.0-14.2-1.2","battery-v0.2","","""event"",""trial"",""time""
""fullscreenenter"",""1"",""6112""
""fullscreenexit"",""19"",""286230""
","
","
","""event"",""trial"",""time""
""fullscreenenter"",""1"",""6112""
","""event"",""trial"",""time""
""fullscreenexit"",""19"",""286230""
","","","-1","","","10","10830","2153","&#9826;","elianto","#f73b6a7A","-1","-1","1","0","[]","0","0","3","","","","","","","",""
"pit-trial","71","604567","0.0-2.0-14.2-2.2","battery-v0.2","","""event"",""trial"",""time""
""fullscreenenter"",""1"",""6112""
""fullscreenexit"",""19"",""286230""
","
","
","""event"",""trial"",""time""
""fullscreenenter"",""1"",""6112""
","""event"",""trial"",""time""
""fullscreenexit"",""19"",""286230""
","","","-1","","","10","10830","2153","&#9826;","elianto","#f73b6a7A","-1","-1","1","0","[]","0","0","3","","","","","","","",""
"pit-trial","72","609421","0.0-2.0-14.2-3.2","battery-v0.2","","""event"",""trial"",""time""
""fullscreenenter"",""1"",""6112""
""fullscreenexit"",""19"",""286230""
","
","
","""event"",""trial"",""time""
""fullscreenenter"",""1"",""6112""
","""event"",""trial"",""time""
""fullscreenexit"",""19"",""286230""
","","","-1","","","10","10830","2153","&#9826;","elianto","#f73b6a7A","-1","-1","1","-10","[]","0","0","3","","","","","","","",""
"pit-trial","73","614274","0.0-2.0-14.2-4.2","battery-v0.2","","""event"",""trial"",""time""
""fullscreenenter"",""1"",""6112""
""fullscreenexit"",""19"",""286230""
","
","
","""event"",""trial"",""time""
""fullscreenenter"",""1"",""6112""
","""event"",""trial"",""time""
""fullscreenexit"",""19"",""286230""
","","","-1","","","10","10830","2153","&#9826;","elianto","#f73b6a7A","-1","-1","1","0","[]","0","0","3","","","","","","","",""
"pit-trial","74","619127","0.0-2.0-14.3-0.3","battery-v0.2","","""event"",""trial"",""time""
""fullscreenenter"",""1"",""6112""
""fullscreenexit"",""19"",""286230""
","
","
","""event"",""trial"",""time""
""fullscreenenter"",""1"",""6112""
","""event"",""trial"",""time""
""fullscreenexit"",""19"",""286230""
","","","-1","","","10","10830","2153","&#9826;","elianto","#f73b6a7A","-1","-1","1","0","[]","0","0","3","","","","","","","",""
"pit-trial","75","623980","0.0-2.0-14.3-1.3","battery-v0.2","","""event"",""trial"",""time""
""fullscreenenter"",""1"",""6112""
""fullscreenexit"",""19"",""286230""
","
","
","""event"",""trial"",""time""
""fullscreenenter"",""1"",""6112""
","""event"",""trial"",""time""
""fullscreenexit"",""19"",""286230""
","","","-1","","","10","10830","2153","&#9826;","elianto","#f73b6a7A","-1","-1","1","0","[]","0","0","3","","","","","","","",""
"pit-trial","76","628833","0.0-2.0-14.3-2.3","battery-v0.2","","""event"",""trial"",""time""
""fullscreenenter"",""1"",""6112""
""fullscreenexit"",""19"",""286230""
","
","
","""event"",""trial"",""time""
""fullscreenenter"",""1"",""6112""
","""event"",""trial"",""time""
""fullscreenexit"",""19"",""286230""
","","","-1","","","10","10830","2153","&#9826;","elianto","#f73b6a7A","-1","-1","1","0","[]","0","0","3","","","","","","","",""
"pit-trial","77","633686","0.0-2.0-14.3-3.3","battery-v0.2","","""event"",""trial"",""time""
""fullscreenenter"",""1"",""6112""
""fullscreenexit"",""19"",""286230""
","
","
","""event"",""trial"",""time""
""fullscreenenter"",""1"",""6112""
","""event"",""trial"",""time""
""fullscreenexit"",""19"",""286230""
","","","-1","","","10","10830","2153","&#9826;","elianto","#f73b6a7A","-1","-1","1","-10","[]","0","0","3","","","","","","","",""
"pit-trial","78","638541","0.0-2.0-14.3-4.3","battery-v0.2","","""event"",""trial"",""time""
""fullscreenenter"",""1"",""6112""
""fullscreenexit"",""19"",""286230""
","
","
","""event"",""trial"",""time""
""fullscreenenter"",""1"",""6112""
","""event"",""trial"",""time""
""fullscreenexit"",""19"",""286230""
","","","-1","","","10","10830","2153","&#9826;","elianto","#f73b6a7A","-1","-1","1","0","[]","0","0","3","","","","","","","",""
"call-function","79","638545","0.0-2.0-15.0","battery-v0.2","","""event"",""trial"",""time""
""fullscreenenter"",""1"",""6112""
""fullscreenexit"",""19"",""286230""
","
","
","""event"",""trial"",""time""
""fullscreenenter"",""1"",""6112""
","""event"",""trial"",""time""
""fullscreenexit"",""19"",""286230""
","","","","","","","","","","","","","","","","","","","","","","","","","","",""
"pit-instructions","80","814534","0.0-2.0-16.0","battery-v0.2","","""event"",""trial"",""time""
""fullscreenenter"",""1"",""6112""
""fullscreenexit"",""19"",""286230""
","
","
","""event"",""trial"",""time""
""fullscreenenter"",""1"",""6112""
","""event"",""trial"",""time""
""fullscreenexit"",""19"",""286230""
","","[{""page_index"":0,""viewing_time"":154510.19999999995},{""page_index"":1,""viewing_time"":11421.699999999953},{""page_index"":2,""viewing_time"":5988.800000000047},{""page_index"":3,""viewing_time"":4066.100000000093}]","175987.3999999999","","","","","","","","","","","","","","","","","","","","","","","",""
"pit-trial","81","817981","0.0-2.0-17.0-0.0","battery-v0.2","","""event"",""trial"",""time""
""fullscreenenter"",""1"",""6112""
""fullscreenexit"",""19"",""286230""
","
","
","""event"",""trial"",""time""
""fullscreenenter"",""1"",""6112""
","""event"",""trial"",""time""
""fullscreenexit"",""19"",""286230""
","","","592","","","10","10830","2153","&#9789;","elianto","#f73b6a7A"," "," ","1","0","[161.19999999995343,402.19999999995343,512.1999999999534,580.1000000000931,662.1000000000931,793.1000000000931,1442.3999999999069]","7","0","4","","","","","","","",""
"pit-trial","82","821168","0.0-2.0-17.0-1.0","battery-v0.2","","""event"",""trial"",""time""
""fullscreenenter"",""1"",""6112""
""fullscreenexit"",""19"",""286230""
","
","
","""event"",""trial"",""time""
""fullscreenenter"",""1"",""6112""
","""event"",""trial"",""time""
""fullscreenexit"",""19"",""286230""
","","","333","","","10","10830","2153","&#9789;","elianto","#f73b6a7A"," "," ","1","0","[1183.1000000000931]","1","0","4","","","","","","","",""
"pit-trial","83","824228","0.0-2.0-17.0-2.0","battery-v0.2","","""event"",""trial"",""time""
""fullscreenenter"",""1"",""6112""
""fullscreenexit"",""19"",""286230""
","
","
","""event"",""trial"",""time""
""fullscreenenter"",""1"",""6112""
","""event"",""trial"",""time""
""fullscreenexit"",""19"",""286230""
","","","207","","","10","10830","2153","&#9789;","elianto","#f73b6a7A"," "," ","1","0","[1057]","1","0","4","","","","","","","",""
"pit-trial","84","827431","0.0-2.0-17.0-3.0","battery-v0.2","","""event"",""trial"",""time""
""fullscreenenter"",""1"",""6112""
""fullscreenexit"",""19"",""286230""
","
","
","""event"",""trial"",""time""
""fullscreenenter"",""1"",""6112""
","""event"",""trial"",""time""
""fullscreenexit"",""19"",""286230""
","","","348","","","10","10830","2153","&#9789;","elianto","#f73b6a7A"," "," ","1","-10","[832.3999999999069,1198.1999999999534]","2","0","4","","","","","","","",""
"pit-trial","85","830797","0.0-2.0-17.0-4.0","battery-v0.2","","""event"",""trial"",""time""
""fullscreenenter"",""1"",""6112""
""fullscreenexit"",""19"",""286230""
","
","
","""event"",""trial"",""time""
""fullscreenenter"",""1"",""6112""
","""event"",""trial"",""time""
""fullscreenexit"",""19"",""286230""
","","","512.5999999998603","","","10","10830","2153","&#9789;","elianto","#f73b6a7A"," "," ","1","0","[1362.7000000001863]","1","0","4","","","","","","","",""
"pit-trial","86","833977","0.0-2.0-17.1-0.1","battery-v0.2","","""event"",""trial"",""time""
""fullscreenenter"",""1"",""6112""
""fullscreenexit"",""19"",""286230""
","
","
","""event"",""trial"",""time""
""fullscreenenter"",""1"",""6112""
","""event"",""trial"",""time""
""fullscreenexit"",""19"",""286230""
","","","323.5","","","10","10830","2153","&#9789;","elianto","#f73b6a7A"," "," ","1","0","[1173.7000000001863]","1","0","4","","","","","","","",""
"pit-trial","87","837946","0.0-2.0-17.1-1.1","battery-v0.2","","""event"",""trial"",""time""
""fullscreenenter"",""1"",""6112""
""fullscreenexit"",""19"",""286230""
","
","
","""event"",""trial"",""time""
""fullscreenenter"",""1"",""6112""
","""event"",""trial"",""time""
""fullscreenexit"",""19"",""286230""
","","","1115.4000000001397","","","10","10830","2153","&#9789;","elianto","#f73b6a7A"," "," ","1","0","[1965.6000000000931]","1","0","4","","","","","","","",""
"pit-trial","88","841081","0.0-2.0-17.1-2.1","battery-v0.2","","""event"",""trial"",""time""
""fullscreenenter"",""1"",""6112""
""fullscreenexit"",""19"",""286230""
","
","
","""event"",""trial"",""time""
""fullscreenenter"",""1"",""6112""
","""event"",""trial"",""time""
""fullscreenexit"",""19"",""286230""
","","","280.30000000004657","","","10","10830","2153","&#9789;","elianto","#f73b6a7A"," "," ","1","0","[1130.5,2899.0999999998603]","2","0","4","","","","","","","",""
"pit-trial","89","844222","0.0-2.0-17.1-3.1","battery-v0.2","","""event"",""trial"",""time""
""fullscreenenter"",""1"",""6112""
""fullscreenexit"",""19"",""286230""
","
","
","""event"",""trial"",""time""
""fullscreenenter"",""1"",""6112""
","""event"",""trial"",""time""
""fullscreenexit"",""19"",""286230""
","","","287.39999999990687","","","10","10830","2153","&#9789;","elianto","#f73b6a7A"," "," ","1","-10","[1137.5999999998603]","1","0","4","","","","","","","",""
"pit-trial","90","847619","0.0-2.0-17.1-4.1","battery-v0.2","","""event"",""trial"",""time""
""fullscreenenter"",""1"",""6112""
""fullscreenexit"",""19"",""286230""
","
","
","""event"",""trial"",""time""
""fullscreenenter"",""1"",""6112""
","""event"",""trial"",""time""
""fullscreenexit"",""19"",""286230""
","","","541.8999999999069","","","10","10830","2153","&#9789;","elianto","#f73b6a7A"," "," ","1","0","[801.3999999999069,1393.0999999998603]","2","0","4","","","","","","","",""
"pit-trial","91","850651","0.0-2.0-17.2-0.2","battery-v0.2","","""event"",""trial"",""time""
""fullscreenenter"",""1"",""6112""
""fullscreenexit"",""19"",""286230""
","
","
","""event"",""trial"",""time""
""fullscreenenter"",""1"",""6112""
","""event"",""trial"",""time""
""fullscreenexit"",""19"",""286230""
","","","171.89999999990687","","","10","10830","2153","&#9789;","elianto","#f73b6a7A"," "," ","1","0","[1026.8000000000466]","1","0","4","","","","","","","",""
"pit-trial","92","853778","0.0-2.0-17.2-1.2","battery-v0.2","","""event"",""trial"",""time""
""fullscreenenter"",""1"",""6112""
""fullscreenexit"",""19"",""286230""
","
","
","""event"",""trial"",""time""
""fullscreenenter"",""1"",""6112""
","""event"",""trial"",""time""
""fullscreenexit"",""19"",""286230""
","","","272.5","","","10","10830","2153","&#9789;","elianto","#f73b6a7A"," "," ","1","0","[672.8000000000466,1122.6000000000931]","2","0","4","","","","","","","",""
"pit-trial","93","857039","0.0-2.0-17.2-2.2","battery-v0.2","","""event"",""trial"",""time""
""fullscreenenter"",""1"",""6112""
""fullscreenexit"",""19"",""286230""
","
","
","""event"",""trial"",""time""
""fullscreenenter"",""1"",""6112""
","""event"",""trial"",""time""
""fullscreenexit"",""19"",""286230""
","","","408.10000000009313","","","10","10830","2153","&#9789;","elianto","#f73b6a7A"," "," ","1","0","[1258.4000000001397,3140.3000000000466]","2","0","4","","","","","","","",""
"pit-trial","94","861277","0.0-2.0-17.2-3.2","battery-v0.2","","""event"",""trial"",""time""
""fullscreenenter"",""1"",""6112""
""fullscreenexit"",""19"",""286230""
","
","
","""event"",""trial"",""time""
""fullscreenenter"",""1"",""6112""
","""event"",""trial"",""time""
""fullscreenexit"",""19"",""286230""
","","","1383.1000000000931","","","10","10830","2153","&#9789;","elianto","#f73b6a7A"," "," ","1","-10","[808.4000000001397,2234.100000000093]","2","0","4","","","","","","","",""
"pit-trial","95","864374","0.0-2.0-17.2-4.2","battery-v0.2","","""event"",""trial"",""time""
""fullscreenenter"",""1"",""6112""
""fullscreenexit"",""19"",""286230""
","
","
","""event"",""trial"",""time""
""fullscreenenter"",""1"",""6112""
","""event"",""trial"",""time""
""fullscreenexit"",""19"",""286230""
","","","243.89999999990687","","","10","10830","2153","&#9789;","elianto","#f73b6a7A"," "," ","1","0","[1094.0999999998603,1896]","2","0","4","","","","","","","",""
"pit-trial","96","869229","0.0-2.0-17.3-0.3","battery-v0.2","","""event"",""trial"",""time""
""fullscreenenter"",""1"",""6112""
""fullscreenexit"",""19"",""286230""
","
","
","""event"",""trial"",""time""
""fullscreenenter"",""1"",""6112""
","""event"",""trial"",""time""
""fullscreenexit"",""19"",""286230""
","","","-1","","","10","10830","2153","&#9789;","elianto","#f73b6a7A"," ","-1","0","-10","[3507.5]","1","0","4","","","","","","","",""
"pit-trial","97","873217","0.0-2.0-17.3-1.3","battery-v0.2","","""event"",""trial"",""time""
""fullscreenenter"",""1"",""6112""
""fullscreenexit"",""19"",""286230""
","
","
","""event"",""trial"",""time""
""fullscreenenter"",""1"",""6112""
","""event"",""trial"",""time""
""fullscreenexit"",""19"",""286230""
","","","1134.1000000000931","","","10","10830","2153","&#9789;","elianto","#f73b6a7A"," "," ","1","0","[1984.2999999998137,2823.6999999999534,3056.6999999999534,3288.7999999998137,3536.6999999999534,3798.6999999999534]","6","0","4","","","","","","","",""
"pit-trial","98","876553","0.0-2.0-17.3-2.3","battery-v0.2","","""event"",""trial"",""time""
""fullscreenenter"",""1"",""6112""
""fullscreenexit"",""19"",""286230""
","
","
","""event"",""trial"",""time""
""fullscreenenter"",""1"",""6112""
","""event"",""trial"",""time""
""fullscreenexit"",""19"",""286230""
","","","482.19999999995343","","","10","10830","2153","&#9789;","elianto","#f73b6a7A"," "," ","1","0","[1332.3000000000466]","1","0","4","","","","","","","",""
"pit-trial","99","879532","0.0-2.0-17.3-3.3","battery-v0.2","","""event"",""trial"",""time""
""fullscreenenter"",""1"",""6112""
""fullscreenexit"",""19"",""286230""
","
","
","""event"",""trial"",""time""
""fullscreenenter"",""1"",""6112""
","""event"",""trial"",""time""
""fullscreenexit"",""19"",""286230""
","","","125.19999999995343","","","10","10830","2153","&#9789;","elianto","#f73b6a7A"," "," ","1","-10","[975.2000000001863]","1","0","4","","","","","","","",""
"pit-trial","100","882621","0.0-2.0-17.3-4.3","battery-v0.2","","""event"",""trial"",""time""
""fullscreenenter"",""1"",""6112""
""fullscreenexit"",""19"",""286230""
","
","
","""event"",""trial"",""time""
""fullscreenenter"",""1"",""6112""
","""event"",""trial"",""time""
""fullscreenexit"",""19"",""286230""
","","","235.19999999995343","","","10","10830","2153","&#9789;","elianto","#f73b6a7A"," "," ","1","0","[635.3000000000466,1085.4000000001397]","2","0","4","","","","","","","",""
"call-function","101","882625","0.0-2.0-18.0","battery-v0.2","","""event"",""trial"",""time""
""fullscreenenter"",""1"",""6112""
""fullscreenexit"",""19"",""286230""
","
","
","""event"",""trial"",""time""
""fullscreenenter"",""1"",""6112""
","""event"",""trial"",""time""
""fullscreenexit"",""19"",""286230""
","","","","","","","","","","","","","","","","","","","","","","","","","","",""
"pit-instructions","102","1087289","0.0-2.0-19.0","battery-v0.2","","""event"",""trial"",""time""
""fullscreenenter"",""1"",""6112""
""fullscreenexit"",""19"",""286230""
","
","
","""event"",""trial"",""time""
""fullscreenenter"",""1"",""6112""
","""event"",""trial"",""time""
""fullscreenexit"",""19"",""286230""
","","[{""page_index"":0,""viewing_time"":6172.699999999953},{""page_index"":1,""viewing_time"":4039.7000000001863},{""page_index"":2,""viewing_time"":8084.699999999953},{""page_index"":3,""viewing_time"":4022.6999999999534},{""page_index"":4,""viewing_time"":6115.5},{""page_index"":5,""viewing_time"":8545.899999999907},{""page_index"":6,""viewing_time"":154076},{""page_index"":7,""viewing_time"":10444.90000000014},{""page_index"":8,""viewing_time"":3160.399999999907}]","204663.40000000014","","","","","","","","","","","","","","","","","","","","","","","",""
"pit-comprehension","103","1095444","0.0-2.0-20.0-0.0","battery-v0.2","","""event"",""trial"",""time""
""fullscreenenter"",""1"",""6112""
""fullscreenexit"",""19"",""286230""
","
","
","""event"",""trial"",""time""
""fullscreenenter"",""1"",""6112""
","""event"",""trial"",""time""
""fullscreenexit"",""19"",""286230""
","","","8144","[""SPACE""]","0","10","10830","2153","","","","","","","","","","","","","","","","","","",""
"pit-instructions","104","1097909","0.0-2.0-20.0-1.0","battery-v0.2","","""event"",""trial"",""time""
""fullscreenenter"",""1"",""6112""
""fullscreenexit"",""19"",""286230""
","
","
","""event"",""trial"",""time""
""fullscreenenter"",""1"",""6112""
","""event"",""trial"",""time""
""fullscreenexit"",""19"",""286230""
","","[{""page_index"":0,""viewing_time"":2308.6999999999534}]","2309.5","","","","","","","","","","","","","","","","","","","","","","","",""
"pit-comprehension","105","1104323","0.0-2.0-21.0-0.0","battery-v0.2","","""event"",""trial"",""time""
""fullscreenenter"",""1"",""6112""
""fullscreenexit"",""19"",""286230""
","
","
","""event"",""trial"",""time""
""fullscreenenter"",""1"",""6112""
","""event"",""trial"",""time""
""fullscreenexit"",""19"",""286230""
","","","6403.600000000093","[""10""]","0","10","10830","2153","","","","","","","","","","","","","","","","","","",""
"pit-instructions","106","1105580","0.0-2.0-21.0-1.0","battery-v0.2","","""event"",""trial"",""time""
""fullscreenenter"",""1"",""6112""
""fullscreenexit"",""19"",""286230""
","
","
","""event"",""trial"",""time""
""fullscreenenter"",""1"",""6112""
","""event"",""trial"",""time""
""fullscreenexit"",""19"",""286230""
","","[{""page_index"":0,""viewing_time"":1204.5}]","1205.1000000000931","","","","","","","","","","","","","","","","","","","","","","","",""
"pit-comprehension","107","1113461","0.0-2.0-22.0-0.0","battery-v0.2","","""event"",""trial"",""time""
""fullscreenenter"",""1"",""6112""
""fullscreenexit"",""19"",""286230""
","
","
","""event"",""trial"",""time""
""fullscreenenter"",""1"",""6112""
","""event"",""trial"",""time""
""fullscreenexit"",""19"",""286230""
","","","7873.800000000047","[""-10""]","1","10","10830","2153","","","","","","","","","","","","","","","","","","",""
"pit-instructions","108","1118203","0.0-2.0-22.0-1.0","battery-v0.2","","""event"",""trial"",""time""
""fullscreenenter"",""1"",""6112""
""fullscreenexit"",""19"",""286230""
","
","
","""event"",""trial"",""time""
""fullscreenenter"",""1"",""6112""
","""event"",""trial"",""time""
""fullscreenexit"",""19"",""286230""
","","[{""page_index"":0,""viewing_time"":4680.90000000014}]","4681.700000000186","","","","","","","","","","","","","","","","","","","","","","","",""
"pit-instructions","109","1119433","0.0-2.0-22.0-2.0-0.0","battery-v0.2","","""event"",""trial"",""time""
""fullscreenenter"",""1"",""6112""
""fullscreenexit"",""19"",""286230""
","
","
","""event"",""trial"",""time""
""fullscreenenter"",""1"",""6112""
","""event"",""trial"",""time""
""fullscreenexit"",""19"",""286230""
","","[{""page_index"":0,""viewing_time"":1224.5}]","1225.2999999998137","","","","","","","","","","","","","","","","","","","","","","","",""
"pit-comprehension","110","1126973","0.0-2.0-22.1-0.1","battery-v0.2","","""event"",""trial"",""time""
""fullscreenenter"",""1"",""6112""
""fullscreenexit"",""19"",""286230""
","
","
","""event"",""trial"",""time""
""fullscreenenter"",""1"",""6112""
","""event"",""trial"",""time""
""fullscreenexit"",""19"",""286230""
","","","7530.90000000014","[""0""]","0","10","10830","2153","","","","","","","","","","","","","","","","","","",""
"pit-instructions","111","1128327","0.0-2.0-22.1-1.1","battery-v0.2","","""event"",""trial"",""time""
""fullscreenenter"",""1"",""6112""
""fullscreenexit"",""19"",""286230""
","
","
","""event"",""trial"",""time""
""fullscreenenter"",""1"",""6112""
","""event"",""trial"",""time""
""fullscreenexit"",""19"",""286230""
","","[{""page_index"":0,""viewing_time"":1305.1999999999534}]","1305.8000000000466","","","","","","","","","","","","","","","","","","","","","","","",""
"pit-comprehension","112","1140480","0.0-2.0-23.0-0.0","battery-v0.2","","""event"",""trial"",""time""
""fullscreenenter"",""1"",""6112""
""fullscreenexit"",""19"",""286230""
","
","
","""event"",""trial"",""time""
""fullscreenenter"",""1"",""6112""
","""event"",""trial"",""time""
""fullscreenexit"",""19"",""286230""
","","","12145.199999999953","[""False""]","1","10","10830","2153","","","","","","","","","","","","","","","","","","",""
"pit-instructions","113","1146118","0.0-2.0-23.0-1.0","battery-v0.2","","""event"",""trial"",""time""
""fullscreenenter"",""1"",""6112""
""fullscreenexit"",""19"",""286230""
","
","
","""event"",""trial"",""time""
""fullscreenenter"",""1"",""6112""
","""event"",""trial"",""time""
""fullscreenexit"",""19"",""286230""
","","[{""page_index"":0,""viewing_time"":5574.5}]","5575.199999999953","","","","","","","","","","","","","","","","","","","","","","","",""
"pit-instructions","114","1147146","0.0-2.0-23.0-2.0-0.0","battery-v0.2","","""event"",""trial"",""time""
""fullscreenenter"",""1"",""6112""
""fullscreenexit"",""19"",""286230""
","
","
","""event"",""trial"",""time""
""fullscreenenter"",""1"",""6112""
","""event"",""trial"",""time""
""fullscreenexit"",""19"",""286230""
","","[{""page_index"":0,""viewing_time"":1021.8000000000466}]","1022.4000000001397","","","","","","","","","","","","","","","","","","","","","","","",""
"pit-comprehension","115","1156169","0.0-2.0-23.1-0.1","battery-v0.2","","""event"",""trial"",""time""
""fullscreenenter"",""1"",""6112""
""fullscreenexit"",""19"",""286230""
","
","
","""event"",""trial"",""time""
""fullscreenenter"",""1"",""6112""
","""event"",""trial"",""time""
""fullscreenexit"",""19"",""286230""
","","","9015.899999999907","[""True""]","0","10","10830","2153","","","","","","","","","","","","","","","","","","",""
"pit-instructions","116","1157630","0.0-2.0-23.1-1.1","battery-v0.2","","""event"",""trial"",""time""
""fullscreenenter"",""1"",""6112""
""fullscreenexit"",""19"",""286230""
","
","
","""event"",""trial"",""time""
""fullscreenenter"",""1"",""6112""
","""event"",""trial"",""time""
""fullscreenexit"",""19"",""286230""
","","[{""page_index"":0,""viewing_time"":1404.0999999998603}]","1404.7999999998137","","","","","","","","","","","","","","","","","","","","","","","",""
"pit-comprehension","117","1166182","0.0-2.0-24.0-0.0","battery-v0.2","","""event"",""trial"",""time""
""fullscreenenter"",""1"",""6112""
""fullscreenexit"",""19"",""286230""
","
","
","""event"",""trial"",""time""
""fullscreenenter"",""1"",""6112""
","""event"",""trial"",""time""
""fullscreenexit"",""19"",""286230""
","","","8533.399999999907","[""True""]","0","10","10830","2153","","","","","","","","","","","","","","","","","","",""
"pit-instructions","118","1167388","0.0-2.0-24.0-1.0","battery-v0.2","","""event"",""trial"",""time""
""fullscreenenter"",""1"",""6112""
""fullscreenexit"",""19"",""286230""
","
","
","""event"",""trial"",""time""
""fullscreenenter"",""1"",""6112""
","""event"",""trial"",""time""
""fullscreenexit"",""19"",""286230""
","","[{""page_index"":0,""viewing_time"":1154.3999999999069}]","1154.8999999999069","","","","","","","","","","","","","","","","","","","","","","","",""
"pit-comprehension","119","1174367","0.0-2.0-25.0-0.0","battery-v0.2","","""event"",""trial"",""time""
""fullscreenenter"",""1"",""6112""
""fullscreenexit"",""19"",""286230""
","
","
","""event"",""trial"",""time""
""fullscreenenter"",""1"",""6112""
","""event"",""trial"",""time""
""fullscreenexit"",""19"",""286230""
","","","6971.300000000047","[""True""]","0","10","10830","2153","","","","","","","","","","","","","","","","","","",""
"pit-instructions","120","1175788","0.0-2.0-25.0-1.0","battery-v0.2","","""event"",""trial"",""time""
""fullscreenenter"",""1"",""6112""
""fullscreenexit"",""19"",""286230""
","
","
","""event"",""trial"",""time""
""fullscreenenter"",""1"",""6112""
","""event"",""trial"",""time""
""fullscreenexit"",""19"",""286230""
","","[{""page_index"":0,""viewing_time"":1338.6000000000931}]","1339.6000000000931","","","","","","","","","","","","","","","","","","","","","","","",""
"pit-comprehension","121","1181962","0.0-2.0-26.0-0.0","battery-v0.2","","""event"",""trial"",""time""
""fullscreenenter"",""1"",""6112""
""fullscreenexit"",""19"",""286230""
","
","
","""event"",""trial"",""time""
""fullscreenenter"",""1"",""6112""
","""event"",""trial"",""time""
""fullscreenexit"",""19"",""286230""
","","","6163.59999999986","[""True""]","1","10","10830","2153","","","","","","","","","","","","","","","","","","",""
"pit-instructions","122","1189010","0.0-2.0-26.0-1.0","battery-v0.2","","""event"",""trial"",""time""
""fullscreenenter"",""1"",""6112""
""fullscreenexit"",""19"",""286230""
","
","
","""event"",""trial"",""time""
""fullscreenenter"",""1"",""6112""
","""event"",""trial"",""time""
""fullscreenexit"",""19"",""286230""
","","[{""page_index"":0,""viewing_time"":6964.90000000014}]","6965.699999999953","","","","","","","","","","","","","","","","","","","","","","","",""
"pit-instructions","123","1191965","0.0-2.0-26.0-2.0-0.0","battery-v0.2","","""event"",""trial"",""time""
""fullscreenenter"",""1"",""6112""
""fullscreenexit"",""19"",""286230""
","
","
","""event"",""trial"",""time""
""fullscreenenter"",""1"",""6112""
","""event"",""trial"",""time""
""fullscreenexit"",""19"",""286230""
","","[{""page_index"":0,""viewing_time"":2948.2000000001863}]","2948.9000000001397","","","","","","","","","","","","","","","","","","","","","","","",""
"pit-comprehension","124","1197418","0.0-2.0-26.1-0.1","battery-v0.2","","""event"",""trial"",""time""
""fullscreenenter"",""1"",""6112""
""fullscreenexit"",""19"",""286230""
","
","
","""event"",""trial"",""time""
""fullscreenenter"",""1"",""6112""
","""event"",""trial"",""time""
""fullscreenexit"",""19"",""286230""
","","","5446.100000000093","[""False""]","0","10","10830","2153","","","","","","","","","","","","","","","","","","",""
"pit-instructions","125","2872709","0.0-2.0-26.1-1.1","battery-v0.2","","""event"",""trial"",""time""
""fullscreenenter"",""1"",""6112""
""fullscreenexit"",""19"",""286230""
","
","
","""event"",""trial"",""time""
""fullscreenenter"",""1"",""6112""
","""event"",""trial"",""time""
""fullscreenexit"",""19"",""286230""
","","[{""page_index"":0,""viewing_time"":1675259.2999999998}]","1675260","","","","","","","","","","","","","","","","","","","","","","","",""
"pit-instructions","126","2889965","0.0-3.0","battery-v0.2","","""event"",""trial"",""time""
""fullscreenenter"",""1"",""6112""
""fullscreenexit"",""19"",""286230""
","
","
","""event"",""trial"",""time""
""fullscreenenter"",""1"",""6112""
","""event"",""trial"",""time""
""fullscreenexit"",""19"",""286230""
","","[{""page_index"":0,""viewing_time"":4537},{""page_index"":1,""viewing_time"":5288.299999999814},{""page_index"":2,""viewing_time"":7424}]","17250","","","","","","","","","","","","","","","","","","","","","","","",""
"pit-trial","127","2893013","0.0-4.0","battery-v0.2","","""event"",""trial"",""time""
""fullscreenenter"",""1"",""6112""
""fullscreenexit"",""19"",""286230""
","
","
","""event"",""trial"",""time""
""fullscreenenter"",""1"",""6112""
","""event"",""trial"",""time""
""fullscreenexit"",""19"",""286230""
","","","184.79999999981374","","","10","10830","2153","&#9728;","elianto","#f73b6a7A","-1"," ","0","-10","[1034.8999999999069]","1","1","","","10830","1","0","4","lose","no-go","0"
"pit-trial","128","2896036","0.0-5.0","battery-v0.2","","""event"",""trial"",""time""
""fullscreenenter"",""1"",""6112""
""fullscreenexit"",""19"",""286230""
","
","
","""event"",""trial"",""time""
""fullscreenenter"",""1"",""6112""
","""event"",""trial"",""time""
""fullscreenexit"",""19"",""286230""
","","","165.8000000002794","","","10","10830","2153","&#9752;","elianto","#f73b6a7A"," "," ","1","0","[1018.5]","1","1","","","10830","2","3","3","lose","go","0"
"pit-trial","129","2898953","0.0-6.0","battery-v0.2","","""event"",""trial"",""time""
""fullscreenenter"",""1"",""6112""
""fullscreenexit"",""19"",""286230""
","
","
","""event"",""trial"",""time""
""fullscreenenter"",""1"",""6112""
","""event"",""trial"",""time""
""fullscreenexit"",""19"",""286230""
","","","62.299999999813735","","","10","10830","2153","&#9730;","elianto","#3366ff99"," "," ","1","+10","[912.5]","1","1","","","10830","3","1","1","win","go","0"
"pit-trial","130","2902389","0.0-7.0","battery-v0.2","","""event"",""trial"",""time""
""fullscreenenter"",""1"",""6112""
""fullscreenexit"",""19"",""286230""
","
","
","""event"",""trial"",""time""
""fullscreenenter"",""1"",""6112""
","""event"",""trial"",""time""
""fullscreenexit"",""19"",""286230""
","","","581.1999999997206","","","10","10830","2153","&#9733;","elianto","#3366ff99","-1"," ","0","+10","[1431.3999999999069]","1","1","","","10830","4","2","2","win","no-go","1"
"pit-trial","131","2905860","0.0-8.0","battery-v0.2","","""event"",""trial"",""time""
""fullscreenenter"",""1"",""6112""
""fullscreenexit"",""19"",""286230""
","
","
","""event"",""trial"",""time""
""fullscreenenter"",""1"",""6112""
","""event"",""trial"",""time""
""fullscreenexit"",""19"",""286230""
","","","616.1000000000931","","","10","10830","2153","&#9730;","elianto","#3366ff99"," "," ","1","+10","[1466.2999999998137]","1","1","","","10830","5","1","1","win","go","0"
"pit-trial","132","2909145","0.0-9.0","battery-v0.2","","""event"",""trial"",""time""
""fullscreenenter"",""1"",""6112""
""fullscreenexit"",""19"",""286230""
","
","
","""event"",""trial"",""time""
""fullscreenenter"",""1"",""6112""
","""event"",""trial"",""time""
""fullscreenexit"",""19"",""286230""
","","","427","","","10","10830","2153","&#9733;","elianto","#3366ff99","-1"," ","0","0","[1281.1000000000931]","1","1","","","10830","6","2","2","win","no-go","0"
"pit-trial","133","2912617","0.0-10.0","battery-v0.2","","""event"",""trial"",""time""
""fullscreenenter"",""1"",""6112""
""fullscreenexit"",""19"",""286230""
","
","
","""event"",""trial"",""time""
""fullscreenenter"",""1"",""6112""
","""event"",""trial"",""time""
""fullscreenexit"",""19"",""286230""
","","","612","","","10","10830","2153","&#9728;","elianto","#f73b6a7A","-1"," ","0","0","[1467]","1","1","","","10830","7","0","4","lose","no-go","1"
"pit-trial","134","2916579","0.0-11.0","battery-v0.2","","""event"",""trial"",""time""
""fullscreenenter"",""1"",""6112""
""fullscreenexit"",""19"",""286230""
","
","
","""event"",""trial"",""time""
""fullscreenenter"",""1"",""6112""
","""event"",""trial"",""time""
""fullscreenexit"",""19"",""286230""
","","","1107.5999999996275","","","10","10830","2153","&#9752;","elianto","#f73b6a7A"," "," ","1","-10","[1957.7000000001863]","1","1","","","10830","8","3","3","lose","go","1"
"pit-trial","135","2920267","0.0-12.0","battery-v0.2","","""event"",""trial"",""time""
""fullscreenenter"",""1"",""6112""
""fullscreenexit"",""19"",""286230""
","
","
","""event"",""trial"",""time""
""fullscreenenter"",""1"",""6112""
","""event"",""trial"",""time""
""fullscreenexit"",""19"",""286230""
","","","833.5","","","10","10830","2153","&#9728;","elianto","#f73b6a7A","-1"," ","0","-10","[1684]","1","1","","","10830","9","0","4","lose","no-go","0"
"pit-trial","136","2924055","0.0-13.0","battery-v0.2","","""event"",""trial"",""time""
""fullscreenenter"",""1"",""6112""
""fullscreenexit"",""19"",""286230""
","
","
","""event"",""trial"",""time""
""fullscreenenter"",""1"",""6112""
","""event"",""trial"",""time""
""fullscreenexit"",""19"",""286230""
","","","933.8000000002794","","","10","10830","2153","&#9730;","elianto","#3366ff99"," "," ","1","+10","[1783.7999999998137]","1","1","","","10830","10","1","1","win","go","0"
"pit-trial","137","2927610","0.0-14.0","battery-v0.2","","""event"",""trial"",""time""
""fullscreenenter"",""1"",""6112""
""fullscreenexit"",""19"",""286230""
","
","
","""event"",""trial"",""time""
""fullscreenenter"",""1"",""6112""
","""event"",""trial"",""time""
""fullscreenexit"",""19"",""286230""
","","","700.5","","","10","10830","2153","&#9733;","elianto","#3366ff99","-1"," ","0","0","[1550.6999999997206]","1","1","","","10830","11","2","2","win","no-go","0"
"pit-trial","138","2930745","0.0-15.0","battery-v0.2","","""event"",""trial"",""time""
""fullscreenenter"",""1"",""6112""
""fullscreenexit"",""19"",""286230""
","
","
","""event"",""trial"",""time""
""fullscreenenter"",""1"",""6112""
","""event"",""trial"",""time""
""fullscreenexit"",""19"",""286230""
","","","280.89999999990687","","","10","10830","2153","&#9752;","elianto","#f73b6a7A"," "," ","1","-10","[1131.1000000000931]","1","1","","","10830","12","3","3","lose","go","1"
"pit-trial","139","2934209","0.0-16.0","battery-v0.2","","""event"",""trial"",""time""
""fullscreenenter"",""1"",""6112""
""fullscreenexit"",""19"",""286230""
","
","
","""event"",""trial"",""time""
""fullscreenenter"",""1"",""6112""
","""event"",""trial"",""time""
""fullscreenexit"",""19"",""286230""
","","","604.8999999999069","","","10","10830","2153","&#9730;","elianto","#3366ff99"," "," ","1","+10","[1460.5]","1","1","","","10830","13","1","1","win","go","0"
"pit-trial","140","2937788","0.0-17.0","battery-v0.2","","""event"",""trial"",""time""
""fullscreenenter"",""1"",""6112""
""fullscreenexit"",""19"",""286230""
","
","
","""event"",""trial"",""time""
""fullscreenenter"",""1"",""6112""
","""event"",""trial"",""time""
""fullscreenexit"",""19"",""286230""
","","","724.6999999997206","","","10","10830","2153","&#9733;","elianto","#3366ff99","-1"," ","0","0","[1574.7999999998137]","1","1","","","10830","14","2","2","win","no-go","0"
"pit-trial","141","2942642","0.0-18.0","battery-v0.2","","""event"",""trial"",""time""
""fullscreenenter"",""1"",""6112""
""fullscreenexit"",""19"",""286230""
","
","
","""event"",""trial"",""time""
""fullscreenenter"",""1"",""6112""
","""event"",""trial"",""time""
""fullscreenexit"",""19"",""286230""
","","","-1","","","10","10830","2153","&#9728;","elianto","#f73b6a7A","-1","-1","1","0","[]","0","1","","","10830","15","0","4","lose","no-go","0"
"pit-trial","142","2946127","0.0-19.0","battery-v0.2","","""event"",""trial"",""time""
""fullscreenenter"",""1"",""6112""
""fullscreenexit"",""19"",""286230""
","
","
","""event"",""trial"",""time""
""fullscreenenter"",""1"",""6112""
","""event"",""trial"",""time""
""fullscreenexit"",""19"",""286230""
","","","631.8999999999069","","","10","10830","2153","&#9752;","elianto","#f73b6a7A"," "," ","1","0","[1482]","1","1","","","10830","16","3","3","lose","go","0"
"pit-trial","143","2950605","0.0-20.0","battery-v0.2","","""event"",""trial"",""time""
""fullscreenenter"",""1"",""6112""
""fullscreenexit"",""19"",""286230""
","
","
","""event"",""trial"",""time""
""fullscreenenter"",""1"",""6112""
","""event"",""trial"",""time""
""fullscreenexit"",""19"",""286230""
","","","1623.3999999999069","","","10","10830","2153","&#9730;","elianto","#3366ff99"," "," ","1","+10","[2473.5999999996275]","1","1","","","10830","17","1","1","win","go","0"
"pit-trial","144","2953762","0.0-21.0","battery-v0.2","","""event"",""trial"",""time""
""fullscreenenter"",""1"",""6112""
""fullscreenexit"",""19"",""286230""
","
","
","""event"",""trial"",""time""
""fullscreenenter"",""1"",""6112""
","""event"",""trial"",""time""
""fullscreenexit"",""19"",""286230""
","","","303.3000000002794","","","10","10830","2153","&#9752;","elianto","#f73b6a7A"," "," ","1","-10","[1153.3999999999069]","1","1","","","10830","18","3","3","lose","go","1"
"pit-trial","145","2956837","0.0-22.0","battery-v0.2","","""event"",""trial"",""time""
""fullscreenenter"",""1"",""6112""
""fullscreenexit"",""19"",""286230""
","
","
","""event"",""trial"",""time""
""fullscreenenter"",""1"",""6112""
","""event"",""trial"",""time""
""fullscreenexit"",""19"",""286230""
","","","217.60000000009313","","","10","10830","2153","&#9728;","elianto","#f73b6a7A","-1"," ","0","-10","[1070.8000000002794]","1","1","","","10830","19","0","4","lose","no-go","0"
"pit-trial","146","2959911","0.0-23.0","battery-v0.2","","""event"",""trial"",""time""
""fullscreenenter"",""1"",""6112""
""fullscreenexit"",""19"",""286230""
","
","
","""event"",""trial"",""time""
""fullscreenenter"",""1"",""6112""
","""event"",""trial"",""time""
""fullscreenexit"",""19"",""286230""
","","","220.39999999990687","","","10","10830","2153","&#9733;","elianto","#3366ff99","-1"," ","0","0","[1070.6999999997206]","1","1","","","10830","20","2","2","win","no-go","0"
"pit-instructions","147","2974969","0.0-24.0","battery-v0.2","","""event"",""trial"",""time""
""fullscreenenter"",""1"",""6112""
""fullscreenexit"",""19"",""286230""
","
","
","""event"",""trial"",""time""
""fullscreenenter"",""1"",""6112""
","""event"",""trial"",""time""
""fullscreenexit"",""19"",""286230""
","","[{""page_index"":0,""viewing_time"":6308.399999999907},{""page_index"":1,""viewing_time"":8745.600000000093}]","15055","","","","","","","","","","","","","","","","","","","","","","","",""
"pit-trial","148","2978602","0.0-25.0","battery-v0.2","","""event"",""trial"",""time""
""fullscreenenter"",""1"",""6112""
""fullscreenexit"",""19"",""286230""
","
","
","""event"",""trial"",""time""
""fullscreenenter"",""1"",""6112""
","""event"",""trial"",""time""
""fullscreenexit"",""19"",""286230""
","","","772.3000000002794","","","10","10830","2153","t","elianto","#f73b6a7A"," "," ","1","-10","[1622.5]","1","2","","","10830","21","2","3","lose","go","1"
"pit-trial","149","2981804","0.0-26.0","battery-v0.2","","""event"",""trial"",""time""
""fullscreenenter"",""1"",""6112""
""fullscreenexit"",""19"",""286230""
","
","
","""event"",""trial"",""time""
""fullscreenenter"",""1"",""6112""
","""event"",""trial"",""time""
""fullscreenexit"",""19"",""286230""
","","","347.59999999962747","","","10","10830","2153","f","elianto","#3366ff99","-1"," ","0","0","[1197.7999999998137]","1","2","","","10830","22","1","2","win","no-go","0"
"pit-trial","150","2986658","0.0-27.0","battery-v0.2","","""event"",""trial"",""time""
""fullscreenenter"",""1"",""6112""
""fullscreenexit"",""19"",""286230""
","
","
","""event"",""trial"",""time""
""fullscreenenter"",""1"",""6112""
","""event"",""trial"",""time""
""fullscreenexit"",""19"",""286230""
","","","-1","","","10","10830","2153","b","elianto","#f73b6a7A","-1","-1","1","0","[]","0","2","","","10830","23","3","4","lose","no-go","0"
"pit-trial","151","2991512","0.0-28.0","battery-v0.2","","""event"",""trial"",""time""
""fullscreenenter"",""1"",""6112""
""fullscreenexit"",""19"",""286230""
","
","
","""event"",""trial"",""time""
""fullscreenenter"",""1"",""6112""
","""event"",""trial"",""time""
""fullscreenexit"",""19"",""286230""
","","","-1","","","10","10830","2153","n","elianto","#f73b6a7A"," ","-1","0","-10","[]","0","2","","","10830","24","0","3","lose","go","0"
"pit-trial","152","2995665","0.0-29.0","battery-v0.2","","""event"",""trial"",""time""
""fullscreenenter"",""1"",""6112""
""fullscreenexit"",""19"",""286230""
","
","
","""event"",""trial"",""time""
""fullscreenenter"",""1"",""6112""
","""event"",""trial"",""time""
""fullscreenexit"",""19"",""286230""
","","","1295.8999999999069","","","10","10830","2153","n","elianto","#f73b6a7A"," "," ","1","0","[2146.0999999996275]","1","2","","","10830","25","0","3","lose","go","0"
"pit-trial","153","2999196","0.0-30.0","battery-v0.2","","""event"",""trial"",""time""
""fullscreenenter"",""1"",""6112""
""fullscreenexit"",""19"",""286230""
","
","
","""event"",""trial"",""time""
""fullscreenenter"",""1"",""6112""
","""event"",""trial"",""time""
""fullscreenexit"",""19"",""286230""
","","","677.5","","","10","10830","2153","f","elianto","#3366ff99","-1"," ","0","0","[1527.5]","1","2","","","10830","26","1","2","win","no-go","0"
"pit-trial","154","3003577","0.0-31.0","battery-v0.2","","""event"",""trial"",""time""
""fullscreenenter"",""1"",""6112""
""fullscreenexit"",""19"",""286230""
","
","
","""event"",""trial"",""time""
""fullscreenenter"",""1"",""6112""
","""event"",""trial"",""time""
""fullscreenexit"",""19"",""286230""
","","","1525.5","","","10","10830","2153","b","elianto","#f73b6a7A","-1"," ","0","0","[2376.2999999998137]","1","2","","","10830","27","3","4","lose","no-go","1"
"pit-trial","155","3007040","0.0-32.0","battery-v0.2","","""event"",""trial"",""time""
""fullscreenenter"",""1"",""6112""
""fullscreenexit"",""19"",""286230""
","
","
","""event"",""trial"",""time""
""fullscreenenter"",""1"",""6112""
","""event"",""trial"",""time""
""fullscreenexit"",""19"",""286230""
","","","610.2999999998137","","","10","10830","2153","t","elianto","#f73b6a7A"," "," ","1","0","[1460.4000000003725]","1","2","","","10830","28","2","3","lose","go","0"
"pit-trial","156","3010550","0.0-33.0","battery-v0.2","","""event"",""trial"",""time""
""fullscreenenter"",""1"",""6112""
""fullscreenexit"",""19"",""286230""
","
","
","""event"",""trial"",""time""
""fullscreenenter"",""1"",""6112""
","""event"",""trial"",""time""
""fullscreenexit"",""19"",""286230""
","","","657","","","10","10830","2153","f","elianto","#3366ff99","-1"," ","0","0","[1507.2000000001863]","1","2","","","10830","29","1","2","win","no-go","0"
"pit-trial","157","3014060","0.0-34.0","battery-v0.2","","""event"",""trial"",""time""
""fullscreenenter"",""1"",""6112""
""fullscreenexit"",""19"",""286230""
","
","
","""event"",""trial"",""time""
""fullscreenenter"",""1"",""6112""
","""event"",""trial"",""time""
""fullscreenexit"",""19"",""286230""
","","","657.3999999999069","","","10","10830","2153","t","elianto","#f73b6a7A"," "," ","1","-10","[1507.5]","1","2","","","10830","30","2","3","lose","go","1"
"pit-trial","158","3018403","0.0-35.0","battery-v0.2","","""event"",""trial"",""time""
""fullscreenenter"",""1"",""6112""
""fullscreenexit"",""19"",""286230""
","
","
","""event"",""trial"",""time""
""fullscreenenter"",""1"",""6112""
","""event"",""trial"",""time""
""fullscreenexit"",""19"",""286230""
","","","1488.7999999998137","","","10","10830","2153","b","elianto","#f73b6a7A","-1"," ","0","-10","[2339.100000000093]","1","2","","","10830","31","3","4","lose","no-go","0"
"pit-trial","159","3022123","0.0-36.0","battery-v0.2","","""event"",""trial"",""time""
""fullscreenenter"",""1"",""6112""
""fullscreenexit"",""19"",""286230""
","
","
","""event"",""trial"",""time""
""fullscreenenter"",""1"",""6112""
","""event"",""trial"",""time""
""fullscreenexit"",""19"",""286230""
","","","866.5","","","10","10830","2153","n","elianto","#f73b6a7A"," "," ","1","0","[1716.7000000001863]","1","2","","","10830","32","0","3","lose","go","0"
"pit-trial","160","3026219","0.0-37.0","battery-v0.2","","""event"",""trial"",""time""
""fullscreenenter"",""1"",""6112""
""fullscreenexit"",""19"",""286230""
","
","
","""event"",""trial"",""time""
""fullscreenenter"",""1"",""6112""
","""event"",""trial"",""time""
""fullscreenexit"",""19"",""286230""
","","","1241.2999999998137","","","10","10830","2153","f","elianto","#3366ff99","-1"," ","0","+10","[2091.5,3913.3000000002794]","2","2","","","10830","33","1","2","win","no-go","1"
"pit-trial","161","3029496","0.0-38.0","battery-v0.2","","""event"",""trial"",""time""
""fullscreenenter"",""1"",""6112""
""fullscreenexit"",""19"",""286230""
","
","
","""event"",""trial"",""time""
""fullscreenenter"",""1"",""6112""
","""event"",""trial"",""time""
""fullscreenexit"",""19"",""286230""
","","","423.29999999981374","","","10","10830","2153","t","elianto","#f73b6a7A"," "," ","1","0","[57.799999999813735,336.6999999997206,599.7999999998137,1273.5999999996275]","4","2","","","10830","34","2","3","lose","go","0"
"pit-trial","162","3032646","0.0-39.0","battery-v0.2","","""event"",""trial"",""time""
""fullscreenenter"",""1"",""6112""
""fullscreenexit"",""19"",""286230""
","
","
","""event"",""trial"",""time""
""fullscreenenter"",""1"",""6112""
","""event"",""trial"",""time""
""fullscreenexit"",""19"",""286230""
","","","296.10000000009313","","","10","10830","2153","n","elianto","#f73b6a7A"," "," ","1","-10","[1146.3999999999069]","1","2","","","10830","35","0","3","lose","go","1"
"pit-trial","163","3037500","0.0-40.0","battery-v0.2","","""event"",""trial"",""time""
""fullscreenenter"",""1"",""6112""
""fullscreenexit"",""19"",""286230""
","
","
","""event"",""trial"",""time""
""fullscreenenter"",""1"",""6112""
","""event"",""trial"",""time""
""fullscreenexit"",""19"",""286230""
","","","-1","","","10","10830","2153","b","elianto","#f73b6a7A","-1","-1","1","-10","[]","0","2","","","10830","36","3","4","lose","no-go","1"
"pit-trial","164","3041901","0.0-41.0","battery-v0.2","","""event"",""trial"",""time""
""fullscreenenter"",""1"",""6112""
""fullscreenexit"",""19"",""286230""
","
","
","""event"",""trial"",""time""
""fullscreenenter"",""1"",""6112""
","""event"",""trial"",""time""
""fullscreenexit"",""19"",""286230""
","","","1546.3000000002794","","","10","10830","2153","b","elianto","#f73b6a7A","-1"," ","0","-10","[2398.100000000093]","1","2","","","10830","37","3","4","lose","no-go","0"
"pit-trial","165","3046755","0.0-42.0","battery-v0.2","","""event"",""trial"",""time""
""fullscreenenter"",""1"",""6112""
""fullscreenexit"",""19"",""286230""
","
","
","""event"",""trial"",""time""
""fullscreenenter"",""1"",""6112""
","""event"",""trial"",""time""
""fullscreenexit"",""19"",""286230""
","","","-1","","","10","10830","2153","n","elianto","#f73b6a7A"," ","-1","0","-10","[]","0","2","","","10830","38","0","3","lose","go","0"
"pit-trial","166","3050540","0.0-43.0","battery-v0.2","","""event"",""trial"",""time""
""fullscreenenter"",""1"",""6112""
""fullscreenexit"",""19"",""286230""
","
","
","""event"",""trial"",""time""
""fullscreenenter"",""1"",""6112""
","""event"",""trial"",""time""
""fullscreenexit"",""19"",""286230""
","","","930.8999999999069","","","10","10830","2153","t","elianto","#f73b6a7A"," "," ","1","-10","[1781.0999999996275]","1","2","","","10830","39","2","3","lose","go","1"
"pit-trial","167","3054088","0.0-44.0","battery-v0.2","","""event"",""trial"",""time""
""fullscreenenter"",""1"",""6112""
""fullscreenexit"",""19"",""286230""
","
","
","""event"",""trial"",""time""
""fullscreenenter"",""1"",""6112""
","""event"",""trial"",""time""
""fullscreenexit"",""19"",""286230""
","","","694","","","10","10830","2153","f","elianto","#3366ff99","-1"," ","0","0","[1544.0999999996275]","1","2","","","10830","40","1","2","win","no-go","0"
"pit-trial","168","3058942","0.0-45.0","battery-v0.2","","""event"",""trial"",""time""
""fullscreenenter"",""1"",""6112""
""fullscreenexit"",""19"",""286230""
","
","
","""event"",""trial"",""time""
""fullscreenenter"",""1"",""6112""
","""event"",""trial"",""time""
""fullscreenexit"",""19"",""286230""
","","","-1","","","10","10830","2153","t","elianto","#f73b6a7A"," ","-1","0","0","[2991.5]","1","2","","","10830","41","2","3","lose","go","1"
"pit-trial","169","3062885","0.0-46.0","battery-v0.2","","""event"",""trial"",""time""
""fullscreenenter"",""1"",""6112""
""fullscreenexit"",""19"",""286230""
","
","
","""event"",""trial"",""time""
""fullscreenenter"",""1"",""6112""
","""event"",""trial"",""time""
""fullscreenexit"",""19"",""286230""
","","","1089","","","10","10830","2153","n","elianto","#f73b6a7A"," "," ","1","0","[1939.1000000000931]","1","2","","","10830","42","0","3","lose","go","0"
"pit-trial","170","3067738","0.0-47.0","battery-v0.2","","""event"",""trial"",""time""
""fullscreenenter"",""1"",""6112""
""fullscreenexit"",""19"",""286230""
","
","
","""event"",""trial"",""time""
""fullscreenenter"",""1"",""6112""
","""event"",""trial"",""time""
""fullscreenexit"",""19"",""286230""
","","","-1","","","10","10830","2153","b","elianto","#f73b6a7A","-1","-1","1","0","[]","0","2","","","10830","43","3","4","lose","no-go","0"
"pit-trial","171","3071525","0.0-48.0","battery-v0.2","","""event"",""trial"",""time""
""fullscreenenter"",""1"",""6112""
""fullscreenexit"",""19"",""286230""
","
","
","""event"",""trial"",""time""
""fullscreenenter"",""1"",""6112""
","""event"",""trial"",""time""
""fullscreenexit"",""19"",""286230""
","","","933.8000000002794","","","10","10830","2153","f","elianto","#3366ff99","-1"," ","0","0","[1783.8999999999069]","1","2","","","10830","44","1","2","win","no-go","0"
"pit-trial","172","3076380","0.0-49.0","battery-v0.2","","""event"",""trial"",""time""
""fullscreenenter"",""1"",""6112""
""fullscreenexit"",""19"",""286230""
","
","
","""event"",""trial"",""time""
""fullscreenenter"",""1"",""6112""
","""event"",""trial"",""time""
""fullscreenexit"",""19"",""286230""
","","","-1","","","10","10830","2153","f","elianto","#3366ff99","-1","-1","1","+10","[]","0","2","","","10830","45","1","2","win","no-go","0"
"pit-trial","173","3080682","0.0-50.0","battery-v0.2","","""event"",""trial"",""time""
""fullscreenenter"",""1"",""6112""
""fullscreenexit"",""19"",""286230""
","
","
","""event"",""trial"",""time""
""fullscreenenter"",""1"",""6112""
","""event"",""trial"",""time""
""fullscreenexit"",""19"",""286230""
","","","1449.2999999998137","","","10","10830","2153","n","elianto","#f73b6a7A"," "," ","1","0","[2299.5]","1","2","","","10830","46","0","3","lose","go","0"
"pit-trial","174","3084199","0.0-51.0","battery-v0.2","","""event"",""trial"",""time""
""fullscreenenter"",""1"",""6112""
""fullscreenexit"",""19"",""286230""
","
","
","""event"",""trial"",""time""
""fullscreenenter"",""1"",""6112""
","""event"",""trial"",""time""
""fullscreenexit"",""19"",""286230""
","","","658","","","10","10830","2153","b","elianto","#f73b6a7A","-1"," ","0","0","[1512.7999999998137]","1","2","","","10830","47","3","4","lose","no-go","1"
"pit-trial","175","3088370","0.0-52.0","battery-v0.2","","""event"",""trial"",""time""
""fullscreenenter"",""1"",""6112""
""fullscreenexit"",""19"",""286230""
","
","
","""event"",""trial"",""time""
""fullscreenenter"",""1"",""6112""
","""event"",""trial"",""time""
""fullscreenexit"",""19"",""286230""
","","","1313.5","","","10","10830","2153","t","elianto","#f73b6a7A"," "," ","1","0","[2166.600000000093]","1","2","","","10830","48","2","3","lose","go","0"
"pit-trial","176","3091789","0.0-53.0","battery-v0.2","","""event"",""trial"",""time""
""fullscreenenter"",""1"",""6112""
""fullscreenexit"",""19"",""286230""
","
","
","""event"",""trial"",""time""
""fullscreenenter"",""1"",""6112""
","""event"",""trial"",""time""
""fullscreenexit"",""19"",""286230""
","","","565.5","","","10","10830","2153","b","elianto","#f73b6a7A","-1"," ","0","-10","[1415.6999999997206]","1","2","","","10830","49","3","4","lose","no-go","0"
"pit-trial","177","3096267","0.0-54.0","battery-v0.2","","""event"",""trial"",""time""
""fullscreenenter"",""1"",""6112""
""fullscreenexit"",""19"",""286230""
","
","
","""event"",""trial"",""time""
""fullscreenenter"",""1"",""6112""
","""event"",""trial"",""time""
""fullscreenexit"",""19"",""286230""
","","","1625.1000000000931","","","10","10830","2153","f","elianto","#3366ff99","-1"," ","0","+10","[2475.3000000002794]","1","2","","","10830","50","1","2","win","no-go","1"
"pit-trial","178","3100092","0.0-55.0","battery-v0.2","","""event"",""trial"",""time""
""fullscreenenter"",""1"",""6112""
""fullscreenexit"",""19"",""286230""
","
","
","""event"",""trial"",""time""
""fullscreenenter"",""1"",""6112""
","""event"",""trial"",""time""
""fullscreenexit"",""19"",""286230""
","","","971.5999999996275","","","10","10830","2153","t","elianto","#f73b6a7A"," "," ","1","0","[1821.6000000000931]","1","2","","","10830","51","2","3","lose","go","0"
"pit-trial","179","3103745","0.0-56.0","battery-v0.2","","""event"",""trial"",""time""
""fullscreenenter"",""1"",""6112""
""fullscreenexit"",""19"",""286230""
","
","
","""event"",""trial"",""time""
""fullscreenenter"",""1"",""6112""
","""event"",""trial"",""time""
""fullscreenexit"",""19"",""286230""
","","","798","","","10","10830","2153","n","elianto","#f73b6a7A"," "," ","1","0","[1648.3000000002794]","1","2","","","10830","52","0","3","lose","go","0"
"pit-trial","180","3108283","0.0-57.0","battery-v0.2","","""event"",""trial"",""time""
""fullscreenenter"",""1"",""6112""
""fullscreenexit"",""19"",""286230""
","
","
","""event"",""trial"",""time""
""fullscreenenter"",""1"",""6112""
","""event"",""trial"",""time""
""fullscreenexit"",""19"",""286230""
","","","1684.3000000002794","","","10","10830","2153","t","elianto","#f73b6a7A"," "," ","1","-10","[2534.5]","1","2","","","10830","53","2","3","lose","go","1"
"pit-trial","181","3111852","0.0-58.0","battery-v0.2","","""event"",""trial"",""time""
""fullscreenenter"",""1"",""6112""
""fullscreenexit"",""19"",""286230""
","
","
","""event"",""trial"",""time""
""fullscreenenter"",""1"",""6112""
","""event"",""trial"",""time""
""fullscreenexit"",""19"",""286230""
","","","711","","","10","10830","2153","n","elianto","#f73b6a7A"," "," ","1","-10","[1565.3999999999069]","1","2","","","10830","54","0","3","lose","go","1"
"pit-trial","182","3114784","0.0-59.0","battery-v0.2","","""event"",""trial"",""time""
""fullscreenenter"",""1"",""6112""
""fullscreenexit"",""19"",""286230""
","
","
","""event"",""trial"",""time""
""fullscreenenter"",""1"",""6112""
","""event"",""trial"",""time""
""fullscreenexit"",""19"",""286230""
","","","77","","","10","10830","2153","b","elianto","#f73b6a7A","-1"," ","0","-10","[927.3999999999069]","1","2","","","10830","55","3","4","lose","no-go","0"
"pit-trial","183","3118183","0.0-60.0","battery-v0.2","","""event"",""trial"",""time""
""fullscreenenter"",""1"",""6112""
""fullscreenexit"",""19"",""286230""
","
","
","""event"",""trial"",""time""
""fullscreenenter"",""1"",""6112""
","""event"",""trial"",""time""
""fullscreenexit"",""19"",""286230""
","","","543.6999999997206","","","10","10830","2153","f","elianto","#3366ff99","-1"," ","0","0","[1394.2999999998137]","1","2","","","10830","56","1","2","win","no-go","0"
"pit-trial","184","3123037","0.0-61.0","battery-v0.2","","""event"",""trial"",""time""
""fullscreenenter"",""1"",""6112""
""fullscreenexit"",""19"",""286230""
","
","
","""event"",""trial"",""time""
""fullscreenenter"",""1"",""6112""
","""event"",""trial"",""time""
""fullscreenexit"",""19"",""286230""
","","","-1","","","10","10830","2153","b","elianto","#f73b6a7A","-1","-1","1","-10","[]","0","2","","","10830","57","3","4","lose","no-go","1"
"pit-trial","185","3127891","0.0-62.0","battery-v0.2","","""event"",""trial"",""time""
""fullscreenenter"",""1"",""6112""
""fullscreenexit"",""19"",""286230""
","
","
","""event"",""trial"",""time""
""fullscreenenter"",""1"",""6112""
","""event"",""trial"",""time""
""fullscreenexit"",""19"",""286230""
","","","-1","","","10","10830","2153","t","elianto","#f73b6a7A"," ","-1","0","-10","[4722.699999999721]","1","2","","","10830","58","2","3","lose","go","0"
"pit-trial","186","3131457","0.0-63.0","battery-v0.2","","""event"",""trial"",""time""
""fullscreenenter"",""1"",""6112""
""fullscreenexit"",""19"",""286230""
","
","
","""event"",""trial"",""time""
""fullscreenenter"",""1"",""6112""
","""event"",""trial"",""time""
""fullscreenexit"",""19"",""286230""
","","","713.2999999998137","","","10","10830","2153","c","elianto","#3366ff99"," "," ","1","+10","[1563.3999999999069]","1","2","","","10830","59","4","1","win","go","0"
"pit-trial","187","3135724","0.0-64.0","battery-v0.2","","""event"",""trial"",""time""
""fullscreenenter"",""1"",""6112""
""fullscreenexit"",""19"",""286230""
","
","
","""event"",""trial"",""time""
""fullscreenenter"",""1"",""6112""
","""event"",""trial"",""time""
""fullscreenexit"",""19"",""286230""
","","","1412.2999999998137","","","10","10830","2153","n","elianto","#f73b6a7A"," "," ","1","-10","[2262.600000000093]","1","2","","","10830","60","0","3","lose","go","1"
"pit-trial","188","3139534","0.0-65.0","battery-v0.2","","""event"",""trial"",""time""
""fullscreenenter"",""1"",""6112""
""fullscreenexit"",""19"",""286230""
","
","
","""event"",""trial"",""time""
""fullscreenenter"",""1"",""6112""
","""event"",""trial"",""time""
""fullscreenexit"",""19"",""286230""
","","","958","","","10","10830","2153","b","elianto","#f73b6a7A","-1"," ","0","-10","[1808.0999999996275]","1","2","","","10830","61","3","4","lose","no-go","0"
"pit-trial","189","3143472","0.0-66.0","battery-v0.2","","""event"",""trial"",""time""
""fullscreenenter"",""1"",""6112""
""fullscreenexit"",""19"",""286230""
","
","
","""event"",""trial"",""time""
""fullscreenenter"",""1"",""6112""
","""event"",""trial"",""time""
""fullscreenexit"",""19"",""286230""
","","","1078.6999999997206","","","10","10830","2153","c","elianto","#3366ff99"," "," ","1","+10","[1933.6999999997206]","1","2","","","10830","62","4","1","win","go","0"
"pit-trial","190","3146914","0.0-67.0","battery-v0.2","","""event"",""trial"",""time""
""fullscreenenter"",""1"",""6112""
""fullscreenexit"",""19"",""286230""
","
","
","""event"",""trial"",""time""
""fullscreenenter"",""1"",""6112""
","""event"",""trial"",""time""
""fullscreenexit"",""19"",""286230""
","","","588.2999999998137","","","10","10830","2153","f","elianto","#3366ff99","-1"," ","0","0","[1438.7000000001863]","1","2","","","10830","63","1","2","win","no-go","0"
"pit-trial","191","3150206","0.0-68.0","battery-v0.2","","""event"",""trial"",""time""
""fullscreenenter"",""1"",""6112""
""fullscreenexit"",""19"",""286230""
","
","
","""event"",""trial"",""time""
""fullscreenenter"",""1"",""6112""
","""event"",""trial"",""time""
""fullscreenexit"",""19"",""286230""
","","","439.40000000037253","","","10","10830","2153","t","elianto","#f73b6a7A"," "," ","1","0","[1289.3999999999069]","1","2","","","10830","64","2","3","lose","go","0"
"pit-trial","192","3153723","0.0-69.0","battery-v0.2","","""event"",""trial"",""time""
""fullscreenenter"",""1"",""6112""
""fullscreenexit"",""19"",""286230""
","
","
","""event"",""trial"",""time""
""fullscreenenter"",""1"",""6112""
","""event"",""trial"",""time""
""fullscreenexit"",""19"",""286230""
","","","661.7000000001863","","","10","10830","2153","z","elianto","#3366ff99","-1"," ","0","0","[1511.8000000002794]","1","2","","","10830","65","5","2","win","no-go","0"
"pit-trial","193","3156971","0.0-70.0","battery-v0.2","","""event"",""trial"",""time""
""fullscreenenter"",""1"",""6112""
""fullscreenexit"",""19"",""286230""
","
","
","""event"",""trial"",""time""
""fullscreenenter"",""1"",""6112""
","""event"",""trial"",""time""
""fullscreenexit"",""19"",""286230""
","","","394.10000000009313","","","10","10830","2153","f","elianto","#3366ff99","-1"," ","0","0","[1244.6000000000931]","1","2","","","10830","66","1","2","win","no-go","0"
"pit-trial","194","3160055","0.0-71.0","battery-v0.2","","""event"",""trial"",""time""
""fullscreenenter"",""1"",""6112""
""fullscreenexit"",""19"",""286230""
","
","
","""event"",""trial"",""time""
""fullscreenenter"",""1"",""6112""
","""event"",""trial"",""time""
""fullscreenexit"",""19"",""286230""
","","","229.20000000018626","","","10","10830","2153","c","elianto","#3366ff99"," "," ","1","+10","[1079.3999999999069]","1","2","","","10830","67","4","1","win","go","0"
"pit-trial","195","3163648","0.0-72.0","battery-v0.2","","""event"",""trial"",""time""
""fullscreenenter"",""1"",""6112""
""fullscreenexit"",""19"",""286230""
","
","
","""event"",""trial"",""time""
""fullscreenenter"",""1"",""6112""
","""event"",""trial"",""time""
""fullscreenexit"",""19"",""286230""
","","","738.8999999999069","","","10","10830","2153","b","elianto","#f73b6a7A","-1"," ","0","-10","[1589]","1","2","","","10830","68","3","4","lose","no-go","0"
"pit-trial","196","3166887","0.0-73.0","battery-v0.2","","""event"",""trial"",""time""
""fullscreenenter"",""1"",""6112""
""fullscreenexit"",""19"",""286230""
","
","
","""event"",""trial"",""time""
""fullscreenenter"",""1"",""6112""
","""event"",""trial"",""time""
""fullscreenexit"",""19"",""286230""
","","","384.79999999981374","","","10","10830","2153","z","elianto","#3366ff99","-1"," ","0","+10","[1234.7999999998137]","1","2","","","10830","69","5","2","win","no-go","1"
"pit-trial","197","3170343","0.0-74.0","battery-v0.2","","""event"",""trial"",""time""
""fullscreenenter"",""1"",""6112""
""fullscreenexit"",""19"",""286230""
","
","
","""event"",""trial"",""time""
""fullscreenenter"",""1"",""6112""
","""event"",""trial"",""time""
""fullscreenexit"",""19"",""286230""
","","","600.3999999999069","","","10","10830","2153","c","elianto","#3366ff99"," "," ","1","+10","[1452.1999999997206]","1","2","","","10830","70","4","1","win","go","0"
"pit-trial","198","3173568","0.0-75.0","battery-v0.2","","""event"",""trial"",""time""
""fullscreenenter"",""1"",""6112""
""fullscreenexit"",""19"",""286230""
","
","
","""event"",""trial"",""time""
""fullscreenenter"",""1"",""6112""
","""event"",""trial"",""time""
""fullscreenexit"",""19"",""286230""
","","","371.20000000018626","","","10","10830","2153","f","elianto","#3366ff99","-1"," ","0","0","[1221.5]","1","2","","","10830","71","1","2","win","no-go","0"
"pit-trial","199","3176937","0.0-76.0","battery-v0.2","","""event"",""trial"",""time""
""fullscreenenter"",""1"",""6112""
""fullscreenexit"",""19"",""286230""
","
","
","""event"",""trial"",""time""
""fullscreenenter"",""1"",""6112""
","""event"",""trial"",""time""
""fullscreenexit"",""19"",""286230""
","","","511.20000000018626","","","10","10830","2153","t","elianto","#f73b6a7A"," "," ","1","0","[1365.2000000001863]","1","2","","","10830","72","2","3","lose","go","0"
"pit-trial","200","3181792","0.0-77.0","battery-v0.2","","""event"",""trial"",""time""
""fullscreenenter"",""1"",""6112""
""fullscreenexit"",""19"",""286230""
","
","
","""event"",""trial"",""time""
""fullscreenenter"",""1"",""6112""
","""event"",""trial"",""time""
""fullscreenexit"",""19"",""286230""
","","","-1","","","10","10830","2153","f","elianto","#3366ff99","-1","-1","1","+10","[2893]","1","2","","","10830","73","1","2","win","no-go","0"
"pit-trial","201","3185748","0.0-78.0","battery-v0.2","","""event"",""trial"",""time""
""fullscreenenter"",""1"",""6112""
""fullscreenexit"",""19"",""286230""
","
","
","""event"",""trial"",""time""
""fullscreenenter"",""1"",""6112""
","""event"",""trial"",""time""
""fullscreenexit"",""19"",""286230""
","","","1102.3999999999069","","","10","10830","2153","z","elianto","#3366ff99","-1"," ","0","0","[1952.5]","1","2","","","10830","74","5","2","win","no-go","0"
"pit-trial","202","3189506","0.0-79.0","battery-v0.2","","""event"",""trial"",""time""
""fullscreenenter"",""1"",""6112""
""fullscreenexit"",""19"",""286230""
","
","
","""event"",""trial"",""time""
""fullscreenenter"",""1"",""6112""
","""event"",""trial"",""time""
""fullscreenexit"",""19"",""286230""
","","","903.9000000003725","","","10","10830","2153","b","elianto","#f73b6a7A","-1"," ","0","0","[1754]","1","2","","","10830","75","3","4","lose","no-go","1"
"pit-trial","203","3192823","0.0-80.0","battery-v0.2","","""event"",""trial"",""time""
""fullscreenenter"",""1"",""6112""
""fullscreenexit"",""19"",""286230""
","
","
","""event"",""trial"",""time""
""fullscreenenter"",""1"",""6112""
","""event"",""trial"",""time""
""fullscreenexit"",""19"",""286230""
","","","464","","","10","10830","2153","c","elianto","#3366ff99"," "," ","1","+10","[1314.5]","1","2","","","10830","76","4","1","win","go","0"
"pit-trial","204","3196248","0.0-81.0","battery-v0.2","","""event"",""trial"",""time""
""fullscreenenter"",""1"",""6112""
""fullscreenexit"",""19"",""286230""
","
","
","""event"",""trial"",""time""
""fullscreenenter"",""1"",""6112""
","""event"",""trial"",""time""
""fullscreenexit"",""19"",""286230""
","","","570.2000000001863","","","10","10830","2153","z","elianto","#3366ff99","-1"," ","0","+10","[1421.2000000001863]","1","2","","","10830","77","5","2","win","no-go","1"
"pit-trial","205","3199635","0.0-82.0","battery-v0.2","","""event"",""trial"",""time""
""fullscreenenter"",""1"",""6112""
""fullscreenexit"",""19"",""286230""
","
","
","""event"",""trial"",""time""
""fullscreenenter"",""1"",""6112""
","""event"",""trial"",""time""
""fullscreenexit"",""19"",""286230""
","","","532.7999999998137","","","10","10830","2153","c","elianto","#3366ff99"," "," ","1","+10","[1383]","1","2","","","10830","78","4","1","win","go","0"
"pit-trial","206","3202931","0.0-83.0","battery-v0.2","","""event"",""trial"",""time""
""fullscreenenter"",""1"",""6112""
""fullscreenexit"",""19"",""286230""
","
","
","""event"",""trial"",""time""
""fullscreenenter"",""1"",""6112""
","""event"",""trial"",""time""
""fullscreenexit"",""19"",""286230""
","","","437.40000000037253","","","10","10830","2153","b","elianto","#f73b6a7A","-1"," ","0","-10","[1292.2000000001863]","1","2","","","10830","79","3","4","lose","no-go","0"
"pit-trial","207","3206298","0.0-84.0","battery-v0.2","","""event"",""trial"",""time""
""fullscreenenter"",""1"",""6112""
""fullscreenexit"",""19"",""286230""
","
","
","""event"",""trial"",""time""
""fullscreenenter"",""1"",""6112""
","""event"",""trial"",""time""
""fullscreenexit"",""19"",""286230""
","","","513","","","10","10830","2153","c","elianto","#3366ff99"," "," ","1","+10","[1363]","1","2","","","10830","80","4","1","win","go","0"
"pit-trial","208","3209350","0.0-85.0","battery-v0.2","","""event"",""trial"",""time""
""fullscreenenter"",""1"",""6112""
""fullscreenexit"",""19"",""286230""
","
","
","""event"",""trial"",""time""
""fullscreenenter"",""1"",""6112""
","""event"",""trial"",""time""
""fullscreenexit"",""19"",""286230""
","","","197.70000000018626","","","10","10830","2153","c","elianto","#3366ff99"," "," ","1","+10","[1047.7999999998137]","1","2","","","10830","81","4","1","win","go","0"
"pit-trial","209","3213086","0.0-86.0","battery-v0.2","","""event"",""trial"",""time""
""fullscreenenter"",""1"",""6112""
""fullscreenexit"",""19"",""286230""
","
","
","""event"",""trial"",""time""
""fullscreenenter"",""1"",""6112""
","""event"",""trial"",""time""
""fullscreenexit"",""19"",""286230""
