"trial_type","trial_index","time_elapsed","internal_node_id","task_version","subject_id","interactions","blur_events","focus_events","fullscreenenter_events","fullscreenexit_events","success","view_history","rt","responses","num_errors","age","subject","participantId","rune","rune_set","hex","correct","choice","accuracy","outcome","keys","total_keys","block","practice","value","sub","trial","stimulus","robot","valence","action","sham"
"pavlovia","0","6","0.0-0.0","battery-v0.2","","""event"",""trial"",""time""
""fullscreenenter"",""1"",""4083""
","
","
","""event"",""trial"",""time""
""fullscreenenter"",""1"",""4083""
","
","","","","","","","","","","","","","","","","","","","","","","","","","","",""
"fullscreen","1","5083","0.0-1.0","battery-v0.2","","""event"",""trial"",""time""
""fullscreenenter"",""1"",""4083""
","
","
","""event"",""trial"",""time""
""fullscreenenter"",""1"",""4083""
","
","true","","","","","","","","","","","","","","","","","","","","","","","","","",""
"pit-instructions","2","10656","0.0-2.0-0.0","battery-v0.2","","""event"",""trial"",""time""
""fullscreenenter"",""1"",""4083""
","
","
","""event"",""trial"",""time""
""fullscreenenter"",""1"",""4083""
","
","","[{""page_index"":0,""viewing_time"":5567}]","5567.800000000745","","","","","","","","","","","","","","","","","","","","","","","",""
"pit-comprehension","3","13541","0.0-2.0-1.0-0.0","battery-v0.2","","""event"",""trial"",""time""
""fullscreenenter"",""1"",""4083""
","
","
","""event"",""trial"",""time""
""fullscreenenter"",""1"",""4083""
","
","","","2877.199999999255","[""shark""]","0","23","5903","1505","","","","","","","","","","","","","","","","","","",""
"pit-instructions","4","17926","0.0-2.0-1.0-1.0","battery-v0.2","","""event"",""trial"",""time""
""fullscreenenter"",""1"",""4083""
","
","
","""event"",""trial"",""time""
""fullscreenenter"",""1"",""4083""
","
","","[{""page_index"":0,""viewing_time"":4371.800000000745}]","4371.900000002235","","","","","","","","","","","","","","","","","","","","","","","",""
"pit-comprehension","5","21441","0.0-2.0-2.0-0.0","battery-v0.2","","""event"",""trial"",""time""
""fullscreenenter"",""1"",""4083""
","
","
","""event"",""trial"",""time""
""fullscreenenter"",""1"",""4083""
","
","","","3509.400000002235","[""tiger""]","0","23","5903","1505","","","","","","","","","","","","","","","","","","",""
"pit-instructions","6","28028","0.0-2.0-2.0-1.0","battery-v0.2","","""event"",""trial"",""time""
""fullscreenenter"",""1"",""4083""
","
","
","""event"",""trial"",""time""
""fullscreenenter"",""1"",""4083""
","
","","[{""page_index"":0,""viewing_time"":6579.60000000149}]","6580.60000000149","","","","","","","","","","","","","","","","","","","","","","","",""
"pit-instructions","7","124293","0.0-2.0-3.0","battery-v0.2","","""event"",""trial"",""time""
""fullscreenenter"",""1"",""4083""
","
","
","""event"",""trial"",""time""
""fullscreenenter"",""1"",""4083""
","
","","[{""page_index"":0,""viewing_time"":12032.70000000298},{""page_index"":1,""viewing_time"":5994.699999999255},{""page_index"":2,""viewing_time"":6727.699999999255},{""page_index"":3,""viewing_time"":5354.699999999255},{""page_index"":4,""viewing_time"":5535.400000002235},{""page_index"":5,""viewing_time"":5557.39999999851},{""page_index"":6,""viewing_time"":6593.199999999255},{""page_index"":7,""viewing_time"":7425.900000002235},{""page_index"":8,""viewing_time"":6973.29999999702},{""page_index"":9,""viewing_time"":7460.70000000298},{""page_index"":10,""viewing_time"":7480.5},{""page_index"":11,""viewing_time"":7312},{""page_index"":12,""viewing_time"":6479.5},{""page_index"":13,""viewing_time"":5329.89999999851}]","96259.80000000075","","","","","","","","","","","","","","","","","","","","","","","",""
"pit-trial","8","127754","0.0-2.0-4.0-0.0","battery-v0.2","","""event"",""trial"",""time""
""fullscreenenter"",""1"",""4083""
","
","
","""event"",""trial"",""time""
""fullscreenenter"",""1"",""4083""
","
","","","600","","","23","5903","1505","&#9784;","elianto","#FFFFF080"," "," ","1","&#10004","[1451]","1","0","0","","","","","","","",""
"pit-trial","9","131117","0.0-2.0-4.1-0.1","battery-v0.2","","""event"",""trial"",""time""
""fullscreenenter"",""1"",""4083""
","
","
","""event"",""trial"",""time""
""fullscreenenter"",""1"",""4083""
","
","","","491.0999999977648","","","23","5903","1505","&#9784;","elianto","#FFFFF080"," "," ","1","&#10004","[1345.3999999985099]","1","0","0","","","","","","","",""
"pit-trial","10","134732","0.0-2.0-4.2-0.2","battery-v0.2","","""event"",""trial"",""time""
""fullscreenenter"",""1"",""4083""
","
","
","""event"",""trial"",""time""
""fullscreenenter"",""1"",""4083""
","
","","","748.5999999977648","","","23","5903","1505","&#9784;","elianto","#FFFFF080"," "," ","1","&#10004","[1601.3999999985099]","1","0","0","","","","","","","",""
"pit-trial","11","138730","0.0-2.0-4.3-0.3","battery-v0.2","","""event"",""trial"",""time""
""fullscreenenter"",""1"",""4083""
","
","
","""event"",""trial"",""time""
""fullscreenenter"",""1"",""4083""
","
","","","1131.5","","","23","5903","1505","&#9784;","elianto","#FFFFF080"," "," ","1","&#10004","[1984.6000000014901]","1","0","0","","","","","","","",""
"pit-trial","12","142317","0.0-2.0-4.4-0.4","battery-v0.2","","""event"",""trial"",""time""
""fullscreenenter"",""1"",""4083""
","
","
","""event"",""trial"",""time""
""fullscreenenter"",""1"",""4083""
","
","","","712.8000000007451","","","23","5903","1505","&#9784;","elianto","#FFFFF080"," "," ","1","&#10004","[1572.3999999985099]","1","0","0","","","","","","","",""
"pit-instructions","13","167105","0.0-2.0-5.0","battery-v0.2","","""event"",""trial"",""time""
""fullscreenenter"",""1"",""4083""
","
","
","""event"",""trial"",""time""
""fullscreenenter"",""1"",""4083""
","
","","[{""page_index"":0,""viewing_time"":6214},{""page_index"":1,""viewing_time"":6414.89999999851},{""page_index"":2,""viewing_time"":7132.5},{""page_index"":3,""viewing_time"":5017.300000000745}]","24779.5","","","","","","","","","","","","","","","","","","","","","","","",""
"pit-trial","14","171981","0.0-2.0-6.0-0.0","battery-v0.2","","""event"",""trial"",""time""
""fullscreenenter"",""1"",""4083""
","
","
","""event"",""trial"",""time""
""fullscreenenter"",""1"",""4083""
","
","","","-1","","","23","5903","1505","&#9854;","elianto","#FFFFF080","-1","-1","1","&#10004","[]","0","0","1","","","","","","","",""
"pit-trial","15","176849","0.0-2.0-6.1-0.1","battery-v0.2","","""event"",""trial"",""time""
""fullscreenenter"",""1"",""4083""
","
","
","""event"",""trial"",""time""
""fullscreenenter"",""1"",""4083""
","
","","","-1","","","23","5903","1505","&#9854;","elianto","#FFFFF080","-1","-1","1","&#10004","[]","0","0","1","","","","","","","",""
"pit-trial","16","181725","0.0-2.0-6.2-0.2","battery-v0.2","","""event"",""trial"",""time""
""fullscreenenter"",""1"",""4083""
","
","
","""event"",""trial"",""time""
""fullscreenenter"",""1"",""4083""
","
","","","-1","","","23","5903","1505","&#9854;","elianto","#FFFFF080","-1","-1","1","&#10004","[]","0","0","1","","","","","","","",""
"pit-trial","17","186596","0.0-2.0-6.3-0.3","battery-v0.2","","""event"",""trial"",""time""
""fullscreenenter"",""1"",""4083""
","
","
","""event"",""trial"",""time""
""fullscreenenter"",""1"",""4083""
","
","","","-1","","","23","5903","1505","&#9854;","elianto","#FFFFF080","-1","-1","1","&#10004","[]","0","0","1","","","","","","","",""
"pit-trial","18","191465","0.0-2.0-6.4-0.4","battery-v0.2","","""event"",""trial"",""time""
""fullscreenenter"",""1"",""4083""
","
","
","""event"",""trial"",""time""
""fullscreenenter"",""1"",""4083""
","
","","","-1","","","23","5903","1505","&#9854;","elianto","#FFFFF080","-1","-1","1","&#10004","[]","0","0","1","","","","","","","",""
"pit-instructions","19","322138","0.0-2.0-7.0","battery-v0.2","","""event"",""trial"",""time""
""fullscreenenter"",""1"",""4083""
","
","
","""event"",""trial"",""time""
""fullscreenenter"",""1"",""4083""
","
","","[{""page_index"":0,""viewing_time"":6431.900000002235},{""page_index"":1,""viewing_time"":6900},{""page_index"":2,""viewing_time"":5899.39999999851},{""page_index"":3,""viewing_time"":6567.300000000745},{""page_index"":4,""viewing_time"":5851.800000000745},{""page_index"":5,""viewing_time"":5382.39999999851},{""page_index"":6,""viewing_time"":5097.89999999851},{""page_index"":7,""viewing_time"":9084.10000000149},{""page_index"":8,""viewing_time"":7567.39999999851},{""page_index"":9,""viewing_time"":6832.60000000149},{""page_index"":10,""viewing_time"":6665.89999999851},{""page_index"":11,""viewing_time"":4784.300000000745},{""page_index"":12,""viewing_time"":6367.10000000149},{""page_index"":13,""viewing_time"":7000.099999997765},{""page_index"":14,""viewing_time"":6633.900000002235},{""page_index"":15,""viewing_time"":11849.300000000745},{""page_index"":16,""viewing_time"":11732.89999999851},{""page_index"":17,""viewing_time"":10016.699999999255}]","130666.5","","","","","","","","","","","","","","","","","","","","","","","",""
"pit-trial","20","327003","0.0-2.0-8.0-0.0","battery-v0.2","","""event"",""trial"",""time""
""fullscreenenter"",""1"",""4083""
","
","
","""event"",""trial"",""time""
""fullscreenenter"",""1"",""4083""
","
","","","-1","","","23","5903","1505","&#9776;","elianto","#3366ff99"," ","-1","0","0","[]","0","0","1","","","","","","","",""
"pit-trial","21","330351","0.0-2.0-8.0-1.0","battery-v0.2","","""event"",""trial"",""time""
""fullscreenenter"",""1"",""4083""
","
","
","""event"",""trial"",""time""
""fullscreenenter"",""1"",""4083""
","
","","","477.8999999985099","","","23","5903","1505","&#9776;","elianto","#3366ff99"," "," ","1","+10","[70.40000000223517,1332.300000000745]","2","0","1","","","","","","","",""
"pit-trial","22","333639","0.0-2.0-8.0-2.0","battery-v0.2","","""event"",""trial"",""time""
""fullscreenenter"",""1"",""4083""
","
","
","""event"",""trial"",""time""
""fullscreenenter"",""1"",""4083""
","
","","","419.4000000022352","","","23","5903","1505","&#9776;","elianto","#3366ff99"," "," ","1","+10","[1275.6000000014901]","1","0","1","","","","","","","",""
"pit-trial","23","336910","0.0-2.0-8.0-3.0","battery-v0.2","","""event"",""trial"",""time""
""fullscreenenter"",""1"",""4083""
","
","
","""event"",""trial"",""time""
""fullscreenenter"",""1"",""4083""
","
","","","408.69999999925494","","","23","5903","1505","&#9776;","elianto","#3366ff99"," "," ","1","0","[1261]","1","0","1","","","","","","","",""
"pit-trial","24","340242","0.0-2.0-8.0-4.0","battery-v0.2","","""event"",""trial"",""time""
""fullscreenenter"",""1"",""4083""
","
","
","""event"",""trial"",""time""
""fullscreenenter"",""1"",""4083""
","
","","","464.5","","","23","5903","1505","&#9776;","elianto","#3366ff99"," "," ","1","+10","[1314.5]","1","0","1","","","","","","","",""
"pit-trial","25","343506","0.0-2.0-8.1-0.1","battery-v0.2","","""event"",""trial"",""time""
""fullscreenenter"",""1"",""4083""
","
","
","""event"",""trial"",""time""
""fullscreenenter"",""1"",""4083""
","
","","","395.19999999925494","","","23","5903","1505","&#9776;","elianto","#3366ff99"," "," ","1","+10","[1249.0999999977648]","1","0","1","","","","","","","",""
"pit-trial","26","346815","0.0-2.0-8.1-1.1","battery-v0.2","","""event"",""trial"",""time""
""fullscreenenter"",""1"",""4083""
","
","
","""event"",""trial"",""time""
""fullscreenenter"",""1"",""4083""
","
","","","444.9000000022352","","","23","5903","1505","&#9776;","elianto","#3366ff99"," "," ","1","+10","[1296]","1","0","1","","","","","","","",""
"pit-trial","27","350079","0.0-2.0-8.1-2.1","battery-v0.2","","""event"",""trial"",""time""
""fullscreenenter"",""1"",""4083""
","
","
","""event"",""trial"",""time""
""fullscreenenter"",""1"",""4083""
","
","","","388.3999999985099","","","23","5903","1505","&#9776;","elianto","#3366ff99"," "," ","1","+10","[1245.699999999255]","1","0","1","","","","","","","",""
"pit-trial","28","353306","0.0-2.0-8.1-3.1","battery-v0.2","","""event"",""trial"",""time""
""fullscreenenter"",""1"",""4083""
","
","
","""event"",""trial"",""time""
""fullscreenenter"",""1"",""4083""
","
","","","354.6000000014901","","","23","5903","1505","&#9776;","elianto","#3366ff99"," "," ","1","0","[1211.5999999977648]","1","0","1","","","","","","","",""
"pit-trial","29","356570","0.0-2.0-8.1-4.1","battery-v0.2","","""event"",""trial"",""time""
""fullscreenenter"",""1"",""4083""
","
","
","""event"",""trial"",""time""
""fullscreenenter"",""1"",""4083""
","
","","","398.20000000298023","","","23","5903","1505","&#9776;","elianto","#3366ff99"," "," ","1","+10","[1249.2000000029802]","1","0","1","","","","","","","",""
"pit-trial","30","359770","0.0-2.0-8.2-0.2","battery-v0.2","","""event"",""trial"",""time""
""fullscreenenter"",""1"",""4083""
","
","
","""event"",""trial"",""time""
""fullscreenenter"",""1"",""4083""
","
","","","325.5","","","23","5903","1505","&#9776;","elianto","#3366ff99"," "," ","1","+10","[1179.800000000745]","1","0","1","","","","","","","",""
"pit-trial","31","362911","0.0-2.0-8.2-1.2","battery-v0.2","","""event"",""trial"",""time""
""fullscreenenter"",""1"",""4083""
","
","
","""event"",""trial"",""time""
""fullscreenenter"",""1"",""4083""
","
","","","276.5999999977648","","","23","5903","1505","&#9776;","elianto","#3366ff99"," "," ","1","+10","[1130.1000000014901]","1","0","1","","","","","","","",""
"pit-trial","32","366122","0.0-2.0-8.2-2.2","battery-v0.2","","""event"",""trial"",""time""
""fullscreenenter"",""1"",""4083""
","
","
","""event"",""trial"",""time""
""fullscreenenter"",""1"",""4083""
","
","","","334.4000000022352","","","23","5903","1505","&#9776;","elianto","#3366ff99"," "," ","1","+10","[1190.699999999255]","1","0","1","","","","","","","",""
"pit-trial","33","369423","0.0-2.0-8.2-3.2","battery-v0.2","","""event"",""trial"",""time""
""fullscreenenter"",""1"",""4083""
","
","
","""event"",""trial"",""time""
""fullscreenenter"",""1"",""4083""
","
","","","435.6000000014901","","","23","5903","1505","&#9776;","elianto","#3366ff99"," "," ","1","0","[1286.5999999977648]","1","0","1","","","","","","","",""
"pit-trial","34","372543","0.0-2.0-8.2-4.2","battery-v0.2","","""event"",""trial"",""time""
""fullscreenenter"",""1"",""4083""
","
","
","""event"",""trial"",""time""
""fullscreenenter"",""1"",""4083""
","
","","","249.5","","","23","5903","1505","&#9776;","elianto","#3366ff99"," "," ","1","+10","[1105]","1","0","1","","","","","","","",""
"call-function","35","372551","0.0-2.0-9.0","battery-v0.2","","""event"",""trial"",""time""
""fullscreenenter"",""1"",""4083""
","
","
","""event"",""trial"",""time""
""fullscreenenter"",""1"",""4083""
","
","","","","","","","","","","","","","","","","","","","","","","","","","","",""
"pit-instructions","36","418354","0.0-2.0-10.0","battery-v0.2","","""event"",""trial"",""time""
""fullscreenenter"",""1"",""4083""
","
","
","""event"",""trial"",""time""
""fullscreenenter"",""1"",""4083""
","
","","[{""page_index"":0,""viewing_time"":11800.60000000149},{""page_index"":1,""viewing_time"":7099.89999999851},{""page_index"":2,""viewing_time"":9666.699999999255},{""page_index"":3,""viewing_time"":9483},{""page_index"":4,""viewing_time"":7751.5}]","45802.39999999851","","","","","","","","","","","","","","","","","","","","","","","",""
"pit-trial","37","421849","0.0-2.0-11.0-0.0","battery-v0.2","","""event"",""trial"",""time""
""fullscreenenter"",""1"",""4083""
","
","
","""event"",""trial"",""time""
""fullscreenenter"",""1"",""4083""
","
","","","623.5","","","23","5903","1505","&#9761;","elianto","#3366ff99","-1"," ","0","0","[1477.300000000745]","1","0","2","","","","","","","",""
"pit-trial","38","425081","0.0-2.0-11.0-1.0","battery-v0.2","","""event"",""trial"",""time""
""fullscreenenter"",""1"",""4083""
","
","
","""event"",""trial"",""time""
""fullscreenenter"",""1"",""4083""
","
","","","355.1000000014901","","","23","5903","1505","&#9761;","elianto","#3366ff99","-1"," ","0","0","[1211.5999999977648]","1","0","2","","","","","","","",""
"pit-trial","39","428313","0.0-2.0-11.0-2.0","battery-v0.2","","""event"",""trial"",""time""
""fullscreenenter"",""1"",""4083""
","
","
","""event"",""trial"",""time""
""fullscreenenter"",""1"",""4083""
","
","","","361.4000000022352","","","23","5903","1505","&#9761;","elianto","#3366ff99","-1"," ","0","0","[1214.300000000745]","1","0","2","","","","","","","",""
"pit-trial","40","433181","0.0-2.0-11.0-3.0","battery-v0.2","","""event"",""trial"",""time""
""fullscreenenter"",""1"",""4083""
","
","
","""event"",""trial"",""time""
""fullscreenenter"",""1"",""4083""
","
","","","-1","","","23","5903","1505","&#9761;","elianto","#3366ff99","-1","-1","1","0","[]","0","0","2","","","","","","","",""
"pit-trial","41","438056","0.0-2.0-11.0-4.0","battery-v0.2","","""event"",""trial"",""time""
""fullscreenenter"",""1"",""4083""
","
","
","""event"",""trial"",""time""
""fullscreenenter"",""1"",""4083""
","
","","","-1","","","23","5903","1505","&#9761;","elianto","#3366ff99","-1","-1","1","+10","[]","0","0","2","","","","","","","",""
"pit-trial","42","442927","0.0-2.0-11.1-0.1","battery-v0.2","","""event"",""trial"",""time""
""fullscreenenter"",""1"",""4083""
","
","
","""event"",""trial"",""time""
""fullscreenenter"",""1"",""4083""
","
","","","-1","","","23","5903","1505","&#9761;","elianto","#3366ff99","-1","-1","1","+10","[]","0","0","2","","","","","","","",""
"pit-trial","43","446273","0.0-2.0-11.1-1.1","battery-v0.2","","""event"",""trial"",""time""
""fullscreenenter"",""1"",""4083""
","
","
","""event"",""trial"",""time""
""fullscreenenter"",""1"",""4083""
","
","","","473.80000000074506","","","23","5903","1505","&#9761;","elianto","#3366ff99","-1"," ","0","0","[1331.300000000745]","1","0","2","","","","","","","",""
"pit-trial","44","449294","0.0-2.0-11.1-2.1","battery-v0.2","","""event"",""trial"",""time""
""fullscreenenter"",""1"",""4083""
","
","
","""event"",""trial"",""time""
""fullscreenenter"",""1"",""4083""
","
","","","160.10000000149012","","","23","5903","1505","&#9761;","elianto","#3366ff99","-1"," ","0","0","[1010.1999999992549]","1","0","2","","","","","","","",""
"pit-trial","45","452313","0.0-2.0-11.1-3.1","battery-v0.2","","""event"",""trial"",""time""
""fullscreenenter"",""1"",""4083""
","
","
","""event"",""trial"",""time""
""fullscreenenter"",""1"",""4083""
","
","","","145.19999999925494","","","23","5903","1505","&#9761;","elianto","#3366ff99","-1"," ","0","+10","[1001.5]","1","0","2","","","","","","","",""
"pit-trial","46","455406","0.0-2.0-11.1-4.1","battery-v0.2","","""event"",""trial"",""time""
""fullscreenenter"",""1"",""4083""
","
","
","""event"",""trial"",""time""
""fullscreenenter"",""1"",""4083""
","
","","","221.10000000149012","","","23","5903","1505","&#9761;","elianto","#3366ff99","-1"," ","0","0","[1077.7999999970198]","1","0","2","","","","","","","",""
"pit-trial","47","458478","0.0-2.0-11.2-0.2","battery-v0.2","","""event"",""trial"",""time""
""fullscreenenter"",""1"",""4083""
","
","
","""event"",""trial"",""time""
""fullscreenenter"",""1"",""4083""
","
","","","204.90000000223517","","","23","5903","1505","&#9761;","elianto","#3366ff99","-1"," ","0","0","[1055.800000000745]","1","0","2","","","","","","","",""
"pit-trial","48","463353","0.0-2.0-11.2-1.2","battery-v0.2","","""event"",""trial"",""time""
""fullscreenenter"",""1"",""4083""
","
","
","""event"",""trial"",""time""
""fullscreenenter"",""1"",""4083""
","
","","","-1","","","23","5903","1505","&#9761;","elianto","#3366ff99","-1","-1","1","+10","[]","0","0","2","","","","","","","",""
"pit-trial","49","468222","0.0-2.0-11.2-2.2","battery-v0.2","","""event"",""trial"",""time""
""fullscreenenter"",""1"",""4083""
","
","
","""event"",""trial"",""time""
""fullscreenenter"",""1"",""4083""
","
","","","-1","","","23","5903","1505","&#9761;","elianto","#3366ff99","-1","-1","1","+10","[]","0","0","2","","","","","","","",""
"pit-trial","50","473097","0.0-2.0-11.2-3.2","battery-v0.2","","""event"",""trial"",""time""
""fullscreenenter"",""1"",""4083""
","
","
","""event"",""trial"",""time""
""fullscreenenter"",""1"",""4083""
","
","","","-1","","","23","5903","1505","&#9761;","elianto","#3366ff99","-1","-1","1","0","[]","0","0","2","","","","","","","",""
"pit-trial","51","477966","0.0-2.0-11.2-4.2","battery-v0.2","","""event"",""trial"",""time""
""fullscreenenter"",""1"",""4083""
","
","
","""event"",""trial"",""time""
""fullscreenenter"",""1"",""4083""
","
","","","-1","","","23","5903","1505","&#9761;","elianto","#3366ff99","-1","-1","1","+10","[]","0","0","2","","","","","","","",""
"pit-trial","52","482670","0.0-2.0-11.3-0.3","battery-v0.2","","""event"",""trial"",""time""
""fullscreenenter"",""1"",""4083""
","
","
","""event"",""trial"",""time""
""fullscreenenter"",""1"",""4083""
","
","","","1836.8999999985099","","","23","5903","1505","&#9761;","elianto","#3366ff99","-1"," ","0","0","[2692.89999999851]","1","0","2","","","","","","","",""
"pit-trial","53","485785","0.0-2.0-11.3-1.3","battery-v0.2","","""event"",""trial"",""time""
""fullscreenenter"",""1"",""4083""
","
","
","""event"",""trial"",""time""
""fullscreenenter"",""1"",""4083""
","
","","","247.19999999925494","","","23","5903","1505","&#9761;","elianto","#3366ff99","-1"," ","0","0","[1100.199999999255]","1","0","2","","","","","","","",""
"pit-trial","54","490654","0.0-2.0-11.3-2.3","battery-v0.2","","""event"",""trial"",""time""
""fullscreenenter"",""1"",""4083""
","
","
","""event"",""trial"",""time""
""fullscreenenter"",""1"",""4083""
","
","","","-1","","","23","5903","1505","&#9761;","elianto","#3366ff99","-1","-1","1","+10","[]","0","0","2","","","","","","","",""
"pit-trial","55","495529","0.0-2.0-11.3-3.3","battery-v0.2","","""event"",""trial"",""time""
""fullscreenenter"",""1"",""4083""
","
","
","""event"",""trial"",""time""
""fullscreenenter"",""1"",""4083""
","
","","","-1","","","23","5903","1505","&#9761;","elianto","#3366ff99","-1","-1","1","0","[]","0","0","2","","","","","","","",""
"pit-trial","56","500398","0.0-2.0-11.3-4.3","battery-v0.2","","""event"",""trial"",""time""
""fullscreenenter"",""1"",""4083""
","
","
","""event"",""trial"",""time""
""fullscreenenter"",""1"",""4083""
","
","","","-1","","","23","5903","1505","&#9761;","elianto","#3366ff99","-1","-1","1","+10","[]","0","0","2","","","","","","","",""
"call-function","57","500404","0.0-2.0-12.0","battery-v0.2","","""event"",""trial"",""time""
""fullscreenenter"",""1"",""4083""
","
","
","""event"",""trial"",""time""
""fullscreenenter"",""1"",""4083""
","
","","","","","","","","","","","","","","","","","","","","","","","","","","",""
"pit-instructions","58","533585","0.0-2.0-13.0","battery-v0.2","","""event"",""trial"",""time""
""fullscreenenter"",""1"",""4083""
","
","
","""event"",""trial"",""time""
""fullscreenenter"",""1"",""4083""
","
","","[{""page_index"":0,""viewing_time"":6229.89999999851},{""page_index"":1,""viewing_time"":8666.900000002235},{""page_index"":2,""viewing_time"":3800.099999997765},{""page_index"":3,""viewing_time"":10183.20000000298},{""page_index"":4,""viewing_time"":4299.79999999702}]","33180.800000000745","","","","","","","","","","","","","","","","","","","","","","","",""
"pit-trial","59","538456","0.0-2.0-14.0-0.0","battery-v0.2","","""event"",""trial"",""time""
""fullscreenenter"",""1"",""4083""
","
","
","""event"",""trial"",""time""
""fullscreenenter"",""1"",""4083""
","
","","","-1","","","23","5903","1505","&#9826;","elianto","#f73b6a7A","-1","-1","1","0","[]","0","0","3","","","","","","","",""
"pit-trial","60","541763","0.0-2.0-14.0-1.0","battery-v0.2","","""event"",""trial"",""time""
""fullscreenenter"",""1"",""4083""
","
","
","""event"",""trial"",""time""
""fullscreenenter"",""1"",""4083""
","
","","","442.8999999985099","","","23","5903","1505","&#9826;","elianto","#f73b6a7A","-1"," ","0","-10","[1293.300000000745]","1","0","3","","","","","","","",""
"pit-trial","61","544891","0.0-2.0-14.0-2.0","battery-v0.2","","""event"",""trial"",""time""
""fullscreenenter"",""1"",""4083""
","
","
","""event"",""trial"",""time""
""fullscreenenter"",""1"",""4083""
","
","","","254","","","23","5903","1505","&#9826;","elianto","#f73b6a7A","-1"," ","0","-10","[1113.300000000745]","1","0","3","","","","","","","",""
"pit-trial","62","549763","0.0-2.0-14.0-3.0","battery-v0.2","","""event"",""trial"",""time""
""fullscreenenter"",""1"",""4083""
","
","
","""event"",""trial"",""time""
""fullscreenenter"",""1"",""4083""
","
","","","-1","","","23","5903","1505","&#9826;","elianto","#f73b6a7A","-1","-1","1","-10","[]","0","0","3","","","","","","","",""
"pit-trial","63","554635","0.0-2.0-14.0-4.0","battery-v0.2","","""event"",""trial"",""time""
""fullscreenenter"",""1"",""4083""
","
","
","""event"",""trial"",""time""
""fullscreenenter"",""1"",""4083""
","
","","","-1","","","23","5903","1505","&#9826;","elianto","#f73b6a7A","-1","-1","1","0","[]","0","0","3","","","","","","","",""
"pit-trial","64","559511","0.0-2.0-14.1-0.1","battery-v0.2","","""event"",""trial"",""time""
""fullscreenenter"",""1"",""4083""
","
","
","""event"",""trial"",""time""
""fullscreenenter"",""1"",""4083""
","
","","","-1","","","23","5903","1505","&#9826;","elianto","#f73b6a7A","-1","-1","1","0","[]","0","0","3","","","","","","","",""
"pit-trial","65","564381","0.0-2.0-14.1-1.1","battery-v0.2","","""event"",""trial"",""time""
""fullscreenenter"",""1"",""4083""
","
","
","""event"",""trial"",""time""
""fullscreenenter"",""1"",""4083""
","
","","","-1","","","23","5903","1505","&#9826;","elianto","#f73b6a7A","-1","-1","1","0","[]","0","0","3","","","","","","","",""
"pit-trial","66","569250","0.0-2.0-14.1-2.1","battery-v0.2","","""event"",""trial"",""time""
""fullscreenenter"",""1"",""4083""
","
","
","""event"",""trial"",""time""
""fullscreenenter"",""1"",""4083""
","
","","","-1","","","23","5903","1505","&#9826;","elianto","#f73b6a7A","-1","-1","1","0","[]","0","0","3","","","","","","","",""
"pit-trial","67","574115","0.0-2.0-14.1-3.1","battery-v0.2","","""event"",""trial"",""time""
""fullscreenenter"",""1"",""4083""
","
","
","""event"",""trial"",""time""
""fullscreenenter"",""1"",""4083""
","
","","","-1","","","23","5903","1505","&#9826;","elianto","#f73b6a7A","-1","-1","1","-10","[]","0","0","3","","","","","","","",""
"pit-trial","68","578989","0.0-2.0-14.1-4.1","battery-v0.2","","""event"",""trial"",""time""
""fullscreenenter"",""1"",""4083""
","
","
","""event"",""trial"",""time""
""fullscreenenter"",""1"",""4083""
","
","","","-1","","","23","5903","1505","&#9826;","elianto","#f73b6a7A","-1","-1","1","0","[]","0","0","3","","","","","","","",""
"pit-trial","69","583858","0.0-2.0-14.2-0.2","battery-v0.2","","""event"",""trial"",""time""
""fullscreenenter"",""1"",""4083""
","
","
","""event"",""trial"",""time""
""fullscreenenter"",""1"",""4083""
","
","","","-1","","","23","5903","1505","&#9826;","elianto","#f73b6a7A","-1","-1","1","0","[]","0","0","3","","","","","","","",""
"pit-trial","70","588733","0.0-2.0-14.2-1.2","battery-v0.2","","""event"",""trial"",""time""
""fullscreenenter"",""1"",""4083""
","
","
","""event"",""trial"",""time""
""fullscreenenter"",""1"",""4083""
","
","","","-1","","","23","5903","1505","&#9826;","elianto","#f73b6a7A","-1","-1","1","0","[]","0","0","3","","","","","","","",""
"pit-trial","71","593605","0.0-2.0-14.2-2.2","battery-v0.2","","""event"",""trial"",""time""
""fullscreenenter"",""1"",""4083""
","
","
","""event"",""trial"",""time""
""fullscreenenter"",""1"",""4083""
","
","","","-1","","","23","5903","1505","&#9826;","elianto","#f73b6a7A","-1","-1","1","0","[]","0","0","3","","","","","","","",""
"pit-trial","72","598477","0.0-2.0-14.2-3.2","battery-v0.2","","""event"",""trial"",""time""
""fullscreenenter"",""1"",""4083""
","
","
","""event"",""trial"",""time""
""fullscreenenter"",""1"",""4083""
","
","","","-1","","","23","5903","1505","&#9826;","elianto","#f73b6a7A","-1","-1","1","-10","[]","0","0","3","","","","","","","",""
"pit-trial","73","603347","0.0-2.0-14.2-4.2","battery-v0.2","","""event"",""trial"",""time""
""fullscreenenter"",""1"",""4083""
","
","
","""event"",""trial"",""time""
""fullscreenenter"",""1"",""4083""
","
","","","-1","","","23","5903","1505","&#9826;","elianto","#f73b6a7A","-1","-1","1","0","[]","0","0","3","","","","","","","",""
"pit-trial","74","608221","0.0-2.0-14.3-0.3","battery-v0.2","","""event"",""trial"",""time""
""fullscreenenter"",""1"",""4083""
","
","
","""event"",""trial"",""time""
""fullscreenenter"",""1"",""4083""
","
","","","-1","","","23","5903","1505","&#9826;","elianto","#f73b6a7A","-1","-1","1","0","[]","0","0","3","","","","","","","",""
"pit-trial","75","613090","0.0-2.0-14.3-1.3","battery-v0.2","","""event"",""trial"",""time""
""fullscreenenter"",""1"",""4083""
","
","
","""event"",""trial"",""time""
""fullscreenenter"",""1"",""4083""
","
","","","-1","","","23","5903","1505","&#9826;","elianto","#f73b6a7A","-1","-1","1","0","[]","0","0","3","","","","","","","",""
"pit-trial","76","617965","0.0-2.0-14.3-2.3","battery-v0.2","","""event"",""trial"",""time""
""fullscreenenter"",""1"",""4083""
","
","
","""event"",""trial"",""time""
""fullscreenenter"",""1"",""4083""
","
","","","-1","","","23","5903","1505","&#9826;","elianto","#f73b6a7A","-1","-1","1","0","[]","0","0","3","","","","","","","",""
"pit-trial","77","622834","0.0-2.0-14.3-3.3","battery-v0.2","","""event"",""trial"",""time""
""fullscreenenter"",""1"",""4083""
","
","
","""event"",""trial"",""time""
""fullscreenenter"",""1"",""4083""
","
","","","-1","","","23","5903","1505","&#9826;","elianto","#f73b6a7A","-1","-1","1","-10","[]","0","0","3","","","","","","","",""
"pit-trial","78","627708","0.0-2.0-14.3-4.3","battery-v0.2","","""event"",""trial"",""time""
""fullscreenenter"",""1"",""4083""
","
","
","""event"",""trial"",""time""
""fullscreenenter"",""1"",""4083""
","
","","","-1","","","23","5903","1505","&#9826;","elianto","#f73b6a7A","-1","-1","1","0","[]","0","0","3","","","","","","","",""
"call-function","79","627715","0.0-2.0-15.0","battery-v0.2","","""event"",""trial"",""time""
""fullscreenenter"",""1"",""4083""
","
","
","""event"",""trial"",""time""
""fullscreenenter"",""1"",""4083""
","
","","","","","","","","","","","","","","","","","","","","","","","","","","",""
"pit-instructions","80","682418","0.0-2.0-16.0","battery-v0.2","","""event"",""trial"",""time""
""fullscreenenter"",""1"",""4083""
","
","
","""event"",""trial"",""time""
""fullscreenenter"",""1"",""4083""
","
","","[{""page_index"":0,""viewing_time"":24368.300000000745},{""page_index"":1,""viewing_time"":18082.599999997765},{""page_index"":2,""viewing_time"":5950.60000000149},{""page_index"":3,""viewing_time"":6300.5}]","54702.89999999851","","","","","","","","","","","","","","","","","","","","","","","",""
"pit-trial","81","687290","0.0-2.0-17.0-0.0","battery-v0.2","","""event"",""trial"",""time""
""fullscreenenter"",""1"",""4083""
","
","
","""event"",""trial"",""time""
""fullscreenenter"",""1"",""4083""
","
","","","-1","","","23","5903","1505","&#9789;","elianto","#f73b6a7A"," ","-1","0","-10","[]","0","0","4","","","","","","","",""
"pit-trial","82","692166","0.0-2.0-17.0-1.0","battery-v0.2","","""event"",""trial"",""time""
""fullscreenenter"",""1"",""4083""
","
","
","""event"",""trial"",""time""
""fullscreenenter"",""1"",""4083""
","
","","","-1","","","23","5903","1505","&#9789;","elianto","#f73b6a7A"," ","-1","0","-10","[]","0","0","4","","","","","","","",""
"pit-trial","83","696036","0.0-2.0-17.0-2.0","battery-v0.2","","""event"",""trial"",""time""
""fullscreenenter"",""1"",""4083""
","
","
","""event"",""trial"",""time""
""fullscreenenter"",""1"",""4083""
","
","","","1000.3999999985099","","","23","5903","1505","&#9789;","elianto","#f73b6a7A"," "," ","1","0","[1855.300000000745]","1","0","4","","","","","","","",""
"pit-trial","84","700906","0.0-2.0-17.0-3.0","battery-v0.2","","""event"",""trial"",""time""
""fullscreenenter"",""1"",""4083""
","
","
","""event"",""trial"",""time""
""fullscreenenter"",""1"",""4083""
","
","","","-1","","","23","5903","1505","&#9789;","elianto","#f73b6a7A"," ","-1","0","0","[]","0","0","4","","","","","","","",""
"pit-trial","85","705782","0.0-2.0-17.0-4.0","battery-v0.2","","""event"",""trial"",""time""
""fullscreenenter"",""1"",""4083""
","
","
","""event"",""trial"",""time""
""fullscreenenter"",""1"",""4083""
","
","","","-1","","","23","5903","1505","&#9789;","elianto","#f73b6a7A"," ","-1","0","-10","[]","0","0","4","","","","","","","",""
"pit-trial","86","710649","0.0-2.0-17.1-0.1","battery-v0.2","","""event"",""trial"",""time""
""fullscreenenter"",""1"",""4083""
","
","
","""event"",""trial"",""time""
""fullscreenenter"",""1"",""4083""
","
","","","-1","","","23","5903","1505","&#9789;","elianto","#f73b6a7A"," ","-1","0","-10","[]","0","0","4","","","","","","","",""
"pit-trial","87","715523","0.0-2.0-17.1-1.1","battery-v0.2","","""event"",""trial"",""time""
""fullscreenenter"",""1"",""4083""
","
","
","""event"",""trial"",""time""
""fullscreenenter"",""1"",""4083""
","
","","","-1","","","23","5903","1505","&#9789;","elianto","#f73b6a7A"," ","-1","0","-10","[]","0","0","4","","","","","","","",""
"pit-trial","88","720396","0.0-2.0-17.1-2.1","battery-v0.2","","""event"",""trial"",""time""
""fullscreenenter"",""1"",""4083""
","
","
","""event"",""trial"",""time""
""fullscreenenter"",""1"",""4083""
","
","","","-1","","","23","5903","1505","&#9789;","elianto","#f73b6a7A"," ","-1","0","-10","[]","0","0","4","","","","","","","",""
"pit-trial","89","725265","0.0-2.0-17.1-3.1","battery-v0.2","","""event"",""trial"",""time""
""fullscreenenter"",""1"",""4083""
","
","
","""event"",""trial"",""time""
""fullscreenenter"",""1"",""4083""
","
","","","-1","","","23","5903","1505","&#9789;","elianto","#f73b6a7A"," ","-1","0","0","[]","0","0","4","","","","","","","",""
"pit-trial","90","730140","0.0-2.0-17.1-4.1","battery-v0.2","","""event"",""trial"",""time""
""fullscreenenter"",""1"",""4083""
","
","
","""event"",""trial"",""time""
""fullscreenenter"",""1"",""4083""
","
","","","-1","","","23","5903","1505","&#9789;","elianto","#f73b6a7A"," ","-1","0","-10","[]","0","0","4","","","","","","","",""
"pit-trial","91","735009","0.0-2.0-17.2-0.2","battery-v0.2","","""event"",""trial"",""time""
""fullscreenenter"",""1"",""4083""
","
","
","""event"",""trial"",""time""
""fullscreenenter"",""1"",""4083""
","
","","","-1","","","23","5903","1505","&#9789;","elianto","#f73b6a7A"," ","-1","0","-10","[]","0","0","4","","","","","","","",""
"pit-trial","92","739884","0.0-2.0-17.2-1.2","battery-v0.2","","""event"",""trial"",""time""
""fullscreenenter"",""1"",""4083""
","
","
","""event"",""trial"",""time""
""fullscreenenter"",""1"",""4083""
","
","","","-1","","","23","5903","1505","&#9789;","elianto","#f73b6a7A"," ","-1","0","-10","[]","0","0","4","","","","","","","",""
"pit-trial","93","744753","0.0-2.0-17.2-2.2","battery-v0.2","","""event"",""trial"",""time""
""fullscreenenter"",""1"",""4083""
","
","
","""event"",""trial"",""time""
""fullscreenenter"",""1"",""4083""
","
","","","-1","","","23","5903","1505","&#9789;","elianto","#f73b6a7A"," ","-1","0","-10","[]","0","0","4","","","","","","","",""
"pit-trial","94","749627","0.0-2.0-17.2-3.2","battery-v0.2","","""event"",""trial"",""time""
""fullscreenenter"",""1"",""4083""
","
","
","""event"",""trial"",""time""
""fullscreenenter"",""1"",""4083""
","
","","","-1","","","23","5903","1505","&#9789;","elianto","#f73b6a7A"," ","-1","0","0","[]","0","0","4","","","","","","","",""
"pit-trial","95","754497","0.0-2.0-17.2-4.2","battery-v0.2","","""event"",""trial"",""time""
""fullscreenenter"",""1"",""4083""
","
","
","""event"",""trial"",""time""
""fullscreenenter"",""1"",""4083""
","
","","","-1","","","23","5903","1505","&#9789;","elianto","#f73b6a7A"," ","-1","0","-10","[]","0","0","4","","","","","","","",""
"pit-trial","96","759371","0.0-2.0-17.3-0.3","battery-v0.2","","""event"",""trial"",""time""
""fullscreenenter"",""1"",""4083""
","
","
","""event"",""trial"",""time""
""fullscreenenter"",""1"",""4083""
","
","","","-1","","","23","5903","1505","&#9789;","elianto","#f73b6a7A"," ","-1","0","-10","[]","0","0","4","","","","","","","",""
"pit-trial","97","764241","0.0-2.0-17.3-1.3","battery-v0.2","","""event"",""trial"",""time""
""fullscreenenter"",""1"",""4083""
","
","
","""event"",""trial"",""time""
""fullscreenenter"",""1"",""4083""
","
","","","-1","","","23","5903","1505","&#9789;","elianto","#f73b6a7A"," ","-1","0","-10","[]","0","0","4","","","","","","","",""
"pit-trial","98","769114","0.0-2.0-17.3-2.3","battery-v0.2","","""event"",""trial"",""time""
""fullscreenenter"",""1"",""4083""
","
","
","""event"",""trial"",""time""
""fullscreenenter"",""1"",""4083""
","
","","","-1","","","23","5903","1505","&#9789;","elianto","#f73b6a7A"," ","-1","0","-10","[]","0","0","4","","","","","","","",""
"pit-trial","99","772272","0.0-2.0-17.3-3.3","battery-v0.2","","""event"",""trial"",""time""
""fullscreenenter"",""1"",""4083""
","
","
","""event"",""trial"",""time""
""fullscreenenter"",""1"",""4083""
","
","","","290.9000000022352","","","23","5903","1505","&#9789;","elianto","#f73b6a7A"," "," ","1","-10","[1147.199999999255]","1","0","4","","","","","","","",""
"pit-trial","100","775168","0.0-2.0-17.3-4.3","battery-v0.2","","""event"",""trial"",""time""
""fullscreenenter"",""1"",""4083""
","
","
","""event"",""trial"",""time""
""fullscreenenter"",""1"",""4083""
","
","","","35.900000002235174","","","23","5903","1505","&#9789;","elianto","#f73b6a7A"," "," ","1","0","[886.1999999992549]","1","0","4","","","","","","","",""
"call-function","101","775174","0.0-2.0-18.0","battery-v0.2","","""event"",""trial"",""time""
""fullscreenenter"",""1"",""4083""
","
","
","""event"",""trial"",""time""
""fullscreenenter"",""1"",""4083""
","
","","","","","","","","","","","","","","","","","","","","","","","","","","",""
"pit-instructions","102","841968","0.0-2.0-19.0","battery-v0.2","","""event"",""trial"",""time""
""fullscreenenter"",""1"",""4083""
","
","
","""event"",""trial"",""time""
""fullscreenenter"",""1"",""4083""
","
","","[{""page_index"":0,""viewing_time"":6507.199999999255},{""page_index"":1,""viewing_time"":4616.5},{""page_index"":2,""viewing_time"":12167},{""page_index"":3,""viewing_time"":7583},{""page_index"":4,""viewing_time"":8467},{""page_index"":5,""viewing_time"":8048.10000000149},{""page_index"":6,""viewing_time"":8835.099999997765},{""page_index"":7,""viewing_time"":6815.900000002235},{""page_index"":8,""viewing_time"":3752.599999997765}]","66793.5","","","","","","","","","","","","","","","","","","","","","","","",""
"pit-comprehension","103","846901","0.0-2.0-20.0-0.0","battery-v0.2","","""event"",""trial"",""time""
""fullscreenenter"",""1"",""4083""
","
","
","""event"",""trial"",""time""
""fullscreenenter"",""1"",""4083""
","
","","","4924.099999997765","[""SPACE""]","0","23","5903","1505","","","","","","","","","","","","","","","","","","",""
"pit-instructions","104","850216","0.0-2.0-20.0-1.0","battery-v0.2","","""event"",""trial"",""time""
""fullscreenenter"",""1"",""4083""
","
","
","""event"",""trial"",""time""
""fullscreenenter"",""1"",""4083""
","
","","[{""page_index"":0,""viewing_time"":3277.900000002235}]","3278.60000000149","","","","","","","","","","","","","","","","","","","","","","","",""
"pit-comprehension","105","856214","0.0-2.0-21.0-0.0","battery-v0.2","","""event"",""trial"",""time""
""fullscreenenter"",""1"",""4083""
","
","
","""event"",""trial"",""time""
""fullscreenenter"",""1"",""4083""
","
","","","5990.900000002235","[""10""]","0","23","5903","1505","","","","","","","","","","","","","","","","","","",""
"pit-instructions","106","861218","0.0-2.0-21.0-1.0","battery-v0.2","","""event"",""trial"",""time""
""fullscreenenter"",""1"",""4083""
","
","
","""event"",""trial"",""time""
""fullscreenenter"",""1"",""4083""
","
","","[{""page_index"":0,""viewing_time"":4970.5}]","4971.599999997765","","","","","","","","","","","","","","","","","","","","","","","",""
"pit-comprehension","107","868060","0.0-2.0-22.0-0.0","battery-v0.2","","""event"",""trial"",""time""
""fullscreenenter"",""1"",""4083""
","
","
","""event"",""trial"",""time""
""fullscreenenter"",""1"",""4083""
","
","","","6835","[""0""]","0","23","5903","1505","","","","","","","","","","","","","","","","","","",""
"pit-instructions","108","869622","0.0-2.0-22.0-1.0","battery-v0.2","","""event"",""trial"",""time""
""fullscreenenter"",""1"",""4083""
","
","
","""event"",""trial"",""time""
""fullscreenenter"",""1"",""4083""
","
","","[{""page_index"":0,""viewing_time"":1526.1000000014901}]","1526.800000000745","","","","","","","","","","","","","","","","","","","","","","","",""
"pit-comprehension","109","880920","0.0-2.0-23.0-0.0","battery-v0.2","","""event"",""trial"",""time""
""fullscreenenter"",""1"",""4083""
","
","
","""event"",""trial"",""time""
""fullscreenenter"",""1"",""4083""
","
","","","11290.5","[""False""]","1","23","5903","1505","","","","","","","","","","","","","","","","","","",""
"pit-instructions","110","887610","0.0-2.0-23.0-1.0","battery-v0.2","","""event"",""trial"",""time""
""fullscreenenter"",""1"",""4083""
","
","
","""event"",""trial"",""time""
""fullscreenenter"",""1"",""4083""
","
","","[{""page_index"":0,""viewing_time"":6656.5}]","6657.5","","","","","","","","","","","","","","","","","","","","","","","",""
"pit-instructions","111","889321","0.0-2.0-23.0-2.0-0.0","battery-v0.2","","""event"",""trial"",""time""
""fullscreenenter"",""1"",""4083""
","
","
","""event"",""trial"",""time""
""fullscreenenter"",""1"",""4083""
","
","","[{""page_index"":0,""viewing_time"":1703}]","1704.0999999977648","","","","","","","","","","","","","","","","","","","","","","","",""
"pit-comprehension","112","897873","0.0-2.0-23.1-0.1","battery-v0.2","","""event"",""trial"",""time""
""fullscreenenter"",""1"",""4083""
","
","
","""event"",""trial"",""time""
""fullscreenenter"",""1"",""4083""
","
","","","8545.300000000745","[""True""]","0","23","5903","1505","","","","","","","","","","","","","","","","","","",""
"pit-instructions","113","900550","0.0-2.0-23.1-1.1","battery-v0.2","","""event"",""trial"",""time""
""fullscreenenter"",""1"",""4083""
","
","
","""event"",""trial"",""time""
""fullscreenenter"",""1"",""4083""
","
","","[{""page_index"":0,""viewing_time"":2640.800000000745}]","2641.5","","","","","","","","","","","","","","","","","","","","","","","",""
"pit-comprehension","114","907975","0.0-2.0-24.0-0.0","battery-v0.2","","""event"",""trial"",""time""
""fullscreenenter"",""1"",""4083""
","
","
","""event"",""trial"",""time""
""fullscreenenter"",""1"",""4083""
","
","","","7418.400000002235","[""True""]","0","23","5903","1505","","","","","","","","","","","","","","","","","","",""
"pit-instructions","115","909459","0.0-2.0-24.0-1.0","battery-v0.2","","""event"",""trial"",""time""
""fullscreenenter"",""1"",""4083""
","
","
","""event"",""trial"",""time""
""fullscreenenter"",""1"",""4083""
","
","","[{""page_index"":0,""viewing_time"":1448.4000000022352}]","1449.300000000745","","","","","","","","","","","","","","","","","","","","","","","",""
"pit-comprehension","116","915862","0.0-2.0-25.0-0.0","battery-v0.2","","""event"",""trial"",""time""
""fullscreenenter"",""1"",""4083""
","
","
","""event"",""trial"",""time""
""fullscreenenter"",""1"",""4083""
","
","","","6395.699999999255","[""True""]","0","23","5903","1505","","","","","","","","","","","","","","","","","","",""
"pit-instructions","117","919492","0.0-2.0-25.0-1.0","battery-v0.2","","""event"",""trial"",""time""
""fullscreenenter"",""1"",""4083""
","
","
","""event"",""trial"",""time""
""fullscreenenter"",""1"",""4083""
","
","","[{""page_index"":0,""viewing_time"":3593.300000000745}]","3593.900000002235","","","","","","","","","","","","","","","","","","","","","","","",""
"pit-comprehension","118","924176","0.0-2.0-26.0-0.0","battery-v0.2","","""event"",""trial"",""time""
""fullscreenenter"",""1"",""4083""
","
","
","""event"",""trial"",""time""
""fullscreenenter"",""1"",""4083""
","
","","","4675.699999999255","[""False""]","0","23","5903","1505","","","","","","","","","","","","","","","","","","",""
"pit-instructions","119","926333","0.0-2.0-26.0-1.0","battery-v0.2","","""event"",""trial"",""time""
""fullscreenenter"",""1"",""4083""
","
","
","""event"",""trial"",""time""
""fullscreenenter"",""1"",""4083""
","
","","[{""page_index"":0,""viewing_time"":2119.699999999255}]","2120.599999997765","","","","","","","","","","","","","","","","","","","","","","","",""
"pit-instructions","120","942656","0.0-3.0","battery-v0.2","","""event"",""trial"",""time""
""fullscreenenter"",""1"",""4083""
","
","
","""event"",""trial"",""time""
""fullscreenenter"",""1"",""4083""
","
","","[{""page_index"":0,""viewing_time"":3774.400000002235},{""page_index"":1,""viewing_time"":5196.599999997765},{""page_index"":2,""viewing_time"":7345.400000002235}]","16317","","","","","","","","","","","","","","","","","","","","","","","",""
"pit-trial","121","946531","0.0-4.0","battery-v0.2","","""event"",""trial"",""time""
""fullscreenenter"",""1"",""4083""
","
","
","""event"",""trial"",""time""
""fullscreenenter"",""1"",""4083""
","
","","","999.9000000022352","","","23","5903","1505","&#9752;","elianto","#f73b6a7A"," "," ","1","0","[1855.8999999985099]","1","1","","","5903","1","3","3","lose","go","0"
"pit-trial","122","950115","0.0-5.0","battery-v0.2","","""event"",""trial"",""time""
""fullscreenenter"",""1"",""4083""
","
","
","""event"",""trial"",""time""
""fullscreenenter"",""1"",""4083""
","
","","","715.6000000014901","","","23","5903","1505","&#9733;","elianto","#3366ff99","-1"," ","0","0","[1570.9000000022352]","1","1","","","5903","2","2","2","win","no-go","0"
"pit-trial","123","953614","0.0-6.0","battery-v0.2","","""event"",""trial"",""time""
""fullscreenenter"",""1"",""4083""
","
","
","""event"",""trial"",""time""
""fullscreenenter"",""1"",""4083""
","
","","","636.5","","","23","5903","1505","&#9730;","elianto","#3366ff99"," "," ","1","+10","[1489.9000000022352]","1","1","","","5903","3","1","1","win","go","0"
"pit-trial","124","956990","0.0-7.0","battery-v0.2","","""event"",""trial"",""time""
""fullscreenenter"",""1"",""4083""
","
","
","""event"",""trial"",""time""
""fullscreenenter"",""1"",""4083""
","
","","","504.69999999925494","","","23","5903","1505","&#9728;","elianto","#f73b6a7A","-1"," ","0","-10","[1359.0999999977648]","1","1","","","5903","4","0","4","lose","no-go","0"
"pit-trial","125","960422","0.0-8.0","battery-v0.2","","""event"",""trial"",""time""
""fullscreenenter"",""1"",""4083""
","
","
","""event"",""trial"",""time""
""fullscreenenter"",""1"",""4083""
","
","","","561.1000000014901","","","23","5903","1505","&#9730;","elianto","#3366ff99"," "," ","1","0","[1416.5]","1","1","","","5903","5","1","1","win","go","1"
"pit-trial","126","964198","0.0-9.0","battery-v0.2","","""event"",""trial"",""time""
""fullscreenenter"",""1"",""4083""
","
","
","""event"",""trial"",""time""
""fullscreenenter"",""1"",""4083""
","
","","","907.3000000007451","","","23","5903","1505","&#9728;","elianto","#f73b6a7A","-1"," ","0","0","[1764.2000000029802]","1","1","","","5903","6","0","4","lose","no-go","1"
"pit-trial","127","967790","0.0-10.0","battery-v0.2","","""event"",""trial"",""time""
""fullscreenenter"",""1"",""4083""
","
","
","""event"",""trial"",""time""
""fullscreenenter"",""1"",""4083""
","
","","","720.9000000022352","","","23","5903","1505","&#9733;","elianto","#3366ff99","-1"," ","0","0","[1574.699999999255]","1","1","","","5903","7","2","2","win","no-go","0"
"pit-trial","128","971410","0.0-11.0","battery-v0.2","","""event"",""trial"",""time""
""fullscreenenter"",""1"",""4083""
","
","
","""event"",""trial"",""time""
""fullscreenenter"",""1"",""4083""
","
","","","743.6000000014901","","","23","5903","1505","&#9752;","elianto","#f73b6a7A"," "," ","1","0","[1600.6000000014901]","1","1","","","5903","8","3","3","lose","go","0"
"pit-trial","129","974936","0.0-12.0","battery-v0.2","","""event"",""trial"",""time""
""fullscreenenter"",""1"",""4083""
","
","
","""event"",""trial"",""time""
""fullscreenenter"",""1"",""4083""
","
","","","659.8000000007451","","","23","5903","1505","&#9728;","elianto","#f73b6a7A","-1"," ","0","-10","[1512]","1","1","","","5903","9","0","4","lose","no-go","0"
"pit-trial","130","978520","0.0-13.0","battery-v0.2","","""event"",""trial"",""time""
""fullscreenenter"",""1"",""4083""
","
","
","""event"",""trial"",""time""
""fullscreenenter"",""1"",""4083""
","
","","","714.6000000014901","","","23","5903","1505","&#9752;","elianto","#f73b6a7A"," "," ","1","0","[1569.1000000014901]","1","1","","","5903","10","3","3","lose","go","0"
"pit-trial","131","981928","0.0-14.0","battery-v0.2","","""event"",""trial"",""time""
""fullscreenenter"",""1"",""4083""
","
","
","""event"",""trial"",""time""
""fullscreenenter"",""1"",""4083""
","
","","","538.9000000022352","","","23","5903","1505","&#9733;","elianto","#3366ff99","-1"," ","0","0","[1394.5]","1","1","","","5903","11","2","2","win","no-go","0"
"pit-trial","132","985278","0.0-15.0","battery-v0.2","","""event"",""trial"",""time""
""fullscreenenter"",""1"",""4083""
","
","
","""event"",""trial"",""time""
""fullscreenenter"",""1"",""4083""
","
","","","478.80000000074506","","","23","5903","1505","&#9730;","elianto","#3366ff99"," "," ","1","+10","[1334]","1","1","","","5903","12","1","1","win","go","0"
"pit-trial","133","988648","0.0-16.0","battery-v0.2","","""event"",""trial"",""time""
""fullscreenenter"",""1"",""4083""
","
","
","""event"",""trial"",""time""
""fullscreenenter"",""1"",""4083""
","
","","","501.5","","","23","5903","1505","&#9733;","elianto","#3366ff99","-1"," ","0","0","[1358.5999999977648]","1","1","","","5903","13","2","2","win","no-go","0"
"pit-trial","134","992728","0.0-17.0","battery-v0.2","","""event"",""trial"",""time""
""fullscreenenter"",""1"",""4083""
","
","
","""event"",""trial"",""time""
""fullscreenenter"",""1"",""4083""
","
","","","1210.699999999255","","","23","5903","1505","&#9752;","elianto","#f73b6a7A"," "," ","1","0","[2062.699999999255]","1","1","","","5903","14","3","3","lose","go","0"
"pit-trial","135","997598","0.0-18.0","battery-v0.2","","""event"",""trial"",""time""
""fullscreenenter"",""1"",""4083""
","
","
","""event"",""trial"",""time""
""fullscreenenter"",""1"",""4083""
","
","","","-1","","","23","5903","1505","&#9728;","elianto","#f73b6a7A","-1","-1","1","0","[]","0","1","","","5903","15","0","4","lose","no-go","0"
"pit-trial","136","1001070","0.0-19.0","battery-v0.2","","""event"",""trial"",""time""
""fullscreenenter"",""1"",""4083""
","
","
","""event"",""trial"",""time""
""fullscreenenter"",""1"",""4083""
","
","","","609.3000000007451","","","23","5903","1505","&#9730;","elianto","#3366ff99"," "," ","1","+10","[1460.699999999255]","1","1","","","5903","16","1","1","win","go","0"
"pit-trial","137","1005288","0.0-20.0","battery-v0.2","","""event"",""trial"",""time""
""fullscreenenter"",""1"",""4083""
","
","
","""event"",""trial"",""time""
""fullscreenenter"",""1"",""4083""
","
","","","1348.1000000014901","","","23","5903","1505","&#9733;","elianto","#3366ff99","-1"," ","0","+10","[2203.7000000029802]","1","1","","","5903","17","2","2","win","no-go","1"
"pit-trial","138","1009240","0.0-21.0","battery-v0.2","","""event"",""trial"",""time""
""fullscreenenter"",""1"",""4083""
","
","
","""event"",""trial"",""time""
""fullscreenenter"",""1"",""4083""
","
","","","1078.9000000022352","","","23","5903","1505","&#9752;","elianto","#f73b6a7A"," "," ","1","0","[1935.5]","1","1","","","5903","18","3","3","lose","go","0"
"pit-trial","139","1012718","0.0-22.0","battery-v0.2","","""event"",""trial"",""time""
""fullscreenenter"",""1"",""4083""
","
","
","""event"",""trial"",""time""
""fullscreenenter"",""1"",""4083""
","
","","","610.6999999992549","","","23","5903","1505","&#9728;","elianto","#f73b6a7A","-1"," ","0","-10","[1466.5]","1","1","","","5903","19","0","4","lose","no-go","0"
"pit-trial","140","1016365","0.0-23.0","battery-v0.2","","""event"",""trial"",""time""
""fullscreenenter"",""1"",""4083""
","
","
","""event"",""trial"",""time""
""fullscreenenter"",""1"",""4083""
","
","","","784.8000000007451","","","23","5903","1505","&#9730;","elianto","#3366ff99"," "," ","1","+10","[1635.300000000745]","1","1","","","5903","20","1","1","win","go","0"
"pit-instructions","141","1029475","0.0-24.0","battery-v0.2","","""event"",""trial"",""time""
""fullscreenenter"",""1"",""4083""
","
","
","""event"",""trial"",""time""
""fullscreenenter"",""1"",""4083""
","
","","[{""page_index"":0,""viewing_time"":5958.800000000745},{""page_index"":1,""viewing_time"":7142.199999999255}]","13102.400000002235","","","","","","","","","","","","","","","","","","","","","","","",""
"pit-trial","142","1033374","0.0-25.0","battery-v0.2","","""event"",""trial"",""time""
""fullscreenenter"",""1"",""4083""
","
","
","""event"",""trial"",""time""
""fullscreenenter"",""1"",""4083""
","
","","","1022","","","23","5903","1505","h","elianto","#f73b6a7A","-1"," ","0","-10","[1880.8999999985099]","1","2","","","5903","21","3","4","lose","no-go","0"
"pit-trial","143","1038017","0.0-26.0","battery-v0.2","","""event"",""trial"",""time""
""fullscreenenter"",""1"",""4083""
","
","
","""event"",""trial"",""time""
""fullscreenenter"",""1"",""4083""
","
","","","1762.199999999255","","","23","5903","1505","r","elianto","#3366ff99","-1"," ","0","+10","[2622]","1","2","","","5903","22","1","2","win","no-go","1"
"pit-trial","144","1042033","0.0-27.0","battery-v0.2","","""event"",""trial"",""time""
""fullscreenenter"",""1"",""4083""
","
","
","""event"",""trial"",""time""
""fullscreenenter"",""1"",""4083""
","
","","","1150.199999999255","","","23","5903","1505","m","elianto","#f73b6a7A"," "," ","1","0","[2001.0999999977648]","1","2","","","5903","23","0","3","lose","go","0"
"pit-trial","145","1045585","0.0-28.0","battery-v0.2","","""event"",""trial"",""time""
""fullscreenenter"",""1"",""4083""
","
","
","""event"",""trial"",""time""
""fullscreenenter"",""1"",""4083""
","
","","","684.6999999992549","","","23","5903","1505","y","elianto","#f73b6a7A"," "," ","1","0","[1536.300000000745]","1","2","","","5903","24","2","3","lose","go","0"
"pit-trial","146","1049608","0.0-29.0","battery-v0.2","","""event"",""trial"",""time""
""fullscreenenter"",""1"",""4083""
","
","
","""event"",""trial"",""time""
""fullscreenenter"",""1"",""4083""
","
","","","1155.300000000745","","","23","5903","1505","m","elianto","#f73b6a7A"," "," ","1","-10","[2005.5]","1","2","","","5903","25","0","3","lose","go","1"
"pit-trial","147","1053148","0.0-30.0","battery-v0.2","","""event"",""trial"",""time""
""fullscreenenter"",""1"",""4083""
","
","
","""event"",""trial"",""time""
""fullscreenenter"",""1"",""4083""
","
","","","675.3000000007451","","","23","5903","1505","h","elianto","#f73b6a7A","-1"," ","0","-10","[1529.3999999985099]","1","2","","","5903","26","3","4","lose","no-go","0"
"pit-trial","148","1056905","0.0-31.0","battery-v0.2","","""event"",""trial"",""time""
""fullscreenenter"",""1"",""4083""
","
","
","""event"",""trial"",""time""
""fullscreenenter"",""1"",""4083""
","
","","","882.1000000014901","","","23","5903","1505","y","elianto","#f73b6a7A"," "," ","1","0","[1735.3999999985099]","1","2","","","5903","27","2","3","lose","go","0"
"pit-trial","149","1060589","0.0-32.0","battery-v0.2","","""event"",""trial"",""time""
""fullscreenenter"",""1"",""4083""
","
","
","""event"",""trial"",""time""
""fullscreenenter"",""1"",""4083""
","
","","","817","","","23","5903","1505","r","elianto","#3366ff99","-1"," ","0","0","[1670.6000000014901]","1","2","","","5903","28","1","2","win","no-go","0"
"pit-trial","150","1065464","0.0-33.0","battery-v0.2","","""event"",""trial"",""time""
""fullscreenenter"",""1"",""4083""
","
","
","""event"",""trial"",""time""
""fullscreenenter"",""1"",""4083""
","
","","","-1","","","23","5903","1505","h","elianto","#f73b6a7A","-1","-1","1","0","[]","0","2","","","5903","29","3","4","lose","no-go","0"
"pit-trial","151","1069048","0.0-34.0","battery-v0.2","","""event"",""trial"",""time""
""fullscreenenter"",""1"",""4083""
","
","
","""event"",""trial"",""time""
""fullscreenenter"",""1"",""4083""
","
","","","710.8000000007451","","","23","5903","1505","r","elianto","#3366ff99","-1"," ","0","+10","[1562.4000000022352]","1","2","","","5903","30","1","2","win","no-go","1"
"pit-trial","152","1073917","0.0-35.0","battery-v0.2","","""event"",""trial"",""time""
""fullscreenenter"",""1"",""4083""
","
","
","""event"",""trial"",""time""
""fullscreenenter"",""1"",""4083""
","
","","","-1","","","23","5903","1505","y","elianto","#f73b6a7A"," ","-1","0","-10","[]","0","2","","","5903","31","2","3","lose","go","0"
"pit-trial","153","1078792","0.0-36.0","battery-v0.2","","""event"",""trial"",""time""
""fullscreenenter"",""1"",""4083""
","
","
","""event"",""trial"",""time""
""fullscreenenter"",""1"",""4083""
","
","","","-1","","","23","5903","1505","m","elianto","#f73b6a7A"," ","-1","0","-10","[]","0","2","","","5903","32","0","3","lose","go","0"
"pit-trial","154","1082189","0.0-37.0","battery-v0.2","","""event"",""trial"",""time""
""fullscreenenter"",""1"",""4083""
","
","
","""event"",""trial"",""time""
""fullscreenenter"",""1"",""4083""
","
","","","528.6999999992549","","","23","5903","1505","r","elianto","#3366ff99","-1"," ","0","0","[1383.5999999977648]","1","2","","","5903","33","1","2","win","no-go","0"
"pit-trial","155","1086109","0.0-38.0","battery-v0.2","","""event"",""trial"",""time""
""fullscreenenter"",""1"",""4083""
","
","
","""event"",""trial"",""time""
""fullscreenenter"",""1"",""4083""
","
","","","1049.5","","","23","5903","1505","m","elianto","#f73b6a7A"," "," ","1","0","[1905.5999999977648]","1","2","","","5903","34","0","3","lose","go","0"
"pit-trial","156","1089949","0.0-39.0","battery-v0.2","","""event"",""trial"",""time""
""fullscreenenter"",""1"",""4083""
","
","
","""event"",""trial"",""time""
""fullscreenenter"",""1"",""4083""
","
","","","968","","","23","5903","1505","h","elianto","#f73b6a7A","-1"," ","0","-10","[1826.0999999977648]","1","2","","","5903","35","3","4","lose","no-go","0"
"pit-trial","157","1093768","0.0-40.0","battery-v0.2","","""event"",""trial"",""time""
""fullscreenenter"",""1"",""4083""
","
","
","""event"",""trial"",""time""
""fullscreenenter"",""1"",""4083""
","
","","","952.6999999992549","","","23","5903","1505","y","elianto","#f73b6a7A"," "," ","1","0","[1803.699999999255]","1","2","","","5903","36","2","3","lose","go","0"
"pit-trial","158","1098637","0.0-41.0","battery-v0.2","","""event"",""trial"",""time""
""fullscreenenter"",""1"",""4083""
","
","
","""event"",""trial"",""time""
""fullscreenenter"",""1"",""4083""
","
","","","-1","","","23","5903","1505","m","elianto","#f73b6a7A"," ","-1","0","-10","[]","0","2","","","5903","37","0","3","lose","go","0"
"pit-trial","159","1102184","0.0-42.0","battery-v0.2","","""event"",""trial"",""time""
""fullscreenenter"",""1"",""4083""
","
","
","""event"",""trial"",""time""
""fullscreenenter"",""1"",""4083""
","
","","","675.8000000007451","","","23","5903","1505","h","elianto","#f73b6a7A","-1"," ","0","-10","[1532.199999999255]","1","2","","","5903","38","3","4","lose","no-go","0"
"pit-trial","160","1105768","0.0-43.0","battery-v0.2","","""event"",""trial"",""time""
""fullscreenenter"",""1"",""4083""
","
","
","""event"",""trial"",""time""
""fullscreenenter"",""1"",""4083""
","
","","","709.8999999985099","","","23","5903","1505","r","elianto","#3366ff99","-1"," ","0","0","[1565]","1","2","","","5903","39","1","2","win","no-go","0"
"pit-trial","161","1110637","0.0-44.0","battery-v0.2","","""event"",""trial"",""time""
""fullscreenenter"",""1"",""4083""
","
","
","""event"",""trial"",""time""
""fullscreenenter"",""1"",""4083""
","
","","","-1","","","23","5903","1505","y","elianto","#f73b6a7A"," ","-1","0","-10","[]","0","2","","","5903","40","2","3","lose","go","0"
"pit-trial","162","1115288","0.0-45.0","battery-v0.2","","""event"",""trial"",""time""
""fullscreenenter"",""1"",""4083""
","
","
","""event"",""trial"",""time""
""fullscreenenter"",""1"",""4083""
","
","","","1774.699999999255","","","23","5903","1505","y","elianto","#f73b6a7A"," "," ","1","0","[2631.300000000745]","1","2","","","5903","41","2","3","lose","go","0"
"pit-trial","163","1119629","0.0-46.0","battery-v0.2","","""event"",""trial"",""time""
""fullscreenenter"",""1"",""4083""
","
","
","""event"",""trial"",""time""
""fullscreenenter"",""1"",""4083""
","
","","","1473.699999999255","","","23","5903","1505","h","elianto","#f73b6a7A","-1"," ","0","-10","[2330.199999999255]","1","2","","","5903","42","3","4","lose","no-go","0"
"pit-trial","164","1123704","0.0-47.0","battery-v0.2","","""event"",""trial"",""time""
""fullscreenenter"",""1"",""4083""
","
","
","""event"",""trial"",""time""
""fullscreenenter"",""1"",""4083""
","
","","","1206.300000000745","","","23","5903","1505","m","elianto","#f73b6a7A"," "," ","1","0","[2062.89999999851]","1","2","","","5903","43","0","3","lose","go","0"
"pit-trial","165","1127612","0.0-48.0","battery-v0.2","","""event"",""trial"",""time""
""fullscreenenter"",""1"",""4083""
","
","
","""event"",""trial"",""time""
""fullscreenenter"",""1"",""4083""
","
","","","1041.199999999255","","","23","5903","1505","r","elianto","#3366ff99","-1"," ","0","+10","[1896.699999999255]","1","2","","","5903","44","1","2","win","no-go","1"
"pit-trial","166","1132487","0.0-49.0","battery-v0.2","","""event"",""trial"",""time""
""fullscreenenter"",""1"",""4083""
","
","
","""event"",""trial"",""time""
""fullscreenenter"",""1"",""4083""
","
","","","-1","","","23","5903","1505","m","elianto","#f73b6a7A"," ","-1","0","-10","[2918.699999999255,4038]","2","2","","","5903","45","0","3","lose","go","0"
"pit-trial","167","1136711","0.0-50.0","battery-v0.2","","""event"",""trial"",""time""
""fullscreenenter"",""1"",""4083""
","
","
","""event"",""trial"",""time""
""fullscreenenter"",""1"",""4083""
","
","","","1347.5999999977648","","","23","5903","1505","y","elianto","#f73b6a7A"," "," ","1","0","[2202.300000000745]","1","2","","","5903","46","2","3","lose","go","0"
"pit-trial","168","1141580","0.0-51.0","battery-v0.2","","""event"",""trial"",""time""
""fullscreenenter"",""1"",""4083""
","
","
","""event"",""trial"",""time""
""fullscreenenter"",""1"",""4083""
","
","","","-1","","","23","5903","1505","h","elianto","#f73b6a7A","-1","-1","1","0","[]","0","2","","","5903","47","3","4","lose","no-go","0"
"pit-trial","169","1145111","0.0-52.0","battery-v0.2","","""event"",""trial"",""time""
""fullscreenenter"",""1"",""4083""
","
","
","""event"",""trial"",""time""
""fullscreenenter"",""1"",""4083""
","
","","","660","","","23","5903","1505","r","elianto","#3366ff99","-1"," ","0","+10","[1511.7999999970198]","1","2","","","5903","48","1","2","win","no-go","1"
"pit-trial","170","1148780","0.0-53.0","battery-v0.2","","""event"",""trial"",""time""
""fullscreenenter"",""1"",""4083""
","
","
","""event"",""trial"",""time""
""fullscreenenter"",""1"",""4083""
","
","","","796.3999999985099","","","23","5903","1505","r","elianto","#3366ff99","-1"," ","0","0","[1652.3999999985099]","1","2","","","5903","49","1","2","win","no-go","0"
"pit-trial","171","1153655","0.0-54.0","battery-v0.2","","""event"",""trial"",""time""
""fullscreenenter"",""1"",""4083""
","
","
","""event"",""trial"",""time""
""fullscreenenter"",""1"",""4083""
","
","","","-1","","","23","5903","1505","h","elianto","#f73b6a7A","-1","-1","1","-10","[]","0","2","","","5903","50","3","4","lose","no-go","1"
"pit-trial","172","1157180","0.0-55.0","battery-v0.2","","""event"",""trial"",""time""
""fullscreenenter"",""1"",""4083""
","
","
","""event"",""trial"",""time""
""fullscreenenter"",""1"",""4083""
","
","","","655.8999999985099","","","23","5903","1505","m","elianto","#f73b6a7A"," "," ","1","0","[1512.5]","1","2","","","5903","51","0","3","lose","go","0"
"pit-trial","173","1161047","0.0-56.0","battery-v0.2","","""event"",""trial"",""time""
""fullscreenenter"",""1"",""4083""
","
","
","""event"",""trial"",""time""
""fullscreenenter"",""1"",""4083""
","
","","","998","","","23","5903","1505","y","elianto","#f73b6a7A"," "," ","1","-10","[1850.8999999985099]","1","2","","","5903","52","2","3","lose","go","1"
"pit-trial","174","1165916","0.0-57.0","battery-v0.2","","""event"",""trial"",""time""
""fullscreenenter"",""1"",""4083""
","
","
","""event"",""trial"",""time""
""fullscreenenter"",""1"",""4083""
","
","","","-1","","","23","5903","1505","h","elianto","#f73b6a7A","-1","-1","1","-10","[]","0","2","","","5903","53","3","4","lose","no-go","1"
"pit-trial","175","1169383","0.0-58.0","battery-v0.2","","""event"",""trial"",""time""
""fullscreenenter"",""1"",""4083""
","
","
","""event"",""trial"",""time""
""fullscreenenter"",""1"",""4083""
","
","","","597.8000000007451","","","23","5903","1505","r","elianto","#3366ff99","-1"," ","0","0","[1448.699999999255]","1","2","","","5903","54","1","2","win","no-go","0"
"pit-trial","176","1173095","0.0-59.0","battery-v0.2","","""event"",""trial"",""time""
""fullscreenenter"",""1"",""4083""
","
","
","""event"",""trial"",""time""
""fullscreenenter"",""1"",""4083""
","
","","","842.8000000007451","","","23","5903","1505","y","elianto","#f73b6a7A"," "," ","1","0","[1694.300000000745]","1","2","","","5903","55","2","3","lose","go","0"
"pit-trial","177","1176540","0.0-60.0","battery-v0.2","","""event"",""trial"",""time""
""fullscreenenter"",""1"",""4083""
","
","
","""event"",""trial"",""time""
""fullscreenenter"",""1"",""4083""
","
","","","573.6999999992549","","","23","5903","1505","m","elianto","#f73b6a7A"," "," ","1","0","[1428.800000000745]","1","2","","","5903","56","0","3","lose","go","0"
"pit-trial","178","1179868","0.0-61.0","battery-v0.2","","""event"",""trial"",""time""
""fullscreenenter"",""1"",""4083""
","
","
","""event"",""trial"",""time""
""fullscreenenter"",""1"",""4083""
","
","","","453.80000000074506","","","23","5903","1505","h","elianto","#f73b6a7A","-1"," ","0","0","[1313.2000000029802]","1","2","","","5903","57","3","4","lose","no-go","1"
"pit-trial","179","1183191","0.0-62.0","battery-v0.2","","""event"",""trial"",""time""
""fullscreenenter"",""1"",""4083""
","
","
","""event"",""trial"",""time""
""fullscreenenter"",""1"",""4083""
","
","","","456.9000000022352","","","23","5903","1505","z","elianto","#3366ff99"," "," ","1","+10","[1307.5999999977648]","1","2","","","5903","58","4","1","win","go","0"
"pit-trial","180","1186780","0.0-63.0","battery-v0.2","","""event"",""trial"",""time""
""fullscreenenter"",""1"",""4083""
","
","
","""event"",""trial"",""time""
""fullscreenenter"",""1"",""4083""
","
","","","723.9000000022352","","","23","5903","1505","y","elianto","#f73b6a7A"," "," ","1","0","[1576.800000000745]","1","2","","","5903","59","2","3","lose","go","0"
"pit-trial","181","1190119","0.0-64.0","battery-v0.2","","""event"",""trial"",""time""
""fullscreenenter"",""1"",""4083""
","
","
","""event"",""trial"",""time""
""fullscreenenter"",""1"",""4083""
","
","","","470.8999999985099","","","23","5903","1505","m","elianto","#f73b6a7A"," "," ","1","0","[1324.4000000022352]","1","2","","","5903","60","0","3","lose","go","0"
"pit-trial","182","1193436","0.0-65.0","battery-v0.2","","""event"",""trial"",""time""
""fullscreenenter"",""1"",""4083""
","
","
","""event"",""trial"",""time""
""fullscreenenter"",""1"",""4083""
","
","","","443.3999999985099","","","23","5903","1505","z","elianto","#3366ff99"," "," ","1","+10","[1298.199999999255]","1","2","","","5903","61","4","1","win","go","0"
"pit-trial","183","1196807","0.0-66.0","battery-v0.2","","""event"",""trial"",""time""
""fullscreenenter"",""1"",""4083""
","
","
","""event"",""trial"",""time""
""fullscreenenter"",""1"",""4083""
","
","","","506.69999999925494","","","23","5903","1505","h","elianto","#f73b6a7A","-1"," ","0","-10","[1356.7999999970198]","1","2","","","5903","62","3","4","lose","no-go","0"
"pit-trial","184","1200076","0.0-67.0","battery-v0.2","","""event"",""trial"",""time""
""fullscreenenter"",""1"",""4083""
","
","
","""event"",""trial"",""time""
""fullscreenenter"",""1"",""4083""
","
","","","396.19999999925494","","","23","5903","1505","y","elianto","#f73b6a7A"," "," ","1","-10","[1251.4000000022352]","1","2","","","5903","63","2","3","lose","go","1"
"pit-trial","185","1203324","0.0-68.0","battery-v0.2","","""event"",""trial"",""time""
""fullscreenenter"",""1"",""4083""
","
","
","""event"",""trial"",""time""
""fullscreenenter"",""1"",""4083""
","
","","","377","","","23","5903","1505","r","elianto","#3366ff99","-1"," ","0","+10","[1233.300000000745]","1","2","","","5903","64","1","2","win","no-go","1"
"pit-trial","186","1206582","0.0-69.0","battery-v0.2","","""event"",""trial"",""time""
""fullscreenenter"",""1"",""4083""
","
","
","""event"",""trial"",""time""
""fullscreenenter"",""1"",""4083""
","
","","","382.5999999977648","","","23","5903","1505","z","elianto","#3366ff99"," "," ","1","+10","[1241.199999999255]","1","2","","","5903","65","4","1","win","go","0"
"pit-trial","187","1211451","0.0-70.0","battery-v0.2","","""event"",""trial"",""time""
""fullscreenenter"",""1"",""4083""
","
","
","""event"",""trial"",""time""
""fullscreenenter"",""1"",""4083""
","
","","","-1","","","23","5903","1505","h","elianto","#f73b6a7A","-1","-1","1","-10","[]","0","2","","","5903","66","3","4","lose","no-go","1"
"pit-trial","188","1214875","0.0-71.0","battery-v0.2","","""event"",""trial"",""time""
""fullscreenenter"",""1"",""4083""
","
","
","""event"",""trial"",""time""
""fullscreenenter"",""1"",""4083""
","
","","","557.8000000007451","","","23","5903","1505","c","elianto","#3366ff99","-1"," ","0","0","[1408.199999999255]","1","2","","","5903","67","5","2","win","no-go","0"
"pit-trial","189","1218139","0.0-72.0","battery-v0.2","","""event"",""trial"",""time""
""fullscreenenter"",""1"",""4083""
","
","
","""event"",""trial"",""time""
""fullscreenenter"",""1"",""4083""
","
","","","389.5999999977648","","","23","5903","1505","r","elianto","#3366ff99","-1"," ","0","0","[1247]","1","2","","","5903","68","1","2","win","no-go","0"
"pit-trial","190","1221318","0.0-73.0","battery-v0.2","","""event"",""trial"",""time""
""fullscreenenter"",""1"",""4083""
","
","
","""event"",""trial"",""time""
""fullscreenenter"",""1"",""4083""
","
","","","307.8999999985099","","","23","5903","1505","y","elianto","#f73b6a7A"," "," ","1","0","[1164.7999999970198]","1","2","","","5903","69","2","3","lose","go","0"
"pit-trial","191","1224614","0.0-74.0","battery-v0.2","","""event"",""trial"",""time""
""fullscreenenter"",""1"",""4083""
","
","
","""event"",""trial"",""time""
""fullscreenenter"",""1"",""4083""
","
","","","425.8999999985099","","","23","5903","1505","c","elianto","#3366ff99","-1"," ","0","0","[1282.699999999255]","1","2","","","5903","70","5","2","win","no-go","0"
"pit-trial","192","1227894","0.0-75.0","battery-v0.2","","""event"",""trial"",""time""
""fullscreenenter"",""1"",""4083""
","
","
","""event"",""trial"",""time""
""fullscreenenter"",""1"",""4083""
","
","","","410.69999999925494","","","23","5903","1505","z","elianto","#3366ff99"," "," ","1","+10","[1261.5]","1","2","","","5903","71","4","1","win","go","0"
"pit-trial","193","1231429","0.0-76.0","battery-v0.2","","""event"",""trial"",""time""
""fullscreenenter"",""1"",""4083""
","
","
","""event"",""trial"",""time""
""fullscreenenter"",""1"",""4083""
","
","","","664","","","23","5903","1505","r","elianto","#3366ff99","-1"," ","0","0","[1518]","1","2","","","5903","72","1","2","win","no-go","0"
"pit-trial","194","1234763","0.0-77.0","battery-v0.2","","""event"",""trial"",""time""
""fullscreenenter"",""1"",""4083""
","
","
","""event"",""trial"",""time""
""fullscreenenter"",""1"",""4083""
","
","","","467.0999999977648","","","23","5903","1505","r","elianto","#3366ff99","-1"," ","0","0","[1319]","1","2","","","5903","73","1","2","win","no-go","0"
"pit-trial","195","1237798","0.0-78.0","battery-v0.2","","""event"",""trial"",""time""
""fullscreenenter"",""1"",""4083""
","
","
","""event"",""trial"",""time""
""fullscreenenter"",""1"",""4083""
","
","","","171.90000000223517","","","23","5903","1505","z","elianto","#3366ff99"," "," ","1","+10","[1025.2000000029802]","1","2","","","5903","74","4","1","win","go","0"
"pit-trial","196","1240916","0.0-79.0","battery-v0.2","","""event"",""trial"",""time""
""fullscreenenter"",""1"",""4083""
","
","
","""event"",""trial"",""time""
""fullscreenenter"",""1"",""4083""
","
","","","254.30000000074506","","","23","5903","1505","c","elianto","#3366ff99","-1"," ","0","0","[1105.800000000745]","1","2","","","5903","75","5","2","win","no-go","0"
"pit-trial","197","1243990","0.0-80.0","battery-v0.2","","""event"",""trial"",""time""
""fullscreenenter"",""1"",""4083""
","
","
","""event"",""trial"",""time""
""fullscreenenter"",""1"",""4083""
","
","","","213.20000000298023","","","23","5903","1505","h","elianto","#f73b6a7A","-1"," ","0","-10","[1063.6000000014901]","1","2","","","5903","76","3","4","lose","no-go","0"
"pit-trial","198","1247099","0.0-81.0","battery-v0.2","","""event"",""trial"",""time""
""fullscreenenter"",""1"",""4083""
","
","
","""event"",""trial"",""time""
""fullscreenenter"",""1"",""4083""
","
","","","237.69999999925494","","","23","5903","1505","h","elianto","#f73b6a7A","-1"," ","0","-10","[1095.699999999255]","1","2","","","5903","77","3","4","lose","no-go","0"
"pit-trial","199","1250214","0.0-82.0","battery-v0.2","","""event"",""trial"",""time""
""fullscreenenter"",""1"",""4083""
","
","
","""event"",""trial"",""time""
""fullscreenenter"",""1"",""4083""
","
","","","246","","","23","5903","1505","z","elianto","#3366ff99"," "," ","1","+10","[1096]","1","2","","","5903","78","4","1","win","go","0"
"pit-trial","200","1253627","0.0-83.0","battery-v0.2","","""event"",""trial"",""time""
""fullscreenenter"",""1"",""4083""
","
","
","""event"",""trial"",""time""
""fullscreenenter"",""1"",""4083""
","
","","","547.7999999970198","","","23","5903","1505","c","elianto","#3366ff99","-1"," ","0","0","[1399.5999999977648]","1","2","","","5903","79","5","2","win","no-go","0"
"pit-trial","201","1256923","0.0-84.0","battery-v0.2","","""event"",""trial"",""time""
""fullscreenenter"",""1"",""4083""
","
","
","""event"",""trial"",""time""
""fullscreenenter"",""1"",""4083""
","
","","","424.79999999701977","","","23","5903","1505","z","elianto","#3366ff99"," "," ","1","+10","[1280.5]","1","2","","","5903","80","4","1","win","go","0"
"pit-trial","202","1260486","0.0-85.0","battery-v0.2","","""event"",""trial"",""time""
""fullscreenenter"",""1"",""4083""
","
","
","""event"",""trial"",""time""
""fullscreenenter"",""1"",""4083""
","
","","","684.6000000014901","","","23","5903","1505","t","elianto","#f73b6a7A","-1"," ","0","-10","[1545]","1","2","","","5903","81","7","4","lose","no-go","0"
"pit-trial","203","1264294","0.0-86.0","battery-v0.2","","""event"",""trial"",""time""
""fullscreenenter"",""1"",""4083""
","
","
","""event"",""trial"",""time""
""fullscreenenter"",""1"",""4083""
","
","","","936.6999999992549","","","23","5903","1505","h","elianto","#f73b6a7A","-1"," ","0","-10","[1792.199999999255]","1","2","","","5903","82","3","4","lose","no-go","0"
"pit-trial","204","1267803","0.0-87.0","battery-v0.2","","""event"",""trial"",""time""
""fullscreenenter"",""1"",""4083""
","
","
","""event"",""trial"",""time""
""fullscreenenter"",""1"",""4083""
","
","","","642.6999999992549","","","23","5903","1505","z","elianto","#3366ff99"," "," ","1","+10","[1496.8999999985099]","1","2","","","5903","83","4","1","win","go","0"
"pit-trial","205","1271275","0.0-88.0","battery-v0.2","","""event"",""trial"",""time""
""fullscreenenter"",""1"",""4083""
","
","
","""event"",""trial"",""time""
""fullscreenenter"",""1"",""4083""
","
","","","601","","","23","5903","1505","c","elianto","#3366ff99","-1"," ","0","0","[1457.1000000014901]","1","2","","","5903","84","5","2","win","no-go","0"
"pit-trial","206","1274870","0.0-89.0","battery-v0.2","","""event"",""trial"",""time""
""fullscreenenter"",""1"",""4083""
","
","
","""event"",""trial"",""time""
""fullscreenenter"",""1"",""4083""
","
","","","719.8999999985099","","","23","5903","1505","b","elianto","#f73b6a7A"," "," ","1","0","[1576.800000000745]","1","2","","","5903","85","6","3","lose","go","0"
"pit-trial","207","1278330","0.0-90.0","battery-v0.2","","""event"",""trial"",""time""
""fullscreenenter"",""1"",""4083""
","
","
","""event"",""trial"",""time""
""fullscreenenter"",""1"",""4083""
","
","","","589.4000000022352","","","23","5903","1505","c","elianto","#3366ff99","-1"," ","0","0","[1444.9000000022352]","1","2","","","5903","86","5","2","win","no-go","0"
"pit-trial","208","1281733","0.0-91.0","battery-v0.2","","""event"",""trial"",""time""
""fullscreenenter"",""1"",""4083""
","
","
","""event"",""trial"",""time""
""fullscreenenter"",""1"",""4083""
","
","","","537.6000000014901","","","23","5903","1505","t","elianto","#f73b6a7A","-1"," ","0","-10","[1390.1000000014901]","1","2","","","5903","87","7","4","lose","no-go","0"
"pit-trial","209","1285237","0.0-92.0","battery-v0.2","","""event"",""trial"",""time""
""fullscreenenter"",""1"",""4083""
","
","
","""event"",""trial"",""time""
""fullscreenenter"",""1"",""4083""
","
","","","632.6000000014901","","","23","5903","1505","z","elianto","#3366ff99"," "," ","1","0","[1488.199999999255]","1","2","","","5903","88","4","1","win","go","1"
"pit-trial","210","1290106","0.0-93.0","battery-v0.2","","""event"",""trial"",""time""
""fullscreenenter"",""1"",""4083""
","
","
","""event"",""trial"",""time""
""fullscreenenter"",""1"",""4083""
","
","","","-1","","","23","5903","1505","b","elianto","#f73b6a7A"," ","-1","0","-10","[]","0","2","","","5903","89","6","3","lose","go","0"
"pit-trial","211","1293429","0.0-94.0","battery-v0.2","","""event"",""trial"",""time""
""fullscreenenter"",""1"",""4083""
","
","
","""event"",""trial"",""time""
""fullscreenenter"",""1"",""4083""
","
","","","447.8999999985099","","","23","5903","1505","t","elianto","#f73b6a7A","-1"," ","0","0","[1306.199999999255]","1","2","","","5903","90","7","4","lose","no-go","1"
"pit-trial","212","1296933","0.0-95.0","battery-v0.2","","""event"",""trial"",""time""
""fullscreenenter"",""1"",""4083""
","
","
","""event"",""trial"",""time""
""fullscreenenter"",""1"",""4083""
","
","","","634.8000000007451","","","23","5903","1505","c","elianto","#3366ff99","-1"," ","0","0","[1486.5]","1","2","","","5903","91","5","2","win","no-go","0"
"pit-trial","213","1300490","0.0-96.0","battery-v0.2","","""event"",""trial"",""time""
""fullscreenenter"",""1"",""4083""
","
","
","""event"",""trial"",""time""
""fullscreenenter"",""1"",""4083""
","
","","","693.3999999985099","","","23","5903","1505","z","elianto","#3366ff99"," "," ","1","+10","[1544.800000000745]","1","2","","","5903","92","4","1","win","go","0"
"pit-trial","214","1305365","0.0-97.0","battery-v0.2","","""event"",""trial"",""time""
""fullscreenenter"",""1"",""4083""
","
","
","""event"",""trial"",""time""
""fullscreenenter"",""1"",""4083""
","
","","","-1","","","23","5903","1505","t","elianto","#f73b6a7A","-1","-1","1","-10","[4126.300000000745]","1","2","","","5903","93","7","4","lose","no-go","1"
"pit-trial","215","1308954","0.0-98.0","battery-v0.2","","""event"",""trial"",""time""
""fullscreenenter"",""1"",""4083""
","
","
","""event"",""trial"",""time""
""fullscreenenter"",""1"",""4083""
","
","","","725.8999999985099","","","23","5903","1505","b","elianto","#f73b6a7A"," "," ","1","0","[1577.6000000014901]","1","2","","","5903","94","6","3","lose","go","0"
"pit-trial","216","1312357","0.0-99.0","battery-v0.2","","""event"",""trial"",""time""
""fullscreenenter"",""1"",""4083""
","
","
","""event"",""trial"",""time""
""fullscreenenter"",""1"",""4083""
","
","","","529.7000000029802","","","23","5903","1505","f","elianto","#3366ff99"," "," ","1","+10","[1385.1000000014901]","1","2","","","5903","95","8","1","win","go","0"
"pit-trial","217","1315706","0.0-100.0","battery-v0.2","","""event"",""trial"",""time""
""fullscreenenter"",""1"",""4083""
","
","
","""event"",""trial"",""time""
""fullscreenenter"",""1"",""4083""
","
","","","474.79999999701977","","","23","5903","1505","c","elianto","#3366ff99","-1"," ","0","0","[1331]","1","2","","","5903","96","5","2","win","no-go","0"
"pit-trial","218","1320581","0.0-101.0","battery-v0.2","","""event"",""trial"",""time""
""fullscreenenter"",""1"",""4083""
","
","
","""event"",""trial"",""time""
""fullscreenenter"",""1"",""4083""
","
","","","-1","","","23","5903","1505","f","elianto","#3366ff99"," ","-1","0","0","[]","0","2","","","5903","97","8","1","win","go","0"
"pit-trial","219","1324842","0.0-102.0","battery-v0.2","","""event"",""trial"",""time""
""fullscreenenter"",""1"",""4083""
","
","
","""event"",""trial"",""time""
""fullscreenenter"",""1"",""4083""
","
","","","1397.2999999970198","","","23","5903","1505","t","elianto","#f73b6a7A","-1"," ","0","-10","[2248.400000002235]","1","2","","","5903","98","7","4","lose","no-go","0"
"pit-trial","220","1329717","0.0-103.0","battery-v0.2","","""event"",""trial"",""time""
""fullscreenenter"",""1"",""4083""
","
","
","""event"",""trial"",""time""
""fullscreenenter"",""1"",""4083""
","
","","","-1","","","23","5903","1505","b","elianto","#f73b6a7A"," ","-1","0","-10","[]","0","2","","","5903","99","6","3","lose","go","0"
"pit-trial","221","1333082","0.0-104.0","battery-v0.2","","""event"",""trial"",""time""
""fullscreenenter"",""1"",""4083""
","
","
","""event"",""trial"",""time""
""fullscreenenter"",""1"",""4083""
","
","","","491.0999999977648","","","23","5903","1505","c","elianto","#3366ff99","-1"," ","0","0","[1346.9000000022352]","1","2","","","5903","100","5","2","win","no-go","0"
"pit-trial","222","1336517","0.0-105.0","battery-v0.2","","""event"",""trial"",""time""
""fullscreenenter"",""1"",""4083""
","
","
","""event"",""trial"",""time""
""fullscreenenter"",""1"",""4083""
","
","","","560.0999999977648","","","23","5903","1505","f","elianto","#3366ff99"," "," ","1","+10","[1416.199999999255]","1","2","","","5903","101","8","1","win","go","0"
"pit-trial","223","1339845","0.0-106.0","battery-v0.2","","""event"",""trial"",""time""
""fullscreenenter"",""1"",""4083""
","
","
","""event"",""trial"",""time""
""fullscreenenter"",""1"",""4083""
","
","","","454.79999999701977","","","23","5903","1505","n","elianto","#3366ff99"," "," ","1","+10","[1310.5999999977648]","1","2","","","5903","102","9","1","win","go","0"
"pit-trial","224","1343179","0.0-107.0","battery-v0.2","","""event"",""trial"",""time""
""fullscreenenter"",""1"",""4083""
","
","
","""event"",""trial"",""time""
""fullscreenenter"",""1"",""4083""
","
","","","464.79999999701977","","","23","5903","1505","c","elianto","#3366ff99","-1"," ","0","0","[1317.4000000022352]","1","2","","","5903","103","5","2","win","no-go","0"
"pit-trial","225","1346469","0.0-108.0","battery-v0.2","","""event"",""trial"",""time""
""fullscreenenter"",""1"",""4083""
","
","
","""event"",""trial"",""time""
""fullscreenenter"",""1"",""4083""
","
","","","418.19999999925494","","","23","5903","1505","t","elianto","#f73b6a7A","-1"," ","0","-10","[1270]","1","2","","","5903","104","7","4","lose","no-go","0"
"pit-trial","226","1349850","0.0-109.0","battery-v0.2","","""event"",""trial"",""time""
""fullscreenenter"",""1"",""4083""
","
","
","""event"",""trial"",""time""
""fullscreenenter"",""1"",""4083""
","
","","","510.8999999985099","","","23","5903","1505","z","elianto","#3366ff99"," "," ","1","+10","[1366.800000000745]","1","2","","","5903","105","4","1","win","go","0"
"pit-trial","227","1353594","0.0-110.0","battery-v0.2","","""event"",""trial"",""time""
""fullscreenenter"",""1"",""4083""
","
","
","""event"",""trial"",""time""
""fullscreenenter"",""1"",""4083""
","
","","","882.8000000007451","","","23","5903","1505","f","elianto","#3366ff99"," "," ","1","0","[1733.3999999985099]","1","2","","","5903","106","8","1","win","go","1"
"pit-trial","228","1357001","0.0-111.0","battery-v0.2","","""event"",""trial"",""time""
""fullscreenenter"",""1"",""4083""
","
","
","""event"",""trial"",""time""
""fullscreenenter"",""1"",""4083""
","
","","","539","","","23","5903","1505","n","elianto","#3366ff99"," "," ","1","0","[1392.199999999255]","1","2","","","5903","107","9","1","win","go","1"
"pit-trial","229","1360276","0.0-112.0","battery-v0.2","","""event"",""trial"",""time""
""fullscreenenter"",""1"",""4083""
","
","
","""event"",""trial"",""time""
""fullscreenenter"",""1"",""4083""
","
","","","398","","","23","5903","1505","b","elianto","#f73b6a7A"," "," ","1","0","[1254.5]","1","2","","","5903","108","6","3","lose","go","0"
"pit-trial","230","1363529","0.0-113.0","battery-v0.2","","""event"",""trial"",""time""
""fullscreenenter"",""1"",""4083""
","
","
","""event"",""trial"",""time""
""fullscreenenter"",""1"",""4083""
","
","","","386","","","23","5903","1505","c","elianto","#3366ff99","-1"," ","0","0","[1240.300000000745]","1","2","","","5903","109","5","2","win","no-go","0"
"pit-trial","231","1366761","0.0-114.0","battery-v0.2","","""event"",""trial"",""time""
""fullscreenenter"",""1"",""4083""
","
","
","""event"",""trial"",""time""
""fullscreenenter"",""1"",""4083""
","
","","","368.5","","","23","5903","1505","n","elianto","#3366ff99"," "," ","1","+10","[1220.8999999985099]","1","2","","","5903","110","9","1","win","go","0"
"pit-trial","232","1369833","0.0-115.0","battery-v0.2","","""event"",""trial"",""time""
""fullscreenenter"",""1"",""4083""
","
","
","""event"",""trial"",""time""
""fullscreenenter"",""1"",""4083""
","
","","","206.80000000074506","","","23","5903","1505","f","elianto","#3366ff99"," "," ","1","+10","[1058.5]","1","2","","","5903","111","8","1","win","go","0"
"pit-trial","233","1373396","0.0-116.0","battery-v0.2","","""event"",""trial"",""time""
""fullscreenenter"",""1"",""4083""
","
","
","""event"",""trial"",""time""
""fullscreenenter"",""1"",""4083""
","
","","","691.7000000029802","","","23","5903","1505","b","elianto","#f73b6a7A"," "," ","1","0","[1548.300000000745]","1","2","","","5903","112","6","3","lose","go","0"
"pit-trial","234","1376809","0.0-117.0","battery-v0.2","","""event"",""trial"",""time""
""fullscreenenter"",""1"",""4083""
","
","
","""event"",""trial"",""time""
""fullscreenenter"",""1"",""4083""
","
","","","547.0999999977648","","","23","5903","1505","c","elianto","#3366ff99","-1"," ","0","0","[1397.7000000029802]","1","2","","","5903","113","5","2","win","no-go","0"
"pit-trial","235","1381684","0.0-118.0","battery-v0.2","","""event"",""trial"",""time""
""fullscreenenter"",""1"",""4083""
","
","
","""event"",""trial"",""time""
""fullscreenenter"",""1"",""4083""
","
","","","-1","","","23","5903","1505","b","elianto","#f73b6a7A"," ","-1","0","-10","[]","0","2","","","5903","114","6","3","lose","go","0"
"pit-trial","236","1385300","0.0-119.0","battery-v0.2","","""event"",""trial"",""time""
""fullscreenenter"",""1"",""4083""
","
","
","""event"",""trial"",""time""
""fullscreenenter"",""1"",""4083""
","
","","","746.6999999992549","","","23","5903","1505","n","elianto","#3366ff99"," "," ","1","+10","[1601.699999999255]","1","2","","","5903","115","9","1","win","go","0"
"pit-trial","237","1388761","0.0-120.0","battery-v0.2","","""event"",""trial"",""time""
""fullscreenenter"",""1"",""4083""
","
","
","""event"",""trial"",""time""
""fullscreenenter"",""1"",""4083""
","
","","","588.6000000014901","","","23","5903","1505","f","elianto","#3366ff99"," "," ","1","0","[1443.7999999970198]","1","2","","","5903","116","8","1","win","go","1"
"pit-trial","238","1392057","0.0-121.0","battery-v0.2","","""event"",""trial"",""time""
""fullscreenenter"",""1"",""4083""
","
","
","""event"",""trial"",""time""
""fullscreenenter"",""1"",""4083""
","
","","","428.19999999925494","","","23","5903","1505","f","elianto","#3366ff99"," "," ","1","0","[1283.800000000745]","1","2","","","5903","117","8","1","win","go","1"
"pit-trial","239","1395129","0.0-122.0","battery-v0.2","","""event"",""trial"",""time""
""fullscreenenter"",""1"",""4083""
","
","
","""event"",""trial"",""time""
""fullscreenenter"",""1"",""4083""
","
","","","198.80000000074506","","","23","5903","1505","c","elianto","#3366ff99","-1"," ","0","0","[1055.699999999255]","1","2","","","5903","118","5","2","win","no-go","0"
"pit-trial","240","1398185","0.0-123.0","battery-v0.2","","""event"",""trial"",""time""
""fullscreenenter"",""1"",""4083""
","
","
","""event"",""trial"",""time""
""fullscreenenter"",""1"",""4083""
","
","","","190.60000000149012","","","23","5903","1505","b","elianto","#f73b6a7A"," "," ","1","0","[1042.5]","1","2","","","5903","119","6","3","lose","go","0"
"pit-trial","241","1401065","0.0-124.0","battery-v0.2","","""event"",""trial"",""time""
""fullscreenenter"",""1"",""4083""
","
","
","""event"",""trial"",""time""
""fullscreenenter"",""1"",""4083""
","
","","","12.300000000745058","","","23","5903","1505","n","elianto","#3366ff99"," "," ","1","0","[868.9000000022352]","1","2","","","5903","120","9","1","win","go","1"
"pit-trial","242","1405161","0.0-125.0","battery-v0.2","","""event"",""trial"",""time""
""fullscreenenter"",""1"",""4083""
","
","
","""event"",""trial"",""time""
""fullscreenenter"",""1"",""4083""
","
","","","1225.9000000022352","","","23","5903","1505","b","elianto","#f73b6a7A"," "," ","1","-10","[774.8000000007451,2081.10000000149]","2","2","","","5903","121","6","3","lose","go","1"
"pit-trial","243","1410036","0.0-126.0","battery-v0.2","","""event"",""trial"",""time""
""fullscreenenter"",""1"",""4083""
","
","
","""event"",""trial"",""time""
""fullscreenenter"",""1"",""4083""
","
","","","-1","","","23","5903","1505","t","elianto","#f73b6a7A","-1","-1","1","0","[]","0","2","","","5903","122","7","4","lose","no-go","0"
"pit-trial","244","1412937","0.0-127.0","battery-v0.2","","""event"",""trial"",""time""
""fullscreenenter"",""1"",""4083""
","
","
","""event"",""trial"",""time""
""fullscreenenter"",""1"",""4083""
","
","","","31.699999999254942","","","23","5903","1505","f","elianto","#3366ff99"," "," ","1","+10","[886.8999999985099]","1","2","","","5903","123","8","1","win","go","0"
"pit-trial","245","1416073","0.0-128.0","battery-v0.2","","""event"",""trial"",""time""
""fullscreenenter"",""1"",""4083""
","
","
","""event"",""trial"",""time""
""fullscreenenter"",""1"",""4083""
","
","","","265.1000000014901","","","23","5903","1505","n","elianto","#3366ff99"," "," ","1","+10","[1120.7999999970198]","1","2","","","5903","124","9","1","win","go","0"
"pit-trial","246","1419252","0.0-129.0","battery-v0.2","","""event"",""trial"",""time""
""fullscreenenter"",""1"",""4083""
","
","
","""event"",""trial"",""time""
""fullscreenenter"",""1"",""4083""
","
","","","307.80000000074506","","","23","5903","1505","f","elianto","#3366ff99"," "," ","1","0","[1165]","1","2","","","5903","125","8","1","win","go","1"
"pit-trial","247","1422249","0.0-130.0","battery-v0.2","","""event"",""trial"",""time""
""fullscreenenter"",""1"",""4083""
","
","
","""event"",""trial"",""time""
""fullscreenenter"",""1"",""4083""
","
","","","125.40000000223517","","","23","5903","1505","b","elianto","#f73b6a7A"," "," ","1","0","[981.0999999977648]","1","2","","","5903","126","6","3","lose","go","0"
"pit-trial","248","1427124","0.0-131.0","battery-v0.2","","""event"",""trial"",""time""
""fullscreenenter"",""1"",""4083""
","
","
","""event"",""trial"",""time""
""fullscreenenter"",""1"",""4083""
","
","","","-1","","","23","5903","1505","n","elianto","#3366ff99"," ","-1","0","0","[3118.400000002235]","1","2","","","5903","127","9","1","win","go","0"
"pit-trial","249","1430456","0.0-132.0","battery-v0.2","","""event"",""trial"",""time""
""fullscreenenter"",""1"",""4083""
","
","
","""event"",""trial"",""time""
""fullscreenenter"",""1"",""4083""
","
","","","463.69999999925494","","","23","5903","1505","t","elianto","#f73b6a7A","-1"," ","0","0","[1319.699999999255]","1","2","","","5903","128","7","4","lose","no-go","1"
"pit-trial","250","1433864","0.0-133.0","battery-v0.2","","""event"",""trial"",""time""
""fullscreenenter"",""1"",""4083""
","
","
","""event"",""trial"",""time""
""fullscreenenter"",""1"",""4083""
","
","","","534.6999999992549","","","23","5903","1505","t","elianto","#f73b6a7A","-1"," ","0","0","[1392.199999999255]","1","2","","","5903","129","7","4","lose","no-go","1"
"pit-trial","251","1436963","0.0-134.0","battery-v0.2","","""event"",""trial"",""time""
""fullscreenenter"",""1"",""4083""
","
","
","""event"",""trial"",""time""
""fullscreenenter"",""1"",""4083""
","
","","","227.80000000074506","","","23","5903","1505","b","elianto","#f73b6a7A"," "," ","1","0","[1078.1000000014901]","1","2","","","5903","130","6","3","lose","go","0"
"pit-trial","252","1440211","0.0-135.0","battery-v0.2","","""event"",""trial"",""time""
""fullscreenenter"",""1"",""4083""
","
","
","""event"",""trial"",""time""
""fullscreenenter"",""1"",""4083""
","
","","","379.19999999925494","","","23","5903","1505","n","elianto","#3366ff99"," "," ","1","+10","[1230.8999999985099]","1","2","","","5903","131","9","1","win","go","0"
"pit-trial","253","1443395","0.0-136.0","battery-v0.2","","""event"",""trial"",""time""
""fullscreenenter"",""1"",""4083""
","
","
","""event"",""trial"",""time""
""fullscreenenter"",""1"",""4083""
","
","","","316.3999999985099","","","23","5903","1505","f","elianto","#3366ff99"," "," ","1","0","[1167.800000000745]","1","2","","","5903","132","8","1","win","go","1"
"pit-trial","254","1446472","0.0-137.0","battery-v0.2","","""event"",""trial"",""time""
""fullscreenenter"",""1"",""4083""
","
","
","""event"",""trial"",""time""
""fullscreenenter"",""1"",""4083""
","
","","","209.19999999925494","","","23","5903","1505","n","elianto","#3366ff99"," "," ","1","0","[1060.800000000745]","1","2","","","5903","133","9","1","win","go","1"
"pit-trial","255","1449619","0.0-138.0","battery-v0.2","","""event"",""trial"",""time""
""fullscreenenter"",""1"",""4083""
","
","
","""event"",""trial"",""time""
""fullscreenenter"",""1"",""4083""
","
","","","271.80000000074506","","","23","5903","1505","f","elianto","#3366ff99"," "," ","1","+10","[468.80000000074506,1130]","2","2","","","5903","134","8","1","win","go","0"
"pit-trial","256","1453427","0.0-139.0","battery-v0.2","","""event"",""trial"",""time""
""fullscreenenter"",""1"",""4083""
","
","
","""event"",""trial"",""time""
""fullscreenenter"",""1"",""4083""
","
","","","933.8999999985099","","","23","5903","1505","b","elianto","#f73b6a7A"," "," ","1","0","[1789.3999999985099]","1","2","","","5903","135","6","3","lose","go","0"
"pit-trial","257","1456744","0.0-140.0","battery-v0.2","","""event"",""trial"",""time""
""fullscreenenter"",""1"",""4083""
","
","
","""event"",""trial"",""time""
""fullscreenenter"",""1"",""4083""
","
","","","453.5","","","23","5903","1505","t","elianto","#f73b6a7A","-1"," ","0","0","[1305.7999999970198]","1","2","","","5903","136","7","4","lose","no-go","1"
"pit-trial","258","1460899","0.0-141.0","battery-v0.2","","""event"",""trial"",""time""
""fullscreenenter"",""1"",""4083""
","
","
","""event"",""trial"",""time""
""fullscreenenter"",""1"",""4083""
","
","","","1285.800000000745","","","23","5903","1505","f","elianto","#3366ff99"," "," ","1","+10","[2138.800000000745]","1","2","","","5903","137","8","1","win","go","0"
"pit-trial","259","1465771","0.0-142.0","battery-v0.2","","""event"",""trial"",""time""
""fullscreenenter"",""1"",""4083""
","
","
","""event"",""trial"",""time""
""fullscreenenter"",""1"",""4083""
","
","","","-1","","","23","5903","1505","t","elianto","#f73b6a7A","-1","-1","1","0","[]","0","2","","","5903","138","7","4","lose","no-go","0"
"pit-trial","260","1469371","0.0-143.0","battery-v0.2","","""event"",""trial"",""time""
""fullscreenenter"",""1"",""4083""
","
","
","""event"",""trial"",""time""
""fullscreenenter"",""1"",""4083""
","
","","","730.6000000014901","","","23","5903","1505","n","elianto","#3366ff99"," "," ","1","+10","[1582.699999999255]","1","2","","","5903","139","9","1","win","go","0"
"pit-trial","261","1472472","0.0-144.0","battery-v0.2","","""event"",""trial"",""time""
""fullscreenenter"",""1"",""4083""
","
","
","""event"",""trial"",""time""
""fullscreenenter"",""1"",""4083""
","
","","","235.60000000149012","","","23","5903","1505","b","elianto","#f73b6a7A"," "," ","1","0","[1088.699999999255]","1","2","","","5903","140","6","3","lose","go","0"
"pit-instructions","262","1486860","0.0-145.0","battery-v0.2","","""event"",""trial"",""time""
""fullscreenenter"",""1"",""4083""
","
","
","""event"",""trial"",""time""
""fullscreenenter"",""1"",""4083""
","
","","[{""page_index"":0,""viewing_time"":5446.29999999702},{""page_index"":1,""viewing_time"":8932.900000002235}]","14380.39999999851","","","","","","","","","","","","","","","","","","","","","","","",""
"pit-trial","263","1490459","0.0-146.0","battery-v0.2","","""event"",""trial"",""time""
""fullscreenenter"",""1"",""4083""
","
","
","""event"",""trial"",""time""
""fullscreenenter"",""1"",""4083""
","
","","","723.4000000022352","","","23","5903","1505","l","elianto","#3366ff99"," "," ","1","+10","[1576.199999999255]","1","3","","","5903","141","1","1","win","go","0"
"pit-trial","264","1493923","0.0-147.0","battery-v0.2","","""event"",""trial"",""time""
""fullscreenenter"",""1"",""4083""
","
","
","""event"",""trial"",""time""
""fullscreenenter"",""1"",""4083""
","
","","","592","","","23","5903","1505","g","elianto","#f73b6a7A"," "," ","1","0","[1446]","1","3","","","5903","142","3","3","lose","go","0"
"pit-trial","265","1497159","0.0-148.0","battery-v0.2","","""event"",""trial"",""time""
""fullscreenenter"",""1"",""4083""
","
","
","""event"",""trial"",""time""
""fullscreenenter"",""1"",""4083""
","
