"trial_type","trial_index","time_elapsed","internal_node_id","task_version","subject_id","interactions","blur_events","focus_events","fullscreenenter_events","fullscreenexit_events","success","view_history","rt","responses","num_errors","age","subject","participantId","rune","rune_set","hex","correct","choice","accuracy","outcome","keys","total_keys","block","practice","value","sub","trial","stimulus","robot","valence","action","sham"
"pavlovia","0","15","0.0-0.0","battery-v0.2","","""event"",""trial"",""time""
""fullscreenenter"",""1"",""3985""
","
","
","""event"",""trial"",""time""
""fullscreenenter"",""1"",""3985""
","
","","","","","","","","","","","","","","","","","","","","","","","","","","",""
"fullscreen","1","4947","0.0-1.0","battery-v0.2","","""event"",""trial"",""time""
""fullscreenenter"",""1"",""3985""
","
","
","""event"",""trial"",""time""
""fullscreenenter"",""1"",""3985""
","
","true","","","","","","","","","","","","","","","","","","","","","","","","","",""
"pit-instructions","2","9921","0.0-2.0-0.0","battery-v0.2","","""event"",""trial"",""time""
""fullscreenenter"",""1"",""3985""
","
","
","""event"",""trial"",""time""
""fullscreenenter"",""1"",""3985""
","
","","[{""page_index"":0,""viewing_time"":4965.400000000023}]","4966.600000000035","","","","","","","","","","","","","","","","","","","","","","","",""
"pit-comprehension","3","14286","0.0-2.0-1.0-0.0","battery-v0.2","","""event"",""trial"",""time""
""fullscreenenter"",""1"",""3985""
","
","
","""event"",""trial"",""time""
""fullscreenenter"",""1"",""3985""
","
","","","4356.100000000035","[""shark""]","0","21","4641","632","","","","","","","","","","","","","","","","","","",""
"pit-instructions","4","15364","0.0-2.0-1.0-1.0","battery-v0.2","","""event"",""trial"",""time""
""fullscreenenter"",""1"",""3985""
","
","
","""event"",""trial"",""time""
""fullscreenenter"",""1"",""3985""
","
","","[{""page_index"":0,""viewing_time"":1044.0999999999767}]","1044.7000000000116","","","","","","","","","","","","","","","","","","","","","","","",""
"pit-comprehension","5","18284","0.0-2.0-2.0-0.0","battery-v0.2","","""event"",""trial"",""time""
""fullscreenenter"",""1"",""3985""
","
","
","""event"",""trial"",""time""
""fullscreenenter"",""1"",""3985""
","
","","","2913.2000000000116","[""tiger""]","0","21","4641","632","","","","","","","","","","","","","","","","","","",""
"pit-instructions","6","18973","0.0-2.0-2.0-1.0","battery-v0.2","","""event"",""trial"",""time""
""fullscreenenter"",""1"",""3985""
","
","
","""event"",""trial"",""time""
""fullscreenenter"",""1"",""3985""
","
","","[{""page_index"":0,""viewing_time"":683.3999999999651}]","683.8999999999651","","","","","","","","","","","","","","","","","","","","","","","",""
"pit-instructions","7","135513","0.0-2.0-3.0","battery-v0.2","","""event"",""trial"",""time""
""fullscreenenter"",""1"",""3985""
","
","
","""event"",""trial"",""time""
""fullscreenenter"",""1"",""3985""
","
","","[{""page_index"":0,""viewing_time"":14053.899999999965},{""page_index"":1,""viewing_time"":7903.100000000035},{""page_index"":2,""viewing_time"":9910.799999999988},{""page_index"":3,""viewing_time"":5405.099999999977},{""page_index"":4,""viewing_time"":9036.200000000012},{""page_index"":5,""viewing_time"":9402.900000000023},{""page_index"":6,""viewing_time"":8034.799999999988},{""page_index"":7,""viewing_time"":7061.799999999988},{""page_index"":8,""viewing_time"":6481},{""page_index"":9,""viewing_time"":8713.400000000023},{""page_index"":10,""viewing_time"":7717.200000000012},{""page_index"":11,""viewing_time"":8972.699999999953},{""page_index"":12,""viewing_time"":7046.600000000035},{""page_index"":13,""viewing_time"":6790.5}]","116531.20000000001","","","","","","","","","","","","","","","","","","","","","","","",""
"pit-trial","8","138560","0.0-2.0-4.0-0.0","battery-v0.2","","""event"",""trial"",""time""
""fullscreenenter"",""1"",""3985""
","
","
","""event"",""trial"",""time""
""fullscreenenter"",""1"",""3985""
","
","","","168.29999999998836","","","21","4641","632","&#9784;","elianto","#FFFFF080"," "," ","1","&#10004","[1024.100000000035]","1","0","0","","","","","","","",""
"pit-trial","9","141739","0.0-2.0-4.1-0.1","battery-v0.2","","""event"",""trial"",""time""
""fullscreenenter"",""1"",""3985""
","
","
","""event"",""trial"",""time""
""fullscreenenter"",""1"",""3985""
","
","","","307.5","","","21","4641","632","&#9784;","elianto","#FFFFF080"," "," ","1","&#10004","[1158]","1","0","0","","","","","","","",""
"pit-trial","10","144881","0.0-2.0-4.2-0.2","battery-v0.2","","""event"",""trial"",""time""
""fullscreenenter"",""1"",""3985""
","
","
","""event"",""trial"",""time""
""fullscreenenter"",""1"",""3985""
","
","","","261.79999999998836","","","21","4641","632","&#9784;","elianto","#FFFFF080"," "," ","1","&#10004","[1114.9000000000233]","1","0","0","","","","","","","",""
"pit-trial","11","147852","0.0-2.0-4.3-0.3","battery-v0.2","","""event"",""trial"",""time""
""fullscreenenter"",""1"",""3985""
","
","
","""event"",""trial"",""time""
""fullscreenenter"",""1"",""3985""
","
","","","95.79999999998836","","","21","4641","632","&#9784;","elianto","#FFFFF080"," "," ","1","&#10004","[951.2000000000116]","1","0","0","","","","","","","",""
"pit-trial","12","150962","0.0-2.0-4.4-0.4","battery-v0.2","","""event"",""trial"",""time""
""fullscreenenter"",""1"",""3985""
","
","
","""event"",""trial"",""time""
""fullscreenenter"",""1"",""3985""
","
","","","230.5","","","21","4641","632","&#9784;","elianto","#FFFFF080"," "," ","1","&#10004","[1089.6999999999534]","1","0","0","","","","","","","",""
"pit-instructions","13","175980","0.0-2.0-5.0","battery-v0.2","","""event"",""trial"",""time""
""fullscreenenter"",""1"",""3985""
","
","
","""event"",""trial"",""time""
""fullscreenenter"",""1"",""3985""
","
","","[{""page_index"":0,""viewing_time"":5668.899999999965},{""page_index"":1,""viewing_time"":5561.600000000035},{""page_index"":2,""viewing_time"":5902.399999999965},{""page_index"":3,""viewing_time"":7879.600000000035}]","25013.599999999977","","","","","","","","","","","","","","","","","","","","","","","",""
"pit-trial","14","180864","0.0-2.0-6.0-0.0","battery-v0.2","","""event"",""trial"",""time""
""fullscreenenter"",""1"",""3985""
","
","
","""event"",""trial"",""time""
""fullscreenenter"",""1"",""3985""
","
","","","-1","","","21","4641","632","&#9854;","elianto","#FFFFF080","-1","-1","1","&#10004","[]","0","0","1","","","","","","","",""
"pit-trial","15","185738","0.0-2.0-6.1-0.1","battery-v0.2","","""event"",""trial"",""time""
""fullscreenenter"",""1"",""3985""
","
","
","""event"",""trial"",""time""
""fullscreenenter"",""1"",""3985""
","
","","","-1","","","21","4641","632","&#9854;","elianto","#FFFFF080","-1","-1","1","&#10004","[]","0","0","1","","","","","","","",""
"pit-trial","16","190625","0.0-2.0-6.2-0.2","battery-v0.2","","""event"",""trial"",""time""
""fullscreenenter"",""1"",""3985""
","
","
","""event"",""trial"",""time""
""fullscreenenter"",""1"",""3985""
","
","","","-1","","","21","4641","632","&#9854;","elianto","#FFFFF080","-1","-1","1","&#10004","[]","0","0","1","","","","","","","",""
"pit-trial","17","195499","0.0-2.0-6.3-0.3","battery-v0.2","","""event"",""trial"",""time""
""fullscreenenter"",""1"",""3985""
","
","
","""event"",""trial"",""time""
""fullscreenenter"",""1"",""3985""
","
","","","-1","","","21","4641","632","&#9854;","elianto","#FFFFF080","-1","-1","1","&#10004","[]","0","0","1","","","","","","","",""
"pit-trial","18","200371","0.0-2.0-6.4-0.4","battery-v0.2","","""event"",""trial"",""time""
""fullscreenenter"",""1"",""3985""
","
","
","""event"",""trial"",""time""
""fullscreenenter"",""1"",""3985""
","
","","","-1","","","21","4641","632","&#9854;","elianto","#FFFFF080","-1","-1","1","&#10004","[]","0","0","1","","","","","","","",""
"pit-instructions","19","315356","0.0-2.0-7.0","battery-v0.2","","""event"",""trial"",""time""
""fullscreenenter"",""1"",""3985""
","
","
","""event"",""trial"",""time""
""fullscreenenter"",""1"",""3985""
","
","","[{""page_index"":0,""viewing_time"":5838.700000000012},{""page_index"":1,""viewing_time"":6856.200000000012},{""page_index"":2,""viewing_time"":6646.299999999988},{""page_index"":3,""viewing_time"":7164.5},{""page_index"":4,""viewing_time"":5189.200000000012},{""page_index"":5,""viewing_time"":5481.700000000012},{""page_index"":6,""viewing_time"":4175.699999999953},{""page_index"":7,""viewing_time"":7730.900000000023},{""page_index"":8,""viewing_time"":6689.199999999953},{""page_index"":9,""viewing_time"":5858.70000000007},{""page_index"":10,""viewing_time"":6487.699999999953},{""page_index"":11,""viewing_time"":4959.70000000007},{""page_index"":12,""viewing_time"":8057.699999999953},{""page_index"":13,""viewing_time"":6989.5},{""page_index"":14,""viewing_time"":6899.599999999977},{""page_index"":15,""viewing_time"":6513.900000000023},{""page_index"":16,""viewing_time"":6584.599999999977},{""page_index"":17,""viewing_time"":6851.099999999977}]","114975.60000000003","","","","","","","","","","","","","","","","","","","","","","","",""
"pit-trial","20","318593","0.0-2.0-8.0-0.0","battery-v0.2","","""event"",""trial"",""time""
""fullscreenenter"",""1"",""3985""
","
","
","""event"",""trial"",""time""
""fullscreenenter"",""1"",""3985""
","
","","","368.4000000000233","","","21","4641","632","&#9776;","elianto","#3366ff99"," "," ","1","+10","[1222]","1","0","1","","","","","","","",""
"pit-trial","21","321846","0.0-2.0-8.0-1.0","battery-v0.2","","""event"",""trial"",""time""
""fullscreenenter"",""1"",""3985""
","
","
","""event"",""trial"",""time""
""fullscreenenter"",""1"",""3985""
","
","","","383.30000000004657","","","21","4641","632","&#9776;","elianto","#3366ff99"," "," ","1","+10","[1238.5999999999767]","1","0","1","","","","","","","",""
"pit-trial","22","325218","0.0-2.0-8.0-2.0","battery-v0.2","","""event"",""trial"",""time""
""fullscreenenter"",""1"",""3985""
","
","
","""event"",""trial"",""time""
""fullscreenenter"",""1"",""3985""
","
","","","501.0999999999767","","","21","4641","632","&#9776;","elianto","#3366ff99"," "," ","1","+10","[1353.6000000000931]","1","0","1","","","","","","","",""
"pit-trial","23","328563","0.0-2.0-8.0-3.0","battery-v0.2","","""event"",""trial"",""time""
""fullscreenenter"",""1"",""3985""
","
","
","""event"",""trial"",""time""
""fullscreenenter"",""1"",""3985""
","
","","","469","","","21","4641","632","&#9776;","elianto","#3366ff99"," "," ","1","0","[1325.5999999999767]","1","0","1","","","","","","","",""
"pit-trial","24","331810","0.0-2.0-8.0-4.0","battery-v0.2","","""event"",""trial"",""time""
""fullscreenenter"",""1"",""3985""
","
","
","""event"",""trial"",""time""
""fullscreenenter"",""1"",""3985""
","
","","","380.5999999999767","","","21","4641","632","&#9776;","elianto","#3366ff99"," "," ","1","+10","[1232.2000000000698]","1","0","1","","","","","","","",""
"pit-trial","25","335115","0.0-2.0-8.1-0.1","battery-v0.2","","""event"",""trial"",""time""
""fullscreenenter"",""1"",""3985""
","
","
","""event"",""trial"",""time""
""fullscreenenter"",""1"",""3985""
","
","","","447.29999999993015","","","21","4641","632","&#9776;","elianto","#3366ff99"," "," ","1","+10","[1297.5]","1","0","1","","","","","","","",""
"pit-trial","26","338655","0.0-2.0-8.1-1.1","battery-v0.2","","""event"",""trial"",""time""
""fullscreenenter"",""1"",""3985""
","
","
","""event"",""trial"",""time""
""fullscreenenter"",""1"",""3985""
","
","","","657.4000000000233","","","21","4641","632","&#9776;","elianto","#3366ff99"," "," ","1","+10","[1516]","1","0","1","","","","","","","",""
"pit-trial","27","342051","0.0-2.0-8.1-2.1","battery-v0.2","","""event"",""trial"",""time""
""fullscreenenter"",""1"",""3985""
","
","
","""event"",""trial"",""time""
""fullscreenenter"",""1"",""3985""
","
","","","517.3999999999069","","","21","4641","632","&#9776;","elianto","#3366ff99"," "," ","1","+10","[1369.5999999999767]","1","0","1","","","","","","","",""
"pit-trial","28","345388","0.0-2.0-8.1-3.1","battery-v0.2","","""event"",""trial"",""time""
""fullscreenenter"",""1"",""3985""
","
","
","""event"",""trial"",""time""
""fullscreenenter"",""1"",""3985""
","
","","","473.30000000004657","","","21","4641","632","&#9776;","elianto","#3366ff99"," "," ","1","0","[1327.9000000000233]","1","0","1","","","","","","","",""
"pit-trial","29","348751","0.0-2.0-8.1-4.1","battery-v0.2","","""event"",""trial"",""time""
""fullscreenenter"",""1"",""3985""
","
","
","""event"",""trial"",""time""
""fullscreenenter"",""1"",""3985""
","
","","","495.5","","","21","4641","632","&#9776;","elianto","#3366ff99"," "," ","1","+10","[1347]","1","0","1","","","","","","","",""
"pit-trial","30","352151","0.0-2.0-8.2-0.2","battery-v0.2","","""event"",""trial"",""time""
""fullscreenenter"",""1"",""3985""
","
","
","""event"",""trial"",""time""
""fullscreenenter"",""1"",""3985""
","
","","","527.9000000000233","","","21","4641","632","&#9776;","elianto","#3366ff99"," "," ","1","+10","[1381.6000000000931]","1","0","1","","","","","","","",""
"pit-trial","31","355631","0.0-2.0-8.2-1.2","battery-v0.2","","""event"",""trial"",""time""
""fullscreenenter"",""1"",""3985""
","
","
","""event"",""trial"",""time""
""fullscreenenter"",""1"",""3985""
","
","","","615.9000000000233","","","21","4641","632","&#9776;","elianto","#3366ff99"," "," ","1","+10","[1469.0999999999767]","1","0","1","","","","","","","",""
"pit-trial","32","359021","0.0-2.0-8.2-2.2","battery-v0.2","","""event"",""trial"",""time""
""fullscreenenter"",""1"",""3985""
","
","
","""event"",""trial"",""time""
""fullscreenenter"",""1"",""3985""
","
","","","523.4000000000233","","","21","4641","632","&#9776;","elianto","#3366ff99"," "," ","1","+10","[1379.5]","1","0","1","","","","","","","",""
"pit-trial","33","362322","0.0-2.0-8.2-3.2","battery-v0.2","","""event"",""trial"",""time""
""fullscreenenter"",""1"",""3985""
","
","
","""event"",""trial"",""time""
""fullscreenenter"",""1"",""3985""
","
","","","435.29999999993015","","","21","4641","632","&#9776;","elianto","#3366ff99"," "," ","1","0","[1291.7000000000698]","1","0","1","","","","","","","",""
"pit-trial","34","365575","0.0-2.0-8.2-4.2","battery-v0.2","","""event"",""trial"",""time""
""fullscreenenter"",""1"",""3985""
","
","
","""event"",""trial"",""time""
""fullscreenenter"",""1"",""3985""
","
","","","381.19999999995343","","","21","4641","632","&#9776;","elianto","#3366ff99"," "," ","1","+10","[1235.6999999999534]","1","0","1","","","","","","","",""
"call-function","35","365580","0.0-2.0-9.0","battery-v0.2","","""event"",""trial"",""time""
""fullscreenenter"",""1"",""3985""
","
","
","""event"",""trial"",""time""
""fullscreenenter"",""1"",""3985""
","
","","","","","","","","","","","","","","","","","","","","","","","","","","",""
"pit-instructions","36","408545","0.0-2.0-10.0","battery-v0.2","","""event"",""trial"",""time""
""fullscreenenter"",""1"",""3985""
","
","
","""event"",""trial"",""time""
""fullscreenenter"",""1"",""3985""
","
","","[{""page_index"":0,""viewing_time"":7013.900000000023},{""page_index"":1,""viewing_time"":7949.5},{""page_index"":2,""viewing_time"":9435.29999999993},{""page_index"":3,""viewing_time"":10992.70000000007},{""page_index"":4,""viewing_time"":7571.399999999907}]","42963.59999999998","","","","","","","","","","","","","","","","","","","","","","","",""
"pit-trial","37","411971","0.0-2.0-11.0-0.0","battery-v0.2","","""event"",""trial"",""time""
""fullscreenenter"",""1"",""3985""
","
","
","""event"",""trial"",""time""
""fullscreenenter"",""1"",""3985""
","
","","","565.6000000000931","","","21","4641","632","&#9761;","elianto","#3366ff99","-1"," ","0","0","[1417.5]","1","0","2","","","","","","","",""
"pit-trial","38","415192","0.0-2.0-11.0-1.0","battery-v0.2","","""event"",""trial"",""time""
""fullscreenenter"",""1"",""3985""
","
","
","""event"",""trial"",""time""
""fullscreenenter"",""1"",""3985""
","
","","","358.30000000004657","","","21","4641","632","&#9761;","elianto","#3366ff99","-1"," ","0","0","[1210.5]","1","0","2","","","","","","","",""
"pit-trial","39","418243","0.0-2.0-11.0-2.0","battery-v0.2","","""event"",""trial"",""time""
""fullscreenenter"",""1"",""3985""
","
","
","""event"",""trial"",""time""
""fullscreenenter"",""1"",""3985""
","
","","","179","","","21","4641","632","&#9761;","elianto","#3366ff99","-1"," ","0","0","[1031.6000000000931]","1","0","2","","","","","","","",""
"pit-trial","40","423118","0.0-2.0-11.0-3.0","battery-v0.2","","""event"",""trial"",""time""
""fullscreenenter"",""1"",""3985""
","
","
","""event"",""trial"",""time""
""fullscreenenter"",""1"",""3985""
","
","","","-1","","","21","4641","632","&#9761;","elianto","#3366ff99","-1","-1","1","0","[]","0","0","2","","","","","","","",""
"pit-trial","41","426322","0.0-2.0-11.0-4.0","battery-v0.2","","""event"",""trial"",""time""
""fullscreenenter"",""1"",""3985""
","
","
","""event"",""trial"",""time""
""fullscreenenter"",""1"",""3985""
","
","","","344.4000000000233","","","21","4641","632","&#9761;","elianto","#3366ff99","-1"," ","0","0","[1194.4000000000233]","1","0","2","","","","","","","",""
"pit-trial","42","431203","0.0-2.0-11.1-0.1","battery-v0.2","","""event"",""trial"",""time""
""fullscreenenter"",""1"",""3985""
","
","
","""event"",""trial"",""time""
""fullscreenenter"",""1"",""3985""
","
","","","-1","","","21","4641","632","&#9761;","elianto","#3366ff99","-1","-1","1","+10","[]","0","0","2","","","","","","","",""
"pit-trial","43","436069","0.0-2.0-11.1-1.1","battery-v0.2","","""event"",""trial"",""time""
""fullscreenenter"",""1"",""3985""
","
","
","""event"",""trial"",""time""
""fullscreenenter"",""1"",""3985""
","
","","","-1","","","21","4641","632","&#9761;","elianto","#3366ff99","-1","-1","1","+10","[]","0","0","2","","","","","","","",""
"pit-trial","44","440938","0.0-2.0-11.1-2.1","battery-v0.2","","""event"",""trial"",""time""
""fullscreenenter"",""1"",""3985""
","
","
","""event"",""trial"",""time""
""fullscreenenter"",""1"",""3985""
","
","","","-1","","","21","4641","632","&#9761;","elianto","#3366ff99","-1","-1","1","+10","[]","0","0","2","","","","","","","",""
"pit-trial","45","445807","0.0-2.0-11.1-3.1","battery-v0.2","","""event"",""trial"",""time""
""fullscreenenter"",""1"",""3985""
","
","
","""event"",""trial"",""time""
""fullscreenenter"",""1"",""3985""
","
","","","-1","","","21","4641","632","&#9761;","elianto","#3366ff99","-1","-1","1","0","[]","0","0","2","","","","","","","",""
"pit-trial","46","450677","0.0-2.0-11.1-4.1","battery-v0.2","","""event"",""trial"",""time""
""fullscreenenter"",""1"",""3985""
","
","
","""event"",""trial"",""time""
""fullscreenenter"",""1"",""3985""
","
","","","-1","","","21","4641","632","&#9761;","elianto","#3366ff99","-1","-1","1","+10","[]","0","0","2","","","","","","","",""
"pit-trial","47","455140","0.0-2.0-11.2-0.2","battery-v0.2","","""event"",""trial"",""time""
""fullscreenenter"",""1"",""3985""
","
","
","""event"",""trial"",""time""
""fullscreenenter"",""1"",""3985""
","
","","","1589.1000000000931","","","21","4641","632","&#9761;","elianto","#3366ff99","-1"," ","0","0","[2450.1999999999534]","1","0","2","","","","","","","",""
"pit-trial","48","458405","0.0-2.0-11.2-1.2","battery-v0.2","","""event"",""trial"",""time""
""fullscreenenter"",""1"",""3985""
","
","
","""event"",""trial"",""time""
""fullscreenenter"",""1"",""3985""
","
","","","399","","","21","4641","632","&#9761;","elianto","#3366ff99","-1"," ","0","0","[1249.5]","1","0","2","","","","","","","",""
"pit-trial","49","463290","0.0-2.0-11.2-2.2","battery-v0.2","","""event"",""trial"",""time""
""fullscreenenter"",""1"",""3985""
","
","
","""event"",""trial"",""time""
""fullscreenenter"",""1"",""3985""
","
","","","-1","","","21","4641","632","&#9761;","elianto","#3366ff99","-1","-1","1","+10","[]","0","0","2","","","","","","","",""
"pit-trial","50","468162","0.0-2.0-11.2-3.2","battery-v0.2","","""event"",""trial"",""time""
""fullscreenenter"",""1"",""3985""
","
","
","""event"",""trial"",""time""
""fullscreenenter"",""1"",""3985""
","
","","","-1","","","21","4641","632","&#9761;","elianto","#3366ff99","-1","-1","1","0","[]","0","0","2","","","","","","","",""
"pit-trial","51","471352","0.0-2.0-11.2-4.2","battery-v0.2","","""event"",""trial"",""time""
""fullscreenenter"",""1"",""3985""
","
","
","""event"",""trial"",""time""
""fullscreenenter"",""1"",""3985""
","
","","","326.19999999995343","","","21","4641","632","&#9761;","elianto","#3366ff99","-1"," ","0","0","[1176.5999999999767]","1","0","2","","","","","","","",""
"pit-trial","52","474732","0.0-2.0-11.3-0.3","battery-v0.2","","""event"",""trial"",""time""
""fullscreenenter"",""1"",""3985""
","
","
","""event"",""trial"",""time""
""fullscreenenter"",""1"",""3985""
","
","","","506.5","","","21","4641","632","&#9761;","elianto","#3366ff99","-1"," ","0","0","[1358.7999999999302]","1","0","2","","","","","","","",""
"pit-trial","53","479608","0.0-2.0-11.3-1.3","battery-v0.2","","""event"",""trial"",""time""
""fullscreenenter"",""1"",""3985""
","
","
","""event"",""trial"",""time""
""fullscreenenter"",""1"",""3985""
","
","","","-1","","","21","4641","632","&#9761;","elianto","#3366ff99","-1","-1","1","+10","[]","0","0","2","","","","","","","",""
"pit-trial","54","484485","0.0-2.0-11.3-2.3","battery-v0.2","","""event"",""trial"",""time""
""fullscreenenter"",""1"",""3985""
","
","
","""event"",""trial"",""time""
""fullscreenenter"",""1"",""3985""
","
","","","-1","","","21","4641","632","&#9761;","elianto","#3366ff99","-1","-1","1","+10","[]","0","0","2","","","","","","","",""
"pit-trial","55","489363","0.0-2.0-11.3-3.3","battery-v0.2","","""event"",""trial"",""time""
""fullscreenenter"",""1"",""3985""
","
","
","""event"",""trial"",""time""
""fullscreenenter"",""1"",""3985""
","
","","","-1","","","21","4641","632","&#9761;","elianto","#3366ff99","-1","-1","1","0","[]","0","0","2","","","","","","","",""
"pit-trial","56","492597","0.0-2.0-11.3-4.3","battery-v0.2","","""event"",""trial"",""time""
""fullscreenenter"",""1"",""3985""
","
","
","""event"",""trial"",""time""
""fullscreenenter"",""1"",""3985""
","
","","","369.4000000000233","","","21","4641","632","&#9761;","elianto","#3366ff99","-1"," ","0","0","[1221.4000000000233]","1","0","2","","","","","","","",""
"call-function","57","492600","0.0-2.0-12.0","battery-v0.2","","""event"",""trial"",""time""
""fullscreenenter"",""1"",""3985""
","
","
","""event"",""trial"",""time""
""fullscreenenter"",""1"",""3985""
","
","","","","","","","","","","","","","","","","","","","","","","","","","","",""
"pit-instructions","58","563779","0.0-2.0-13.0","battery-v0.2","","""event"",""trial"",""time""
""fullscreenenter"",""1"",""3985""
","
","
","""event"",""trial"",""time""
""fullscreenenter"",""1"",""3985""
","
","","[{""page_index"":0,""viewing_time"":15553.900000000023},{""page_index"":1,""viewing_time"":10598.79999999993},{""page_index"":2,""viewing_time"":4150.300000000047},{""page_index"":3,""viewing_time"":12736.400000000023},{""page_index"":4,""viewing_time"":28145}]","71185","","","","","","","","","","","","","","","","","","","","","","","",""
"pit-trial","59","568656","0.0-2.0-14.0-0.0","battery-v0.2","","""event"",""trial"",""time""
""fullscreenenter"",""1"",""3985""
","
","
","""event"",""trial"",""time""
""fullscreenenter"",""1"",""3985""
","
","","","-1","","","21","4641","632","&#9826;","elianto","#f73b6a7A","-1","-1","1","0","[]","0","0","3","","","","","","","",""
"pit-trial","60","573526","0.0-2.0-14.0-1.0","battery-v0.2","","""event"",""trial"",""time""
""fullscreenenter"",""1"",""3985""
","
","
","""event"",""trial"",""time""
""fullscreenenter"",""1"",""3985""
","
","","","-1","","","21","4641","632","&#9826;","elianto","#f73b6a7A","-1","-1","1","0","[]","0","0","3","","","","","","","",""
"pit-trial","61","578398","0.0-2.0-14.0-2.0","battery-v0.2","","""event"",""trial"",""time""
""fullscreenenter"",""1"",""3985""
","
","
","""event"",""trial"",""time""
""fullscreenenter"",""1"",""3985""
","
","","","-1","","","21","4641","632","&#9826;","elianto","#f73b6a7A","-1","-1","1","0","[]","0","0","3","","","","","","","",""
"pit-trial","62","583268","0.0-2.0-14.0-3.0","battery-v0.2","","""event"",""trial"",""time""
""fullscreenenter"",""1"",""3985""
","
","
","""event"",""trial"",""time""
""fullscreenenter"",""1"",""3985""
","
","","","-1","","","21","4641","632","&#9826;","elianto","#f73b6a7A","-1","-1","1","-10","[]","0","0","3","","","","","","","",""
"pit-trial","63","588132","0.0-2.0-14.0-4.0","battery-v0.2","","""event"",""trial"",""time""
""fullscreenenter"",""1"",""3985""
","
","
","""event"",""trial"",""time""
""fullscreenenter"",""1"",""3985""
","
","","","-1","","","21","4641","632","&#9826;","elianto","#f73b6a7A","-1","-1","1","0","[]","0","0","3","","","","","","","",""
"pit-trial","64","593010","0.0-2.0-14.1-0.1","battery-v0.2","","""event"",""trial"",""time""
""fullscreenenter"",""1"",""3985""
","
","
","""event"",""trial"",""time""
""fullscreenenter"",""1"",""3985""
","
","","","-1","","","21","4641","632","&#9826;","elianto","#f73b6a7A","-1","-1","1","0","[]","0","0","3","","","","","","","",""
"pit-trial","65","597885","0.0-2.0-14.1-1.1","battery-v0.2","","""event"",""trial"",""time""
""fullscreenenter"",""1"",""3985""
","
","
","""event"",""trial"",""time""
""fullscreenenter"",""1"",""3985""
","
","","","-1","","","21","4641","632","&#9826;","elianto","#f73b6a7A","-1","-1","1","0","[]","0","0","3","","","","","","","",""
"pit-trial","66","602770","0.0-2.0-14.1-2.1","battery-v0.2","","""event"",""trial"",""time""
""fullscreenenter"",""1"",""3985""
","
","
","""event"",""trial"",""time""
""fullscreenenter"",""1"",""3985""
","
","","","-1","","","21","4641","632","&#9826;","elianto","#f73b6a7A","-1","-1","1","0","[]","0","0","3","","","","","","","",""
"pit-trial","67","607637","0.0-2.0-14.1-3.1","battery-v0.2","","""event"",""trial"",""time""
""fullscreenenter"",""1"",""3985""
","
","
","""event"",""trial"",""time""
""fullscreenenter"",""1"",""3985""
","
","","","-1","","","21","4641","632","&#9826;","elianto","#f73b6a7A","-1","-1","1","-10","[]","0","0","3","","","","","","","",""
"pit-trial","68","612501","0.0-2.0-14.1-4.1","battery-v0.2","","""event"",""trial"",""time""
""fullscreenenter"",""1"",""3985""
","
","
","""event"",""trial"",""time""
""fullscreenenter"",""1"",""3985""
","
","","","-1","","","21","4641","632","&#9826;","elianto","#f73b6a7A","-1","-1","1","0","[]","0","0","3","","","","","","","",""
"pit-trial","69","617383","0.0-2.0-14.2-0.2","battery-v0.2","","""event"",""trial"",""time""
""fullscreenenter"",""1"",""3985""
","
","
","""event"",""trial"",""time""
""fullscreenenter"",""1"",""3985""
","
","","","-1","","","21","4641","632","&#9826;","elianto","#f73b6a7A","-1","-1","1","0","[]","0","0","3","","","","","","","",""
"pit-trial","70","622266","0.0-2.0-14.2-1.2","battery-v0.2","","""event"",""trial"",""time""
""fullscreenenter"",""1"",""3985""
","
","
","""event"",""trial"",""time""
""fullscreenenter"",""1"",""3985""
","
","","","-1","","","21","4641","632","&#9826;","elianto","#f73b6a7A","-1","-1","1","0","[]","0","0","3","","","","","","","",""
"pit-trial","71","627133","0.0-2.0-14.2-2.2","battery-v0.2","","""event"",""trial"",""time""
""fullscreenenter"",""1"",""3985""
","
","
","""event"",""trial"",""time""
""fullscreenenter"",""1"",""3985""
","
","","","-1","","","21","4641","632","&#9826;","elianto","#f73b6a7A","-1","-1","1","0","[]","0","0","3","","","","","","","",""
"pit-trial","72","631999","0.0-2.0-14.2-3.2","battery-v0.2","","""event"",""trial"",""time""
""fullscreenenter"",""1"",""3985""
","
","
","""event"",""trial"",""time""
""fullscreenenter"",""1"",""3985""
","
","","","-1","","","21","4641","632","&#9826;","elianto","#f73b6a7A","-1","-1","1","-10","[]","0","0","3","","","","","","","",""
"pit-trial","73","636868","0.0-2.0-14.2-4.2","battery-v0.2","","""event"",""trial"",""time""
""fullscreenenter"",""1"",""3985""
","
","
","""event"",""trial"",""time""
""fullscreenenter"",""1"",""3985""
","
","","","-1","","","21","4641","632","&#9826;","elianto","#f73b6a7A","-1","-1","1","0","[]","0","0","3","","","","","","","",""
"pit-trial","74","641733","0.0-2.0-14.3-0.3","battery-v0.2","","""event"",""trial"",""time""
""fullscreenenter"",""1"",""3985""
","
","
","""event"",""trial"",""time""
""fullscreenenter"",""1"",""3985""
","
","","","-1","","","21","4641","632","&#9826;","elianto","#f73b6a7A","-1","-1","1","0","[]","0","0","3","","","","","","","",""
"pit-trial","75","646604","0.0-2.0-14.3-1.3","battery-v0.2","","""event"",""trial"",""time""
""fullscreenenter"",""1"",""3985""
","
","
","""event"",""trial"",""time""
""fullscreenenter"",""1"",""3985""
","
","","","-1","","","21","4641","632","&#9826;","elianto","#f73b6a7A","-1","-1","1","0","[]","0","0","3","","","","","","","",""
"pit-trial","76","651480","0.0-2.0-14.3-2.3","battery-v0.2","","""event"",""trial"",""time""
""fullscreenenter"",""1"",""3985""
","
","
","""event"",""trial"",""time""
""fullscreenenter"",""1"",""3985""
","
","","","-1","","","21","4641","632","&#9826;","elianto","#f73b6a7A","-1","-1","1","0","[]","0","0","3","","","","","","","",""
"pit-trial","77","656347","0.0-2.0-14.3-3.3","battery-v0.2","","""event"",""trial"",""time""
""fullscreenenter"",""1"",""3985""
","
","
","""event"",""trial"",""time""
""fullscreenenter"",""1"",""3985""
","
","","","-1","","","21","4641","632","&#9826;","elianto","#f73b6a7A","-1","-1","1","-10","[]","0","0","3","","","","","","","",""
"pit-trial","78","661209","0.0-2.0-14.3-4.3","battery-v0.2","","""event"",""trial"",""time""
""fullscreenenter"",""1"",""3985""
","
","
","""event"",""trial"",""time""
""fullscreenenter"",""1"",""3985""
","
","","","-1","","","21","4641","632","&#9826;","elianto","#f73b6a7A","-1","-1","1","0","[]","0","0","3","","","","","","","",""
"call-function","79","661211","0.0-2.0-15.0","battery-v0.2","","""event"",""trial"",""time""
""fullscreenenter"",""1"",""3985""
","
","
","""event"",""trial"",""time""
""fullscreenenter"",""1"",""3985""
","
","","","","","","","","","","","","","","","","","","","","","","","","","","",""
"pit-instructions","80","692714","0.0-2.0-16.0","battery-v0.2","","""event"",""trial"",""time""
""fullscreenenter"",""1"",""3985""
","
","
","""event"",""trial"",""time""
""fullscreenenter"",""1"",""3985""
","
","","[{""page_index"":0,""viewing_time"":7128.29999999993},{""page_index"":1,""viewing_time"":8697.400000000023},{""page_index"":2,""viewing_time"":4192.20000000007},{""page_index"":3,""viewing_time"":11478.099999999977}]","31496.79999999993","","","","","","","","","","","","","","","","","","","","","","","",""
"pit-trial","81","696319","0.0-2.0-17.0-0.0","battery-v0.2","","""event"",""trial"",""time""
""fullscreenenter"",""1"",""3985""
","
","
","""event"",""trial"",""time""
""fullscreenenter"",""1"",""3985""
","
","","","732","","","21","4641","632","&#9789;","elianto","#f73b6a7A"," "," ","1","0","[1586.3000000000466]","1","0","4","","","","","","","",""
"pit-trial","82","699550","0.0-2.0-17.0-1.0","battery-v0.2","","""event"",""trial"",""time""
""fullscreenenter"",""1"",""3985""
","
","
","""event"",""trial"",""time""
""fullscreenenter"",""1"",""3985""
","
","","","360.69999999995343","","","21","4641","632","&#9789;","elianto","#f73b6a7A"," "," ","1","0","[1213.7999999999302]","1","0","4","","","","","","","",""
"pit-trial","83","702971","0.0-2.0-17.0-2.0","battery-v0.2","","""event"",""trial"",""time""
""fullscreenenter"",""1"",""3985""
","
","
","""event"",""trial"",""time""
""fullscreenenter"",""1"",""3985""
","
","","","548.0999999999767","","","21","4641","632","&#9789;","elianto","#f73b6a7A"," "," ","1","0","[1402.4000000000233]","1","0","4","","","","","","","",""
"pit-trial","84","706248","0.0-2.0-17.0-3.0","battery-v0.2","","""event"",""trial"",""time""
""fullscreenenter"",""1"",""3985""
","
","
","""event"",""trial"",""time""
""fullscreenenter"",""1"",""3985""
","
","","","421.5","","","21","4641","632","&#9789;","elianto","#f73b6a7A"," "," ","1","-10","[1271.5]","1","0","4","","","","","","","",""
"pit-trial","85","709271","0.0-2.0-17.0-4.0","battery-v0.2","","""event"",""trial"",""time""
""fullscreenenter"",""1"",""3985""
","
","
","""event"",""trial"",""time""
""fullscreenenter"",""1"",""3985""
","
","","","163.90000000002328","","","21","4641","632","&#9789;","elianto","#f73b6a7A"," "," ","1","0","[1018.8000000000466]","1","0","4","","","","","","","",""
"pit-trial","86","712267","0.0-2.0-17.1-0.1","battery-v0.2","","""event"",""trial"",""time""
""fullscreenenter"",""1"",""3985""
","
","
","""event"",""trial"",""time""
""fullscreenenter"",""1"",""3985""
","
","","","129","","","21","4641","632","&#9789;","elianto","#f73b6a7A"," "," ","1","0","[982.9000000000233]","1","0","4","","","","","","","",""
"pit-trial","87","715317","0.0-2.0-17.1-1.1","battery-v0.2","","""event"",""trial"",""time""
""fullscreenenter"",""1"",""3985""
","
","
","""event"",""trial"",""time""
""fullscreenenter"",""1"",""3985""
","
","","","186.89999999990687","","","21","4641","632","&#9789;","elianto","#f73b6a7A"," "," ","1","0","[1039.2999999999302]","1","0","4","","","","","","","",""
"pit-trial","88","718386","0.0-2.0-17.1-2.1","battery-v0.2","","""event"",""trial"",""time""
""fullscreenenter"",""1"",""3985""
","
","
","""event"",""trial"",""time""
""fullscreenenter"",""1"",""3985""
","
","","","204.90000000002328","","","21","4641","632","&#9789;","elianto","#f73b6a7A"," "," ","1","0","[1058.8000000000466]","1","0","4","","","","","","","",""
"pit-trial","89","721388","0.0-2.0-17.1-3.1","battery-v0.2","","""event"",""trial"",""time""
""fullscreenenter"",""1"",""3985""
","
","
","""event"",""trial"",""time""
""fullscreenenter"",""1"",""3985""
","
","","","133.59999999997672","","","21","4641","632","&#9789;","elianto","#f73b6a7A"," "," ","1","-10","[986]","1","0","4","","","","","","","",""
"pit-trial","90","724431","0.0-2.0-17.1-4.1","battery-v0.2","","""event"",""trial"",""time""
""fullscreenenter"",""1"",""3985""
","
","
","""event"",""trial"",""time""
""fullscreenenter"",""1"",""3985""
","
","","","172.70000000006985","","","21","4641","632","&#9789;","elianto","#f73b6a7A"," "," ","1","0","[1025]","1","0","4","","","","","","","",""
"pit-trial","91","727382","0.0-2.0-17.2-0.2","battery-v0.2","","""event"",""trial"",""time""
""fullscreenenter"",""1"",""3985""
","
","
","""event"",""trial"",""time""
""fullscreenenter"",""1"",""3985""
","
","","","74.5","","","21","4641","632","&#9789;","elianto","#f73b6a7A"," "," ","1","0","[927.1999999999534]","1","0","4","","","","","","","",""
"pit-trial","92","730581","0.0-2.0-17.2-1.2","battery-v0.2","","""event"",""trial"",""time""
""fullscreenenter"",""1"",""3985""
","
","
","""event"",""trial"",""time""
""fullscreenenter"",""1"",""3985""
","
","","","332.0999999999767","","","21","4641","632","&#9789;","elianto","#f73b6a7A"," "," ","1","0","[1185.4000000000233]","1","0","4","","","","","","","",""
"pit-trial","93","734212","0.0-2.0-17.2-2.2","battery-v0.2","","""event"",""trial"",""time""
""fullscreenenter"",""1"",""3985""
","
","
","""event"",""trial"",""time""
""fullscreenenter"",""1"",""3985""
","
","","","769.5","","","21","4641","632","&#9789;","elianto","#f73b6a7A"," "," ","1","0","[1622.2999999999302]","1","0","4","","","","","","","",""
"pit-trial","94","737648","0.0-2.0-17.2-3.2","battery-v0.2","","""event"",""trial"",""time""
""fullscreenenter"",""1"",""3985""
","
","
","""event"",""trial"",""time""
""fullscreenenter"",""1"",""3985""
","
","","","577","","","21","4641","632","&#9789;","elianto","#f73b6a7A"," "," ","1","-10","[1432.0999999999767]","1","0","4","","","","","","","",""
"pit-trial","95","741222","0.0-2.0-17.2-4.2","battery-v0.2","","""event"",""trial"",""time""
""fullscreenenter"",""1"",""3985""
","
","
","""event"",""trial"",""time""
""fullscreenenter"",""1"",""3985""
","
","","","708","","","21","4641","632","&#9789;","elianto","#f73b6a7A"," "," ","1","0","[1559.9000000000233]","1","0","4","","","","","","","",""
"pit-trial","96","744185","0.0-2.0-17.3-0.3","battery-v0.2","","""event"",""trial"",""time""
""fullscreenenter"",""1"",""3985""
","
","
","""event"",""trial"",""time""
""fullscreenenter"",""1"",""3985""
","
","","","104.09999999997672","","","21","4641","632","&#9789;","elianto","#f73b6a7A"," "," ","1","0","[954.7000000000698]","1","0","4","","","","","","","",""
"pit-trial","97","747261","0.0-2.0-17.3-1.3","battery-v0.2","","""event"",""trial"",""time""
""fullscreenenter"",""1"",""3985""
","
","
","""event"",""trial"",""time""
""fullscreenenter"",""1"",""3985""
","
","","","213.39999999990687","","","21","4641","632","&#9789;","elianto","#f73b6a7A"," "," ","1","0","[1065.0999999999767]","1","0","4","","","","","","","",""
"pit-trial","98","750323","0.0-2.0-17.3-2.3","battery-v0.2","","""event"",""trial"",""time""
""fullscreenenter"",""1"",""3985""
","
","
","""event"",""trial"",""time""
""fullscreenenter"",""1"",""3985""
","
","","","195.90000000002328","","","21","4641","632","&#9789;","elianto","#f73b6a7A"," "," ","1","0","[1050.4000000000233]","1","0","4","","","","","","","",""
"pit-trial","99","753615","0.0-2.0-17.3-3.3","battery-v0.2","","""event"",""trial"",""time""
""fullscreenenter"",""1"",""3985""
","
","
","""event"",""trial"",""time""
""fullscreenenter"",""1"",""3985""
","
","","","422.5","","","21","4641","632","&#9789;","elianto","#f73b6a7A"," "," ","1","-10","[1275.5]","1","0","4","","","","","","","",""
"pit-trial","100","756531","0.0-2.0-17.3-4.3","battery-v0.2","","""event"",""trial"",""time""
""fullscreenenter"",""1"",""3985""
","
","
","""event"",""trial"",""time""
""fullscreenenter"",""1"",""3985""
","
","","","52.199999999953434","","","21","4641","632","&#9789;","elianto","#f73b6a7A"," "," ","1","0","[908]","1","0","4","","","","","","","",""
"call-function","101","756535","0.0-2.0-18.0","battery-v0.2","","""event"",""trial"",""time""
""fullscreenenter"",""1"",""3985""
","
","
","""event"",""trial"",""time""
""fullscreenenter"",""1"",""3985""
","
","","","","","","","","","","","","","","","","","","","","","","","","","","",""
"pit-instructions","102","888710","0.0-2.0-19.0","battery-v0.2","","""event"",""trial"",""time""
""fullscreenenter"",""1"",""3985""
","
","
","""event"",""trial"",""time""
""fullscreenenter"",""1"",""3985""
","
","","[{""page_index"":0,""viewing_time"":11872.699999999953},{""page_index"":1,""viewing_time"":21065.199999999953},{""page_index"":2,""viewing_time"":40792.200000000186},{""page_index"":3,""viewing_time"":7384.5},{""page_index"":4,""viewing_time"":8264.199999999953},{""page_index"":5,""viewing_time"":8939.800000000047},{""page_index"":6,""viewing_time"":8424.899999999907},{""page_index"":7,""viewing_time"":5811},{""page_index"":8,""viewing_time"":4346.899999999907},{""page_index"":7,""viewing_time"":849},{""page_index"":6,""viewing_time"":5364.90000000014},{""page_index"":7,""viewing_time"":5363.699999999953},{""page_index"":8,""viewing_time"":3696.3000000000466}]","132176.5","","","","","","","","","","","","","","","","","","","","","","","",""
"pit-comprehension","103","893649","0.0-2.0-20.0-0.0","battery-v0.2","","""event"",""trial"",""time""
""fullscreenenter"",""1"",""3985""
","
","
","""event"",""trial"",""time""
""fullscreenenter"",""1"",""3985""
","
","","","4925.59999999986","[""SPACE""]","0","21","4641","632","","","","","","","","","","","","","","","","","","",""
"pit-instructions","104","896398","0.0-2.0-20.0-1.0","battery-v0.2","","""event"",""trial"",""time""
""fullscreenenter"",""1"",""3985""
","
","
","""event"",""trial"",""time""
""fullscreenenter"",""1"",""3985""
","
","","[{""page_index"":0,""viewing_time"":2630}]","2630.5","","","","","","","","","","","","","","","","","","","","","","","",""
"pit-comprehension","105","901505","0.0-2.0-21.0-0.0","battery-v0.2","","""event"",""trial"",""time""
""fullscreenenter"",""1"",""3985""
","
","
","""event"",""trial"",""time""
""fullscreenenter"",""1"",""3985""
","
","","","5100.399999999907","[""10""]","0","21","4641","632","","","","","","","","","","","","","","","","","","",""
"pit-instructions","106","903690","0.0-2.0-21.0-1.0","battery-v0.2","","""event"",""trial"",""time""
""fullscreenenter"",""1"",""3985""
","
","
","""event"",""trial"",""time""
""fullscreenenter"",""1"",""3985""
","
","","[{""page_index"":0,""viewing_time"":2083.1999999999534}]","2083.8000000000466","","","","","","","","","","","","","","","","","","","","","","","",""
"pit-comprehension","107","910244","0.0-2.0-22.0-0.0","battery-v0.2","","""event"",""trial"",""time""
""fullscreenenter"",""1"",""3985""
","
","
","""event"",""trial"",""time""
""fullscreenenter"",""1"",""3985""
","
","","","6545.899999999907","[""0""]","0","21","4641","632","","","","","","","","","","","","","","","","","","",""
"pit-instructions","108","913077","0.0-2.0-22.0-1.0","battery-v0.2","","""event"",""trial"",""time""
""fullscreenenter"",""1"",""3985""
","
","
","""event"",""trial"",""time""
""fullscreenenter"",""1"",""3985""
","
","","[{""page_index"":0,""viewing_time"":2752.5}]","2753.100000000093","","","","","","","","","","","","","","","","","","","","","","","",""
"pit-comprehension","109","921594","0.0-2.0-23.0-0.0","battery-v0.2","","""event"",""trial"",""time""
""fullscreenenter"",""1"",""3985""
","
","
","""event"",""trial"",""time""
""fullscreenenter"",""1"",""3985""
","
","","","8511.09999999986","[""True""]","0","21","4641","632","","","","","","","","","","","","","","","","","","",""
"pit-instructions","110","924314","0.0-2.0-23.0-1.0","battery-v0.2","","""event"",""trial"",""time""
""fullscreenenter"",""1"",""3985""
","
","
","""event"",""trial"",""time""
""fullscreenenter"",""1"",""3985""
","
","","[{""page_index"":0,""viewing_time"":2641.9000000001397}]","2642.5","","","","","","","","","","","","","","","","","","","","","","","",""
"pit-comprehension","111","931752","0.0-2.0-24.0-0.0","battery-v0.2","","""event"",""trial"",""time""
""fullscreenenter"",""1"",""3985""
","
","
","""event"",""trial"",""time""
""fullscreenenter"",""1"",""3985""
","
","","","7431.699999999953","[""True""]","0","21","4641","632","","","","","","","","","","","","","","","","","","",""
"pit-instructions","112","934614","0.0-2.0-24.0-1.0","battery-v0.2","","""event"",""trial"",""time""
""fullscreenenter"",""1"",""3985""
","
","
","""event"",""trial"",""time""
""fullscreenenter"",""1"",""3985""
","
","","[{""page_index"":0,""viewing_time"":2755.5}]","2756.2000000001863","","","","","","","","","","","","","","","","","","","","","","","",""
"pit-comprehension","113","941101","0.0-2.0-25.0-0.0","battery-v0.2","","""event"",""trial"",""time""
""fullscreenenter"",""1"",""3985""
","
","
","""event"",""trial"",""time""
""fullscreenenter"",""1"",""3985""
","
","","","6474.899999999907","[""True""]","0","21","4641","632","","","","","","","","","","","","","","","","","","",""
"pit-instructions","114","942721","0.0-2.0-25.0-1.0","battery-v0.2","","""event"",""trial"",""time""
""fullscreenenter"",""1"",""3985""
","
","
","""event"",""trial"",""time""
""fullscreenenter"",""1"",""3985""
","
","","[{""page_index"":0,""viewing_time"":1482.3000000000466}]","1483","","","","","","","","","","","","","","","","","","","","","","","",""
"pit-comprehension","115","947472","0.0-2.0-26.0-0.0","battery-v0.2","","""event"",""trial"",""time""
""fullscreenenter"",""1"",""3985""
","
","
","""event"",""trial"",""time""
""fullscreenenter"",""1"",""3985""
","
","","","4745","[""False""]","0","21","4641","632","","","","","","","","","","","","","","","","","","",""
"pit-instructions","116","949369","0.0-2.0-26.0-1.0","battery-v0.2","","""event"",""trial"",""time""
""fullscreenenter"",""1"",""3985""
","
","
","""event"",""trial"",""time""
""fullscreenenter"",""1"",""3985""
","
","","[{""page_index"":0,""viewing_time"":1805.0999999998603}]","1806.0999999998603","","","","","","","","","","","","","","","","","","","","","","","",""
"pit-instructions","117","966066","0.0-3.0","battery-v0.2","","""event"",""trial"",""time""
""fullscreenenter"",""1"",""3985""
","
","
","""event"",""trial"",""time""
""fullscreenenter"",""1"",""3985""
","
","","[{""page_index"":0,""viewing_time"":3515.9000000001397},{""page_index"":1,""viewing_time"":5691.199999999953},{""page_index"":2,""viewing_time"":7487.199999999953}]","16694.800000000047","","","","","","","","","","","","","","","","","","","","","","","",""
"pit-trial","118","969776","0.0-4.0","battery-v0.2","","""event"",""trial"",""time""
""fullscreenenter"",""1"",""3985""
","
","
","""event"",""trial"",""time""
""fullscreenenter"",""1"",""3985""
","
","","","822.5","","","21","4641","632","&#9728;","elianto","#f73b6a7A","-1"," ","0","-10","[1681.5]","1","1","","","4641","1","0","4","lose","no-go","0"
"pit-trial","119","973182","0.0-5.0","battery-v0.2","","""event"",""trial"",""time""
""fullscreenenter"",""1"",""3985""
","
","
","""event"",""trial"",""time""
""fullscreenenter"",""1"",""3985""
","
","","","540.8000000000466","","","21","4641","632","&#9733;","elianto","#3366ff99","-1"," ","0","+10","[1393.2000000001863]","1","1","","","4641","2","2","2","win","no-go","1"
"pit-trial","120","978052","0.0-6.0","battery-v0.2","","""event"",""trial"",""time""
""fullscreenenter"",""1"",""3985""
","
","
","""event"",""trial"",""time""
""fullscreenenter"",""1"",""3985""
","
","","","-1","","","21","4641","632","&#9730;","elianto","#3366ff99"," ","-1","0","+10","[]","0","1","","","4641","3","1","1","win","go","1"
"pit-trial","121","981548","0.0-7.0","battery-v0.2","","""event"",""trial"",""time""
""fullscreenenter"",""1"",""3985""
","
","
","""event"",""trial"",""time""
""fullscreenenter"",""1"",""3985""
","
","","","616.2999999998137","","","21","4641","632","&#9752;","elianto","#f73b6a7A"," "," ","1","0","[1475.4000000001397]","1","1","","","4641","4","3","3","lose","go","0"
"pit-trial","122","985054","0.0-8.0","battery-v0.2","","""event"",""trial"",""time""
""fullscreenenter"",""1"",""3985""
","
","
","""event"",""trial"",""time""
""fullscreenenter"",""1"",""3985""
","
","","","635.6999999999534","","","21","4641","632","&#9733;","elianto","#3366ff99","-1"," ","0","+10","[1487.5]","1","1","","","4641","5","2","2","win","no-go","1"
"pit-trial","123","988486","0.0-9.0","battery-v0.2","","""event"",""trial"",""time""
""fullscreenenter"",""1"",""3985""
","
","
","""event"",""trial"",""time""
""fullscreenenter"",""1"",""3985""
","
","","","561.1000000000931","","","21","4641","632","&#9730;","elianto","#3366ff99"," "," ","1","+10","[1417.1000000000931]","1","1","","","4641","6","1","1","win","go","0"
"pit-trial","124","992802","0.0-10.0","battery-v0.2","","""event"",""trial"",""time""
""fullscreenenter"",""1"",""3985""
","
","
","""event"",""trial"",""time""
""fullscreenenter"",""1"",""3985""
","
","","","1437.8000000000466","","","21","4641","632","&#9752;","elianto","#f73b6a7A"," "," ","1","0","[2294.5]","1","1","","","4641","7","3","3","lose","go","0"
"pit-trial","125","997676","0.0-11.0","battery-v0.2","","""event"",""trial"",""time""
""fullscreenenter"",""1"",""3985""
","
","
","""event"",""trial"",""time""
""fullscreenenter"",""1"",""3985""
","
","","","-1","","","21","4641","632","&#9728;","elianto","#f73b6a7A","-1","-1","1","0","[]","0","1","","","4641","8","0","4","lose","no-go","0"
"pit-trial","126","1002549","0.0-12.0","battery-v0.2","","""event"",""trial"",""time""
""fullscreenenter"",""1"",""3985""
","
","
","""event"",""trial"",""time""
""fullscreenenter"",""1"",""3985""
","
","","","-1","","","21","4641","632","&#9730;","elianto","#3366ff99"," ","-1","0","0","[]","0","1","","","4641","9","1","1","win","go","0"
"pit-trial","127","1005935","0.0-13.0","battery-v0.2","","""event"",""trial"",""time""
""fullscreenenter"",""1"",""3985""
","
","
","""event"",""trial"",""time""
""fullscreenenter"",""1"",""3985""
","
","","","516.1000000000931","","","21","4641","632","&#9733;","elianto","#3366ff99","-1"," ","0","0","[1373.8000000000466]","1","1","","","4641","10","2","2","win","no-go","0"
"pit-trial","128","1009723","0.0-14.0","battery-v0.2","","""event"",""trial"",""time""
""fullscreenenter"",""1"",""3985""
","
","
","""event"",""trial"",""time""
""fullscreenenter"",""1"",""3985""
","
","","","925.4000000001397","","","21","4641","632","&#9752;","elianto","#f73b6a7A"," "," ","1","0","[1780.1999999999534]","1","1","","","4641","11","3","3","lose","go","0"
"pit-trial","129","1014615","0.0-15.0","battery-v0.2","","""event"",""trial"",""time""
""fullscreenenter"",""1"",""3985""
","
","
","""event"",""trial"",""time""
""fullscreenenter"",""1"",""3985""
","
","","","-1","","","21","4641","632","&#9728;","elianto","#f73b6a7A","-1","-1","1","-10","[]","0","1","","","4641","12","0","4","lose","no-go","1"
"pit-trial","130","1017985","0.0-16.0","battery-v0.2","","""event"",""trial"",""time""
""fullscreenenter"",""1"",""3985""
","
","
","""event"",""trial"",""time""
""fullscreenenter"",""1"",""3985""
","
","","","495.19999999995343","","","21","4641","632","&#9730;","elianto","#3366ff99"," "," ","1","+10","[1352.5999999998603]","1","1","","","4641","13","1","1","win","go","0"
"pit-trial","131","1021797","0.0-17.0","battery-v0.2","","""event"",""trial"",""time""
""fullscreenenter"",""1"",""3985""
","
","
","""event"",""trial"",""time""
""fullscreenenter"",""1"",""3985""
","
","","","950.8000000000466","","","21","4641","632","&#9752;","elianto","#f73b6a7A"," "," ","1","0","[1804.1999999999534]","1","1","","","4641","14","3","3","lose","go","0"
"pit-trial","132","1026673","0.0-18.0","battery-v0.2","","""event"",""trial"",""time""
""fullscreenenter"",""1"",""3985""
","
","
","""event"",""trial"",""time""
""fullscreenenter"",""1"",""3985""
","
","","","-1","","","21","4641","632","&#9728;","elianto","#f73b6a7A","-1","-1","1","0","[]","0","1","","","4641","15","0","4","lose","no-go","0"
"pit-trial","133","1031533","0.0-19.0","battery-v0.2","","""event"",""trial"",""time""
""fullscreenenter"",""1"",""3985""
","
","
","""event"",""trial"",""time""
""fullscreenenter"",""1"",""3985""
","
","","","-1","","","21","4641","632","&#9733;","elianto","#3366ff99","-1","-1","1","+10","[]","0","1","","","4641","16","2","2","win","no-go","0"
"pit-trial","134","1035375","0.0-20.0","battery-v0.2","","""event"",""trial"",""time""
""fullscreenenter"",""1"",""3985""
","
","
","""event"",""trial"",""time""
""fullscreenenter"",""1"",""3985""
","
","","","976.8999999999069","","","21","4641","632","&#9752;","elianto","#f73b6a7A"," "," ","1","-10","[1829.3999999999069]","1","1","","","4641","17","3","3","lose","go","1"
"pit-trial","135","1040246","0.0-21.0","battery-v0.2","","""event"",""trial"",""time""
""fullscreenenter"",""1"",""3985""
","
","
","""event"",""trial"",""time""
""fullscreenenter"",""1"",""3985""
","
","","","-1","","","21","4641","632","&#9733;","elianto","#3366ff99","-1","-1","1","+10","[]","0","1","","","4641","18","2","2","win","no-go","0"
"pit-trial","136","1045128","0.0-22.0","battery-v0.2","","""event"",""trial"",""time""
""fullscreenenter"",""1"",""3985""
","
","
","""event"",""trial"",""time""
""fullscreenenter"",""1"",""3985""
","
","","","-1","","","21","4641","632","&#9728;","elianto","#f73b6a7A","-1","-1","1","0","[]","0","1","","","4641","19","0","4","lose","no-go","0"
"pit-trial","137","1048467","0.0-23.0","battery-v0.2","","""event"",""trial"",""time""
""fullscreenenter"",""1"",""3985""
","
","
","""event"",""trial"",""time""
""fullscreenenter"",""1"",""3985""
","
","","","470.6999999997206","","","21","4641","632","&#9730;","elianto","#3366ff99"," "," ","1","+10","[1327]","1","1","","","4641","20","1","1","win","go","0"
"pit-instructions","138","1060855","0.0-24.0","battery-v0.2","","""event"",""trial"",""time""
""fullscreenenter"",""1"",""3985""
","
","
","""event"",""trial"",""time""
""fullscreenenter"",""1"",""3985""
","
","","[{""page_index"":0,""viewing_time"":5834.600000000093},{""page_index"":1,""viewing_time"":6550.0999999996275}]","12385.399999999907","","","","","","","","","","","","","","","","","","","","","","","",""
"pit-trial","139","1065735","0.0-25.0","battery-v0.2","","""event"",""trial"",""time""
""fullscreenenter"",""1"",""3985""
","
","
","""event"",""trial"",""time""
""fullscreenenter"",""1"",""3985""
","
","","","-1","","","21","4641","632","h","elianto","#f73b6a7A"," ","-1","0","-10","[]","0","2","","","4641","21","3","3","lose","go","0"
"pit-trial","140","1070328","0.0-26.0","battery-v0.2","","""event"",""trial"",""time""
""fullscreenenter"",""1"",""3985""
","
","
","""event"",""trial"",""time""
""fullscreenenter"",""1"",""3985""
","
","","","1720","","","21","4641","632","y","elianto","#f73b6a7A","-1"," ","0","0","[2571]","1","2","","","4641","22","2","4","lose","no-go","1"
"pit-trial","141","1075210","0.0-27.0","battery-v0.2","","""event"",""trial"",""time""
""fullscreenenter"",""1"",""3985""
","
","
","""event"",""trial"",""time""
""fullscreenenter"",""1"",""3985""
","
","","","-1","","","21","4641","632","m","elianto","#f73b6a7A","-1","-1","1","0","[]","0","2","","","4641","23","0","4","lose","no-go","0"
"pit-trial","142","1078706","0.0-28.0","battery-v0.2","","""event"",""trial"",""time""
""fullscreenenter"",""1"",""3985""
","
","
","""event"",""trial"",""time""
""fullscreenenter"",""1"",""3985""
","
","","","613.6000000000931","","","21","4641","632","r","elianto","#3366ff99"," "," ","1","+10","[1470.1000000000931]","1","2","","","4641","24","1","1","win","go","0"
"pit-trial","143","1083582","0.0-29.0","battery-v0.2","","""event"",""trial"",""time""
""fullscreenenter"",""1"",""3985""
","
","
","""event"",""trial"",""time""
""fullscreenenter"",""1"",""3985""
","
","","","-1","","","21","4641","632","y","elianto","#f73b6a7A","-1","-1","1","0","[]","0","2","","","4641","25","2","4","lose","no-go","0"
"pit-trial","144","1087730","0.0-30.0","battery-v0.2","","""event"",""trial"",""time""
""fullscreenenter"",""1"",""3985""
","
","
","""event"",""trial"",""time""
""fullscreenenter"",""1"",""3985""
","
","","","1285.0999999996275","","","21","4641","632","h","elianto","#f73b6a7A"," "," ","1","-10","[2135.100000000093]","1","2","","","4641","26","3","3","lose","go","1"
"pit-trial","145","1091677","0.0-31.0","battery-v0.2","","""event"",""trial"",""time""
""fullscreenenter"",""1"",""3985""
","
","
","""event"",""trial"",""time""
""fullscreenenter"",""1"",""3985""
","
","","","1079.0999999996275","","","21","4641","632","m","elianto","#f73b6a7A","-1"," ","0","-10","[1932]","1","2","","","4641","27","0","4","lose","no-go","0"
"pit-trial","146","1095207","0.0-32.0","battery-v0.2","","""event"",""trial"",""time""
""fullscreenenter"",""1"",""3985""
","
","
","""event"",""trial"",""time""
""fullscreenenter"",""1"",""3985""
","
","","","659.2999999998137","","","21","4641","632","r","elianto","#3366ff99"," "," ","1","+10","[1514.5999999996275]","1","2","","","4641","28","1","1","win","go","0"
"pit-trial","147","1100075","0.0-33.0","battery-v0.2","","""event"",""trial"",""time""
""fullscreenenter"",""1"",""3985""
","
","
","""event"",""trial"",""time""
""fullscreenenter"",""1"",""3985""
","
","","","-1","","","21","4641","632","h","elianto","#f73b6a7A"," ","-1","0","-10","[]","0","2","","","4641","29","3","3","lose","go","0"
"pit-trial","148","1103856","0.0-34.0","battery-v0.2","","""event"",""trial"",""time""
""fullscreenenter"",""1"",""3985""
","
","
","""event"",""trial"",""time""
""fullscreenenter"",""1"",""3985""
","
","","","917.3000000002794","","","21","4641","632","m","elianto","#f73b6a7A","-1"," ","0","-10","[1774.2000000001863]","1","2","","","4641","30","0","4","lose","no-go","0"
"pit-trial","149","1107311","0.0-35.0","battery-v0.2","","""event"",""trial"",""time""
""fullscreenenter"",""1"",""3985""
","
","
","""event"",""trial"",""time""
""fullscreenenter"",""1"",""3985""
","
","","","596.8999999999069","","","21","4641","632","r","elianto","#3366ff99"," "," ","1","+10","[1451]","1","2","","","4641","31","1","1","win","go","0"
"pit-trial","150","1111006","0.0-36.0","battery-v0.2","","""event"",""trial"",""time""
""fullscreenenter"",""1"",""3985""
","
","
","""event"",""trial"",""time""
""fullscreenenter"",""1"",""3985""
","
","","","831","","","21","4641","632","y","elianto","#f73b6a7A","-1"," ","0","-10","[1684.2999999998137]","1","2","","","4641","32","2","4","lose","no-go","0"
"pit-trial","151","1115884","0.0-37.0","battery-v0.2","","""event"",""trial"",""time""
""fullscreenenter"",""1"",""3985""
","
","
","""event"",""trial"",""time""
""fullscreenenter"",""1"",""3985""
","
","","","-1","","","21","4641","632","y","elianto","#f73b6a7A","-1","-1","1","0","[]","0","2","","","4641","33","2","4","lose","no-go","0"
"pit-trial","152","1119477","0.0-38.0","battery-v0.2","","""event"",""trial"",""time""
""fullscreenenter"",""1"",""3985""
","
","
","""event"",""trial"",""time""
""fullscreenenter"",""1"",""3985""
","
","","","727.5","","","21","4641","632","m","elianto","#f73b6a7A","-1"," ","0","-10","[1578.5999999996275]","1","2","","","4641","34","0","4","lose","no-go","0"
"pit-trial","153","1122836","0.0-39.0","battery-v0.2","","""event"",""trial"",""time""
""fullscreenenter"",""1"",""3985""
","
","
","""event"",""trial"",""time""
""fullscreenenter"",""1"",""3985""
","
","","","500.10000000009313","","","21","4641","632","r","elianto","#3366ff99"," "," ","1","0","[1351.5]","1","2","","","4641","35","1","1","win","go","1"
"pit-trial","154","1127707","0.0-40.0","battery-v0.2","","""event"",""trial"",""time""
""fullscreenenter"",""1"",""3985""
","
","
","""event"",""trial"",""time""
""fullscreenenter"",""1"",""3985""
","
","","","-1","","","21","4641","632","h","elianto","#f73b6a7A"," ","-1","0","-10","[]","0","2","","","4641","36","3","3","lose","go","0"
"pit-trial","155","1132587","0.0-41.0","battery-v0.2","","""event"",""trial"",""time""
""fullscreenenter"",""1"",""3985""
","
","
","""event"",""trial"",""time""
""fullscreenenter"",""1"",""3985""
","
","","","-1","","","21","4641","632","y","elianto","#f73b6a7A","-1","-1","1","-10","[]","0","2","","","4641","37","2","4","lose","no-go","1"
"pit-trial","156","1137463","0.0-42.0","battery-v0.2","","""event"",""trial"",""time""
""fullscreenenter"",""1"",""3985""
","
","
","""event"",""trial"",""time""
""fullscreenenter"",""1"",""3985""
","
","","","-1","","","21","4641","632","m","elianto","#f73b6a7A","-1","-1","1","0","[]","0","2","","","4641","38","0","4","lose","no-go","0"
"pit-trial","157","1140841","0.0-43.0","battery-v0.2","","""event"",""trial"",""time""
""fullscreenenter"",""1"",""3985""
","
","
","""event"",""trial"",""time""
""fullscreenenter"",""1"",""3985""
","
","","","511.6999999997206","","","21","4641","632","r","elianto","#3366ff99"," "," ","1","+10","[1364.3999999999069]","1","2","","","4641","39","1","1","win","go","0"
"pit-trial","158","1144241","0.0-44.0","battery-v0.2","","""event"",""trial"",""time""
""fullscreenenter"",""1"",""3985""
","
","
","""event"",""trial"",""time""
""fullscreenenter"",""1"",""3985""
","
","","","537.8000000002794","","","21","4641","632","h","elianto","#f73b6a7A"," "," ","1","0","[1388.2000000001863]","1","2","","","4641","40","3","3","lose","go","0"
"pit-trial","159","1147587","0.0-45.0","battery-v0.2","","""event"",""trial"",""time""
""fullscreenenter"",""1"",""3985""
","
","
","""event"",""trial"",""time""
""fullscreenenter"",""1"",""3985""
","
","","","483.20000000018626","","","21","4641","632","y","elianto","#f73b6a7A","-1"," ","0","0","[1333.2999999998137]","1","2","","","4641","41","2","4","lose","no-go","1"
"pit-trial","160","1152465","0.0-46.0","battery-v0.2","","""event"",""trial"",""time""
""fullscreenenter"",""1"",""3985""
","
","
","""event"",""trial"",""time""
""fullscreenenter"",""1"",""3985""
","
","","","-1","","","21","4641","632","m","elianto","#f73b6a7A","-1","-1","1","0","[]","0","2","","","4641","42","0","4","lose","no-go","0"
"pit-trial","161","1155869","0.0-47.0","battery-v0.2","","""event"",""trial"",""time""
""fullscreenenter"",""1"",""3985""
","
","
","""event"",""trial"",""time""
""fullscreenenter"",""1"",""3985""
","
","","","539","","","21","4641","632","r","elianto","#3366ff99"," "," ","1","0","[1391.1999999997206]","1","2","","","4641","43","1","1","win","go","1"
"pit-trial","162","1160190","0.0-48.0","battery-v0.2","","""event"",""trial"",""time""
""fullscreenenter"",""1"",""3985""
","
","
","""event"",""trial"",""time""
""fullscreenenter"",""1"",""3985""
","
","","","1463","","","21","4641","632","h","elianto","#f73b6a7A"," "," ","1","0","[2316.7000000001863]","1","2","","","4641","44","3","3","lose","go","0"
"pit-trial","163","1163898","0.0-49.0","battery-v0.2","","""event"",""trial"",""time""
""fullscreenenter"",""1"",""3985""
","
","
","""event"",""trial"",""time""
""fullscreenenter"",""1"",""3985""
","
","","","837.1000000000931","","","21","4641","632","z","elianto","#3366ff99","-1"," ","0","0","[1689.2999999998137]","1","2","","","4641","45","4","2","win","no-go","0"
"pit-trial","164","1167697","0.0-50.0","battery-v0.2","","""event"",""trial"",""time""
""fullscreenenter"",""1"",""3985""
","
","
","""event"",""trial"",""time""
""fullscreenenter"",""1"",""3985""
","
","","","933.7000000001863","","","21","4641","632","h","elianto","#f73b6a7A"," "," ","1","-10","[1791.5]","1","2","","","4641","46","3","3","lose","go","1"
"pit-trial","165","1171268","0.0-51.0","battery-v0.2","","""event"",""trial"",""time""
""fullscreenenter"",""1"",""3985""
","
","
","""event"",""trial"",""time""
""fullscreenenter"",""1"",""3985""
","
","","","708","","","21","4641","632","y","elianto","#f73b6a7A","-1"," ","0","-10","[1560.2999999998137]","1","2","","","4641","47","2","4","lose","no-go","0"
"pit-trial","166","1176139","0.0-52.0","battery-v0.2","","""event"",""trial"",""time""
""fullscreenenter"",""1"",""3985""
","
","
","""event"",""trial"",""time""
""fullscreenenter"",""1"",""3985""
","
","","","-1","","","21","4641","632","m","elianto","#f73b6a7A","-1","-1","1","0","[]","0","2","","","4641","48","0","4","lose","no-go","0"
"pit-trial","167","1179850","0.0-53.0","battery-v0.2","","""event"",""trial"",""time""
""fullscreenenter"",""1"",""3985""
","
","
","""event"",""trial"",""time""
""fullscreenenter"",""1"",""3985""
","
","","","841.3999999999069","","","21","4641","632","h","elianto","#f73b6a7A"," "," ","1","0","[1693.0999999996275]","1","2","","","4641","49","3","3","lose","go","0"
"pit-trial","168","1183333","0.0-54.0","battery-v0.2","","""event"",""trial"",""time""
""fullscreenenter"",""1"",""3985""
","
","
","""event"",""trial"",""time""
""fullscreenenter"",""1"",""3985""
","
","","","608.8999999999069","","","21","4641","632","r","elianto","#3366ff99"," "," ","1","0","[1462.1999999997206]","1","2","","","4641","50","1","1","win","go","1"
"pit-trial","169","1188211","0.0-55.0","battery-v0.2","","""event"",""trial"",""time""
""fullscreenenter"",""1"",""3985""
","
","
","""event"",""trial"",""time""
""fullscreenenter"",""1"",""3985""
","
","","","-1","","","21","4641","632","z","elianto","#3366ff99","-1","-1","1","+10","[]","0","2","","","4641","51","4","2","win","no-go","0"
"pit-trial","170","1193080","0.0-56.0","battery-v0.2","","""event"",""trial"",""time""
""fullscreenenter"",""1"",""3985""
","
","
","""event"",""trial"",""time""
""fullscreenenter"",""1"",""3985""
","
","","","-1","","","21","4641","632","m","elianto","#f73b6a7A","-1","-1","1","0","[]","0","2","","","4641","52","0","4","lose","no-go","0"
"pit-trial","171","1197953","0.0-57.0","battery-v0.2","","""event"",""trial"",""time""
""fullscreenenter"",""1"",""3985""
","
","
","""event"",""trial"",""time""
""fullscreenenter"",""1"",""3985""
","
","","","-1","","","21","4641","632","z","elianto","#3366ff99","-1","-1","1","+10","[]","0","2","","","4641","53","4","2","win","no-go","0"
"pit-trial","172","1201930","0.0-58.0","battery-v0.2","","""event"",""trial"",""time""
""fullscreenenter"",""1"",""3985""
","
","
","""event"",""trial"",""time""
""fullscreenenter"",""1"",""3985""
","
","","","1117.7999999998137","","","21","4641","632","r","elianto","#3366ff99"," "," ","1","+10","[1969]","1","2","","","4641","54","1","1","win","go","0"
"pit-trial","173","1205439","0.0-59.0","battery-v0.2","","""event"",""trial"",""time""
""fullscreenenter"",""1"",""3985""
","
","
","""event"",""trial"",""time""
""fullscreenenter"",""1"",""3985""
","
","","","644.8999999999069","","","21","4641","632","y","elianto","#f73b6a7A","-1"," ","0","-10","[1497.8999999999069]","1","2","","","4641","55","2","4","lose","no-go","0"
"pit-trial","174","1210313","0.0-60.0","battery-v0.2","","""event"",""trial"",""time""
""fullscreenenter"",""1"",""3985""
","
","
","""event"",""trial"",""time""
""fullscreenenter"",""1"",""3985""
","
","","","-1","","","21","4641","632","m","elianto","#f73b6a7A","-1","-1","1","0","[]","0","2","","","4641","56","0","4","lose","no-go","0"
"pit-trial","175","1215180","0.0-61.0","battery-v0.2","","""event"",""trial"",""time""
""fullscreenenter"",""1"",""3985""
","
","
","""event"",""trial"",""time""
""fullscreenenter"",""1"",""3985""
","
","","","-1","","","21","4641","632","m","elianto","#f73b6a7A","-1","-1","1","-10","[]","0","2","","","4641","57","0","4","lose","no-go","1"
"pit-trial","176","1218912","0.0-62.0","battery-v0.2","","""event"",""trial"",""time""
""fullscreenenter"",""1"",""3985""
","
","
","""event"",""trial"",""time""
""fullscreenenter"",""1"",""3985""
","
","","","862.3000000002794","","","21","4641","632","z","elianto","#3366ff99","-1"," ","0","0","[1715.5]","1","2","","","4641","58","4","2","win","no-go","0"
"pit-trial","177","1222646","0.0-63.0","battery-v0.2","","""event"",""trial"",""time""
""fullscreenenter"",""1"",""3985""
","
","
","""event"",""trial"",""time""
""fullscreenenter"",""1"",""3985""
","
","","","860.1000000000931","","","21","4641","632","r","elianto","#3366ff99"," "," ","1","0","[1712.6000000000931]","1","2","","","4641","59","1","1","win","go","1"
"pit-trial","178","1226468","0.0-64.0","battery-v0.2","","""event"",""trial"",""time""
""fullscreenenter"",""1"",""3985""
","
","
","""event"",""trial"",""time""
""fullscreenenter"",""1"",""3985""
","
","","","956.2999999998137","","","21","4641","632","h","elianto","#f73b6a7A"," "," ","1","0","[1809]","1","2","","","4641","60","3","3","lose","go","0"
"pit-trial","179","1231352","0.0-65.0","battery-v0.2","","""event"",""trial"",""time""
""fullscreenenter"",""1"",""3985""
","
","
","""event"",""trial"",""time""
""fullscreenenter"",""1"",""3985""
","
","","","-1","","","21","4641","632","z","elianto","#3366ff99","-1","-1","1","+10","[]","0","2","","","4641","61","4","2","win","no-go","0"
"pit-trial","180","1235231","0.0-66.0","battery-v0.2","","""event"",""trial"",""time""
""fullscreenenter"",""1"",""3985""
","
","
","""event"",""trial"",""time""
""fullscreenenter"",""1"",""3985""
","
","","","1014.8999999999069","","","21","4641","632","h","elianto","#f73b6a7A"," "," ","1","0","[1866.1999999997206]","1","2","","","4641","62","3","3","lose","go","0"
"pit-trial","181","1238628","0.0-67.0","battery-v0.2","","""event"",""trial"",""time""
""fullscreenenter"",""1"",""3985""
","
","
","""event"",""trial"",""time""
""fullscreenenter"",""1"",""3985""
","
","","","532.1000000000931","","","21","4641","632","r","elianto","#3366ff99"," "," ","1","+10","[1383.7000000001863]","1","2","","","4641","63","1","1","win","go","0"
"pit-trial","182","1242408","0.0-68.0","battery-v0.2","","""event"",""trial"",""time""
""fullscreenenter"",""1"",""3985""
","
","
","""event"",""trial"",""time""
""fullscreenenter"",""1"",""3985""
","
","","","907","","","21","4641","632","y","elianto","#f73b6a7A","-1"," ","0","-10","[1761.9000000003725]","1","2","","","4641","64","2","4","lose","no-go","0"
"pit-trial","183","1245917","0.0-69.0","battery-v0.2","","""event"",""trial"",""time""
""fullscreenenter"",""1"",""3985""
","
","
","""event"",""trial"",""time""
""fullscreenenter"",""1"",""3985""
","
","","","645.6000000000931","","","21","4641","632","r","elianto","#3366ff99"," "," ","1","+10","[1499.2000000001863]","1","2","","","4641","65","1","1","win","go","0"
"pit-trial","184","1250789","0.0-70.0","battery-v0.2","","""event"",""trial"",""time""
""fullscreenenter"",""1"",""3985""
","
","
","""event"",""trial"",""time""
""fullscreenenter"",""1"",""3985""
","
","","","-1","","","21","4641","632","y","elianto","#f73b6a7A","-1","-1","1","0","[]","0","2","","","4641","66","2","4","lose","no-go","0"
"pit-trial","185","1255666","0.0-71.0","battery-v0.2","","""event"",""trial"",""time""
""fullscreenenter"",""1"",""3985""
","
","
","""event"",""trial"",""time""
""fullscreenenter"",""1"",""3985""
","
","","","-1","","","21","4641","632","z","elianto","#3366ff99","-1","-1","1","0","[]","0","2","","","4641","67","4","2","win","no-go","1"
"pit-trial","186","1259457","0.0-72.0","battery-v0.2","","""event"",""trial"",""time""
""fullscreenenter"",""1"",""3985""
","
","
","""event"",""trial"",""time""
""fullscreenenter"",""1"",""3985""
","
","","","917.2000000001863","","","21","4641","632","h","elianto","#f73b6a7A"," "," ","1","0","[1774.5]","1","2","","","4641","68","3","3","lose","go","0"
"pit-trial","187","1263055","0.0-73.0","battery-v0.2","","""event"",""trial"",""time""
""fullscreenenter"",""1"",""3985""
","
","
","""event"",""trial"",""time""
""fullscreenenter"",""1"",""3985""
","
","","","732.7000000001863","","","21","4641","632","r","elianto","#3366ff99"," "," ","1","+10","[1583.6000000000931]","1","2","","","4641","69","1","1","win","go","0"
"pit-trial","188","1266859","0.0-74.0","battery-v0.2","","""event"",""trial"",""time""
""fullscreenenter"",""1"",""3985""
","
","
","""event"",""trial"",""time""
""fullscreenenter"",""1"",""3985""
","
","","","936.8000000002794","","","21","4641","632","c","elianto","#3366ff99"," "," ","1","+10","[1789.8000000002794]","1","2","","","4641","70","5","1","win","go","0"
"pit-trial","189","1270766","0.0-75.0","battery-v0.2","","""event"",""trial"",""time""
""fullscreenenter"",""1"",""3985""
","
","
","""event"",""trial"",""time""
""fullscreenenter"",""1"",""3985""
","
","","","1041.5","","","21","4641","632","h","elianto","#f73b6a7A"," "," ","1","0","[1893.3000000002794]","1","2","","","4641","71","3","3","lose","go","0"
"pit-trial","190","1275649","0.0-76.0","battery-v0.2","","""event"",""trial"",""time""
""fullscreenenter"",""1"",""3985""
","
","
","""event"",""trial"",""time""
""fullscreenenter"",""1"",""3985""
","
","","","-1","","","21","4641","632","z","elianto","#3366ff99","-1","-1","1","0","[]","0","2","","","4641","72","4","2","win","no-go","1"
"pit-trial","191","1279597","0.0-77.0","battery-v0.2","","""event"",""trial"",""time""
""fullscreenenter"",""1"",""3985""
","
","
","""event"",""trial"",""time""
""fullscreenenter"",""1"",""3985""
","
","","","1085","","","21","4641","632","h","elianto","#f73b6a7A"," "," ","1","-10","[1938.7999999998137]","1","2","","","4641","73","3","3","lose","go","1"
"pit-trial","192","1283181","0.0-78.0","battery-v0.2","","""event"",""trial"",""time""
""fullscreenenter"",""1"",""3985""
","
","
","""event"",""trial"",""time""
""fullscreenenter"",""1"",""3985""
","
","","","719.3999999999069","","","21","4641","632","r","elianto","#3366ff99"," "," ","1","+10","[1572.9000000003725]","1","2","","","4641","74","1","1","win","go","0"
"pit-trial","193","1288051","0.0-79.0","battery-v0.2","","""event"",""trial"",""time""
""fullscreenenter"",""1"",""3985""
","
","
","""event"",""trial"",""time""
""fullscreenenter"",""1"",""3985""
","
","","","-1","","","21","4641","632","z","elianto","#3366ff99","-1","-1","1","+10","[]","0","2","","","4641","75","4","2","win","no-go","0"
"pit-trial","194","1291548","0.0-80.0","battery-v0.2","","""event"",""trial"",""time""
""fullscreenenter"",""1"",""3985""
","
","
","""event"",""trial"",""time""
""fullscreenenter"",""1"",""3985""
","
","","","623.1000000000931","","","21","4641","632","c","elianto","#3366ff99"," "," ","1","0","[1477.6000000000931]","1","2","","","4641","76","5","1","win","go","1"
"pit-trial","195","1295165","0.0-81.0","battery-v0.2","","""event"",""trial"",""time""
""fullscreenenter"",""1"",""3985""
","
","
","""event"",""trial"",""time""
""fullscreenenter"",""1"",""3985""
","
","","","748.7000000001863","","","21","4641","632","z","elianto","#3366ff99","-1"," ","0","0","[1601.7000000001863]","1","2","","","4641","77","4","2","win","no-go","0"
"pit-trial","196","1300034","0.0-82.0","battery-v0.2","","""event"",""trial"",""time""
""fullscreenenter"",""1"",""3985""
","
","
","""event"",""trial"",""time""
""fullscreenenter"",""1"",""3985""
","
","","","-1","","","21","4641","632","b","elianto","#f73b6a7A","-1","-1","1","0","[]","0","2","","","4641","78","6","4","lose","no-go","0"
"pit-trial","197","1303843","0.0-83.0","battery-v0.2","","""event"",""trial"",""time""
""fullscreenenter"",""1"",""3985""
","
","
","""event"",""trial"",""time""
""fullscreenenter"",""1"",""3985""
","
","","","947.6999999997206","","","21","4641","632","c","elianto","#3366ff99"," "," ","1","+10","[1799]","1","2","","","4641","79","5","1","win","go","0"
"pit-trial","198","1307917","0.0-84.0","battery-v0.2","","""event"",""trial"",""time""
""fullscreenenter"",""1"",""3985""
","
","
","""event"",""trial"",""time""
""fullscreenenter"",""1"",""3985""
","
","","","1213","","","21","4641","632","h","elianto","#f73b6a7A"," "," ","1","0","[2066.9000000003725]","1","2","","","4641","80","3","3","lose","go","0"
"pit-trial","199","1311766","0.0-85.0","battery-v0.2","","""event"",""trial"",""time""
""fullscreenenter"",""1"",""3985""
","
","
","""event"",""trial"",""time""
""fullscreenenter"",""1"",""3985""
","
","","","970.7000000001863","","","21","4641","632","c","elianto","#3366ff99"," "," ","1","+10","[1821.6000000000931]","1","2","","","4641","81","5","1","win","go","0"
"pit-trial","200","1316635","0.0-86.0","battery-v0.2","","""event"",""trial"",""time""
""fullscreenenter"",""1"",""3985""
","
","
","""event"",""trial"",""time""
""fullscreenenter"",""1"",""3985""
","
","","","-1","","","21","4641","632","t","elianto","#f73b6a7A"," ","-1","0","-10","[]","0","2","","","4641","82","7","3","lose","go","0"
"pit-trial","201","1321514","0.0-87.0","battery-v0.2","","""event"",""trial"",""time""
""fullscreenenter"",""1"",""3985""
","
","
","""event"",""trial"",""time""
""fullscreenenter"",""1"",""3985""
","
","","","-1","","","21","4641","632","b","elianto","#f73b6a7A","-1","-1","1","0","[]","0","2","","","4641","83","6","4","lose","no-go","0"
"pit-trial","202","1326380","0.0-88.0","battery-v0.2","","""event"",""trial"",""time""
""fullscreenenter"",""1"",""3985""
","
","
","""event"",""trial"",""time""
""fullscreenenter"",""1"",""3985""
","
","","","-1","","","21","4641","632","z","elianto","#3366ff99","-1","-1","1","+10","[]","0","2","","","4641","84","4","2","win","no-go","0"
"pit-trial","203","1331263","0.0-89.0","battery-v0.2","","""event"",""trial"",""time""
""fullscreenenter"",""1"",""3985""
","
","
","""event"",""trial"",""time""
""fullscreenenter"",""1"",""3985""
","
","","","-1","","","21","4641","632","z","elianto","#3366ff99","-1","-1","1","+10","[]","0","2","","","4641","85","4","2","win","no-go","0"
"pit-trial","204","1335466","0.0-90.0","battery-v0.2","","""event"",""trial"",""time""
""fullscreenenter"",""1"",""3985""
","
","
","""event"",""trial"",""time""
""fullscreenenter"",""1"",""3985""
","
","","","1337","","","21","4641","632","t","elianto","#f73b6a7A"," "," ","1","0","[2191.100000000093]","1","2","","","4641","86","7","3","lose","go","0"
"pit-trial","205","1339242","0.0-91.0","battery-v0.2","","""event"",""trial"",""time""
""fullscreenenter"",""1"",""3985""
","
","
","""event"",""trial"",""time""
""fullscreenenter"",""1"",""3985""
","
","","","917.3999999999069","","","21","4641","632","c","elianto","#3366ff99"," "," ","1","+10","[1767.3999999999069]","1","2","","","4641","87","5","1","win","go","0"
"pit-trial","206","1344117","0.0-92.0","battery-v0.2","","""event"",""trial"",""time""
""fullscreenenter"",""1"",""3985""
","
","
","""event"",""trial"",""time""
""fullscreenenter"",""1"",""3985""
","
","","","-1","","","21","4641","632","b","elianto","#f73b6a7A","-1","-1","1","0","[]","0","2","","","4641","88","6","4","lose","no-go","0"
"pit-trial","207","1347828","0.0-93.0","battery-v0.2","","""event"",""trial"",""time""
""fullscreenenter"",""1"",""3985""
","
","
","""event"",""trial"",""time""
""fullscreenenter"",""1"",""3985""
","
","","","832.2000000001863","","","21","4641","632","c","elianto","#3366ff99"," "," ","1","+10","[1693.8999999999069]","1","2","","","4641","89","5","1","win","go","0"
"pit-trial","208","1352700","0.0-94.0","battery-v0.2","","""event"",""trial"",""time""
""fullscreenenter"",""1"",""3985""
","
","
","""event"",""trial"",""time""
""fullscreenenter"",""1"",""3985""
","
","","","-1","","","21","4641","632","z","elianto","#3366ff99","-1","-1","1","+10","[]","0","2","","","4641","90","4","2","win","no-go","0"
"pit-trial","209","1356438","0.0-95.0","battery-v0.2","","""event"",""trial"",""time""
""fullscreenenter"",""1"",""3985""
","
","
","""event"",""trial"",""time""
""fullscreenenter"",""1"",""3985""
","
","","","871.3999999999069","","","21","4641","632","t","elianto","#f73b6a7A"," "," ","1","0","[1724.5]","1","2","","","4641","91","7","3","lose","go","0"
"pit-trial","210","1361306","0.0-96.0","battery-v0.2","","""event"",""trial"",""time""
""fullscreenenter"",""1"",""3985""
","
","
","""event"",""trial"",""time""
""fullscreenenter"",""1"",""3985""
","
","","","-1","","","21","4641","632","b","elianto","#f73b6a7A","-1","-1","1","0","[]","0","2","","","4641","92","6","4","lose","no-go","0"
"pit-trial","211","1366189","0.0-97.0","battery-v0.2","","""event"",""trial"",""time""
""fullscreenenter"",""1"",""3985""
","
","
","""event"",""trial"",""time""
""fullscreenenter"",""1"",""3985""
","
","","","-1","","","21","4641","632","b","elianto","#f73b6a7A","-1","-1","1","0","[]","0","2","","","4641","93","6","4","lose","no-go","0"
"pit-trial","212","1369846","0.0-98.0","battery-v0.2","","""event"",""trial"",""time""
""fullscreenenter"",""1"",""3985""
","
","
","""event"",""trial"",""time""
""fullscreenenter"",""1"",""3985""
","
","","","783.3999999999069","","","21","4641","632","t","elianto","#f73b6a7A"," "," ","1","0","[1640.1000000000931]","1","2","","","4641","94","7","3","lose","go","0"
"pit-trial","213","1373351","0.0-99.0","battery-v0.2","","""event"",""trial"",""time""
""fullscreenenter"",""1"",""3985""
","
","
","""event"",""trial"",""time""
""fullscreenenter"",""1"",""3985""
","
","","","637.2000000001863","","","21","4641","632","c","elianto","#3366ff99"," "," ","1","0","[1488.1000000000931]","1","2","","","4641","95","5","1","win","go","1"
"pit-trial","214","1378004","0.0-100.0","battery-v0.2","","""event"",""trial"",""time""
""fullscreenenter"",""1"",""3985""
","
","
","""event"",""trial"",""time""
""fullscreenenter"",""1"",""3985""
","
","","","1790.3000000002794","","","21","4641","632","f","elianto","#3366ff99","-1"," ","0","0","[2640.899999999907]","1","2","","","4641","96","8","2","win","no-go","0"
"pit-trial","215","1381591","0.0-101.0","battery-v0.2","","""event"",""trial"",""time""
""fullscreenenter"",""1"",""3985""
","
","
","""event"",""trial"",""time""
""fullscreenenter"",""1"",""3985""
","
","","","715.1000000000931","","","21","4641","632","c","elianto","#3366ff99"," "," ","1","+10","[1572.3000000002794]","1","2","","","4641","97","5","1","win","go","0"
"pit-trial","216","1385706","0.0-102.0","battery-v0.2","","""event"",""trial"",""time""
""fullscreenenter"",""1"",""3985""
","
","
","""event"",""trial"",""time""
""fullscreenenter"",""1"",""3985""
","
","","","1241.6000000000931","","","21","4641","632","t","elianto","#f73b6a7A"," "," ","1","-10","[2095.100000000093]","1","2","","","4641","98","7","3","lose","go","1"
"pit-trial","217","1390580","0.0-103.0","battery-v0.2","","""event"",""trial"",""time""
""fullscreenenter"",""1"",""3985""
","
","
","""event"",""trial"",""time""
""fullscreenenter"",""1"",""3985""
","
","","","-1","","","21","4641","632","b","elianto","#f73b6a7A","-1","-1","1","0","[]","0","2","","","4641","99","6","4","lose","no-go","0"
"pit-trial","218","1394176","0.0-104.0","battery-v0.2","","""event"",""trial"",""time""
""fullscreenenter"",""1"",""3985""
","
","
","""event"",""trial"",""time""
""fullscreenenter"",""1"",""3985""
","
","","","724.0999999996275","","","21","4641","632","f","elianto","#3366ff99","-1"," ","0","0","[1584.8000000002794]","1","2","","","4641","100","8","2","win","no-go","0"
"pit-trial","219","1397859","0.0-105.0","battery-v0.2","","""event"",""trial"",""time""
""fullscreenenter"",""1"",""3985""
","
","
","""event"",""trial"",""time""
""fullscreenenter"",""1"",""3985""
","
","","","822.5","","","21","4641","632","n","elianto","#3366ff99","-1"," ","0","0","[1673.5]","1","2","","","4641","101","9","2","win","no-go","0"
"pit-trial","220","1402723","0.0-106.0","battery-v0.2","","""event"",""trial"",""time""
""fullscreenenter"",""1"",""3985""
","
","
","""event"",""trial"",""time""
""fullscreenenter"",""1"",""3985""
","
","","","-1","","","21","4641","632","f","elianto","#3366ff99","-1","-1","1","0","[]","0","2","","","4641","102","8","2","win","no-go","1"
"pit-trial","221","1407600","0.0-107.0","battery-v0.2","","""event"",""trial"",""time""
""fullscreenenter"",""1"",""3985""
","
","
","""event"",""trial"",""time""
""fullscreenenter"",""1"",""3985""
","
","","","-1","","","21","4641","632","b","elianto","#f73b6a7A","-1","-1","1","0","[]","0","2","","","4641","103","6","4","lose","no-go","0"
"pit-trial","222","1411137","0.0-108.0","battery-v0.2","","""event"",""trial"",""time""
""fullscreenenter"",""1"",""3985""
","
","
","""event"",""trial"",""time""
""fullscreenenter"",""1"",""3985""
","
","","","662.3999999999069","","","21","4641","632","c","elianto","#3366ff99"," "," ","1","+10","[1520]","1","2","","","4641","104","5","1","win","go","0"
"pit-trial","223","1416001","0.0-109.0","battery-v0.2","","""event"",""trial"",""time""
""fullscreenenter"",""1"",""3985""
","
","
","""event"",""trial"",""time""
""fullscreenenter"",""1"",""3985""
","
","","","-1","","","21","4641","632","f","elianto","#3366ff99","-1","-1","1","+10","[]","0","2","","","4641","105","8","2","win","no-go","0"
"pit-trial","224","1420873","0.0-110.0","battery-v0.2","","""event"",""trial"",""time""
""fullscreenenter"",""1"",""3985""
","
","
","""event"",""trial"",""time""
""fullscreenenter"",""1"",""3985""
","
","","","-1","","","21","4641","632","b","elianto","#f73b6a7A","-1","-1","1","0","[]","0","2","","","4641","106","6","4","lose","no-go","0"
"pit-trial","225","1424490","0.0-111.0","battery-v0.2","","""event"",""trial"",""time""
""fullscreenenter"",""1"",""3985""
","
","
","""event"",""trial"",""time""
""fullscreenenter"",""1"",""3985""
","
","","","755.7999999998137","","","21","4641","632","c","elianto","#3366ff99"," "," ","1","+10","[1607.6999999997206]","1","2","","","4641","107","5","1","win","go","0"
"pit-trial","226","1428979","0.0-112.0","battery-v0.2","","""event"",""trial"",""time""
""fullscreenenter"",""1"",""3985""
","
","
","""event"",""trial"",""time""
""fullscreenenter"",""1"",""3985""
","
","","","1625.0999999996275","","","21","4641","632","n","elianto","#3366ff99","-1"," ","0","0","[2476.3000000002794]","1","2","","","4641","108","9","2","win","no-go","0"
"pit-trial","227","1433844","0.0-113.0","battery-v0.2","","""event"",""trial"",""time""
""fullscreenenter"",""1"",""3985""
","
","
","""event"",""trial"",""time""
""fullscreenenter"",""1"",""3985""
","
","","","-1","","","21","4641","632","f","elianto","#3366ff99","-1","-1","1","+10","[]","0","2","","","4641","109","8","2","win","no-go","0"
"pit-trial","228","1438723","0.0-114.0","battery-v0.2","","""event"",""trial"",""time""
""fullscreenenter"",""1"",""3985""
","
","
","""event"",""trial"",""time""
""fullscreenenter"",""1"",""3985""
","
","","","-1","","","21","4641","632","b","elianto","#f73b6a7A","-1","-1","1","0","[]","0","2","","","4641","110","6","4","lose","no-go","0"
"pit-trial","229","1442270","0.0-115.0","battery-v0.2","","""event"",""trial"",""time""
""fullscreenenter"",""1"",""3985""
","
","
","""event"",""trial"",""time""
""fullscreenenter"",""1"",""3985""
","
","","","676.8000000002794","","","21","4641","632","c","elianto","#3366ff99"," "," ","1","+10","[1527.9000000003725]","1","2","","","4641","111","5","1","win","go","0"
"pit-trial","230","1447140","0.0-116.0","battery-v0.2","","""event"",""trial"",""time""
""fullscreenenter"",""1"",""3985""
","
","
","""event"",""trial"",""time""
""fullscreenenter"",""1"",""3985""
","
","","","-1","","","21","4641","632","n","elianto","#3366ff99","-1","-1","1","+10","[]","0","2","","","4641","112","9","2","win","no-go","0"
"pit-trial","231","1452004","0.0-117.0","battery-v0.2","","""event"",""trial"",""time""
""fullscreenenter"",""1"",""3985""
","
","
","""event"",""trial"",""time""
""fullscreenenter"",""1"",""3985""
","
","","","-1","","","21","4641","632","n","elianto","#3366ff99","-1","-1","1","+10","[]","0","2","","","4641","113","9","2","win","no-go","0"
"pit-trial","232","1456883","0.0-118.0","battery-v0.2","","""event"",""trial"",""time""
""fullscreenenter"",""1"",""3985""
","
","
","""event"",""trial"",""time""
""fullscreenenter"",""1"",""3985""
","
","","","-1","","","21","4641","632","f","elianto","#3366ff99","-1","-1","1","+10","[]","0","2","","","4641","114","8","2","win","no-go","0"
"pit-trial","233","1460463","0.0-119.0","battery-v0.2","","""event"",""trial"",""time""
""fullscreenenter"",""1"",""3985""
","
","
","""event"",""trial"",""time""
""fullscreenenter"",""1"",""3985""
","
","","","710.5","","","21","4641","632","c","elianto","#3366ff99"," "," ","1","0","[1561.5]","1","2","","","4641","115","5","1","win","go","1"
"pit-trial","234","1464378","0.0-120.0","battery-v0.2","","""event"",""trial"",""time""
""fullscreenenter"",""1"",""3985""
","
","
","""event"",""trial"",""time""
""fullscreenenter"",""1"",""3985""
","
","","","1043","","","21","4641","632","t","elianto","#f73b6a7A"," "," ","1","0","[1896]","1","2","","","4641","116","7","3","lose","go","0"
"pit-trial","235","1469261","0.0-121.0","battery-v0.2","","""event"",""trial"",""time""
""fullscreenenter"",""1"",""3985""
","
","
","""event"",""trial"",""time""
""fullscreenenter"",""1"",""3985""
","
","","","-1","","","21","4641","632","f","elianto","#3366ff99","-1","-1","1","+10","[]","0","2","","","4641","117","8","2","win","no-go","0"
"pit-trial","236","1472834","0.0-122.0","battery-v0.2","","""event"",""trial"",""time""
""fullscreenenter"",""1"",""3985""
","
","
","""event"",""trial"",""time""
""fullscreenenter"",""1"",""3985""
","
","","","712","","","21","4641","632","c","elianto","#3366ff99"," "," ","1","+10","[1565.6000000000931]","1","2","","","4641","118","5","1","win","go","0"
"pit-trial","237","1477700","0.0-123.0","battery-v0.2","","""event"",""trial"",""time""
""fullscreenenter"",""1"",""3985""
","
","
","""event"",""trial"",""time""
""fullscreenenter"",""1"",""3985""
","
","","","-1","","","21","4641","632","n","elianto","#3366ff99","-1","-1","1","+10","[]","0","2","","","4641","119","9","2","win","no-go","0"
"pit-trial","238","1482570","0.0-124.0","battery-v0.2","","""event"",""trial"",""time""
""fullscreenenter"",""1"",""3985""
","
","
","""event"",""trial"",""time""
""fullscreenenter"",""1"",""3985""
","
","","","-1","","","21","4641","632","b","elianto","#f73b6a7A","-1","-1","1","0","[]","0","2","","","4641","120","6","4","lose","no-go","0"
"pit-trial","239","1486132","0.0-125.0","battery-v0.2","","""event"",""trial"",""time""
""fullscreenenter"",""1"",""3985""
","
","
","""event"",""trial"",""time""
""fullscreenenter"",""1"",""3985""
","
","","","698.7999999998137","","","21","4641","632","c","elianto","#3366ff99"," "," ","1","+10","[1551.5]","1","2","","","4641","121","5","1","win","go","0"
"pit-trial","240","1491009","0.0-126.0","battery-v0.2","","""event"",""trial"",""time""
""fullscreenenter"",""1"",""3985""
","
","
","""event"",""trial"",""time""
""fullscreenenter"",""1"",""3985""
","
","","","-1","","","21","4641","632","f","elianto","#3366ff99","-1","-1","1","0","[]","0","2","","","4641","122","8","2","win","no-go","1"
"pit-trial","241","1495888","0.0-127.0","battery-v0.2","","""event"",""trial"",""time""
""fullscreenenter"",""1"",""3985""
","
","
","""event"",""trial"",""time""
""fullscreenenter"",""1"",""3985""
","
","","","-1","","","21","4641","632","n","elianto","#3366ff99","-1","-1","1","+10","[]","0","2","","","4641","123","9","2","win","no-go","0"
"pit-trial","242","1499561","0.0-128.0","battery-v0.2","","""event"",""trial"",""time""
""fullscreenenter"",""1"",""3985""
","
","
","""event"",""trial"",""time""
""fullscreenenter"",""1"",""3985""
","
","","","805.5","","","21","4641","632","t","elianto","#f73b6a7A"," "," ","1","0","[1658.3000000002794]","1","2","","","4641","124","7","3","lose","go","0"
"pit-trial","243","1503101","0.0-129.0","battery-v0.2","","""event"",""trial"",""time""
""fullscreenenter"",""1"",""3985""
","
","
","""event"",""trial"",""time""
""fullscreenenter"",""1"",""3985""
","
","","","676.2999999998137","","","21","4641","632","t","elianto","#f73b6a7A"," "," ","1","0","[1526.3000000002794]","1","2","","","4641","125","7","3","lose","go","0"
"pit-trial","244","1507973","0.0-130.0","battery-v0.2","","""event"",""trial"",""time""
""fullscreenenter"",""1"",""3985""
","
","
","""event"",""trial"",""time""
""fullscreenenter"",""1"",""3985""
","
","","","-1","","","21","4641","632","f","elianto","#3366ff99","-1","-1","1","+10","[]","0","2","","","4641","126","8","2","win","no-go","0"
"pit-trial","245","1512857","0.0-131.0","battery-v0.2","","""event"",""trial"",""time""
""fullscreenenter"",""1"",""3985""
","
","
","""event"",""trial"",""time""
""fullscreenenter"",""1"",""3985""
","
","","","-1","","","21","4641","632","b","elianto","#f73b6a7A","-1","-1","1","-10","[]","0","2","","","4641","127","6","4","lose","no-go","1"
"pit-trial","246","1517734","0.0-132.0","battery-v0.2","","""event"",""trial"",""time""
""fullscreenenter"",""1"",""3985""
","
","
","""event"",""trial"",""time""
""fullscreenenter"",""1"",""3985""
","
","","","-1","","","21","4641","632","n","elianto","#3366ff99","-1","-1","1","0","[]","0","2","","","4641","128","9","2","win","no-go","1"
"pit-trial","247","1521589","0.0-133.0","battery-v0.2","","""event"",""trial"",""time""
""fullscreenenter"",""1"",""3985""
","
","
","""event"",""trial"",""time""
""fullscreenenter"",""1"",""3985""
","
","","","987.1000000000931","","","21","4641","632","t","elianto","#f73b6a7A"," "," ","1","0","[1841.7999999998137]","1","2","","","4641","129","7","3","lose","go","0"
"pit-trial","248","1526466","0.0-134.0","battery-v0.2","","""event"",""trial"",""time""
""fullscreenenter"",""1"",""3985""
","
","
","""event"",""trial"",""time""
""fullscreenenter"",""1"",""3985""
","
","","","-1","","","21","4641","632","n","elianto","#3366ff99","-1","-1","1","+10","[]","0","2","","","4641","130","9","2","win","no-go","0"
"pit-trial","249","1531350","0.0-135.0","battery-v0.2","","""event"",""trial"",""time""
""fullscreenenter"",""1"",""3985""
","
","
","""event"",""trial"",""time""
""fullscreenenter"",""1"",""3985""
","
","","","-1","","","21","4641","632","f","elianto","#3366ff99","-1","-1","1","+10","[]","0","2","","","4641","131","8","2","win","no-go","0"
"pit-trial","250","1536218","0.0-136.0","battery-v0.2","","""event"",""trial"",""time""
""fullscreenenter"",""1"",""3985""
","
","
","""event"",""trial"",""time""
""fullscreenenter"",""1"",""3985""
","
","","","-1","","","21","4641","632","b","elianto","#f73b6a7A","-1","-1","1","0","[]","0","2","","","4641","132","6","4","lose","no-go","0"
"pit-trial","251","1541101","0.0-137.0","battery-v0.2","","""event"",""trial"",""time""
""fullscreenenter"",""1"",""3985""
","
","
","""event"",""trial"",""time""
""fullscreenenter"",""1"",""3985""
","
","","","-1","","","21","4641","632","n","elianto","#3366ff99","-1","-1","1","0","[]","0","2","","","4641","133","9","2","win","no-go","1"
"pit-trial","252","1545983","0.0-138.0","battery-v0.2","","""event"",""trial"",""time""
""fullscreenenter"",""1"",""3985""
","
","
","""event"",""trial"",""time""
""fullscreenenter"",""1"",""3985""
","
","","","-1","","","21","4641","632","f","elianto","#3366ff99","-1","-1","1","+10","[]","0","2","","","4641","134","8","2","win","no-go","0"
"pit-trial","253","1549746","0.0-139.0","battery-v0.2","","""event"",""trial"",""time""
""fullscreenenter"",""1"",""3985""
","
","
","""event"",""trial"",""time""
""fullscreenenter"",""1"",""3985""
","
","","","892.3999999999069","","","21","4641","632","t","elianto","#f73b6a7A"," "," ","1","0","[1744.3999999999069]","1","2","","","4641","135","7","3","lose","go","0"
"pit-trial","254","1554632","0.0-140.0","battery-v0.2","","""event"",""trial"",""time""
""fullscreenenter"",""1"",""3985""
","
","
","""event"",""trial"",""time""
""fullscreenenter"",""1"",""3985""
","
","","","-1","","","21","4641","632","b","elianto","#f73b6a7A","-1","-1","1","0","[]","0","2","","","4641","136","6","4","lose","no-go","0"
"pit-trial","255","1559506","0.0-141.0","battery-v0.2","","""event"",""trial"",""time""
""fullscreenenter"",""1"",""3985""
","
","
","""event"",""trial"",""time""
""fullscreenenter"",""1"",""3985""
","
","","","-1","","","21","4641","632","b","elianto","#f73b6a7A","-1","-1","1","0","[]","0","2","","","4641","137","6","4","lose","no-go","0"
"pit-trial","256","1563306","0.0-142.0","battery-v0.2","","""event"",""trial"",""time""
""fullscreenenter"",""1"",""3985""
","
","
","""event"",""trial"",""time""
""fullscreenenter"",""1"",""3985""
","
","","","943.6000000000931","","","21","4641","632","t","elianto","#f73b6a7A"," "," ","1","0","[1793.8999999999069]","1","2","","","4641","138","7","3","lose","go","0"
"pit-trial","257","1568180","0.0-143.0","battery-v0.2","","""event"",""trial"",""time""
""fullscreenenter"",""1"",""3985""
","
","
","""event"",""trial"",""time""
""fullscreenenter"",""1"",""3985""
","
","","","-1","","","21","4641","632","n","elianto","#3366ff99","-1","-1","1","+10","[]","0","2","","","4641","139","9","2","win","no-go","0"
"pit-trial","258","1573055","0.0-144.0","battery-v0.2","","""event"",""trial"",""time""
""fullscreenenter"",""1"",""3985""
","
","
","""event"",""trial"",""time""
""fullscreenenter"",""1"",""3985""
","
","","","-1","","","21","4641","632","f","elianto","#3366ff99","-1","-1","1","+10","[]","0","2","","","4641","140","8","2","win","no-go","0"
"pit-instructions","259","2203550","0.0-145.0","battery-v0.2","","""event"",""trial"",""time""
""fullscreenenter"",""1"",""3985""
","
","
","""event"",""trial"",""time""
""fullscreenenter"",""1"",""3985""
","
","","[{""page_index"":0,""viewing_time"":621609.6000000001},{""page_index"":1,""viewing_time"":8885}]","630495.2000000002","","","","","","","","","","","","","","","","","","","","","","","",""
"pit-trial","260","2207163","0.0-146.0","battery-v0.2","","""event"",""trial"",""time""
""fullscreenenter"",""1"",""3985""
","
","
","""event"",""trial"",""time""
""fullscreenenter"",""1"",""3985""
","
","","","726.2999999998137","","","21","4641","632","l","elianto","#3366ff99","-1"," ","0","0","[1580.8000000002794]","1","3","","","4641","141","1","2","win","no-go","0"
"pit-trial","261","2212040","0.0-147.0","battery-v0.2","","""event"",""trial"",""time""
""fullscreenenter"",""1"",""3985""
","
","
","""event"",""trial"",""time""
""fullscreenenter"",""1"",""3985""
","
","","","-1","","","21","4641","632","a","elianto","#f73b6a7A"," ","-1","0","-10","[]","0","3","","","4641","142","2","3","lose","go","0"
"pit-trial","262","2216927","0.0-148.0","battery-v0.2","","""event"",""trial"",""time""
""fullscreenenter"",""1"",""3985""
","
","
","""event"",""trial"",""time""
""fullscreenenter"",""1"",""3985""
","
","","","-1","","","21","4641","632","u","elianto","#f73b6a7A"," ","-1","0","-10","[]","0","3","","","4641","143","0","3","lose","go","0"
"pit-trial","263","2221811","0.0-149.0","battery-v0.2","","""event"",""trial"",""time""
""fullscreenenter"",""1"",""3985""
","
","
","""event"",""trial"",""time""
""fullscreenenter"",""1"",""3985""
","
","","","-1","","","21","4641","632","g","elianto","#f73b6a7A","-1","-1","1","0","[]","0","3","","","4641","144","3","4","lose","no-go","0"
"pit-trial","264","2226686","0.0-150.0","battery-v0.2","","""event"",""trial"",""time""
""fullscreenenter"",""1"",""3985""
","
","
","""event"",""trial"",""time""
""fullscreenenter"",""1"",""3985""
","
","","","-1","","","21","4641","632","g","elianto","#f73b6a7A","-1","-1","1","0","[]","0","3","","","4641","145","3","4","lose","no-go","0"
"pit-trial","265","2230469","0.0-151.0","battery-v0.2","","""event"",""trial"",""time""
""fullscreenenter"",""1"",""3985""
","
","
","""event"",""trial"",""time""
""fullscreenenter"",""1"",""3985""
","
","","","914.8999999999069","","","21","4641","632","u","elianto","#f73b6a7A"," "," ","1","0","[1767.5]","1","3","","","4641","146","0","3","lose","go","0"
"pit-trial","266","2235366","0.0-152.0","battery-v0.2","","""event"",""trial"",""time""
""fullscreenenter"",""1"",""3985""
","
","
","""event"",""trial"",""time""
""fullscreenenter"",""1"",""3985""
","
","","","-1","","","21","4641","632","l","elianto","#3366ff99","-1","-1","1","+10","[]","0","3","","","4641","147","1","2","win","no-go","0"
"pit-trial","267","2239151","0.0-153.0","battery-v0.2","","""event"",""trial"",""time""
""fullscreenenter"",""1"",""3985""
","
","
","""event"",""trial"",""time""
""fullscreenenter"",""1"",""3985""
","
","","","918","","","21","4641","632","a","elianto","#f73b6a7A"," "," ","1","0","[1772.7000000001863]","1","3","","","4641","148","2","3","lose","go","0"
"pit-trial","268","2242981","0.0-154.0","battery-v0.2","","""event"",""trial"",""time""
""fullscreenenter"",""1"",""3985""
","
","
","""event"",""trial"",""time""
""fullscreenenter"",""1"",""3985""
","
