"trial_type","trial_index","time_elapsed","internal_node_id","task_version","subject_id","interactions","blur_events","focus_events","fullscreenenter_events","fullscreenexit_events","success","view_history","rt","responses","num_errors","age","subject","participantId","rune","rune_set","hex","correct","choice","accuracy","outcome","keys","total_keys","block","practice","value","sub","trial","stimulus","robot","valence","action","sham"
"pavlovia","0","7","0.0-0.0","battery-v0.2","","""event"",""trial"",""time""
""fullscreenenter"",""1"",""1578""
","
","
","""event"",""trial"",""time""
""fullscreenenter"",""1"",""1578""
","
","","","","","","","","","","","","","","","","","","","","","","","","","","",""
"fullscreen","1","2580","0.0-1.0","battery-v0.2","","""event"",""trial"",""time""
""fullscreenenter"",""1"",""1578""
","
","
","""event"",""trial"",""time""
""fullscreenenter"",""1"",""1578""
","
","true","","","","","","","","","","","","","","","","","","","","","","","","","",""
"pit-instructions","2","6506","0.0-2.0-0.0","battery-v0.2","","""event"",""trial"",""time""
""fullscreenenter"",""1"",""1578""
","
","
","""event"",""trial"",""time""
""fullscreenenter"",""1"",""1578""
","
","","[{""page_index"":0,""viewing_time"":3921}]","3921.2000000476837","","","","","","","","","","","","","","","","","","","","","","","",""
"pit-comprehension","3","10601","0.0-2.0-1.0-0.0","battery-v0.2","","""event"",""trial"",""time""
""fullscreenenter"",""1"",""1578""
","
","
","""event"",""trial"",""time""
""fullscreenenter"",""1"",""1578""
","
","","","4091.5999999046326","[""shark""]","0","24","10613","4883","","","","","","","","","","","","","","","","","","",""
"pit-instructions","4","13318","0.0-2.0-1.0-1.0","battery-v0.2","","""event"",""trial"",""time""
""fullscreenenter"",""1"",""1578""
","
","
","""event"",""trial"",""time""
""fullscreenenter"",""1"",""1578""
","
","","[{""page_index"":0,""viewing_time"":2706.2999999523163}]","2706.5","","","","","","","","","","","","","","","","","","","","","","","",""
"pit-comprehension","5","15952","0.0-2.0-2.0-0.0","battery-v0.2","","""event"",""trial"",""time""
""fullscreenenter"",""1"",""1578""
","
","
","""event"",""trial"",""time""
""fullscreenenter"",""1"",""1578""
","
","","","2630","[""tiger""]","0","24","10613","4883","","","","","","","","","","","","","","","","","","",""
"pit-instructions","6","20436","0.0-2.0-2.0-1.0","battery-v0.2","","""event"",""trial"",""time""
""fullscreenenter"",""1"",""1578""
","
","
","""event"",""trial"",""time""
""fullscreenenter"",""1"",""1578""
","
","","[{""page_index"":0,""viewing_time"":4480.399999856949}]","4480.699999809265","","","","","","","","","","","","","","","","","","","","","","","",""
"pit-instructions","7","114483","0.0-2.0-3.0","battery-v0.2","","""event"",""trial"",""time""
""fullscreenenter"",""1"",""1578""
","
","
","""event"",""trial"",""time""
""fullscreenenter"",""1"",""1578""
","
","","[{""page_index"":0,""viewing_time"":8127.799999952316},{""page_index"":1,""viewing_time"":6616.900000095367},{""page_index"":2,""viewing_time"":6816.799999952316},{""page_index"":3,""viewing_time"":5185.399999856949},{""page_index"":4,""viewing_time"":6131},{""page_index"":5,""viewing_time"":6333.200000047684},{""page_index"":6,""viewing_time"":5235.700000047684},{""page_index"":7,""viewing_time"":7783.299999952316},{""page_index"":8,""viewing_time"":6384},{""page_index"":9,""viewing_time"":8205.600000143051},{""page_index"":10,""viewing_time"":7641.899999856949},{""page_index"":11,""viewing_time"":7400.100000143051},{""page_index"":12,""viewing_time"":6016.599999904633},{""page_index"":13,""viewing_time"":6167.099999904633}]","94046.09999990463","","","","","","","","","","","","","","","","","","","","","","","",""
"pit-trial","8","118348","0.0-2.0-4.0-0.0","battery-v0.2","","""event"",""trial"",""time""
""fullscreenenter"",""1"",""1578""
","
","
","""event"",""trial"",""time""
""fullscreenenter"",""1"",""1578""
","
","","","999.7999999523163","","","24","10613","4883","&#9784;","elianto","#FFFFF080"," "," ","1","&#10004","[1855.8999998569489]","1","0","0","","","","","","","",""
"pit-trial","9","121797","0.0-2.0-4.1-0.1","battery-v0.2","","""event"",""trial"",""time""
""fullscreenenter"",""1"",""1578""
","
","
","""event"",""trial"",""time""
""fullscreenenter"",""1"",""1578""
","
","","","586","","","24","10613","4883","&#9784;","elianto","#FFFFF080"," "," ","1","&#10004","[1438.0999999046326]","1","0","0","","","","","","","",""
"pit-trial","10","125153","0.0-2.0-4.2-0.2","battery-v0.2","","""event"",""trial"",""time""
""fullscreenenter"",""1"",""1578""
","
","
","""event"",""trial"",""time""
""fullscreenenter"",""1"",""1578""
","
","","","491.09999990463257","","","24","10613","4883","&#9784;","elianto","#FFFFF080"," "," ","1","&#10004","[1345.9000000953674]","1","0","0","","","","","","","",""
"pit-trial","11","128463","0.0-2.0-4.3-0.3","battery-v0.2","","""event"",""trial"",""time""
""fullscreenenter"",""1"",""1578""
","
","
","""event"",""trial"",""time""
""fullscreenenter"",""1"",""1578""
","
","","","441.39999985694885","","","24","10613","4883","&#9784;","elianto","#FFFFF080"," "," ","1","&#10004","[1295.8999998569489]","1","0","0","","","","","","","",""
"pit-trial","12","131746","0.0-2.0-4.4-0.4","battery-v0.2","","""event"",""trial"",""time""
""fullscreenenter"",""1"",""1578""
","
","
","""event"",""trial"",""time""
""fullscreenenter"",""1"",""1578""
","
","","","410.39999985694885","","","24","10613","4883","&#9784;","elianto","#FFFFF080"," "," ","1","&#10004","[1269.0999999046326]","1","0","0","","","","","","","",""
"pit-instructions","13","180515","0.0-2.0-5.0","battery-v0.2","","""event"",""trial"",""time""
""fullscreenenter"",""1"",""1578""
","
","
","""event"",""trial"",""time""
""fullscreenenter"",""1"",""1578""
","
","","[{""page_index"":0,""viewing_time"":22427.700000047684},{""page_index"":1,""viewing_time"":10466.699999809265},{""page_index"":2,""viewing_time"":6369.800000190735},{""page_index"":3,""viewing_time"":9497.299999952316}]","48761.799999952316","","","","","","","","","","","","","","","","","","","","","","","",""
"pit-trial","14","185379","0.0-2.0-6.0-0.0","battery-v0.2","","""event"",""trial"",""time""
""fullscreenenter"",""1"",""1578""
","
","
","""event"",""trial"",""time""
""fullscreenenter"",""1"",""1578""
","
","","","-1","","","24","10613","4883","&#9854;","elianto","#FFFFF080","-1","-1","1","&#10004","[]","0","0","1","","","","","","","",""
"pit-trial","15","190246","0.0-2.0-6.1-0.1","battery-v0.2","","""event"",""trial"",""time""
""fullscreenenter"",""1"",""1578""
","
","
","""event"",""trial"",""time""
""fullscreenenter"",""1"",""1578""
","
","","","-1","","","24","10613","4883","&#9854;","elianto","#FFFFF080","-1","-1","1","&#10004","[]","0","0","1","","","","","","","",""
"pit-trial","16","195118","0.0-2.0-6.2-0.2","battery-v0.2","","""event"",""trial"",""time""
""fullscreenenter"",""1"",""1578""
","
","
","""event"",""trial"",""time""
""fullscreenenter"",""1"",""1578""
","
","","","-1","","","24","10613","4883","&#9854;","elianto","#FFFFF080","-1","-1","1","&#10004","[]","0","0","1","","","","","","","",""
"pit-trial","17","199986","0.0-2.0-6.3-0.3","battery-v0.2","","""event"",""trial"",""time""
""fullscreenenter"",""1"",""1578""
","
","
","""event"",""trial"",""time""
""fullscreenenter"",""1"",""1578""
","
","","","-1","","","24","10613","4883","&#9854;","elianto","#FFFFF080","-1","-1","1","&#10004","[]","0","0","1","","","","","","","",""
"pit-trial","18","204855","0.0-2.0-6.4-0.4","battery-v0.2","","""event"",""trial"",""time""
""fullscreenenter"",""1"",""1578""
","
","
","""event"",""trial"",""time""
""fullscreenenter"",""1"",""1578""
","
","","","-1","","","24","10613","4883","&#9854;","elianto","#FFFFF080","-1","-1","1","&#10004","[]","0","0","1","","","","","","","",""
"pit-instructions","19","356801","0.0-2.0-7.0","battery-v0.2","","""event"",""trial"",""time""
""fullscreenenter"",""1"",""1578""
","
","
","""event"",""trial"",""time""
""fullscreenenter"",""1"",""1578""
","
","","[{""page_index"":0,""viewing_time"":6020.600000143051},{""page_index"":1,""viewing_time"":7255},{""page_index"":2,""viewing_time"":6128.200000047684},{""page_index"":3,""viewing_time"":6550.099999904633},{""page_index"":4,""viewing_time"":6716.599999904633},{""page_index"":5,""viewing_time"":9983.5},{""page_index"":6,""viewing_time"":5369.800000190735},{""page_index"":7,""viewing_time"":7896.799999952316},{""page_index"":8,""viewing_time"":6220.599999904633},{""page_index"":9,""viewing_time"":9065.5},{""page_index"":10,""viewing_time"":27848.200000047684},{""page_index"":11,""viewing_time"":10534.400000095367},{""page_index"":12,""viewing_time"":8569.199999809265},{""page_index"":13,""viewing_time"":7380.200000047684},{""page_index"":14,""viewing_time"":7283.100000143051},{""page_index"":15,""viewing_time"":6501.699999809265},{""page_index"":16,""viewing_time"":6486},{""page_index"":17,""viewing_time"":6132.200000047684}]","151942.20000004768","","","","","","","","","","","","","","","","","","","","","","","",""
"pit-trial","20","360910","0.0-2.0-8.0-0.0","battery-v0.2","","""event"",""trial"",""time""
""fullscreenenter"",""1"",""1578""
","
","
","""event"",""trial"",""time""
""fullscreenenter"",""1"",""1578""
","
","","","1240.2000000476837","","","24","10613","4883","&#9776;","elianto","#3366ff99"," "," ","1","+10","[2096.2000000476837]","1","0","1","","","","","","","",""
"pit-trial","21","364228","0.0-2.0-8.0-1.0","battery-v0.2","","""event"",""trial"",""time""
""fullscreenenter"",""1"",""1578""
","
","
","""event"",""trial"",""time""
""fullscreenenter"",""1"",""1578""
","
","","","448","","","24","10613","4883","&#9776;","elianto","#3366ff99"," "," ","1","+10","[1303.6999998092651]","1","0","1","","","","","","","",""
"pit-trial","22","367495","0.0-2.0-8.0-2.0","battery-v0.2","","""event"",""trial"",""time""
""fullscreenenter"",""1"",""1578""
","
","
","""event"",""trial"",""time""
""fullscreenenter"",""1"",""1578""
","
","","","400.90000009536743","","","24","10613","4883","&#9776;","elianto","#3366ff99"," "," ","1","+10","[1259.3999998569489]","1","0","1","","","","","","","",""
"pit-trial","23","370803","0.0-2.0-8.0-3.0","battery-v0.2","","""event"",""trial"",""time""
""fullscreenenter"",""1"",""1578""
","
","
","""event"",""trial"",""time""
""fullscreenenter"",""1"",""1578""
","
","","","439.80000019073486","","","24","10613","4883","&#9776;","elianto","#3366ff99"," "," ","1","0","[1295.8000001907349]","1","0","1","","","","","","","",""
"pit-trial","24","374188","0.0-2.0-8.0-4.0","battery-v0.2","","""event"",""trial"",""time""
""fullscreenenter"",""1"",""1578""
","
","
","""event"",""trial"",""time""
""fullscreenenter"",""1"",""1578""
","
","","","522.6000001430511","","","24","10613","4883","&#9776;","elianto","#3366ff99"," "," ","1","+10","[1373.8000001907349]","1","0","1","","","","","","","",""
"pit-trial","25","377445","0.0-2.0-8.1-0.1","battery-v0.2","","""event"",""trial"",""time""
""fullscreenenter"",""1"",""1578""
","
","
","""event"",""trial"",""time""
""fullscreenenter"",""1"",""1578""
","
","","","388.2999999523163","","","24","10613","4883","&#9776;","elianto","#3366ff99"," "," ","1","+10","[1245.1999998092651]","1","0","1","","","","","","","",""
"pit-trial","26","380711","0.0-2.0-8.1-1.1","battery-v0.2","","""event"",""trial"",""time""
""fullscreenenter"",""1"",""1578""
","
","
","""event"",""trial"",""time""
""fullscreenenter"",""1"",""1578""
","
","","","399.40000009536743","","","24","10613","4883","&#9776;","elianto","#3366ff99"," "," ","1","+10","[1258.0999999046326]","1","0","1","","","","","","","",""
"pit-trial","27","383738","0.0-2.0-8.1-2.1","battery-v0.2","","""event"",""trial"",""time""
""fullscreenenter"",""1"",""1578""
","
","
","""event"",""trial"",""time""
""fullscreenenter"",""1"",""1578""
","
","","","163.60000014305115","","","24","10613","4883","&#9776;","elianto","#3366ff99"," "," ","1","+10","[1018.9000000953674]","1","0","1","","","","","","","",""
"pit-trial","28","386995","0.0-2.0-8.1-3.1","battery-v0.2","","""event"",""trial"",""time""
""fullscreenenter"",""1"",""1578""
","
","
","""event"",""trial"",""time""
""fullscreenenter"",""1"",""1578""
","
","","","387.7999999523163","","","24","10613","4883","&#9776;","elianto","#3366ff99"," "," ","1","0","[1247.6000001430511]","1","0","1","","","","","","","",""
"pit-trial","29","390542","0.0-2.0-8.1-4.1","battery-v0.2","","""event"",""trial"",""time""
""fullscreenenter"",""1"",""1578""
","
","
","""event"",""trial"",""time""
""fullscreenenter"",""1"",""1578""
","
","","","674.5","","","24","10613","4883","&#9776;","elianto","#3366ff99"," "," ","1","+10","[1534.7000000476837]","1","0","1","","","","","","","",""
"pit-trial","30","393562","0.0-2.0-8.2-0.2","battery-v0.2","","""event"",""trial"",""time""
""fullscreenenter"",""1"",""1578""
","
","
","""event"",""trial"",""time""
""fullscreenenter"",""1"",""1578""
","
","","","151.89999985694885","","","24","10613","4883","&#9776;","elianto","#3366ff99"," "," ","1","+10","[1008.5]","1","0","1","","","","","","","",""
"pit-trial","31","397161","0.0-2.0-8.2-1.2","battery-v0.2","","""event"",""trial"",""time""
""fullscreenenter"",""1"",""1578""
","
","
","""event"",""trial"",""time""
""fullscreenenter"",""1"",""1578""
","
","","","729.7000000476837","","","24","10613","4883","&#9776;","elianto","#3366ff99"," "," ","1","+10","[1587.8000001907349]","1","0","1","","","","","","","",""
"pit-trial","32","400410","0.0-2.0-8.2-2.2","battery-v0.2","","""event"",""trial"",""time""
""fullscreenenter"",""1"",""1578""
","
","
","""event"",""trial"",""time""
""fullscreenenter"",""1"",""1578""
","
","","","384.5","","","24","10613","4883","&#9776;","elianto","#3366ff99"," "," ","1","+10","[1239.1000001430511]","1","0","1","","","","","","","",""
"pit-trial","33","403972","0.0-2.0-8.2-3.2","battery-v0.2","","""event"",""trial"",""time""
""fullscreenenter"",""1"",""1578""
","
","
","""event"",""trial"",""time""
""fullscreenenter"",""1"",""1578""
","
","","","690.7000000476837","","","24","10613","4883","&#9776;","elianto","#3366ff99"," "," ","1","0","[1548.7999999523163]","1","0","1","","","","","","","",""
"pit-trial","34","407428","0.0-2.0-8.2-4.2","battery-v0.2","","""event"",""trial"",""time""
""fullscreenenter"",""1"",""1578""
","
","
","""event"",""trial"",""time""
""fullscreenenter"",""1"",""1578""
","
","","","582.6000001430511","","","24","10613","4883","&#9776;","elianto","#3366ff99"," "," ","1","+10","[1439.5]","1","0","1","","","","","","","",""
"call-function","35","407434","0.0-2.0-9.0","battery-v0.2","","""event"",""trial"",""time""
""fullscreenenter"",""1"",""1578""
","
","
","""event"",""trial"",""time""
""fullscreenenter"",""1"",""1578""
","
","","","","","","","","","","","","","","","","","","","","","","","","","","",""
"pit-instructions","36","453297","0.0-2.0-10.0","battery-v0.2","","""event"",""trial"",""time""
""fullscreenenter"",""1"",""1578""
","
","
","""event"",""trial"",""time""
""fullscreenenter"",""1"",""1578""
","
","","[{""page_index"":0,""viewing_time"":7512.799999952316},{""page_index"":1,""viewing_time"":8784.400000095367},{""page_index"":2,""viewing_time"":11148.099999904633},{""page_index"":3,""viewing_time"":9902.200000047684},{""page_index"":4,""viewing_time"":8514.799999952316}]","45862.90000009537","","","","","","","","","","","","","","","","","","","","","","","",""
"pit-trial","37","458161","0.0-2.0-11.0-0.0","battery-v0.2","","""event"",""trial"",""time""
""fullscreenenter"",""1"",""1578""
","
","
","""event"",""trial"",""time""
""fullscreenenter"",""1"",""1578""
","
","","","-1","","","24","10613","4883","&#9761;","elianto","#3366ff99","-1","-1","1","+10","[3232]","1","0","2","","","","","","","",""
"pit-trial","38","461695","0.0-2.0-11.0-1.0","battery-v0.2","","""event"",""trial"",""time""
""fullscreenenter"",""1"",""1578""
","
","
","""event"",""trial"",""time""
""fullscreenenter"",""1"",""1578""
","
","","","670.3000001907349","","","24","10613","4883","&#9761;","elianto","#3366ff99","-1"," ","0","0","[1527.5999999046326]","1","0","2","","","","","","","",""
"pit-trial","39","465026","0.0-2.0-11.0-2.0","battery-v0.2","","""event"",""trial"",""time""
""fullscreenenter"",""1"",""1578""
","
","
","""event"",""trial"",""time""
""fullscreenenter"",""1"",""1578""
","
","","","468.2000000476837","","","24","10613","4883","&#9761;","elianto","#3366ff99","-1"," ","0","0","[1323.2999999523163]","1","0","2","","","","","","","",""
"pit-trial","40","468329","0.0-2.0-11.0-3.0","battery-v0.2","","""event"",""trial"",""time""
""fullscreenenter"",""1"",""1578""
","
","
","""event"",""trial"",""time""
""fullscreenenter"",""1"",""1578""
","
","","","436.19999980926514","","","24","10613","4883","&#9761;","elianto","#3366ff99","-1"," ","0","+10","[1296.5]","1","0","2","","","","","","","",""
"pit-trial","41","471555","0.0-2.0-11.0-4.0","battery-v0.2","","""event"",""trial"",""time""
""fullscreenenter"",""1"",""1578""
","
","
","""event"",""trial"",""time""
""fullscreenenter"",""1"",""1578""
","
","","","356.59999990463257","","","24","10613","4883","&#9761;","elianto","#3366ff99","-1"," ","0","0","[1214]","1","0","2","","","","","","","",""
"pit-trial","42","474803","0.0-2.0-11.1-0.1","battery-v0.2","","""event"",""trial"",""time""
""fullscreenenter"",""1"",""1578""
","
","
","""event"",""trial"",""time""
""fullscreenenter"",""1"",""1578""
","
","","","374.7000000476837","","","24","10613","4883","&#9761;","elianto","#3366ff99","-1"," ","0","0","[1230.0999999046326]","1","0","2","","","","","","","",""
"pit-trial","43","478044","0.0-2.0-11.1-1.1","battery-v0.2","","""event"",""trial"",""time""
""fullscreenenter"",""1"",""1578""
","
","
","""event"",""trial"",""time""
""fullscreenenter"",""1"",""1578""
","
","","","384.60000014305115","","","24","10613","4883","&#9761;","elianto","#3366ff99","-1"," ","0","0","[1235.1000001430511]","1","0","2","","","","","","","",""
"pit-trial","44","481244","0.0-2.0-11.1-2.1","battery-v0.2","","""event"",""trial"",""time""
""fullscreenenter"",""1"",""1578""
","
","
","""event"",""trial"",""time""
""fullscreenenter"",""1"",""1578""
","
","","","337","","","24","10613","4883","&#9761;","elianto","#3366ff99","-1"," ","0","0","[1194.5]","1","0","2","","","","","","","",""
"pit-trial","45","484465","0.0-2.0-11.1-3.1","battery-v0.2","","""event"",""trial"",""time""
""fullscreenenter"",""1"",""1578""
","
","
","""event"",""trial"",""time""
""fullscreenenter"",""1"",""1578""
","
","","","354.5","","","24","10613","4883","&#9761;","elianto","#3366ff99","-1"," ","0","+10","[1212]","1","0","2","","","","","","","",""
"pit-trial","46","487368","0.0-2.0-11.1-4.1","battery-v0.2","","""event"",""trial"",""time""
""fullscreenenter"",""1"",""1578""
","
","
","""event"",""trial"",""time""
""fullscreenenter"",""1"",""1578""
","
","","","39.90000009536743","","","24","10613","4883","&#9761;","elianto","#3366ff99","-1"," ","0","0","[894.3000001907349]","1","0","2","","","","","","","",""
"pit-trial","47","490601","0.0-2.0-11.2-0.2","battery-v0.2","","""event"",""trial"",""time""
""fullscreenenter"",""1"",""1578""
","
","
","""event"",""trial"",""time""
""fullscreenenter"",""1"",""1578""
","
","","","371.80000019073486","","","24","10613","4883","&#9761;","elianto","#3366ff99","-1"," ","0","0","[1222.1000001430511]","1","0","2","","","","","","","",""
"pit-trial","48","493926","0.0-2.0-11.2-1.2","battery-v0.2","","""event"",""trial"",""time""
""fullscreenenter"",""1"",""1578""
","
","
","""event"",""trial"",""time""
""fullscreenenter"",""1"",""1578""
","
","","","465.89999985694885","","","24","10613","4883","&#9761;","elianto","#3366ff99","-1"," ","0","0","[1320]","1","0","2","","","","","","","",""
"pit-trial","49","497312","0.0-2.0-11.2-2.2","battery-v0.2","","""event"",""trial"",""time""
""fullscreenenter"",""1"",""1578""
","
","
","""event"",""trial"",""time""
""fullscreenenter"",""1"",""1578""
","
","","","525.3999998569489","","","24","10613","4883","&#9761;","elianto","#3366ff99","-1"," ","0","0","[1378.5]","1","0","2","","","","","","","",""
"pit-trial","50","500494","0.0-2.0-11.2-3.2","battery-v0.2","","""event"",""trial"",""time""
""fullscreenenter"",""1"",""1578""
","
","
","""event"",""trial"",""time""
""fullscreenenter"",""1"",""1578""
","
","","","320.2000000476837","","","24","10613","4883","&#9761;","elianto","#3366ff99","-1"," ","0","+10","[1171.5]","1","0","2","","","","","","","",""
"pit-trial","51","503458","0.0-2.0-11.2-4.2","battery-v0.2","","""event"",""trial"",""time""
""fullscreenenter"",""1"",""1578""
","
","
","""event"",""trial"",""time""
""fullscreenenter"",""1"",""1578""
","
","","","100","","","24","10613","4883","&#9761;","elianto","#3366ff99","-1"," ","0","0","[955.3999998569489]","1","0","2","","","","","","","",""
"pit-trial","52","506602","0.0-2.0-11.3-0.3","battery-v0.2","","""event"",""trial"",""time""
""fullscreenenter"",""1"",""1578""
","
","
","""event"",""trial"",""time""
""fullscreenenter"",""1"",""1578""
","
","","","273.09999990463257","","","24","10613","4883","&#9761;","elianto","#3366ff99","-1"," ","0","0","[1129.6999998092651]","1","0","2","","","","","","","",""
"pit-trial","53","509642","0.0-2.0-11.3-1.3","battery-v0.2","","""event"",""trial"",""time""
""fullscreenenter"",""1"",""1578""
","
","
","""event"",""trial"",""time""
""fullscreenenter"",""1"",""1578""
","
","","","178","","","24","10613","4883","&#9761;","elianto","#3366ff99","-1"," ","0","0","[1029.9000000953674]","1","0","2","","","","","","","",""
"pit-trial","54","512744","0.0-2.0-11.3-2.3","battery-v0.2","","""event"",""trial"",""time""
""fullscreenenter"",""1"",""1578""
","
","
","""event"",""trial"",""time""
""fullscreenenter"",""1"",""1578""
","
","","","239.70000004768372","","","24","10613","4883","&#9761;","elianto","#3366ff99","-1"," ","0","0","[1091.0999999046326]","1","0","2","","","","","","","",""
"pit-trial","55","515817","0.0-2.0-11.3-3.3","battery-v0.2","","""event"",""trial"",""time""
""fullscreenenter"",""1"",""1578""
","
","
","""event"",""trial"",""time""
""fullscreenenter"",""1"",""1578""
","
","","","212.5","","","24","10613","4883","&#9761;","elianto","#3366ff99","-1"," ","0","+10","[1064.2000000476837]","1","0","2","","","","","","","",""
"pit-trial","56","518977","0.0-2.0-11.3-4.3","battery-v0.2","","""event"",""trial"",""time""
""fullscreenenter"",""1"",""1578""
","
","
","""event"",""trial"",""time""
""fullscreenenter"",""1"",""1578""
","
","","","300.09999990463257","","","24","10613","4883","&#9761;","elianto","#3366ff99","-1"," ","0","0","[1152.1000001430511]","1","0","2","","","","","","","",""
"call-function","57","518983","0.0-2.0-12.0","battery-v0.2","","""event"",""trial"",""time""
""fullscreenenter"",""1"",""1578""
","
","
","""event"",""trial"",""time""
""fullscreenenter"",""1"",""1578""
","
","","","","","","","","","","","","","","","","","","","","","","","","","","",""
"pit-instructions","58","550996","0.0-2.0-13.0","battery-v0.2","","""event"",""trial"",""time""
""fullscreenenter"",""1"",""1578""
","
","
","""event"",""trial"",""time""
""fullscreenenter"",""1"",""1578""
","
","","[{""page_index"":0,""viewing_time"":7004.700000047684},{""page_index"":1,""viewing_time"":6057},{""page_index"":2,""viewing_time"":3649.9000000953674},{""page_index"":3,""viewing_time"":10269},{""page_index"":4,""viewing_time"":5031.599999904633}]","32012.5","","","","","","","","","","","","","","","","","","","","","","","",""
"pit-trial","59","555861","0.0-2.0-14.0-0.0","battery-v0.2","","""event"",""trial"",""time""
""fullscreenenter"",""1"",""1578""
","
","
","""event"",""trial"",""time""
""fullscreenenter"",""1"",""1578""
","
","","","-1","","","24","10613","4883","&#9826;","elianto","#f73b6a7A","-1","-1","1","0","[]","0","0","3","","","","","","","",""
"pit-trial","60","560727","0.0-2.0-14.0-1.0","battery-v0.2","","""event"",""trial"",""time""
""fullscreenenter"",""1"",""1578""
","
","
","""event"",""trial"",""time""
""fullscreenenter"",""1"",""1578""
","
","","","-1","","","24","10613","4883","&#9826;","elianto","#f73b6a7A","-1","-1","1","0","[]","0","0","3","","","","","","","",""
"pit-trial","61","565591","0.0-2.0-14.0-2.0","battery-v0.2","","""event"",""trial"",""time""
""fullscreenenter"",""1"",""1578""
","
","
","""event"",""trial"",""time""
""fullscreenenter"",""1"",""1578""
","
","","","-1","","","24","10613","4883","&#9826;","elianto","#f73b6a7A","-1","-1","1","0","[]","0","0","3","","","","","","","",""
"pit-trial","62","570461","0.0-2.0-14.0-3.0","battery-v0.2","","""event"",""trial"",""time""
""fullscreenenter"",""1"",""1578""
","
","
","""event"",""trial"",""time""
""fullscreenenter"",""1"",""1578""
","
","","","-1","","","24","10613","4883","&#9826;","elianto","#f73b6a7A","-1","-1","1","-10","[]","0","0","3","","","","","","","",""
"pit-trial","63","575324","0.0-2.0-14.0-4.0","battery-v0.2","","""event"",""trial"",""time""
""fullscreenenter"",""1"",""1578""
","
","
","""event"",""trial"",""time""
""fullscreenenter"",""1"",""1578""
","
","","","-1","","","24","10613","4883","&#9826;","elianto","#f73b6a7A","-1","-1","1","0","[]","0","0","3","","","","","","","",""
"pit-trial","64","580193","0.0-2.0-14.1-0.1","battery-v0.2","","""event"",""trial"",""time""
""fullscreenenter"",""1"",""1578""
","
","
","""event"",""trial"",""time""
""fullscreenenter"",""1"",""1578""
","
","","","-1","","","24","10613","4883","&#9826;","elianto","#f73b6a7A","-1","-1","1","0","[]","0","0","3","","","","","","","",""
"pit-trial","65","585057","0.0-2.0-14.1-1.1","battery-v0.2","","""event"",""trial"",""time""
""fullscreenenter"",""1"",""1578""
","
","
","""event"",""trial"",""time""
""fullscreenenter"",""1"",""1578""
","
","","","-1","","","24","10613","4883","&#9826;","elianto","#f73b6a7A","-1","-1","1","0","[]","0","0","3","","","","","","","",""
"pit-trial","66","589926","0.0-2.0-14.1-2.1","battery-v0.2","","""event"",""trial"",""time""
""fullscreenenter"",""1"",""1578""
","
","
","""event"",""trial"",""time""
""fullscreenenter"",""1"",""1578""
","
","","","-1","","","24","10613","4883","&#9826;","elianto","#f73b6a7A","-1","-1","1","0","[]","0","0","3","","","","","","","",""
"pit-trial","67","594801","0.0-2.0-14.1-3.1","battery-v0.2","","""event"",""trial"",""time""
""fullscreenenter"",""1"",""1578""
","
","
","""event"",""trial"",""time""
""fullscreenenter"",""1"",""1578""
","
","","","-1","","","24","10613","4883","&#9826;","elianto","#f73b6a7A","-1","-1","1","-10","[]","0","0","3","","","","","","","",""
"pit-trial","68","599663","0.0-2.0-14.1-4.1","battery-v0.2","","""event"",""trial"",""time""
""fullscreenenter"",""1"",""1578""
","
","
","""event"",""trial"",""time""
""fullscreenenter"",""1"",""1578""
","
","","","-1","","","24","10613","4883","&#9826;","elianto","#f73b6a7A","-1","-1","1","0","[]","0","0","3","","","","","","","",""
"pit-trial","69","604535","0.0-2.0-14.2-0.2","battery-v0.2","","""event"",""trial"",""time""
""fullscreenenter"",""1"",""1578""
","
","
","""event"",""trial"",""time""
""fullscreenenter"",""1"",""1578""
","
","","","-1","","","24","10613","4883","&#9826;","elianto","#f73b6a7A","-1","-1","1","0","[]","0","0","3","","","","","","","",""
"pit-trial","70","609409","0.0-2.0-14.2-1.2","battery-v0.2","","""event"",""trial"",""time""
""fullscreenenter"",""1"",""1578""
","
","
","""event"",""trial"",""time""
""fullscreenenter"",""1"",""1578""
","
","","","-1","","","24","10613","4883","&#9826;","elianto","#f73b6a7A","-1","-1","1","0","[]","0","0","3","","","","","","","",""
"pit-trial","71","614277","0.0-2.0-14.2-2.2","battery-v0.2","","""event"",""trial"",""time""
""fullscreenenter"",""1"",""1578""
","
","
","""event"",""trial"",""time""
""fullscreenenter"",""1"",""1578""
","
","","","-1","","","24","10613","4883","&#9826;","elianto","#f73b6a7A","-1","-1","1","0","[]","0","0","3","","","","","","","",""
"pit-trial","72","619143","0.0-2.0-14.2-3.2","battery-v0.2","","""event"",""trial"",""time""
""fullscreenenter"",""1"",""1578""
","
","
","""event"",""trial"",""time""
""fullscreenenter"",""1"",""1578""
","
","","","-1","","","24","10613","4883","&#9826;","elianto","#f73b6a7A","-1","-1","1","-10","[]","0","0","3","","","","","","","",""
"pit-trial","73","624007","0.0-2.0-14.2-4.2","battery-v0.2","","""event"",""trial"",""time""
""fullscreenenter"",""1"",""1578""
","
","
","""event"",""trial"",""time""
""fullscreenenter"",""1"",""1578""
","
","","","-1","","","24","10613","4883","&#9826;","elianto","#f73b6a7A","-1","-1","1","0","[]","0","0","3","","","","","","","",""
"pit-trial","74","628875","0.0-2.0-14.3-0.3","battery-v0.2","","""event"",""trial"",""time""
""fullscreenenter"",""1"",""1578""
","
","
","""event"",""trial"",""time""
""fullscreenenter"",""1"",""1578""
","
","","","-1","","","24","10613","4883","&#9826;","elianto","#f73b6a7A","-1","-1","1","0","[]","0","0","3","","","","","","","",""
"pit-trial","75","633741","0.0-2.0-14.3-1.3","battery-v0.2","","""event"",""trial"",""time""
""fullscreenenter"",""1"",""1578""
","
","
","""event"",""trial"",""time""
""fullscreenenter"",""1"",""1578""
","
","","","-1","","","24","10613","4883","&#9826;","elianto","#f73b6a7A","-1","-1","1","0","[]","0","0","3","","","","","","","",""
"pit-trial","76","638606","0.0-2.0-14.3-2.3","battery-v0.2","","""event"",""trial"",""time""
""fullscreenenter"",""1"",""1578""
","
","
","""event"",""trial"",""time""
""fullscreenenter"",""1"",""1578""
","
","","","-1","","","24","10613","4883","&#9826;","elianto","#f73b6a7A","-1","-1","1","0","[]","0","0","3","","","","","","","",""
"pit-trial","77","643472","0.0-2.0-14.3-3.3","battery-v0.2","","""event"",""trial"",""time""
""fullscreenenter"",""1"",""1578""
","
","
","""event"",""trial"",""time""
""fullscreenenter"",""1"",""1578""
","
","","","-1","","","24","10613","4883","&#9826;","elianto","#f73b6a7A","-1","-1","1","-10","[]","0","0","3","","","","","","","",""
"pit-trial","78","648341","0.0-2.0-14.3-4.3","battery-v0.2","","""event"",""trial"",""time""
""fullscreenenter"",""1"",""1578""
","
","
","""event"",""trial"",""time""
""fullscreenenter"",""1"",""1578""
","
","","","-1","","","24","10613","4883","&#9826;","elianto","#f73b6a7A","-1","-1","1","0","[]","0","0","3","","","","","","","",""
"call-function","79","648347","0.0-2.0-15.0","battery-v0.2","","""event"",""trial"",""time""
""fullscreenenter"",""1"",""1578""
","
","
","""event"",""trial"",""time""
""fullscreenenter"",""1"",""1578""
","
","","","","","","","","","","","","","","","","","","","","","","","","","","",""
"pit-instructions","80","675690","0.0-2.0-16.0","battery-v0.2","","""event"",""trial"",""time""
""fullscreenenter"",""1"",""1578""
","
","
","""event"",""trial"",""time""
""fullscreenenter"",""1"",""1578""
","
","","[{""page_index"":0,""viewing_time"":8546.5},{""page_index"":1,""viewing_time"":8602.799999952316},{""page_index"":2,""viewing_time"":5314.700000047684},{""page_index"":3,""viewing_time"":4882.899999856949}]","27347.200000047684","","","","","","","","","","","","","","","","","","","","","","","",""
"pit-trial","81","680555","0.0-2.0-17.0-0.0","battery-v0.2","","""event"",""trial"",""time""
""fullscreenenter"",""1"",""1578""
","
","
","""event"",""trial"",""time""
""fullscreenenter"",""1"",""1578""
","
","","","-1","","","24","10613","4883","&#9789;","elianto","#f73b6a7A"," ","-1","0","-10","[]","0","0","4","","","","","","","",""
"pit-trial","82","685421","0.0-2.0-17.0-1.0","battery-v0.2","","""event"",""trial"",""time""
""fullscreenenter"",""1"",""1578""
","
","
","""event"",""trial"",""time""
""fullscreenenter"",""1"",""1578""
","
","","","-1","","","24","10613","4883","&#9789;","elianto","#f73b6a7A"," ","-1","0","-10","[]","0","0","4","","","","","","","",""
"pit-trial","83","690289","0.0-2.0-17.0-2.0","battery-v0.2","","""event"",""trial"",""time""
""fullscreenenter"",""1"",""1578""
","
","
","""event"",""trial"",""time""
""fullscreenenter"",""1"",""1578""
","
","","","-1","","","24","10613","4883","&#9789;","elianto","#f73b6a7A"," ","-1","0","-10","[]","0","0","4","","","","","","","",""
"pit-trial","84","695153","0.0-2.0-17.0-3.0","battery-v0.2","","""event"",""trial"",""time""
""fullscreenenter"",""1"",""1578""
","
","
","""event"",""trial"",""time""
""fullscreenenter"",""1"",""1578""
","
","","","-1","","","24","10613","4883","&#9789;","elianto","#f73b6a7A"," ","-1","0","0","[]","0","0","4","","","","","","","",""
"pit-trial","85","700019","0.0-2.0-17.0-4.0","battery-v0.2","","""event"",""trial"",""time""
""fullscreenenter"",""1"",""1578""
","
","
","""event"",""trial"",""time""
""fullscreenenter"",""1"",""1578""
","
","","","-1","","","24","10613","4883","&#9789;","elianto","#f73b6a7A"," ","-1","0","-10","[]","0","0","4","","","","","","","",""
"pit-trial","86","704886","0.0-2.0-17.1-0.1","battery-v0.2","","""event"",""trial"",""time""
""fullscreenenter"",""1"",""1578""
","
","
","""event"",""trial"",""time""
""fullscreenenter"",""1"",""1578""
","
","","","-1","","","24","10613","4883","&#9789;","elianto","#f73b6a7A"," ","-1","0","-10","[]","0","0","4","","","","","","","",""
"pit-trial","87","709752","0.0-2.0-17.1-1.1","battery-v0.2","","""event"",""trial"",""time""
""fullscreenenter"",""1"",""1578""
","
","
","""event"",""trial"",""time""
""fullscreenenter"",""1"",""1578""
","
","","","-1","","","24","10613","4883","&#9789;","elianto","#f73b6a7A"," ","-1","0","-10","[]","0","0","4","","","","","","","",""
"pit-trial","88","714616","0.0-2.0-17.1-2.1","battery-v0.2","","""event"",""trial"",""time""
""fullscreenenter"",""1"",""1578""
","
","
","""event"",""trial"",""time""
""fullscreenenter"",""1"",""1578""
","
","","","-1","","","24","10613","4883","&#9789;","elianto","#f73b6a7A"," ","-1","0","-10","[]","0","0","4","","","","","","","",""
"pit-trial","89","719486","0.0-2.0-17.1-3.1","battery-v0.2","","""event"",""trial"",""time""
""fullscreenenter"",""1"",""1578""
","
","
","""event"",""trial"",""time""
""fullscreenenter"",""1"",""1578""
","
","","","-1","","","24","10613","4883","&#9789;","elianto","#f73b6a7A"," ","-1","0","0","[]","0","0","4","","","","","","","",""
"pit-trial","90","724352","0.0-2.0-17.1-4.1","battery-v0.2","","""event"",""trial"",""time""
""fullscreenenter"",""1"",""1578""
","
","
","""event"",""trial"",""time""
""fullscreenenter"",""1"",""1578""
","
","","","-1","","","24","10613","4883","&#9789;","elianto","#f73b6a7A"," ","-1","0","-10","[]","0","0","4","","","","","","","",""
"pit-trial","91","729220","0.0-2.0-17.2-0.2","battery-v0.2","","""event"",""trial"",""time""
""fullscreenenter"",""1"",""1578""
","
","
","""event"",""trial"",""time""
""fullscreenenter"",""1"",""1578""
","
","","","-1","","","24","10613","4883","&#9789;","elianto","#f73b6a7A"," ","-1","0","-10","[]","0","0","4","","","","","","","",""
"pit-trial","92","734083","0.0-2.0-17.2-1.2","battery-v0.2","","""event"",""trial"",""time""
""fullscreenenter"",""1"",""1578""
","
","
","""event"",""trial"",""time""
""fullscreenenter"",""1"",""1578""
","
","","","-1","","","24","10613","4883","&#9789;","elianto","#f73b6a7A"," ","-1","0","-10","[]","0","0","4","","","","","","","",""
"pit-trial","93","738951","0.0-2.0-17.2-2.2","battery-v0.2","","""event"",""trial"",""time""
""fullscreenenter"",""1"",""1578""
","
","
","""event"",""trial"",""time""
""fullscreenenter"",""1"",""1578""
","
","","","-1","","","24","10613","4883","&#9789;","elianto","#f73b6a7A"," ","-1","0","-10","[]","0","0","4","","","","","","","",""
"pit-trial","94","743820","0.0-2.0-17.2-3.2","battery-v0.2","","""event"",""trial"",""time""
""fullscreenenter"",""1"",""1578""
","
","
","""event"",""trial"",""time""
""fullscreenenter"",""1"",""1578""
","
","","","-1","","","24","10613","4883","&#9789;","elianto","#f73b6a7A"," ","-1","0","0","[]","0","0","4","","","","","","","",""
"pit-trial","95","748685","0.0-2.0-17.2-4.2","battery-v0.2","","""event"",""trial"",""time""
""fullscreenenter"",""1"",""1578""
","
","
","""event"",""trial"",""time""
""fullscreenenter"",""1"",""1578""
","
","","","-1","","","24","10613","4883","&#9789;","elianto","#f73b6a7A"," ","-1","0","-10","[]","0","0","4","","","","","","","",""
"pit-trial","96","753558","0.0-2.0-17.3-0.3","battery-v0.2","","""event"",""trial"",""time""
""fullscreenenter"",""1"",""1578""
","
","
","""event"",""trial"",""time""
""fullscreenenter"",""1"",""1578""
","
","","","-1","","","24","10613","4883","&#9789;","elianto","#f73b6a7A"," ","-1","0","-10","[]","0","0","4","","","","","","","",""
"pit-trial","97","758421","0.0-2.0-17.3-1.3","battery-v0.2","","""event"",""trial"",""time""
""fullscreenenter"",""1"",""1578""
","
","
","""event"",""trial"",""time""
""fullscreenenter"",""1"",""1578""
","
","","","-1","","","24","10613","4883","&#9789;","elianto","#f73b6a7A"," ","-1","0","-10","[]","0","0","4","","","","","","","",""
"pit-trial","98","763286","0.0-2.0-17.3-2.3","battery-v0.2","","""event"",""trial"",""time""
""fullscreenenter"",""1"",""1578""
","
","
","""event"",""trial"",""time""
""fullscreenenter"",""1"",""1578""
","
","","","-1","","","24","10613","4883","&#9789;","elianto","#f73b6a7A"," ","-1","0","-10","[]","0","0","4","","","","","","","",""
"pit-trial","99","768150","0.0-2.0-17.3-3.3","battery-v0.2","","""event"",""trial"",""time""
""fullscreenenter"",""1"",""1578""
","
","
","""event"",""trial"",""time""
""fullscreenenter"",""1"",""1578""
","
","","","-1","","","24","10613","4883","&#9789;","elianto","#f73b6a7A"," ","-1","0","0","[]","0","0","4","","","","","","","",""
"pit-trial","100","773019","0.0-2.0-17.3-4.3","battery-v0.2","","""event"",""trial"",""time""
""fullscreenenter"",""1"",""1578""
","
","
","""event"",""trial"",""time""
""fullscreenenter"",""1"",""1578""
","
","","","-1","","","24","10613","4883","&#9789;","elianto","#f73b6a7A"," ","-1","0","-10","[]","0","0","4","","","","","","","",""
"call-function","101","773025","0.0-2.0-18.0","battery-v0.2","","""event"",""trial"",""time""
""fullscreenenter"",""1"",""1578""
","
","
","""event"",""trial"",""time""
""fullscreenenter"",""1"",""1578""
","
","","","","","","","","","","","","","","","","","","","","","","","","","","",""
"pit-instructions","102","843305","0.0-2.0-19.0","battery-v0.2","","""event"",""trial"",""time""
""fullscreenenter"",""1"",""1578""
","
","
","""event"",""trial"",""time""
""fullscreenenter"",""1"",""1578""
","
","","[{""page_index"":0,""viewing_time"":10528.200000047684},{""page_index"":1,""viewing_time"":7955},{""page_index"":2,""viewing_time"":12029.599999904633},{""page_index"":3,""viewing_time"":5017.299999952316},{""page_index"":4,""viewing_time"":7670},{""page_index"":5,""viewing_time"":8127.800000190735},{""page_index"":6,""viewing_time"":8202.899999856949},{""page_index"":7,""viewing_time"":6131.600000143051},{""page_index"":8,""viewing_time"":4617.799999952316}]","70280.79999995232","","","","","","","","","","","","","","","","","","","","","","","",""
"pit-comprehension","103","847959","0.0-2.0-20.0-0.0","battery-v0.2","","""event"",""trial"",""time""
""fullscreenenter"",""1"",""1578""
","
","
","""event"",""trial"",""time""
""fullscreenenter"",""1"",""1578""
","
","","","4648.5","[""SPACE""]","0","24","10613","4883","","","","","","","","","","","","","","","","","","",""
"pit-instructions","104","850920","0.0-2.0-20.0-1.0","battery-v0.2","","""event"",""trial"",""time""
""fullscreenenter"",""1"",""1578""
","
","
","""event"",""trial"",""time""
""fullscreenenter"",""1"",""1578""
","
","","[{""page_index"":0,""viewing_time"":2936.2999999523163}]","2936.5999999046326","","","","","","","","","","","","","","","","","","","","","","","",""
"pit-comprehension","105","856087","0.0-2.0-21.0-0.0","battery-v0.2","","""event"",""trial"",""time""
""fullscreenenter"",""1"",""1578""
","
","
","""event"",""trial"",""time""
""fullscreenenter"",""1"",""1578""
","
","","","5164.100000143051","[""10""]","0","24","10613","4883","","","","","","","","","","","","","","","","","","",""
"pit-instructions","106","857920","0.0-2.0-21.0-1.0","battery-v0.2","","""event"",""trial"",""time""
""fullscreenenter"",""1"",""1578""
","
","
","""event"",""trial"",""time""
""fullscreenenter"",""1"",""1578""
","
","","[{""page_index"":0,""viewing_time"":1811}]","1811.1000001430511","","","","","","","","","","","","","","","","","","","","","","","",""
"pit-comprehension","107","868838","0.0-2.0-22.0-0.0","battery-v0.2","","""event"",""trial"",""time""
""fullscreenenter"",""1"",""1578""
","
","
","""event"",""trial"",""time""
""fullscreenenter"",""1"",""1578""
","
","","","10915.5","[""0""]","0","24","10613","4883","","","","","","","","","","","","","","","","","","",""
"pit-instructions","108","871821","0.0-2.0-22.0-1.0","battery-v0.2","","""event"",""trial"",""time""
""fullscreenenter"",""1"",""1578""
","
","
","""event"",""trial"",""time""
""fullscreenenter"",""1"",""1578""
","
","","[{""page_index"":0,""viewing_time"":2956.600000143051}]","2957","","","","","","","","","","","","","","","","","","","","","","","",""
"pit-comprehension","109","882003","0.0-2.0-23.0-0.0","battery-v0.2","","""event"",""trial"",""time""
""fullscreenenter"",""1"",""1578""
","
","
","""event"",""trial"",""time""
""fullscreenenter"",""1"",""1578""
","
","","","10178.200000047684","[""True""]","0","24","10613","4883","","","","","","","","","","","","","","","","","","",""
"pit-instructions","110","884287","0.0-2.0-23.0-1.0","battery-v0.2","","""event"",""trial"",""time""
""fullscreenenter"",""1"",""1578""
","
","
","""event"",""trial"",""time""
""fullscreenenter"",""1"",""1578""
","
","","[{""page_index"":0,""viewing_time"":2259.699999809265}]","2260","","","","","","","","","","","","","","","","","","","","","","","",""
"pit-comprehension","111","891837","0.0-2.0-24.0-0.0","battery-v0.2","","""event"",""trial"",""time""
""fullscreenenter"",""1"",""1578""
","
","
","""event"",""trial"",""time""
""fullscreenenter"",""1"",""1578""
","
","","","7546.199999809265","[""True""]","0","24","10613","4883","","","","","","","","","","","","","","","","","","",""
"pit-instructions","112","893636","0.0-2.0-24.0-1.0","battery-v0.2","","""event"",""trial"",""time""
""fullscreenenter"",""1"",""1578""
","
","
","""event"",""trial"",""time""
""fullscreenenter"",""1"",""1578""
","
","","[{""page_index"":0,""viewing_time"":1775.9000000953674}]","1776.0999999046326","","","","","","","","","","","","","","","","","","","","","","","",""
"pit-comprehension","113","900186","0.0-2.0-25.0-0.0","battery-v0.2","","""event"",""trial"",""time""
""fullscreenenter"",""1"",""1578""
","
","
","""event"",""trial"",""time""
""fullscreenenter"",""1"",""1578""
","
","","","6547.799999952316","[""True""]","0","24","10613","4883","","","","","","","","","","","","","","","","","","",""
"pit-instructions","114","903369","0.0-2.0-25.0-1.0","battery-v0.2","","""event"",""trial"",""time""
""fullscreenenter"",""1"",""1578""
","
","
","""event"",""trial"",""time""
""fullscreenenter"",""1"",""1578""
","
","","[{""page_index"":0,""viewing_time"":3159.100000143051}]","3159.300000190735","","","","","","","","","","","","","","","","","","","","","","","",""
"pit-comprehension","115","910020","0.0-2.0-26.0-0.0","battery-v0.2","","""event"",""trial"",""time""
""fullscreenenter"",""1"",""1578""
","
","
","""event"",""trial"",""time""
""fullscreenenter"",""1"",""1578""
","
","","","6648.199999809265","[""False""]","0","24","10613","4883","","","","","","","","","","","","","","","","","","",""
"pit-instructions","116","913419","0.0-2.0-26.0-1.0","battery-v0.2","","""event"",""trial"",""time""
""fullscreenenter"",""1"",""1578""
","
","
","""event"",""trial"",""time""
""fullscreenenter"",""1"",""1578""
","
","","[{""page_index"":0,""viewing_time"":3374.7000000476837}]","3374.9000000953674","","","","","","","","","","","","","","","","","","","","","","","",""
"pit-instructions","117","931420","0.0-3.0","battery-v0.2","","""event"",""trial"",""time""
""fullscreenenter"",""1"",""1578""
","
","
","""event"",""trial"",""time""
""fullscreenenter"",""1"",""1578""
","
","","[{""page_index"":0,""viewing_time"":3884.2999999523163},{""page_index"":1,""viewing_time"":5847.5},{""page_index"":2,""viewing_time"":8265.799999952316}]","17998.099999904633","","","","","","","","","","","","","","","","","","","","","","","",""
"pit-trial","118","935266","0.0-4.0","battery-v0.2","","""event"",""trial"",""time""
""fullscreenenter"",""1"",""1578""
","
","
","""event"",""trial"",""time""
""fullscreenenter"",""1"",""1578""
","
","","","980.9000000953674","","","24","10613","4883","&#9730;","elianto","#3366ff99"," "," ","1","+10","[1834.9000000953674]","1","1","","","10613","1","1","1","win","go","0"
"pit-trial","119","940138","0.0-5.0","battery-v0.2","","""event"",""trial"",""time""
""fullscreenenter"",""1"",""1578""
","
","
","""event"",""trial"",""time""
""fullscreenenter"",""1"",""1578""
","
","","","-1","","","24","10613","4883","&#9728;","elianto","#f73b6a7A","-1","-1","1","0","[]","0","1","","","10613","2","0","4","lose","no-go","0"
"pit-trial","120","945001","0.0-6.0","battery-v0.2","","""event"",""trial"",""time""
""fullscreenenter"",""1"",""1578""
","
","
","""event"",""trial"",""time""
""fullscreenenter"",""1"",""1578""
","
","","","-1","","","24","10613","4883","&#9752;","elianto","#f73b6a7A"," ","-1","0","-10","[]","0","1","","","10613","3","3","3","lose","go","0"
"pit-trial","121","948718","0.0-7.0","battery-v0.2","","""event"",""trial"",""time""
""fullscreenenter"",""1"",""1578""
","
","
","""event"",""trial"",""time""
""fullscreenenter"",""1"",""1578""
","
","","","854.8999998569489","","","24","10613","4883","&#9733;","elianto","#3366ff99","-1"," ","0","0","[1707.2999999523163]","1","1","","","10613","4","2","2","win","no-go","0"
"pit-trial","122","952370","0.0-8.0","battery-v0.2","","""event"",""trial"",""time""
""fullscreenenter"",""1"",""1578""
","
","
","""event"",""trial"",""time""
""fullscreenenter"",""1"",""1578""
","
","","","786.8999998569489","","","24","10613","4883","&#9730;","elianto","#3366ff99"," "," ","1","+10","[1643.7999999523163]","1","1","","","10613","5","1","1","win","go","0"
"pit-trial","123","955690","0.0-9.0","battery-v0.2","","""event"",""trial"",""time""
""fullscreenenter"",""1"",""1578""
","
","
","""event"",""trial"",""time""
""fullscreenenter"",""1"",""1578""
","
","","","457","","","24","10613","4883","&#9733;","elianto","#3366ff99","-1"," ","0","0","[1312.1000001430511]","1","1","","","10613","6","2","2","win","no-go","0"
"pit-trial","124","959196","0.0-10.0","battery-v0.2","","""event"",""trial"",""time""
""fullscreenenter"",""1"",""1578""
","
","
","""event"",""trial"",""time""
""fullscreenenter"",""1"",""1578""
","
","","","637.7000000476837","","","24","10613","4883","&#9752;","elianto","#f73b6a7A"," "," ","1","0","[1491.2999999523163]","1","1","","","10613","7","3","3","lose","go","0"
"pit-trial","125","962884","0.0-11.0","battery-v0.2","","""event"",""trial"",""time""
""fullscreenenter"",""1"",""1578""
","
","
","""event"",""trial"",""time""
""fullscreenenter"",""1"",""1578""
","
","","","815.7000000476837","","","24","10613","4883","&#9728;","elianto","#f73b6a7A","-1"," ","0","-10","[1673.5]","1","1","","","10613","8","0","4","lose","no-go","0"
"pit-trial","126","966500","0.0-12.0","battery-v0.2","","""event"",""trial"",""time""
""fullscreenenter"",""1"",""1578""
","
","
","""event"",""trial"",""time""
""fullscreenenter"",""1"",""1578""
","
","","","745.2000000476837","","","24","10613","4883","&#9752;","elianto","#f73b6a7A"," "," ","1","-10","[1603.2999999523163]","1","1","","","10613","9","3","3","lose","go","1"
"pit-trial","127","971364","0.0-13.0","battery-v0.2","","""event"",""trial"",""time""
""fullscreenenter"",""1"",""1578""
","
","
","""event"",""trial"",""time""
""fullscreenenter"",""1"",""1578""
","
","","","-1","","","24","10613","4883","&#9728;","elianto","#f73b6a7A","-1","-1","1","0","[]","0","1","","","10613","10","0","4","lose","no-go","0"
"pit-trial","128","974947","0.0-14.0","battery-v0.2","","""event"",""trial"",""time""
""fullscreenenter"",""1"",""1578""
","
","
","""event"",""trial"",""time""
""fullscreenenter"",""1"",""1578""
","
","","","714.5999999046326","","","24","10613","4883","&#9730;","elianto","#3366ff99"," "," ","1","+10","[1572.8000001907349]","1","1","","","10613","11","1","1","win","go","0"
"pit-trial","129","978627","0.0-15.0","battery-v0.2","","""event"",""trial"",""time""
""fullscreenenter"",""1"",""1578""
","
","
","""event"",""trial"",""time""
""fullscreenenter"",""1"",""1578""
","
","","","811.1000001430511","","","24","10613","4883","&#9733;","elianto","#3366ff99","-1"," ","0","0","[1668.5999999046326]","1","1","","","10613","12","2","2","win","no-go","0"
"pit-trial","130","982046","0.0-16.0","battery-v0.2","","""event"",""trial"",""time""
""fullscreenenter"",""1"",""1578""
","
","
","""event"",""trial"",""time""
""fullscreenenter"",""1"",""1578""
","
","","","560.2999999523163","","","24","10613","4883","&#9733;","elianto","#3366ff99","-1"," ","0","0","[1410.5]","1","1","","","10613","13","2","2","win","no-go","0"
"pit-trial","131","986915","0.0-17.0","battery-v0.2","","""event"",""trial"",""time""
""fullscreenenter"",""1"",""1578""
","
","
","""event"",""trial"",""time""
""fullscreenenter"",""1"",""1578""
","
","","","-1","","","24","10613","4883","&#9728;","elianto","#f73b6a7A","-1","-1","1","0","[]","0","1","","","10613","14","0","4","lose","no-go","0"
"pit-trial","132","990485","0.0-18.0","battery-v0.2","","""event"",""trial"",""time""
""fullscreenenter"",""1"",""1578""
","
","
","""event"",""trial"",""time""
""fullscreenenter"",""1"",""1578""
","
","","","696.2999999523163","","","24","10613","4883","&#9752;","elianto","#f73b6a7A"," "," ","1","0","[1554]","1","1","","","10613","15","3","3","lose","go","0"
"pit-trial","133","994017","0.0-19.0","battery-v0.2","","""event"",""trial"",""time""
""fullscreenenter"",""1"",""1578""
","
","
","""event"",""trial"",""time""
""fullscreenenter"",""1"",""1578""
","
","","","667.5","","","24","10613","4883","&#9730;","elianto","#3366ff99"," "," ","1","+10","[1521.2999999523163]","1","1","","","10613","16","1","1","win","go","0"
"pit-trial","134","997315","0.0-20.0","battery-v0.2","","""event"",""trial"",""time""
""fullscreenenter"",""1"",""1578""
","
","
","""event"",""trial"",""time""
""fullscreenenter"",""1"",""1578""
","
","","","426.90000009536743","","","24","10613","4883","&#9752;","elianto","#f73b6a7A"," "," ","1","0","[1284.5999999046326]","1","1","","","10613","17","3","3","lose","go","0"
"pit-trial","135","1001274","0.0-21.0","battery-v0.2","","""event"",""trial"",""time""
""fullscreenenter"",""1"",""1578""
","
","
","""event"",""trial"",""time""
""fullscreenenter"",""1"",""1578""
","
","","","1091.2000000476837","","","24","10613","4883","&#9733;","elianto","#3366ff99","-1"," ","0","0","[1948]","1","1","","","10613","18","2","2","win","no-go","0"
"pit-trial","136","1005074","0.0-22.0","battery-v0.2","","""event"",""trial"",""time""
""fullscreenenter"",""1"",""1578""
","
","
","""event"",""trial"",""time""
""fullscreenenter"",""1"",""1578""
","
","","","935.5","","","24","10613","4883","&#9728;","elianto","#f73b6a7A","-1"," ","0","-10","[1789]","1","1","","","10613","19","0","4","lose","no-go","0"
"pit-trial","137","1008427","0.0-23.0","battery-v0.2","","""event"",""trial"",""time""
""fullscreenenter"",""1"",""1578""
","
","
","""event"",""trial"",""time""
""fullscreenenter"",""1"",""1578""
","
","","","485.2000000476837","","","24","10613","4883","&#9730;","elianto","#3366ff99"," "," ","1","+10","[1335.7000000476837]","1","1","","","10613","20","1","1","win","go","0"
"pit-instructions","138","1022154","0.0-24.0","battery-v0.2","","""event"",""trial"",""time""
""fullscreenenter"",""1"",""1578""
","
","
","""event"",""trial"",""time""
""fullscreenenter"",""1"",""1578""
","
","","[{""page_index"":0,""viewing_time"":6402.900000095367},{""page_index"":1,""viewing_time"":7318.099999904633}]","13721.299999952316","","","","","","","","","","","","","","","","","","","","","","","",""
"pit-trial","139","1027017","0.0-25.0","battery-v0.2","","""event"",""trial"",""time""
""fullscreenenter"",""1"",""1578""
","
","
","""event"",""trial"",""time""
""fullscreenenter"",""1"",""1578""
","
","","","-1","","","24","10613","4883","a","elianto","#f73b6a7A","-1","-1","1","-10","[]","0","2","","","10613","21","2","4","lose","no-go","1"
"pit-trial","140","1030698","0.0-26.0","battery-v0.2","","""event"",""trial"",""time""
""fullscreenenter"",""1"",""1578""
","
","
","""event"",""trial"",""time""
""fullscreenenter"",""1"",""1578""
","
","","","811","","","24","10613","4883","u","elianto","#f73b6a7A","-1"," ","0","-10","[1669]","1","2","","","10613","22","0","4","lose","no-go","0"
"pit-trial","141","1034241","0.0-27.0","battery-v0.2","","""event"",""trial"",""time""
""fullscreenenter"",""1"",""1578""
","
","
","""event"",""trial"",""time""
""fullscreenenter"",""1"",""1578""
","
","","","674.6000001430511","","","24","10613","4883","l","elianto","#3366ff99"," "," ","1","+10","[1533.7000000476837]","1","2","","","10613","23","1","1","win","go","0"
"pit-trial","142","1039104","0.0-28.0","battery-v0.2","","""event"",""trial"",""time""
""fullscreenenter"",""1"",""1578""
","
","
","""event"",""trial"",""time""
""fullscreenenter"",""1"",""1578""
","
","","","-1","","","24","10613","4883","g","elianto","#f73b6a7A"," ","-1","0","-10","[]","0","2","","","10613","24","3","3","lose","go","0"
"pit-trial","143","1042840","0.0-29.0","battery-v0.2","","""event"",""trial"",""time""
""fullscreenenter"",""1"",""1578""
","
","
","""event"",""trial"",""time""
""fullscreenenter"",""1"",""1578""
","
","","","870.7000000476837","","","24","10613","4883","a","elianto","#f73b6a7A","-1"," ","0","0","[1725.6000001430511]","1","2","","","10613","25","2","4","lose","no-go","1"
"pit-trial","144","1046441","0.0-30.0","battery-v0.2","","""event"",""trial"",""time""
""fullscreenenter"",""1"",""1578""
","
","
","""event"",""trial"",""time""
""fullscreenenter"",""1"",""1578""
","
","","","737.0999999046326","","","24","10613","4883","l","elianto","#3366ff99"," "," ","1","0","[1590.4000000953674]","1","2","","","10613","26","1","1","win","go","1"
"pit-trial","145","1051305","0.0-31.0","battery-v0.2","","""event"",""trial"",""time""
""fullscreenenter"",""1"",""1578""
","
","
","""event"",""trial"",""time""
""fullscreenenter"",""1"",""1578""
","
","","","-1","","","24","10613","4883","u","elianto","#f73b6a7A","-1","-1","1","0","[]","0","2","","","10613","27","0","4","lose","no-go","0"
"pit-trial","146","1054913","0.0-32.0","battery-v0.2","","""event"",""trial"",""time""
""fullscreenenter"",""1"",""1578""
","
","
","""event"",""trial"",""time""
""fullscreenenter"",""1"",""1578""
","
","","","741.7000000476837","","","24","10613","4883","g","elianto","#f73b6a7A"," "," ","1","0","[1592.7999999523163]","1","2","","","10613","28","3","3","lose","go","0"
"pit-trial","147","1058295","0.0-33.0","battery-v0.2","","""event"",""trial"",""time""
""fullscreenenter"",""1"",""1578""
","
","
","""event"",""trial"",""time""
""fullscreenenter"",""1"",""1578""
","
","","","512.4000000953674","","","24","10613","4883","l","elianto","#3366ff99"," "," ","1","+10","[1369]","1","2","","","10613","29","1","1","win","go","0"
"pit-trial","148","1061782","0.0-34.0","battery-v0.2","","""event"",""trial"",""time""
""fullscreenenter"",""1"",""1578""
","
","
","""event"",""trial"",""time""
""fullscreenenter"",""1"",""1578""
","
","","","620.4000000953674","","","24","10613","4883","a","elianto","#f73b6a7A","-1"," ","0","-10","[1478.9000000953674]","1","2","","","10613","30","2","4","lose","no-go","0"
"pit-trial","149","1065463","0.0-35.0","battery-v0.2","","""event"",""trial"",""time""
""fullscreenenter"",""1"",""1578""
","
","
","""event"",""trial"",""time""
""fullscreenenter"",""1"",""1578""
","
","","","817.7000000476837","","","24","10613","4883","g","elianto","#f73b6a7A"," "," ","1","0","[1669.1000001430511]","1","2","","","10613","31","3","3","lose","go","0"
"pit-trial","150","1070333","0.0-36.0","battery-v0.2","","""event"",""trial"",""time""
""fullscreenenter"",""1"",""1578""
","
","
","""event"",""trial"",""time""
""fullscreenenter"",""1"",""1578""
","
","","","-1","","","24","10613","4883","u","elianto","#f73b6a7A","-1","-1","1","-10","[]","0","2","","","10613","32","0","4","lose","no-go","1"
"pit-trial","151","1074303","0.0-37.0","battery-v0.2","","""event"",""trial"",""time""
""fullscreenenter"",""1"",""1578""
","
","
","""event"",""trial"",""time""
""fullscreenenter"",""1"",""1578""
","
","","","1106.1999998092651","","","24","10613","4883","u","elianto","#f73b6a7A","-1"," ","0","-10","[1960.5]","1","2","","","10613","33","0","4","lose","no-go","0"
"pit-trial","152","1077866","0.0-38.0","battery-v0.2","","""event"",""trial"",""time""
""fullscreenenter"",""1"",""1578""
","
","
","""event"",""trial"",""time""
""fullscreenenter"",""1"",""1578""
","
","","","695.6999998092651","","","24","10613","4883","g","elianto","#f73b6a7A"," "," ","1","0","[1550.5999999046326]","1","2","","","10613","34","3","3","lose","go","0"
"pit-trial","153","1081265","0.0-39.0","battery-v0.2","","""event"",""trial"",""time""
""fullscreenenter"",""1"",""1578""
","
","
","""event"",""trial"",""time""
""fullscreenenter"",""1"",""1578""
","
","","","532.7000000476837","","","24","10613","4883","l","elianto","#3366ff99"," "," ","1","0","[1389.8999998569489]","1","2","","","10613","35","1","1","win","go","1"
"pit-trial","154","1085113","0.0-40.0","battery-v0.2","","""event"",""trial"",""time""
""fullscreenenter"",""1"",""1578""
","
","
","""event"",""trial"",""time""
""fullscreenenter"",""1"",""1578""
","
","","","981.7000000476837","","","24","10613","4883","a","elianto","#f73b6a7A","-1"," ","0","0","[1840.2000000476837]","1","2","","","10613","36","2","4","lose","no-go","1"
"pit-trial","155","1088863","0.0-41.0","battery-v0.2","","""event"",""trial"",""time""
""fullscreenenter"",""1"",""1578""
","
","
","""event"",""trial"",""time""
""fullscreenenter"",""1"",""1578""
","
","","","878.4000000953674","","","24","10613","4883","u","elianto","#f73b6a7A","-1"," ","0","0","[1738.5]","1","2","","","10613","37","0","4","lose","no-go","1"
"pit-trial","156","1092465","0.0-42.0","battery-v0.2","","""event"",""trial"",""time""
""fullscreenenter"",""1"",""1578""
","
","
","""event"",""trial"",""time""
""fullscreenenter"",""1"",""1578""
","
","","","738.2999999523163","","","24","10613","4883","a","elianto","#f73b6a7A","-1"," ","0","-10","[1590.2999999523163]","1","2","","","10613","38","2","4","lose","no-go","0"
"pit-trial","157","1095894","0.0-43.0","battery-v0.2","","""event"",""trial"",""time""
""fullscreenenter"",""1"",""1578""
","
","
","""event"",""trial"",""time""
""fullscreenenter"",""1"",""1578""
","
","","","558.9000000953674","","","24","10613","4883","g","elianto","#f73b6a7A"," "," ","1","0","[1416.4000000953674]","1","2","","","10613","39","3","3","lose","go","0"
"pit-trial","158","1099182","0.0-44.0","battery-v0.2","","""event"",""trial"",""time""
""fullscreenenter"",""1"",""1578""
","
","
","""event"",""trial"",""time""
""fullscreenenter"",""1"",""1578""
","
","","","419.7999999523163","","","24","10613","4883","l","elianto","#3366ff99"," "," ","1","+10","[1281.0999999046326]","1","2","","","10613","40","1","1","win","go","0"
"pit-trial","159","1102424","0.0-45.0","battery-v0.2","","""event"",""trial"",""time""
""fullscreenenter"",""1"",""1578""
","
","
","""event"",""trial"",""time""
""fullscreenenter"",""1"",""1578""
","
","","","380.7999999523163","","","24","10613","4883","u","elianto","#f73b6a7A","-1"," ","0","-10","[1233]","1","2","","","10613","41","0","4","lose","no-go","0"
"pit-trial","160","1106049","0.0-46.0","battery-v0.2","","""event"",""trial"",""time""
""fullscreenenter"",""1"",""1578""
","
","
","""event"",""trial"",""time""
""fullscreenenter"",""1"",""1578""
","
","","","767.7000000476837","","","24","10613","4883","a","elianto","#f73b6a7A","-1"," ","0","-10","[1617.7000000476837]","1","2","","","10613","42","2","4","lose","no-go","0"
"pit-trial","161","1109479","0.0-47.0","battery-v0.2","","""event"",""trial"",""time""
""fullscreenenter"",""1"",""1578""
","
","
","""event"",""trial"",""time""
""fullscreenenter"",""1"",""1578""
","
","","","561.5","","","24","10613","4883","l","elianto","#3366ff99"," "," ","1","+10","[1421.2000000476837]","1","2","","","10613","43","1","1","win","go","0"
"pit-trial","162","1113182","0.0-48.0","battery-v0.2","","""event"",""trial"",""time""
""fullscreenenter"",""1"",""1578""
","
","
","""event"",""trial"",""time""
""fullscreenenter"",""1"",""1578""
","
","","","839.7999999523163","","","24","10613","4883","g","elianto","#f73b6a7A"," "," ","1","0","[1692.7000000476837]","1","2","","","10613","44","3","3","lose","go","0"
"pit-trial","163","1118048","0.0-49.0","battery-v0.2","","""event"",""trial"",""time""
""fullscreenenter"",""1"",""1578""
","
","
","""event"",""trial"",""time""
""fullscreenenter"",""1"",""1578""
","
","","","-1","","","24","10613","4883","u","elianto","#f73b6a7A","-1","-1","1","0","[]","0","2","","","10613","45","0","4","lose","no-go","0"
"pit-trial","164","1121599","0.0-50.0","battery-v0.2","","""event"",""trial"",""time""
""fullscreenenter"",""1"",""1578""
","
","
","""event"",""trial"",""time""
""fullscreenenter"",""1"",""1578""
","
","","","683.7999999523163","","","24","10613","4883","p","elianto","#3366ff99","-1"," ","0","0","[1542.3999998569489]","1","2","","","10613","46","4","2","win","no-go","0"
"pit-trial","165","1125013","0.0-51.0","battery-v0.2","","""event"",""trial"",""time""
""fullscreenenter"",""1"",""1578""
","
","
","""event"",""trial"",""time""
""fullscreenenter"",""1"",""1578""
","
","","","547.3999998569489","","","24","10613","4883","g","elianto","#f73b6a7A"," "," ","1","0","[1407.7000000476837]","1","2","","","10613","47","3","3","lose","go","0"
"pit-trial","166","1128360","0.0-52.0","battery-v0.2","","""event"",""trial"",""time""
""fullscreenenter"",""1"",""1578""
","
","
","""event"",""trial"",""time""
""fullscreenenter"",""1"",""1578""
","
","","","489.2000000476837","","","24","10613","4883","a","elianto","#f73b6a7A","-1"," ","0","0","[1340.1000001430511]","1","2","","","10613","48","2","4","lose","no-go","1"
"pit-trial","167","1131529","0.0-53.0","battery-v0.2","","""event"",""trial"",""time""
""fullscreenenter"",""1"",""1578""
","
","
","""event"",""trial"",""time""
""fullscreenenter"",""1"",""1578""
","
","","","308.59999990463257","","","24","10613","4883","l","elianto","#3366ff99"," "," ","1","+10","[1158.5]","1","2","","","10613","49","1","1","win","go","0"
"pit-trial","168","1134824","0.0-54.0","battery-v0.2","","""event"",""trial"",""time""
""fullscreenenter"",""1"",""1578""
","
","
","""event"",""trial"",""time""
""fullscreenenter"",""1"",""1578""
","
","","","429.80000019073486","","","24","10613","4883","p","elianto","#3366ff99","-1"," ","0","0","[1285.4000000953674]","1","2","","","10613","50","4","2","win","no-go","0"
"pit-trial","169","1138239","0.0-55.0","battery-v0.2","","""event"",""trial"",""time""
""fullscreenenter"",""1"",""1578""
","
","
","""event"",""trial"",""time""
""fullscreenenter"",""1"",""1578""
","
","","","552.5999999046326","","","24","10613","4883","g","elianto","#f73b6a7A"," "," ","1","0","[1403.7000000476837]","1","2","","","10613","51","3","3","lose","go","0"
"pit-trial","170","1141614","0.0-56.0","battery-v0.2","","""event"",""trial"",""time""
""fullscreenenter"",""1"",""1578""
","
","
","""event"",""trial"",""time""
""fullscreenenter"",""1"",""1578""
","
","","","509.10000014305115","","","24","10613","4883","u","elianto","#f73b6a7A","-1"," ","0","0","[1361]","1","2","","","10613","52","0","4","lose","no-go","1"
"pit-trial","171","1144910","0.0-57.0","battery-v0.2","","""event"",""trial"",""time""
""fullscreenenter"",""1"",""1578""
","
","
","""event"",""trial"",""time""
""fullscreenenter"",""1"",""1578""
","
","","","422.90000009536743","","","24","10613","4883","l","elianto","#3366ff99"," "," ","1","+10","[1282.8999998569489]","1","2","","","10613","53","1","1","win","go","0"
"pit-trial","172","1148190","0.0-58.0","battery-v0.2","","""event"",""trial"",""time""
""fullscreenenter"",""1"",""1578""
","
","
","""event"",""trial"",""time""
""fullscreenenter"",""1"",""1578""
","
","","","416.69999980926514","","","24","10613","4883","u","elianto","#f73b6a7A","-1"," ","0","-10","[1267.9000000953674]","1","2","","","10613","54","0","4","lose","no-go","0"
"pit-trial","173","1151481","0.0-59.0","battery-v0.2","","""event"",""trial"",""time""
""fullscreenenter"",""1"",""1578""
","
","
","""event"",""trial"",""time""
""fullscreenenter"",""1"",""1578""
","
","","","422.19999980926514","","","24","10613","4883","p","elianto","#3366ff99","-1"," ","0","+10","[1274.3999998569489]","1","2","","","10613","55","4","2","win","no-go","1"
"pit-trial","174","1154912","0.0-60.0","battery-v0.2","","""event"",""trial"",""time""
""fullscreenenter"",""1"",""1578""
","
","
","""event"",""trial"",""time""
""fullscreenenter"",""1"",""1578""
","
","","","559.2999999523163","","","24","10613","4883","a","elianto","#f73b6a7A","-1"," ","0","-10","[1417.3999998569489]","1","2","","","10613","56","2","4","lose","no-go","0"
"pit-trial","175","1158296","0.0-61.0","battery-v0.2","","""event"",""trial"",""time""
""fullscreenenter"",""1"",""1578""
","
","
","""event"",""trial"",""time""
""fullscreenenter"",""1"",""1578""
","
","","","519","","","24","10613","4883","l","elianto","#3366ff99"," "," ","1","+10","[1369.0999999046326]","1","2","","","10613","57","1","1","win","go","0"
"pit-trial","176","1161744","0.0-62.0","battery-v0.2","","""event"",""trial"",""time""
""fullscreenenter"",""1"",""1578""
","
","
","""event"",""trial"",""time""
""fullscreenenter"",""1"",""1578""
","
","","","575.5999999046326","","","24","10613","4883","p","elianto","#3366ff99","-1"," ","0","0","[1432.5]","1","2","","","10613","58","4","2","win","no-go","0"
"pit-trial","177","1165015","0.0-63.0","battery-v0.2","","""event"",""trial"",""time""
""fullscreenenter"",""1"",""1578""
","
","
","""event"",""trial"",""time""
""fullscreenenter"",""1"",""1578""
","
","","","404","","","24","10613","4883","g","elianto","#f73b6a7A"," "," ","1","0","[1261.5]","1","2","","","10613","59","3","3","lose","go","0"
"pit-trial","178","1168159","0.0-64.0","battery-v0.2","","""event"",""trial"",""time""
""fullscreenenter"",""1"",""1578""
","
","
","""event"",""trial"",""time""
""fullscreenenter"",""1"",""1578""
","
","","","274.40000009536743","","","24","10613","4883","u","elianto","#f73b6a7A","-1"," ","0","-10","[1132.4000000953674]","1","2","","","10613","60","0","4","lose","no-go","0"
"pit-trial","179","1171376","0.0-65.0","battery-v0.2","","""event"",""trial"",""time""
""fullscreenenter"",""1"",""1578""
","
","
","""event"",""trial"",""time""
""fullscreenenter"",""1"",""1578""
","
","","","345.09999990463257","","","24","10613","4883","a","elianto","#f73b6a7A","-1"," ","0","-10","[1202.1999998092651]","1","2","","","10613","61","2","4","lose","no-go","0"
"pit-trial","180","1174615","0.0-66.0","battery-v0.2","","""event"",""trial"",""time""
""fullscreenenter"",""1"",""1578""
","
","
","""event"",""trial"",""time""
""fullscreenenter"",""1"",""1578""
","
","","","368.5","","","24","10613","4883","l","elianto","#3366ff99"," "," ","1","+10","[1223.3999998569489]","1","2","","","10613","62","1","1","win","go","0"
"pit-trial","181","1177901","0.0-67.0","battery-v0.2","","""event"",""trial"",""time""
""fullscreenenter"",""1"",""1578""
","
","
","""event"",""trial"",""time""
""fullscreenenter"",""1"",""1578""
","
","","","420.7000000476837","","","24","10613","4883","p","elianto","#3366ff99","-1"," ","0","0","[1277.2000000476837]","1","2","","","10613","63","4","2","win","no-go","0"
"pit-trial","182","1181181","0.0-68.0","battery-v0.2","","""event"",""trial"",""time""
""fullscreenenter"",""1"",""1578""
","
","
","""event"",""trial"",""time""
""fullscreenenter"",""1"",""1578""
","
","","","417.90000009536743","","","24","10613","4883","g","elianto","#f73b6a7A"," "," ","1","0","[1272.8000001907349]","1","2","","","10613","64","3","3","lose","go","0"
"pit-trial","183","1184598","0.0-69.0","battery-v0.2","","""event"",""trial"",""time""
""fullscreenenter"",""1"",""1578""
","
","
","""event"",""trial"",""time""
""fullscreenenter"",""1"",""1578""
","
","","","552.3999998569489","","","24","10613","4883","p","elianto","#3366ff99","-1"," ","0","0","[1412.0999999046326]","1","2","","","10613","65","4","2","win","no-go","0"
"pit-trial","184","1187991","0.0-70.0","battery-v0.2","","""event"",""trial"",""time""
""fullscreenenter"",""1"",""1578""
","
","
","""event"",""trial"",""time""
""fullscreenenter"",""1"",""1578""
","
","","","524.8000001907349","","","24","10613","4883","a","elianto","#f73b6a7A","-1"," ","0","-10","[1383.1000001430511]","1","2","","","10613","66","2","4","lose","no-go","0"
"pit-trial","185","1191380","0.0-71.0","battery-v0.2","","""event"",""trial"",""time""
""fullscreenenter"",""1"",""1578""
","
","
","""event"",""trial"",""time""
""fullscreenenter"",""1"",""1578""
","
","","","526.1999998092651","","","24","10613","4883","l","elianto","#3366ff99"," "," ","1","+10","[1376.5999999046326]","1","2","","","10613","67","1","1","win","go","0"
"pit-trial","186","1194880","0.0-72.0","battery-v0.2","","""event"",""trial"",""time""
""fullscreenenter"",""1"",""1578""
","
","
","""event"",""trial"",""time""
""fullscreenenter"",""1"",""1578""
","
","","","632.7999999523163","","","24","10613","4883","g","elianto","#f73b6a7A"," "," ","1","0","[1484.7999999523163]","1","2","","","10613","68","3","3","lose","go","0"
"pit-trial","187","1198265","0.0-73.0","battery-v0.2","","""event"",""trial"",""time""
""fullscreenenter"",""1"",""1578""
","
","
","""event"",""trial"",""time""
""fullscreenenter"",""1"",""1578""
","
","","","519.0999999046326","","","24","10613","4883","s","elianto","#3366ff99"," "," ","1","+10","[1373.7000000476837]","1","2","","","10613","69","5","1","win","go","0"
"pit-trial","188","1201822","0.0-74.0","battery-v0.2","","""event"",""trial"",""time""
""fullscreenenter"",""1"",""1578""
","
","
","""event"",""trial"",""time""
""fullscreenenter"",""1"",""1578""
","
","","","690.9000000953674","","","24","10613","4883","g","elianto","#f73b6a7A"," "," ","1","-10","[1546.2999999523163]","1","2","","","10613","70","3","3","lose","go","1"
"pit-trial","189","1205253","0.0-75.0","battery-v0.2","","""event"",""trial"",""time""
""fullscreenenter"",""1"",""1578""
","
","
","""event"",""trial"",""time""
""fullscreenenter"",""1"",""1578""
","
","","","568.5","","","24","10613","4883","l","elianto","#3366ff99"," "," ","1","+10","[1421]","1","2","","","10613","71","1","1","win","go","0"
"pit-trial","190","1209730","0.0-76.0","battery-v0.2","","""event"",""trial"",""time""
""fullscreenenter"",""1"",""1578""
","
","
","""event"",""trial"",""time""
""fullscreenenter"",""1"",""1578""
","
","","","1614.0999999046326","","","24","10613","4883","p","elianto","#3366ff99","-1"," ","0","0","[2467.399999856949]","1","2","","","10613","72","4","2","win","no-go","0"
"pit-trial","191","1213413","0.0-77.0","battery-v0.2","","""event"",""trial"",""time""
""fullscreenenter"",""1"",""1578""
","
","
","""event"",""trial"",""time""
""fullscreenenter"",""1"",""1578""
","
","","","820.7999999523163","","","24","10613","4883","l","elianto","#3366ff99"," "," ","1","+10","[1674.9000000953674]","1","2","","","10613","73","1","1","win","go","0"
"pit-trial","192","1217294","0.0-78.0","battery-v0.2","","""event"",""trial"",""time""
""fullscreenenter"",""1"",""1578""
","
","
","""event"",""trial"",""time""
""fullscreenenter"",""1"",""1578""
","
","","","1017.6000001430511","","","24","10613","4883","s","elianto","#3366ff99"," "," ","1","+10","[1870.5]","1","2","","","10613","74","5","1","win","go","0"
"pit-trial","193","1221014","0.0-79.0","battery-v0.2","","""event"",""trial"",""time""
""fullscreenenter"",""1"",""1578""
","
","
","""event"",""trial"",""time""
""fullscreenenter"",""1"",""1578""
","
","","","856.7000000476837","","","24","10613","4883","g","elianto","#f73b6a7A"," "," ","1","0","[1714.2000000476837]","1","2","","","10613","75","3","3","lose","go","0"
"pit-trial","194","1224731","0.0-80.0","battery-v0.2","","""event"",""trial"",""time""
""fullscreenenter"",""1"",""1578""
","
","
","""event"",""trial"",""time""
""fullscreenenter"",""1"",""1578""
","
","","","850.2000000476837","","","24","10613","4883","p","elianto","#3366ff99","-1"," ","0","0","[1707.5]","1","2","","","10613","76","4","2","win","no-go","0"
"pit-trial","195","1228317","0.0-81.0","battery-v0.2","","""event"",""trial"",""time""
""fullscreenenter"",""1"",""1578""
","
","
","""event"",""trial"",""time""
""fullscreenenter"",""1"",""1578""
","
","","","723.0999999046326","","","24","10613","4883","w","elianto","#f73b6a7A","-1"," ","0","0","[1576]","1","2","","","10613","77","6","4","lose","no-go","1"
"pit-trial","196","1231747","0.0-82.0","battery-v0.2","","""event"",""trial"",""time""
""fullscreenenter"",""1"",""1578""
","
","
","""event"",""trial"",""time""
""fullscreenenter"",""1"",""1578""
","
","","","552.5999999046326","","","24","10613","4883","g","elianto","#f73b6a7A"," "," ","1","0","[1417.8000001907349]","1","2","","","10613","78","3","3","lose","go","0"
"pit-trial","197","1235062","0.0-83.0","battery-v0.2","","""event"",""trial"",""time""
""fullscreenenter"",""1"",""1578""
","
","
","""event"",""trial"",""time""
""fullscreenenter"",""1"",""1578""
","
","","","456.5","","","24","10613","4883","s","elianto","#3366ff99"," "," ","1","+10","[1308.7000000476837]","1","2","","","10613","79","5","1","win","go","0"
"pit-trial","198","1238310","0.0-84.0","battery-v0.2","","""event"",""trial"",""time""
""fullscreenenter"",""1"",""1578""
","
","
","""event"",""trial"",""time""
""fullscreenenter"",""1"",""1578""
","
","","","374.90000009536743","","","24","10613","4883","p","elianto","#3366ff99","-1"," ","0","0","[1233.5999999046326]","1","2","","","10613","80","4","2","win","no-go","0"
"pit-trial","199","1241682","0.0-85.0","battery-v0.2","","""event"",""trial"",""time""
""fullscreenenter"",""1"",""1578""
","
","
","""event"",""trial"",""time""
""fullscreenenter"",""1"",""1578""
","
","","","506.5","","","24","10613","4883","w","elianto","#f73b6a7A","-1"," ","0","-10","[1363.1000001430511]","1","2","","","10613","81","6","4","lose","no-go","0"
"pit-trial","200","1245046","0.0-86.0","battery-v0.2","","""event"",""trial"",""time""
""fullscreenenter"",""1"",""1578""
","
","
","""event"",""trial"",""time""
""fullscreenenter"",""1"",""1578""
","
","","","497.2000000476837","","","24","10613","4883","p","elianto","#3366ff99","-1"," ","0","0","[1350.5]","1","2","","","10613","82","4","2","win","no-go","0"
"pit-trial","201","1248062","0.0-87.0","battery-v0.2","","""event"",""trial"",""time""
""fullscreenenter"",""1"",""1578""
","
","
","""event"",""trial"",""time""
""fullscreenenter"",""1"",""1578""
","
","","","143.5","","","24","10613","4883","s","elianto","#3366ff99"," "," ","1","+10","[1000.3999998569489]","1","2","","","10613","83","5","1","win","go","0"
"pit-trial","202","1251315","0.0-88.0","battery-v0.2","","""event"",""trial"",""time""
""fullscreenenter"",""1"",""1578""
","
","
","""event"",""trial"",""time""
""fullscreenenter"",""1"",""1578""
","
","","","387.09999990463257","","","24","10613","4883","e","elianto","#f73b6a7A"," "," ","1","0","[1245.2000000476837]","1","2","","","10613","84","7","3","lose","go","0"
"pit-trial","203","1254531","0.0-89.0","battery-v0.2","","""event"",""trial"",""time""
""fullscreenenter"",""1"",""1578""
","
","
","""event"",""trial"",""time""
""fullscreenenter"",""1"",""1578""
","
","","","357.7999999523163","","","24","10613","4883","s","elianto","#3366ff99"," "," ","1","+10","[1208.9000000953674]","1","2","","","10613","85","5","1","win","go","0"
"pit-trial","204","1257797","0.0-90.0","battery-v0.2","","""event"",""trial"",""time""
""fullscreenenter"",""1"",""1578""
","
","
","""event"",""trial"",""time""
""fullscreenenter"",""1"",""1578""
","
","","","404.40000009536743","","","24","10613","4883","e","elianto","#f73b6a7A"," "," ","1","0","[1255.8000001907349]","1","2","","","10613","86","7","3","lose","go","0"
"pit-trial","205","1261031","0.0-91.0","battery-v0.2","","""event"",""trial"",""time""
""fullscreenenter"",""1"",""1578""
","
","
","""event"",""trial"",""time""
""fullscreenenter"",""1"",""1578""
","
","","","364.30000019073486","","","24","10613","4883","w","elianto","#f73b6a7A","-1"," ","0","-10","[1223.3999998569489]","1","2","","","10613","87","6","4","lose","no-go","0"
"pit-trial","206","1264157","0.0-92.0","battery-v0.2","","""event"",""trial"",""time""
""fullscreenenter"",""1"",""1578""
","
","
","""event"",""trial"",""time""
""fullscreenenter"",""1"",""1578""
","
","","","254.20000004768372","","","24","10613","4883","p","elianto","#3366ff99","-1"," ","0","0","[1110.0999999046326]","1","2","","","10613","88","4","2","win","no-go","0"
"pit-trial","207","1267465","0.0-93.0","battery-v0.2","","""event"",""trial"",""time""
""fullscreenenter"",""1"",""1578""
","
","
","""event"",""trial"",""time""
""fullscreenenter"",""1"",""1578""
","
","","","450.2000000476837","","","24","10613","4883","p","elianto","#3366ff99","-1"," ","0","0","[1300.2999999523163]","1","2","","","10613","89","4","2","win","no-go","0"
"pit-trial","208","1270744","0.0-94.0","battery-v0.2","","""event"",""trial"",""time""
""fullscreenenter"",""1"",""1578""
","
","
","""event"",""trial"",""time""
""fullscreenenter"",""1"",""1578""
","
","","","417.7999999523163","","","24","10613","4883","s","elianto","#3366ff99"," "," ","1","0","[1272.6999998092651]","1","2","","","10613","90","5","1","win","go","1"
"pit-trial","209","1274003","0.0-95.0","battery-v0.2","","""event"",""trial"",""time""
""fullscreenenter"",""1"",""1578""
","
","
","""event"",""trial"",""time""
""fullscreenenter"",""1"",""1578""
","
","","","398.5","","","24","10613","4883","w","elianto","#f73b6a7A","-1"," ","0","-10","[1251.9000000953674]","1","2","","","10613","91","6","4","lose","no-go","0"
"pit-trial","210","1277564","0.0-96.0","battery-v0.2","","""event"",""trial"",""time""
""fullscreenenter"",""1"",""1578""
","
","
","""event"",""trial"",""time""
""fullscreenenter"",""1"",""1578""
","
","","","700.0999999046326","","","24","10613","4883","e","elianto","#f73b6a7A"," "," ","1","-10","[1553.5999999046326]","1","2","","","10613","92","7","3","lose","go","1"
"pit-trial","211","1280813","0.0-97.0","battery-v0.2","","""event"",""trial"",""time""
""fullscreenenter"",""1"",""1578""
","
","
","""event"",""trial"",""time""
""fullscreenenter"",""1"",""1578""
","
","","","377.7000000476837","","","24","10613","4883","w","elianto","#f73b6a7A","-1"," ","0","-10","[1238.5999999046326]","1","2","","","10613","93","6","4","lose","no-go","0"
"pit-trial","212","1283861","0.0-98.0","battery-v0.2","","""event"",""trial"",""time""
""fullscreenenter"",""1"",""1578""
","
","
","""event"",""trial"",""time""
""fullscreenenter"",""1"",""1578""
","
","","","176.59999990463257","","","24","10613","4883","d","elianto","#3366ff99","-1"," ","0","0","[1032.2000000476837]","1","2","","","10613","94","8","2","win","no-go","0"
"pit-trial","213","1287341","0.0-99.0","battery-v0.2","","""event"",""trial"",""time""
""fullscreenenter"",""1"",""1578""
","
","
","""event"",""trial"",""time""
""fullscreenenter"",""1"",""1578""
","
","","","609.0999999046326","","","24","10613","4883","e","elianto","#f73b6a7A"," "," ","1","-10","[1467.2999999523163]","1","2","","","10613","95","7","3","lose","go","1"
"pit-trial","214","1292213","0.0-100.0","battery-v0.2","","""event"",""trial"",""time""
""fullscreenenter"",""1"",""1578""
","
","
","""event"",""trial"",""time""
""fullscreenenter"",""1"",""1578""
","
","","","-1","","","24","10613","4883","s","elianto","#3366ff99"," ","-1","0","0","[3007.5]","1","2","","","10613","96","5","1","win","go","0"
"pit-trial","215","1295277","0.0-101.0","battery-v0.2","","""event"",""trial"",""time""
""fullscreenenter"",""1"",""1578""
","
","
","""event"",""trial"",""time""
""fullscreenenter"",""1"",""1578""
","
","","","195.29999995231628","","","24","10613","4883","w","elianto","#f73b6a7A","-1"," ","0","-10","[1053.5]","1","2","","","10613","97","6","4","lose","no-go","0"
"pit-trial","216","1298827","0.0-102.0","battery-v0.2","","""event"",""trial"",""time""
""fullscreenenter"",""1"",""1578""
","
","
","""event"",""trial"",""time""
""fullscreenenter"",""1"",""1578""
","
","","","685.9000000953674","","","24","10613","4883","s","elianto","#3366ff99"," "," ","1","+10","[1542.5]","1","2","","","10613","98","5","1","win","go","0"
"pit-trial","217","1302093","0.0-103.0","battery-v0.2","","""event"",""trial"",""time""
""fullscreenenter"",""1"",""1578""
","
","
","""event"",""trial"",""time""
""fullscreenenter"",""1"",""1578""
","
","","","404.7000000476837","","","24","10613","4883","d","elianto","#3366ff99","-1"," ","0","+10","[1255.0999999046326]","1","2","","","10613","99","8","2","win","no-go","1"
"pit-trial","218","1305538","0.0-104.0","battery-v0.2","","""event"",""trial"",""time""
""fullscreenenter"",""1"",""1578""
","
","
","""event"",""trial"",""time""
""fullscreenenter"",""1"",""1578""
","
","","","575.6000001430511","","","24","10613","4883","e","elianto","#f73b6a7A"," "," ","1","0","[1433.7999999523163]","1","2","","","10613","100","7","3","lose","go","0"
"pit-trial","219","1308578","0.0-105.0","battery-v0.2","","""event"",""trial"",""time""
""fullscreenenter"",""1"",""1578""
","
","
","""event"",""trial"",""time""
""fullscreenenter"",""1"",""1578""
","
","","","175","","","24","10613","4883","w","elianto","#f73b6a7A","-1"," ","0","-10","[1028.4000000953674]","1","2","","","10613","101","6","4","lose","no-go","0"
"pit-trial","220","1311580","0.0-106.0","battery-v0.2","","""event"",""trial"",""time""
""fullscreenenter"",""1"",""1578""
","
","
","""event"",""trial"",""time""
""fullscreenenter"",""1"",""1578""
","
","","","136.29999995231628","","","24","10613","4883","s","elianto","#3366ff99"," "," ","1","+10","[986.5]","1","2","","","10613","102","5","1","win","go","0"
"pit-trial","221","1314781","0.0-107.0","battery-v0.2","","""event"",""trial"",""time""
""fullscreenenter"",""1"",""1578""
","
","
","""event"",""trial"",""time""
""fullscreenenter"",""1"",""1578""
","
","","","334.5","","","24","10613","4883","d","elianto","#3366ff99","-1"," ","0","0","[1194]","1","2","","","10613","103","8","2","win","no-go","0"
"pit-trial","222","1317820","0.0-108.0","battery-v0.2","","""event"",""trial"",""time""
""fullscreenenter"",""1"",""1578""
","
","
","""event"",""trial"",""time""
""fullscreenenter"",""1"",""1578""
","
","","","170.59999990463257","","","24","10613","4883","j","elianto","#3366ff99","-1"," ","0","0","[1029]","1","2","","","10613","104","9","2","win","no-go","0"
"pit-trial","223","1321140","0.0-109.0","battery-v0.2","","""event"",""trial"",""time""
""fullscreenenter"",""1"",""1578""
","
","
","""event"",""trial"",""time""
""fullscreenenter"",""1"",""1578""
","
","","","456.5","","","24","10613","4883","j","elianto","#3366ff99","-1"," ","0","+10","[1309.8999998569489]","1","2","","","10613","105","9","2","win","no-go","1"
"pit-trial","224","1324378","0.0-110.0","battery-v0.2","","""event"",""trial"",""time""
""fullscreenenter"",""1"",""1578""
","
","
","""event"",""trial"",""time""
""fullscreenenter"",""1"",""1578""
","
","","","375.19999980926514","","","24","10613","4883","d","elianto","#3366ff99","-1"," ","0","0","[1225.6000001430511]","1","2","","","10613","106","8","2","win","no-go","0"
"pit-trial","225","1327371","0.0-111.0","battery-v0.2","","""event"",""trial"",""time""
""fullscreenenter"",""1"",""1578""
","
","
","""event"",""trial"",""time""
""fullscreenenter"",""1"",""1578""
","
","","","125.40000009536743","","","24","10613","4883","s","elianto","#3366ff99"," "," ","1","+10","[985]","1","2","","","10613","107","5","1","win","go","0"
"pit-trial","226","1330464","0.0-112.0","battery-v0.2","","""event"",""trial"",""time""
""fullscreenenter"",""1"",""1578""
","
","
","""event"",""trial"",""time""
""fullscreenenter"",""1"",""1578""
","
","","","229.20000004768372","","","24","10613","4883","w","elianto","#f73b6a7A","-1"," ","0","-10","[1081]","1","2","","","10613","108","6","4","lose","no-go","0"
"pit-trial","227","1333490","0.0-113.0","battery-v0.2","","""event"",""trial"",""time""
""fullscreenenter"",""1"",""1578""
","
","
","""event"",""trial"",""time""
""fullscreenenter"",""1"",""1578""
","
","","","162.39999985694885","","","24","10613","4883","w","elianto","#f73b6a7A","-1"," ","0","-10","[1015.7999999523163]","1","2","","","10613","109","6","4","lose","no-go","0"
"pit-trial","228","1336492","0.0-114.0","battery-v0.2","","""event"",""trial"",""time""
""fullscreenenter"",""1"",""1578""
","
","
","""event"",""trial"",""time""
""fullscreenenter"",""1"",""1578""
","
","","","141.70000004768372","","","24","10613","4883","s","elianto","#3366ff99"," "," ","1","0","[991.7999999523163]","1","2","","","10613","110","5","1","win","go","1"
"pit-trial","229","1339578","0.0-115.0","battery-v0.2","","""event"",""trial"",""time""
""fullscreenenter"",""1"",""1578""
","
","
","""event"",""trial"",""time""
""fullscreenenter"",""1"",""1578""
","
","","","218.59999990463257","","","24","10613","4883","j","elianto","#3366ff99","-1"," ","0","0","[1075.7999999523163]","1","2","","","10613","111","9","2","win","no-go","0"
"pit-trial","230","1342690","0.0-116.0","battery-v0.2","","""event"",""trial"",""time""
""fullscreenenter"",""1"",""1578""
","
","
","""event"",""trial"",""time""
""fullscreenenter"",""1"",""1578""
","
","","","241.29999995231628","","","24","10613","4883","d","elianto","#3366ff99","-1"," ","0","0","[1100.6000001430511]","1","2","","","10613","112","8","2","win","no-go","0"
"pit-trial","231","1345755","0.0-117.0","battery-v0.2","","""event"",""trial"",""time""
""fullscreenenter"",""1"",""1578""
","
","
","""event"",""trial"",""time""
""fullscreenenter"",""1"",""1578""
","
","","","201.29999995231628","","","24","10613","4883","d","elianto","#3366ff99","-1"," ","0","0","[1051.7000000476837]","1","2","","","10613","113","8","2","win","no-go","0"
"pit-trial","232","1349747","0.0-118.0","battery-v0.2","","""event"",""trial"",""time""
""fullscreenenter"",""1"",""1578""
","
","
","""event"",""trial"",""time""
""fullscreenenter"",""1"",""1578""
","
","","","1128.5999999046326","","","24","10613","4883","s","elianto","#3366ff99"," "," ","1","+10","[792.8999998569489,1981.8999998569489]","2","2","","","10613","114","5","1","win","go","0"
"pit-trial","233","1353061","0.0-119.0","battery-v0.2","","""event"",""trial"",""time""
""fullscreenenter"",""1"",""1578""
","
","
","""event"",""trial"",""time""
""fullscreenenter"",""1"",""1578""
","
","","","454.5","","","24","10613","4883","j","elianto","#3366ff99","-1"," ","0","+10","[1307.2999999523163]","1","2","","","10613","115","9","2","win","no-go","1"
"pit-trial","234","1356396","0.0-120.0","battery-v0.2","","""event"",""trial"",""time""
""fullscreenenter"",""1"",""1578""
","
","
","""event"",""trial"",""time""
""fullscreenenter"",""1"",""1578""
","
","","","466.7000000476837","","","24","10613","4883","e","elianto","#f73b6a7A"," "," ","1","0","[1323.0999999046326]","1","2","","","10613","116","7","3","lose","go","0"
"pit-trial","235","1359676","0.0-121.0","battery-v0.2","","""event"",""trial"",""time""
""fullscreenenter"",""1"",""1578""
","
","
","""event"",""trial"",""time""
""fullscreenenter"",""1"",""1578""
","
","","","405.2999999523163","","","24","10613","4883","s","elianto","#3366ff99"," "," ","1","+10","[1264.6000001430511]","1","2","","","10613","117","5","1","win","go","0"
"pit-trial","236","1363012","0.0-122.0","battery-v0.2","","""event"",""trial"",""time""
""fullscreenenter"",""1"",""1578""
","
","
","""event"",""trial"",""time""
""fullscreenenter"",""1"",""1578""
","
","","","470","","","24","10613","4883","w","elianto","#f73b6a7A","-1"," ","0","-10","[1320.4000000953674]","1","2","","","10613","118","6","4","lose","no-go","0"
"pit-trial","237","1366112","0.0-123.0","battery-v0.2","","""event"",""trial"",""time""
""fullscreenenter"",""1"",""1578""
","
","
","""event"",""trial"",""time""
""fullscreenenter"",""1"",""1578""
","
","","","242.29999995231628","","","24","10613","4883","d","elianto","#3366ff99","-1"," ","0","0","[489.90000009536743,1092.5999999046326]","2","2","","","10613","119","8","2","win","no-go","0"
"pit-trial","238","1369313","0.0-124.0","battery-v0.2","","""event"",""trial"",""time""
""fullscreenenter"",""1"",""1578""
","
","
","""event"",""trial"",""time""
""fullscreenenter"",""1"",""1578""
","
","","","334.7000000476837","","","24","10613","4883","j","elianto","#3366ff99","-1"," ","0","+10","[1189.7000000476837]","1","2","","","10613","120","9","2","win","no-go","1"
"pit-trial","239","1372546","0.0-125.0","battery-v0.2","","""event"",""trial"",""time""
""fullscreenenter"",""1"",""1578""
","
","
","""event"",""trial"",""time""
""fullscreenenter"",""1"",""1578""
","
","","","367.09999990463257","","","24","10613","4883","d","elianto","#3366ff99","-1"," ","0","0","[1218.5]","1","2","","","10613","121","8","2","win","no-go","0"
"pit-trial","240","1375746","0.0-126.0","battery-v0.2","","""event"",""trial"",""time""
""fullscreenenter"",""1"",""1578""
","
","
","""event"",""trial"",""time""
""fullscreenenter"",""1"",""1578""
","
","","","333.2000000476837","","","24","10613","4883","j","elianto","#3366ff99","-1"," ","0","0","[1191.6000001430511]","1","2","","","10613","122","9","2","win","no-go","0"
"pit-trial","241","1378828","0.0-127.0","battery-v0.2","","""event"",""trial"",""time""
""fullscreenenter"",""1"",""1578""
","
","
","""event"",""trial"",""time""
""fullscreenenter"",""1"",""1578""
","
","","","211.09999990463257","","","24","10613","4883","e","elianto","#f73b6a7A"," "," ","1","0","[1070]","1","2","","","10613","123","7","3","lose","go","0"
"pit-trial","242","1381846","0.0-128.0","battery-v0.2","","""event"",""trial"",""time""
""fullscreenenter"",""1"",""1578""
","
","
","""event"",""trial"",""time""
""fullscreenenter"",""1"",""1578""
","
","","","151.09999990463257","","","24","10613","4883","s","elianto","#3366ff99"," "," ","1","0","[1006.9000000953674]","1","2","","","10613","124","5","1","win","go","1"
"pit-trial","243","1384996","0.0-129.0","battery-v0.2","","""event"",""trial"",""time""
""fullscreenenter"",""1"",""1578""
","
","
","""event"",""trial"",""time""
""fullscreenenter"",""1"",""1578""
","
","","","287.80000019073486","","","24","10613","4883","w","elianto","#f73b6a7A","-1"," ","0","0","[1142.2000000476837]","1","2","","","10613","125","6","4","lose","no-go","1"
"pit-trial","244","1388161","0.0-130.0","battery-v0.2","","""event"",""trial"",""time""
""fullscreenenter"",""1"",""1578""
","
","
","""event"",""trial"",""time""
""fullscreenenter"",""1"",""1578""
","
","","","299.7000000476837","","","24","10613","4883","j","elianto","#3366ff99","-1"," ","0","0","[1157.1999998092651]","1","2","","","10613","126","9","2","win","no-go","0"
"pit-trial","245","1391579","0.0-131.0","battery-v0.2","","""event"",""trial"",""time""
""fullscreenenter"",""1"",""1578""
","
","
","""event"",""trial"",""time""
""fullscreenenter"",""1"",""1578""
","
","","","559.0999999046326","","","24","10613","4883","e","elianto","#f73b6a7A"," "," ","1","0","[1411.0999999046326]","1","2","","","10613","127","7","3","lose","go","0"
"pit-trial","246","1394808","0.0-132.0","battery-v0.2","","""event"",""trial"",""time""
""fullscreenenter"",""1"",""1578""
","
","
","""event"",""trial"",""time""
""fullscreenenter"",""1"",""1578""
","
","","","364.5","","","24","10613","4883","d","elianto","#3366ff99","-1"," ","0","0","[1222.4000000953674]","1","2","","","10613","128","8","2","win","no-go","0"
"pit-trial","247","1397890","0.0-133.0","battery-v0.2","","""event"",""trial"",""time""
""fullscreenenter"",""1"",""1578""
","
","
","""event"",""trial"",""time""
""fullscreenenter"",""1"",""1578""
","
","","","217.39999985694885","","","24","10613","4883","j","elianto","#3366ff99","-1"," ","0","0","[1069.2999999523163]","1","2","","","10613","129","9","2","win","no-go","0"
"pit-trial","248","1401227","0.0-134.0","battery-v0.2","","""event"",""trial"",""time""
""fullscreenenter"",""1"",""1578""
","
","
","""event"",""trial"",""time""
""fullscreenenter"",""1"",""1578""
","
","","","471.2999999523163","","","24","10613","4883","d","elianto","#3366ff99","-1"," ","0","0","[1321.3999998569489]","1","2","","","10613","130","8","2","win","no-go","0"
"pit-trial","249","1404410","0.0-135.0","battery-v0.2","","""event"",""trial"",""time""
""fullscreenenter"",""1"",""1578""
","
","
","""event"",""trial"",""time""
""fullscreenenter"",""1"",""1578""
","
","","","317.2000000476837","","","24","10613","4883","e","elianto","#f73b6a7A"," "," ","1","0","[1174.6000001430511]","1","2","","","10613","131","7","3","lose","go","0"
"pit-trial","250","1407896","0.0-136.0","battery-v0.2","","""event"",""trial"",""time""
""fullscreenenter"",""1"",""1578""
","
","
","""event"",""trial"",""time""
""fullscreenenter"",""1"",""1578""
","
","","","626.6999998092651","","","24","10613","4883","w","elianto","#f73b6a7A","-1"," ","0","-10","[1478.9000000953674]","1","2","","","10613","132","6","4","lose","no-go","0"
"pit-trial","251","1411230","0.0-137.0","battery-v0.2","","""event"",""trial"",""time""
""fullscreenenter"",""1"",""1578""
","
","
","""event"",""trial"",""time""
""fullscreenenter"",""1"",""1578""
","
","","","465.40000009536743","","","24","10613","4883","j","elianto","#3366ff99","-1"," ","0","0","[1317.5999999046326]","1","2","","","10613","133","9","2","win","no-go","0"
"pit-trial","252","1414275","0.0-138.0","battery-v0.2","","""event"",""trial"",""time""
""fullscreenenter"",""1"",""1578""
","
","
","""event"",""trial"",""time""
""fullscreenenter"",""1"",""1578""
","
","","","181.09999990463257","","","24","10613","4883","e","elianto","#f73b6a7A"," "," ","1","-10","[1033.2000000476837]","1","2","","","10613","134","7","3","lose","go","1"
"pit-trial","253","1417275","0.0-139.0","battery-v0.2","","""event"",""trial"",""time""
""fullscreenenter"",""1"",""1578""
","
","
","""event"",""trial"",""time""
""fullscreenenter"",""1"",""1578""
","
","","","128.89999985694885","","","24","10613","4883","d","elianto","#3366ff99","-1"," ","0","0","[986.2000000476837]","1","2","","","10613","135","8","2","win","no-go","0"
"pit-trial","254","1420445","0.0-140.0","battery-v0.2","","""event"",""trial"",""time""
""fullscreenenter"",""1"",""1578""
","
","
","""event"",""trial"",""time""
""fullscreenenter"",""1"",""1578""
","
","","","303.40000009536743","","","24","10613","4883","w","elianto","#f73b6a7A","-1"," ","0","0","[1161.3999998569489]","1","2","","","10613","136","6","4","lose","no-go","1"
"pit-trial","255","1423691","0.0-141.0","battery-v0.2","","""event"",""trial"",""time""
""fullscreenenter"",""1"",""1578""
","
","
","""event"",""trial"",""time""
""fullscreenenter"",""1"",""1578""
","
","","","375.2000000476837","","","24","10613","4883","d","elianto","#3366ff99","-1"," ","0","0","[1230.1000001430511]","1","2","","","10613","137","8","2","win","no-go","0"
"pit-trial","256","1426696","0.0-142.0","battery-v0.2","","""event"",""trial"",""time""
""fullscreenenter"",""1"",""1578""
","
","
","""event"",""trial"",""time""
""fullscreenenter"",""1"",""1578""
","
","","","139.09999990463257","","","24","10613","4883","j","elianto","#3366ff99","-1"," ","0","0","[994.5999999046326]","1","2","","","10613","138","9","2","win","no-go","0"
"pit-trial","257","1429690","0.0-143.0","battery-v0.2","","""event"",""trial"",""time""
""fullscreenenter"",""1"",""1578""
","
","
","""event"",""trial"",""time""
""fullscreenenter"",""1"",""1578""
","
","","","130.69999980926514","","","24","10613","4883","w","elianto","#f73b6a7A","-1"," ","0","-10","[983.2999999523163]","1","2","","","10613","139","6","4","lose","no-go","0"
"pit-trial","258","1432801","0.0-144.0","battery-v0.2","","""event"",""trial"",""time""
""fullscreenenter"",""1"",""1578""
","
","
","""event"",""trial"",""time""
""fullscreenenter"",""1"",""1578""
","
","","","251.10000014305115","","","24","10613","4883","e","elianto","#f73b6a7A"," "," ","1","0","[1101]","1","2","","","10613","140","7","3","lose","go","0"
"pit-instructions","259","1447281","0.0-145.0","battery-v0.2","","""event"",""trial"",""time""
""fullscreenenter"",""1"",""1578""
","
","
","""event"",""trial"",""time""
""fullscreenenter"",""1"",""1578""
","
","","[{""page_index"":0,""viewing_time"":5810.099999904633},{""page_index"":1,""viewing_time"":8664.400000095367}]","14474.799999952316","","","","","","","","","","","","","","","","","","","","","","","",""
"pit-trial","260","1450586","0.0-146.0","battery-v0.2","","""event"",""trial"",""time""
""fullscreenenter"",""1"",""1578""
","
","
","""event"",""trial"",""time""
""fullscreenenter"",""1"",""1578""
","
","","","432.5","","","24","10613","4883","f","elianto","#3366ff99","-1"," ","0","0","[1288.5]","1","3","","","10613","141","1","2","win","no-go","0"
"pit-trial","261","1454048","0.0-147.0","battery-v0.2","","""event"",""trial"",""time""
""fullscreenenter"",""1"",""1578""
","
","
","""event"",""trial"",""time""
""fullscreenenter"",""1"",""1578""
","
","","","598.2000000476837","","","24","10613","4883","t","elianto","#f73b6a7A"," "," ","1","0","[1450.7000000476837]","1","3","","","10613","142","2","3","lose","go","0"
"pit-trial","262","1457146","0.0-148.0","battery-v0.2","","""event"",""trial"",""time""
""fullscreenenter"",""1"",""1578""
","
","
","""event"",""trial"",""time""
""fullscreenenter"",""1"",""1578""
","
","","","225.60000014305115","","","24","10613","4883","b","elianto","#f73b6a7A","-1"," ","0","-10","[1080.9000000953674]","1","3","","","10613","143","3","4","lose","no-go","0"
"pit-trial","263","1460416","0.0-149.0","battery-v0.2","","""event"",""trial"",""time""
