"trial_type","trial_index","time_elapsed","internal_node_id","task_version","subject_id","interactions","blur_events","focus_events","fullscreenenter_events","fullscreenexit_events","success","view_history","rt","responses","num_errors","age","subject","participantId","rune","rune_set","hex","correct","choice","accuracy","outcome","keys","total_keys","block","practice","value","sub","trial","stimulus","robot","valence","action","sham"
"pavlovia","0","34","0.0-0.0","battery-v0.2","","""event"",""trial"",""time""
""fullscreenenter"",""1"",""1513""
","
","
","""event"",""trial"",""time""
""fullscreenenter"",""1"",""1513""
","
","","","","","","","","","","","","","","","","","","","","","","","","","","",""
"fullscreen","1","2490","0.0-1.0","battery-v0.2","","""event"",""trial"",""time""
""fullscreenenter"",""1"",""1513""
","
","
","""event"",""trial"",""time""
""fullscreenenter"",""1"",""1513""
","
","true","","","","","","","","","","","","","","","","","","","","","","","","","",""
"pit-instructions","2","8004","0.0-2.0-0.0","battery-v0.2","","""event"",""trial"",""time""
""fullscreenenter"",""1"",""1513""
","
","
","""event"",""trial"",""time""
""fullscreenenter"",""1"",""1513""
","
","","[{""page_index"":0,""viewing_time"":5506.800000011921}]","5507.200000017881","","","","","","","","","","","","","","","","","","","","","","","",""
"pit-comprehension","3","12245","0.0-2.0-1.0-0.0","battery-v0.2","","""event"",""trial"",""time""
""fullscreenenter"",""1"",""1513""
","
","
","""event"",""trial"",""time""
""fullscreenenter"",""1"",""1513""
","
","","","4235.100000023842","[""shark""]","0","23","18668","6940","","","","","","","","","","","","","","","","","","",""
"pit-instructions","4","15647","0.0-2.0-1.0-1.0","battery-v0.2","","""event"",""trial"",""time""
""fullscreenenter"",""1"",""1513""
","
","
","""event"",""trial"",""time""
""fullscreenenter"",""1"",""1513""
","
","","[{""page_index"":0,""viewing_time"":3392.2999999821186}]","3392.5","","","","","","","","","","","","","","","","","","","","","","","",""
"pit-comprehension","5","19786","0.0-2.0-2.0-0.0","battery-v0.2","","""event"",""trial"",""time""
""fullscreenenter"",""1"",""1513""
","
","
","""event"",""trial"",""time""
""fullscreenenter"",""1"",""1513""
","
","","","4135.5","[""tiger""]","0","23","18668","6940","","","","","","","","","","","","","","","","","","",""
"pit-instructions","6","25514","0.0-2.0-2.0-1.0","battery-v0.2","","""event"",""trial"",""time""
""fullscreenenter"",""1"",""1513""
","
","
","""event"",""trial"",""time""
""fullscreenenter"",""1"",""1513""
","
","","[{""page_index"":0,""viewing_time"":5724.299999982119}]","5724.5999999940395","","","","","","","","","","","","","","","","","","","","","","","",""
"pit-instructions","7","125788","0.0-2.0-3.0","battery-v0.2","","""event"",""trial"",""time""
""fullscreenenter"",""1"",""1513""
","
","
","""event"",""trial"",""time""
""fullscreenenter"",""1"",""1513""
","
","","[{""page_index"":0,""viewing_time"":8481},{""page_index"":1,""viewing_time"":5377.199999988079},{""page_index"":2,""viewing_time"":8206.40000000596},{""page_index"":3,""viewing_time"":7506.5999999940395},{""page_index"":4,""viewing_time"":5742.300000011921},{""page_index"":5,""viewing_time"":5536.9000000059605},{""page_index"":6,""viewing_time"":6994.5},{""page_index"":7,""viewing_time"":8751.399999976158},{""page_index"":8,""viewing_time"":6652},{""page_index"":9,""viewing_time"":8384.300000011921},{""page_index"":10,""viewing_time"":7266.300000011921},{""page_index"":11,""viewing_time"":7546.5999999940395},{""page_index"":12,""viewing_time"":7994.5},{""page_index"":13,""viewing_time"":5826.9000000059605}]","100267.19999998808","","","","","","","","","","","","","","","","","","","","","","","",""
"pit-trial","8","129683","0.0-2.0-4.0-0.0","battery-v0.2","","""event"",""trial"",""time""
""fullscreenenter"",""1"",""1513""
","
","
","""event"",""trial"",""time""
""fullscreenenter"",""1"",""1513""
","
","","","1040.300000011921","","","23","18668","6940","&#9784;","elianto","#FFFFF080"," "," ","1","&#10004","[1890.5]","1","0","0","","","","","","","",""
"pit-trial","9","133158","0.0-2.0-4.1-0.1","battery-v0.2","","""event"",""trial"",""time""
""fullscreenenter"",""1"",""1513""
","
","
","""event"",""trial"",""time""
""fullscreenenter"",""1"",""1513""
","
","","","618.1999999880791","","","23","18668","6940","&#9784;","elianto","#FFFFF080"," "," ","1","&#10004","[1469.5999999940395]","1","0","0","","","","","","","",""
"pit-trial","10","136538","0.0-2.0-4.2-0.2","battery-v0.2","","""event"",""trial"",""time""
""fullscreenenter"",""1"",""1513""
","
","
","""event"",""trial"",""time""
""fullscreenenter"",""1"",""1513""
","
","","","525.5","","","23","18668","6940","&#9784;","elianto","#FFFFF080"," "," ","1","&#10004","[1376.5]","1","0","0","","","","","","","",""
"pit-trial","11","139858","0.0-2.0-4.3-0.3","battery-v0.2","","""event"",""trial"",""time""
""fullscreenenter"",""1"",""1513""
","
","
","""event"",""trial"",""time""
""fullscreenenter"",""1"",""1513""
","
","","","464.5","","","23","18668","6940","&#9784;","elianto","#FFFFF080"," "," ","1","&#10004","[1315.199999988079]","1","0","0","","","","","","","",""
"pit-trial","12","143146","0.0-2.0-4.4-0.4","battery-v0.2","","""event"",""trial"",""time""
""fullscreenenter"",""1"",""1513""
","
","
","""event"",""trial"",""time""
""fullscreenenter"",""1"",""1513""
","
","","","434","","","23","18668","6940","&#9784;","elianto","#FFFFF080"," "," ","1","&#10004","[1284.5]","1","0","0","","","","","","","",""
"pit-instructions","13","268530","0.0-2.0-5.0","battery-v0.2","","""event"",""trial"",""time""
""fullscreenenter"",""1"",""1513""
","
","
","""event"",""trial"",""time""
""fullscreenenter"",""1"",""1513""
","
","","[{""page_index"":0,""viewing_time"":108813.19999998808},{""page_index"":1,""viewing_time"":6731.800000011921},{""page_index"":2,""viewing_time"":4770.699999988079},{""page_index"":3,""viewing_time"":5059.5}]","125375.5","","","","","","","","","","","","","","","","","","","","","","","",""
"pit-trial","14","273384","0.0-2.0-6.0-0.0","battery-v0.2","","""event"",""trial"",""time""
""fullscreenenter"",""1"",""1513""
","
","
","""event"",""trial"",""time""
""fullscreenenter"",""1"",""1513""
","
","","","-1","","","23","18668","6940","&#9854;","elianto","#FFFFF080","-1","-1","1","&#10004","[]","0","0","1","","","","","","","",""
"pit-trial","15","278242","0.0-2.0-6.1-0.1","battery-v0.2","","""event"",""trial"",""time""
""fullscreenenter"",""1"",""1513""
","
","
","""event"",""trial"",""time""
""fullscreenenter"",""1"",""1513""
","
","","","-1","","","23","18668","6940","&#9854;","elianto","#FFFFF080","-1","-1","1","&#10004","[]","0","0","1","","","","","","","",""
"pit-trial","16","283097","0.0-2.0-6.2-0.2","battery-v0.2","","""event"",""trial"",""time""
""fullscreenenter"",""1"",""1513""
","
","
","""event"",""trial"",""time""
""fullscreenenter"",""1"",""1513""
","
","","","-1","","","23","18668","6940","&#9854;","elianto","#FFFFF080","-1","-1","1","&#10004","[]","0","0","1","","","","","","","",""
"pit-trial","17","287951","0.0-2.0-6.3-0.3","battery-v0.2","","""event"",""trial"",""time""
""fullscreenenter"",""1"",""1513""
","
","
","""event"",""trial"",""time""
""fullscreenenter"",""1"",""1513""
","
","","","-1","","","23","18668","6940","&#9854;","elianto","#FFFFF080","-1","-1","1","&#10004","[]","0","0","1","","","","","","","",""
"pit-trial","18","292806","0.0-2.0-6.4-0.4","battery-v0.2","","""event"",""trial"",""time""
""fullscreenenter"",""1"",""1513""
","
","
","""event"",""trial"",""time""
""fullscreenenter"",""1"",""1513""
","
","","","-1","","","23","18668","6940","&#9854;","elianto","#FFFFF080","-1","-1","1","&#10004","[]","0","0","1","","","","","","","",""
"pit-instructions","19","428182","0.0-2.0-7.0","battery-v0.2","","""event"",""trial"",""time""
""fullscreenenter"",""1"",""1513""
","
","
","""event"",""trial"",""time""
""fullscreenenter"",""1"",""1513""
","
","","[{""page_index"":0,""viewing_time"":7485.799999982119},{""page_index"":1,""viewing_time"":10308.200000017881},{""page_index"":2,""viewing_time"":8252.399999976158},{""page_index"":3,""viewing_time"":7546},{""page_index"":4,""viewing_time"":8689.800000011921},{""page_index"":5,""viewing_time"":6711.0999999940395},{""page_index"":6,""viewing_time"":6439.700000017881},{""page_index"":7,""viewing_time"":7541.399999976158},{""page_index"":8,""viewing_time"":9873.200000017881},{""page_index"":9,""viewing_time"":5857.4000000059605},{""page_index"":10,""viewing_time"":7979.899999976158},{""page_index"":11,""viewing_time"":4592.300000011921},{""page_index"":12,""viewing_time"":7066.300000011921},{""page_index"":13,""viewing_time"":7403.899999976158},{""page_index"":14,""viewing_time"":7859},{""page_index"":15,""viewing_time"":7394.700000017881},{""page_index"":16,""viewing_time"":7375.9000000059605},{""page_index"":17,""viewing_time"":6990.399999976158}]","135367.59999999404","","","","","","","","","","","","","","","","","","","","","","","",""
"pit-trial","20","431584","0.0-2.0-8.0-0.0","battery-v0.2","","""event"",""trial"",""time""
""fullscreenenter"",""1"",""1513""
","
","
","""event"",""trial"",""time""
""fullscreenenter"",""1"",""1513""
","
","","","548.5","","","23","18668","6940","&#9776;","elianto","#3366ff99"," "," ","1","+10","[1399.7999999821186]","1","0","1","","","","","","","",""
"pit-trial","21","435075","0.0-2.0-8.0-1.0","battery-v0.2","","""event"",""trial"",""time""
""fullscreenenter"",""1"",""1513""
","
","
","""event"",""trial"",""time""
""fullscreenenter"",""1"",""1513""
","
","","","636.5","","","23","18668","6940","&#9776;","elianto","#3366ff99"," "," ","1","+10","[1488.5]","1","0","1","","","","","","","",""
"pit-trial","22","438486","0.0-2.0-8.0-2.0","battery-v0.2","","""event"",""trial"",""time""
""fullscreenenter"",""1"",""1513""
","
","
","""event"",""trial"",""time""
""fullscreenenter"",""1"",""1513""
","
","","","557.1999999880791","","","23","18668","6940","&#9776;","elianto","#3366ff99"," "," ","1","+10","[1408]","1","0","1","","","","","","","",""
"pit-trial","23","441845","0.0-2.0-8.0-3.0","battery-v0.2","","""event"",""trial"",""time""
""fullscreenenter"",""1"",""1513""
","
","
","""event"",""trial"",""time""
""fullscreenenter"",""1"",""1513""
","
","","","502.30000001192093","","","23","18668","6940","&#9776;","elianto","#3366ff99"," "," ","1","0","[1356.0999999940395]","1","0","1","","","","","","","",""
"pit-trial","24","445244","0.0-2.0-8.0-4.0","battery-v0.2","","""event"",""trial"",""time""
""fullscreenenter"",""1"",""1513""
","
","
","""event"",""trial"",""time""
""fullscreenenter"",""1"",""1513""
","
","","","544.6000000238419","","","23","18668","6940","&#9776;","elianto","#3366ff99"," "," ","1","+10","[1396.0999999940395]","1","0","1","","","","","","","",""
"pit-trial","25","449007","0.0-2.0-8.1-0.1","battery-v0.2","","""event"",""trial"",""time""
""fullscreenenter"",""1"",""1513""
","
","
","""event"",""trial"",""time""
""fullscreenenter"",""1"",""1513""
","
","","","906.6999999880791","","","23","18668","6940","&#9776;","elianto","#3366ff99"," "," ","1","+10","[1757.9000000059605]","1","0","1","","","","","","","",""
"pit-trial","26","452360","0.0-2.0-8.1-1.1","battery-v0.2","","""event"",""trial"",""time""
""fullscreenenter"",""1"",""1513""
","
","
","""event"",""trial"",""time""
""fullscreenenter"",""1"",""1513""
","
","","","497.40000000596046","","","23","18668","6940","&#9776;","elianto","#3366ff99"," "," ","1","+10","[1349.5999999940395]","1","0","1","","","","","","","",""
"pit-trial","27","455675","0.0-2.0-8.1-2.1","battery-v0.2","","""event"",""trial"",""time""
""fullscreenenter"",""1"",""1513""
","
","
","""event"",""trial"",""time""
""fullscreenenter"",""1"",""1513""
","
","","","456","","","23","18668","6940","&#9776;","elianto","#3366ff99"," "," ","1","+10","[1306.2999999821186]","1","0","1","","","","","","","",""
"pit-trial","28","458997","0.0-2.0-8.1-3.1","battery-v0.2","","""event"",""trial"",""time""
""fullscreenenter"",""1"",""1513""
","
","
","""event"",""trial"",""time""
""fullscreenenter"",""1"",""1513""
","
","","","469.30000001192093","","","23","18668","6940","&#9776;","elianto","#3366ff99"," "," ","1","0","[1319.800000011921]","1","0","1","","","","","","","",""
"pit-trial","29","462396","0.0-2.0-8.1-4.1","battery-v0.2","","""event"",""trial"",""time""
""fullscreenenter"",""1"",""1513""
","
","
","""event"",""trial"",""time""
""fullscreenenter"",""1"",""1513""
","
","","","544.5999999940395","","","23","18668","6940","&#9776;","elianto","#3366ff99"," "," ","1","+10","[1395.9000000059605]","1","0","1","","","","","","","",""
"pit-trial","30","465785","0.0-2.0-8.2-0.2","battery-v0.2","","""event"",""trial"",""time""
""fullscreenenter"",""1"",""1513""
","
","
","""event"",""trial"",""time""
""fullscreenenter"",""1"",""1513""
","
","","","533.5999999940395","","","23","18668","6940","&#9776;","elianto","#3366ff99"," "," ","1","+10","[1383.699999988079]","1","0","1","","","","","","","",""
"pit-trial","31","469087","0.0-2.0-8.2-1.2","battery-v0.2","","""event"",""trial"",""time""
""fullscreenenter"",""1"",""1513""
","
","
","""event"",""trial"",""time""
""fullscreenenter"",""1"",""1513""
","
","","","449.5","","","23","18668","6940","&#9776;","elianto","#3366ff99"," "," ","1","+10","[1299.9000000059605]","1","0","1","","","","","","","",""
"pit-trial","32","472430","0.0-2.0-8.2-2.2","battery-v0.2","","""event"",""trial"",""time""
""fullscreenenter"",""1"",""1513""
","
","
","""event"",""trial"",""time""
""fullscreenenter"",""1"",""1513""
","
","","","489.19999998807907","","","23","18668","6940","&#9776;","elianto","#3366ff99"," "," ","1","+10","[1339.5]","1","0","1","","","","","","","",""
"pit-trial","33","475778","0.0-2.0-8.2-3.2","battery-v0.2","","""event"",""trial"",""time""
""fullscreenenter"",""1"",""1513""
","
","
","""event"",""trial"",""time""
""fullscreenenter"",""1"",""1513""
","
","","","494","","","23","18668","6940","&#9776;","elianto","#3366ff99"," "," ","1","0","[1345]","1","0","1","","","","","","","",""
"pit-trial","34","479130","0.0-2.0-8.2-4.2","battery-v0.2","","""event"",""trial"",""time""
""fullscreenenter"",""1"",""1513""
","
","
","""event"",""trial"",""time""
""fullscreenenter"",""1"",""1513""
","
","","","498.2999999821186","","","23","18668","6940","&#9776;","elianto","#3366ff99"," "," ","1","+10","[1349.2999999821186]","1","0","1","","","","","","","",""
"call-function","35","479133","0.0-2.0-9.0","battery-v0.2","","""event"",""trial"",""time""
""fullscreenenter"",""1"",""1513""
","
","
","""event"",""trial"",""time""
""fullscreenenter"",""1"",""1513""
","
","","","","","","","","","","","","","","","","","","","","","","","","","","",""
"pit-instructions","36","518137","0.0-2.0-10.0","battery-v0.2","","""event"",""trial"",""time""
""fullscreenenter"",""1"",""1513""
","
","
","""event"",""trial"",""time""
""fullscreenenter"",""1"",""1513""
","
","","[{""page_index"":0,""viewing_time"":5963.0999999940395},{""page_index"":1,""viewing_time"":6531.9000000059605},{""page_index"":2,""viewing_time"":9059.09999999404},{""page_index"":3,""viewing_time"":10342.699999988079},{""page_index"":4,""viewing_time"":7105.100000023842}]","39002.09999999404","","","","","","","","","","","","","","","","","","","","","","","",""
"pit-trial","37","521543","0.0-2.0-11.0-0.0","battery-v0.2","","""event"",""trial"",""time""
""fullscreenenter"",""1"",""1513""
","
","
","""event"",""trial"",""time""
""fullscreenenter"",""1"",""1513""
","
","","","550.3999999761581","","","23","18668","6940","&#9761;","elianto","#3366ff99","-1"," ","0","0","[1403.699999988079]","1","0","2","","","","","","","",""
"pit-trial","38","524828","0.0-2.0-11.0-1.0","battery-v0.2","","""event"",""trial"",""time""
""fullscreenenter"",""1"",""1513""
","
","
","""event"",""trial"",""time""
""fullscreenenter"",""1"",""1513""
","
","","","433.59999999403954","","","23","18668","6940","&#9761;","elianto","#3366ff99","-1"," ","0","0","[1284.199999988079]","1","0","2","","","","","","","",""
"pit-trial","39","528112","0.0-2.0-11.0-2.0","battery-v0.2","","""event"",""trial"",""time""
""fullscreenenter"",""1"",""1513""
","
","
","""event"",""trial"",""time""
""fullscreenenter"",""1"",""1513""
","
","","","417","","","23","18668","6940","&#9761;","elianto","#3366ff99","-1"," ","0","0","[1281.5999999940395]","1","0","2","","","","","","","",""
"pit-trial","40","531374","0.0-2.0-11.0-3.0","battery-v0.2","","""event"",""trial"",""time""
""fullscreenenter"",""1"",""1513""
","
","
","""event"",""trial"",""time""
""fullscreenenter"",""1"",""1513""
","
","","","408.60000002384186","","","23","18668","6940","&#9761;","elianto","#3366ff99","-1"," ","0","+10","[1259]","1","0","2","","","","","","","",""
"pit-trial","41","534619","0.0-2.0-11.0-4.0","battery-v0.2","","""event"",""trial"",""time""
""fullscreenenter"",""1"",""1513""
","
","
","""event"",""trial"",""time""
""fullscreenenter"",""1"",""1513""
","
","","","391.7000000178814","","","23","18668","6940","&#9761;","elianto","#3366ff99","-1"," ","0","0","[1242.9000000059605]","1","0","2","","","","","","","",""
"pit-trial","42","537858","0.0-2.0-11.1-0.1","battery-v0.2","","""event"",""trial"",""time""
""fullscreenenter"",""1"",""1513""
","
","
","""event"",""trial"",""time""
""fullscreenenter"",""1"",""1513""
","
","","","380.90000000596046","","","23","18668","6940","&#9761;","elianto","#3366ff99","-1"," ","0","0","[1234]","1","0","2","","","","","","","",""
"pit-trial","43","541150","0.0-2.0-11.1-1.1","battery-v0.2","","""event"",""trial"",""time""
""fullscreenenter"",""1"",""1513""
","
","
","""event"",""trial"",""time""
""fullscreenenter"",""1"",""1513""
","
","","","439.09999999403954","","","23","18668","6940","&#9761;","elianto","#3366ff99","-1"," ","0","0","[1289.0999999940395]","1","0","2","","","","","","","",""
"pit-trial","44","544447","0.0-2.0-11.1-2.1","battery-v0.2","","""event"",""trial"",""time""
""fullscreenenter"",""1"",""1513""
","
","
","""event"",""trial"",""time""
""fullscreenenter"",""1"",""1513""
","
","","","442.09999999403954","","","23","18668","6940","&#9761;","elianto","#3366ff99","-1"," ","0","0","[1293.4000000059605]","1","0","2","","","","","","","",""
"pit-trial","45","547789","0.0-2.0-11.1-3.1","battery-v0.2","","""event"",""trial"",""time""
""fullscreenenter"",""1"",""1513""
","
","
","""event"",""trial"",""time""
""fullscreenenter"",""1"",""1513""
","
","","","487.40000000596046","","","23","18668","6940","&#9761;","elianto","#3366ff99","-1"," ","0","+10","[1339]","1","0","2","","","","","","","",""
"pit-trial","46","551087","0.0-2.0-11.1-4.1","battery-v0.2","","""event"",""trial"",""time""
""fullscreenenter"",""1"",""1513""
","
","
","""event"",""trial"",""time""
""fullscreenenter"",""1"",""1513""
","
","","","445.5","","","23","18668","6940","&#9761;","elianto","#3366ff99","-1"," ","0","0","[1295.8999999761581]","1","0","2","","","","","","","",""
"pit-trial","47","554572","0.0-2.0-11.2-0.2","battery-v0.2","","""event"",""trial"",""time""
""fullscreenenter"",""1"",""1513""
","
","
","""event"",""trial"",""time""
""fullscreenenter"",""1"",""1513""
","
","","","630.9000000059605","","","23","18668","6940","&#9761;","elianto","#3366ff99","-1"," ","0","0","[1481.4000000059605]","1","0","2","","","","","","","",""
"pit-trial","48","557633","0.0-2.0-11.2-1.2","battery-v0.2","","""event"",""trial"",""time""
""fullscreenenter"",""1"",""1513""
","
","
","""event"",""trial"",""time""
""fullscreenenter"",""1"",""1513""
","
","","","207.5","","","23","18668","6940","&#9761;","elianto","#3366ff99","-1"," ","0","0","[1058.0999999940395]","1","0","2","","","","","","","",""
"pit-trial","49","560834","0.0-2.0-11.2-2.2","battery-v0.2","","""event"",""trial"",""time""
""fullscreenenter"",""1"",""1513""
","
","
","""event"",""trial"",""time""
""fullscreenenter"",""1"",""1513""
","
","","","347.59999999403954","","","23","18668","6940","&#9761;","elianto","#3366ff99","-1"," ","0","0","[1198.5]","1","0","2","","","","","","","",""
"pit-trial","50","564057","0.0-2.0-11.2-3.2","battery-v0.2","","""event"",""trial"",""time""
""fullscreenenter"",""1"",""1513""
","
","
","""event"",""trial"",""time""
""fullscreenenter"",""1"",""1513""
","
","","","369.19999998807907","","","23","18668","6940","&#9761;","elianto","#3366ff99","-1"," ","0","+10","[1220.3999999761581]","1","0","2","","","","","","","",""
"pit-trial","51","567299","0.0-2.0-11.2-4.2","battery-v0.2","","""event"",""trial"",""time""
""fullscreenenter"",""1"",""1513""
","
","
","""event"",""trial"",""time""
""fullscreenenter"",""1"",""1513""
","
","","","389.09999999403954","","","23","18668","6940","&#9761;","elianto","#3366ff99","-1"," ","0","0","[1239.2999999821186]","1","0","2","","","","","","","",""
"pit-trial","52","570488","0.0-2.0-11.3-0.3","battery-v0.2","","""event"",""trial"",""time""
""fullscreenenter"",""1"",""1513""
","
","
","""event"",""trial"",""time""
""fullscreenenter"",""1"",""1513""
","
","","","335.40000000596046","","","23","18668","6940","&#9761;","elianto","#3366ff99","-1"," ","0","0","[1186.1000000238419]","1","0","2","","","","","","","",""
"pit-trial","53","573682","0.0-2.0-11.3-1.3","battery-v0.2","","""event"",""trial"",""time""
""fullscreenenter"",""1"",""1513""
","
","
","""event"",""trial"",""time""
""fullscreenenter"",""1"",""1513""
","
","","","340.5","","","23","18668","6940","&#9761;","elianto","#3366ff99","-1"," ","0","0","[1191.0999999940395]","1","0","2","","","","","","","",""
"pit-trial","54","576810","0.0-2.0-11.3-2.3","battery-v0.2","","""event"",""trial"",""time""
""fullscreenenter"",""1"",""1513""
","
","
","""event"",""trial"",""time""
""fullscreenenter"",""1"",""1513""
","
","","","273.39999997615814","","","23","18668","6940","&#9761;","elianto","#3366ff99","-1"," ","0","0","[1124.3999999761581]","1","0","2","","","","","","","",""
"pit-trial","55","579751","0.0-2.0-11.3-3.3","battery-v0.2","","""event"",""trial"",""time""
""fullscreenenter"",""1"",""1513""
","
","
","""event"",""trial"",""time""
""fullscreenenter"",""1"",""1513""
","
","","","87.59999999403954","","","23","18668","6940","&#9761;","elianto","#3366ff99","-1"," ","0","+10","[938.4000000059605]","1","0","2","","","","","","","",""
"pit-trial","56","583067","0.0-2.0-11.3-4.3","battery-v0.2","","""event"",""trial"",""time""
""fullscreenenter"",""1"",""1513""
","
","
","""event"",""trial"",""time""
""fullscreenenter"",""1"",""1513""
","
","","","461.7000000178814","","","23","18668","6940","&#9761;","elianto","#3366ff99","-1"," ","0","0","[1313.0999999940395]","1","0","2","","","","","","","",""
"call-function","57","583069","0.0-2.0-12.0","battery-v0.2","","""event"",""trial"",""time""
""fullscreenenter"",""1"",""1513""
","
","
","""event"",""trial"",""time""
""fullscreenenter"",""1"",""1513""
","
","","","","","","","","","","","","","","","","","","","","","","","","","","",""
"pit-instructions","58","615894","0.0-2.0-13.0","battery-v0.2","","""event"",""trial"",""time""
""fullscreenenter"",""1"",""1513""
","
","
","""event"",""trial"",""time""
""fullscreenenter"",""1"",""1513""
","
","","[{""page_index"":0,""viewing_time"":6103.5},{""page_index"":1,""viewing_time"":8011.9000000059605},{""page_index"":2,""viewing_time"":3641.5999999940395},{""page_index"":3,""viewing_time"":10329.09999999404},{""page_index"":4,""viewing_time"":4736.800000011921}]","32823.09999999404","","","","","","","","","","","","","","","","","","","","","","","",""
"pit-trial","59","620747","0.0-2.0-14.0-0.0","battery-v0.2","","""event"",""trial"",""time""
""fullscreenenter"",""1"",""1513""
","
","
","""event"",""trial"",""time""
""fullscreenenter"",""1"",""1513""
","
","","","-1","","","23","18668","6940","&#9826;","elianto","#f73b6a7A","-1","-1","1","0","[]","0","0","3","","","","","","","",""
"pit-trial","60","625601","0.0-2.0-14.0-1.0","battery-v0.2","","""event"",""trial"",""time""
""fullscreenenter"",""1"",""1513""
","
","
","""event"",""trial"",""time""
""fullscreenenter"",""1"",""1513""
","
","","","-1","","","23","18668","6940","&#9826;","elianto","#f73b6a7A","-1","-1","1","0","[]","0","0","3","","","","","","","",""
"pit-trial","61","630454","0.0-2.0-14.0-2.0","battery-v0.2","","""event"",""trial"",""time""
""fullscreenenter"",""1"",""1513""
","
","
","""event"",""trial"",""time""
""fullscreenenter"",""1"",""1513""
","
","","","-1","","","23","18668","6940","&#9826;","elianto","#f73b6a7A","-1","-1","1","0","[]","0","0","3","","","","","","","",""
"pit-trial","62","635307","0.0-2.0-14.0-3.0","battery-v0.2","","""event"",""trial"",""time""
""fullscreenenter"",""1"",""1513""
","
","
","""event"",""trial"",""time""
""fullscreenenter"",""1"",""1513""
","
","","","-1","","","23","18668","6940","&#9826;","elianto","#f73b6a7A","-1","-1","1","-10","[]","0","0","3","","","","","","","",""
"pit-trial","63","640160","0.0-2.0-14.0-4.0","battery-v0.2","","""event"",""trial"",""time""
""fullscreenenter"",""1"",""1513""
","
","
","""event"",""trial"",""time""
""fullscreenenter"",""1"",""1513""
","
","","","-1","","","23","18668","6940","&#9826;","elianto","#f73b6a7A","-1","-1","1","0","[]","0","0","3","","","","","","","",""
"pit-trial","64","645015","0.0-2.0-14.1-0.1","battery-v0.2","","""event"",""trial"",""time""
""fullscreenenter"",""1"",""1513""
","
","
","""event"",""trial"",""time""
""fullscreenenter"",""1"",""1513""
","
","","","-1","","","23","18668","6940","&#9826;","elianto","#f73b6a7A","-1","-1","1","0","[]","0","0","3","","","","","","","",""
"pit-trial","65","649869","0.0-2.0-14.1-1.1","battery-v0.2","","""event"",""trial"",""time""
""fullscreenenter"",""1"",""1513""
","
","
","""event"",""trial"",""time""
""fullscreenenter"",""1"",""1513""
","
","","","-1","","","23","18668","6940","&#9826;","elianto","#f73b6a7A","-1","-1","1","0","[]","0","0","3","","","","","","","",""
"pit-trial","66","654723","0.0-2.0-14.1-2.1","battery-v0.2","","""event"",""trial"",""time""
""fullscreenenter"",""1"",""1513""
","
","
","""event"",""trial"",""time""
""fullscreenenter"",""1"",""1513""
","
","","","-1","","","23","18668","6940","&#9826;","elianto","#f73b6a7A","-1","-1","1","0","[]","0","0","3","","","","","","","",""
"pit-trial","67","659576","0.0-2.0-14.1-3.1","battery-v0.2","","""event"",""trial"",""time""
""fullscreenenter"",""1"",""1513""
","
","
","""event"",""trial"",""time""
""fullscreenenter"",""1"",""1513""
","
","","","-1","","","23","18668","6940","&#9826;","elianto","#f73b6a7A","-1","-1","1","-10","[]","0","0","3","","","","","","","",""
"pit-trial","68","664430","0.0-2.0-14.1-4.1","battery-v0.2","","""event"",""trial"",""time""
""fullscreenenter"",""1"",""1513""
","
","
","""event"",""trial"",""time""
""fullscreenenter"",""1"",""1513""
","
","","","-1","","","23","18668","6940","&#9826;","elianto","#f73b6a7A","-1","-1","1","0","[]","0","0","3","","","","","","","",""
"pit-trial","69","669285","0.0-2.0-14.2-0.2","battery-v0.2","","""event"",""trial"",""time""
""fullscreenenter"",""1"",""1513""
","
","
","""event"",""trial"",""time""
""fullscreenenter"",""1"",""1513""
","
","","","-1","","","23","18668","6940","&#9826;","elianto","#f73b6a7A","-1","-1","1","0","[]","0","0","3","","","","","","","",""
"pit-trial","70","674139","0.0-2.0-14.2-1.2","battery-v0.2","","""event"",""trial"",""time""
""fullscreenenter"",""1"",""1513""
","
","
","""event"",""trial"",""time""
""fullscreenenter"",""1"",""1513""
","
","","","-1","","","23","18668","6940","&#9826;","elianto","#f73b6a7A","-1","-1","1","0","[]","0","0","3","","","","","","","",""
"pit-trial","71","678992","0.0-2.0-14.2-2.2","battery-v0.2","","""event"",""trial"",""time""
""fullscreenenter"",""1"",""1513""
","
","
","""event"",""trial"",""time""
""fullscreenenter"",""1"",""1513""
","
","","","-1","","","23","18668","6940","&#9826;","elianto","#f73b6a7A","-1","-1","1","0","[]","0","0","3","","","","","","","",""
"pit-trial","72","683846","0.0-2.0-14.2-3.2","battery-v0.2","","""event"",""trial"",""time""
""fullscreenenter"",""1"",""1513""
","
","
","""event"",""trial"",""time""
""fullscreenenter"",""1"",""1513""
","
","","","-1","","","23","18668","6940","&#9826;","elianto","#f73b6a7A","-1","-1","1","-10","[]","0","0","3","","","","","","","",""
"pit-trial","73","688699","0.0-2.0-14.2-4.2","battery-v0.2","","""event"",""trial"",""time""
""fullscreenenter"",""1"",""1513""
","
","
","""event"",""trial"",""time""
""fullscreenenter"",""1"",""1513""
","
","","","-1","","","23","18668","6940","&#9826;","elianto","#f73b6a7A","-1","-1","1","0","[]","0","0","3","","","","","","","",""
"pit-trial","74","693554","0.0-2.0-14.3-0.3","battery-v0.2","","""event"",""trial"",""time""
""fullscreenenter"",""1"",""1513""
","
","
","""event"",""trial"",""time""
""fullscreenenter"",""1"",""1513""
","
","","","-1","","","23","18668","6940","&#9826;","elianto","#f73b6a7A","-1","-1","1","0","[]","0","0","3","","","","","","","",""
"pit-trial","75","698409","0.0-2.0-14.3-1.3","battery-v0.2","","""event"",""trial"",""time""
""fullscreenenter"",""1"",""1513""
","
","
","""event"",""trial"",""time""
""fullscreenenter"",""1"",""1513""
","
","","","-1","","","23","18668","6940","&#9826;","elianto","#f73b6a7A","-1","-1","1","0","[]","0","0","3","","","","","","","",""
"pit-trial","76","703263","0.0-2.0-14.3-2.3","battery-v0.2","","""event"",""trial"",""time""
""fullscreenenter"",""1"",""1513""
","
","
","""event"",""trial"",""time""
""fullscreenenter"",""1"",""1513""
","
","","","-1","","","23","18668","6940","&#9826;","elianto","#f73b6a7A","-1","-1","1","0","[]","0","0","3","","","","","","","",""
"pit-trial","77","708116","0.0-2.0-14.3-3.3","battery-v0.2","","""event"",""trial"",""time""
""fullscreenenter"",""1"",""1513""
","
","
","""event"",""trial"",""time""
""fullscreenenter"",""1"",""1513""
","
","","","-1","","","23","18668","6940","&#9826;","elianto","#f73b6a7A","-1","-1","1","-10","[]","0","0","3","","","","","","","",""
"pit-trial","78","712970","0.0-2.0-14.3-4.3","battery-v0.2","","""event"",""trial"",""time""
""fullscreenenter"",""1"",""1513""
","
","
","""event"",""trial"",""time""
""fullscreenenter"",""1"",""1513""
","
","","","-1","","","23","18668","6940","&#9826;","elianto","#f73b6a7A","-1","-1","1","0","[]","0","0","3","","","","","","","",""
"call-function","79","712972","0.0-2.0-15.0","battery-v0.2","","""event"",""trial"",""time""
""fullscreenenter"",""1"",""1513""
","
","
","""event"",""trial"",""time""
""fullscreenenter"",""1"",""1513""
","
","","","","","","","","","","","","","","","","","","","","","","","","","","",""
"pit-instructions","80","748877","0.0-2.0-16.0","battery-v0.2","","""event"",""trial"",""time""
""fullscreenenter"",""1"",""1513""
","
","
","""event"",""trial"",""time""
""fullscreenenter"",""1"",""1513""
","
","","[{""page_index"":0,""viewing_time"":6538.5},{""page_index"":1,""viewing_time"":9067.300000011921},{""page_index"":2,""viewing_time"":6106.199999988079},{""page_index"":3,""viewing_time"":14191}]","35903.59999999404","","","","","","","","","","","","","","","","","","","","","","","",""
"pit-trial","81","753732","0.0-2.0-17.0-0.0","battery-v0.2","","""event"",""trial"",""time""
""fullscreenenter"",""1"",""1513""
","
","
","""event"",""trial"",""time""
""fullscreenenter"",""1"",""1513""
","
","","","-1","","","23","18668","6940","&#9789;","elianto","#f73b6a7A"," ","-1","0","-10","[]","0","0","4","","","","","","","",""
"pit-trial","82","758586","0.0-2.0-17.0-1.0","battery-v0.2","","""event"",""trial"",""time""
""fullscreenenter"",""1"",""1513""
","
","
","""event"",""trial"",""time""
""fullscreenenter"",""1"",""1513""
","
","","","-1","","","23","18668","6940","&#9789;","elianto","#f73b6a7A"," ","-1","0","-10","[]","0","0","4","","","","","","","",""
"pit-trial","83","763441","0.0-2.0-17.0-2.0","battery-v0.2","","""event"",""trial"",""time""
""fullscreenenter"",""1"",""1513""
","
","
","""event"",""trial"",""time""
""fullscreenenter"",""1"",""1513""
","
","","","-1","","","23","18668","6940","&#9789;","elianto","#f73b6a7A"," ","-1","0","-10","[]","0","0","4","","","","","","","",""
"pit-trial","84","768294","0.0-2.0-17.0-3.0","battery-v0.2","","""event"",""trial"",""time""
""fullscreenenter"",""1"",""1513""
","
","
","""event"",""trial"",""time""
""fullscreenenter"",""1"",""1513""
","
","","","-1","","","23","18668","6940","&#9789;","elianto","#f73b6a7A"," ","-1","0","0","[]","0","0","4","","","","","","","",""
"pit-trial","85","773148","0.0-2.0-17.0-4.0","battery-v0.2","","""event"",""trial"",""time""
""fullscreenenter"",""1"",""1513""
","
","
","""event"",""trial"",""time""
""fullscreenenter"",""1"",""1513""
","
","","","-1","","","23","18668","6940","&#9789;","elianto","#f73b6a7A"," ","-1","0","-10","[]","0","0","4","","","","","","","",""
"pit-trial","86","778002","0.0-2.0-17.1-0.1","battery-v0.2","","""event"",""trial"",""time""
""fullscreenenter"",""1"",""1513""
","
","
","""event"",""trial"",""time""
""fullscreenenter"",""1"",""1513""
","
","","","-1","","","23","18668","6940","&#9789;","elianto","#f73b6a7A"," ","-1","0","-10","[]","0","0","4","","","","","","","",""
"pit-trial","87","782855","0.0-2.0-17.1-1.1","battery-v0.2","","""event"",""trial"",""time""
""fullscreenenter"",""1"",""1513""
","
","
","""event"",""trial"",""time""
""fullscreenenter"",""1"",""1513""
","
","","","-1","","","23","18668","6940","&#9789;","elianto","#f73b6a7A"," ","-1","0","-10","[]","0","0","4","","","","","","","",""
"pit-trial","88","787708","0.0-2.0-17.1-2.1","battery-v0.2","","""event"",""trial"",""time""
""fullscreenenter"",""1"",""1513""
","
","
","""event"",""trial"",""time""
""fullscreenenter"",""1"",""1513""
","
","","","-1","","","23","18668","6940","&#9789;","elianto","#f73b6a7A"," ","-1","0","-10","[]","0","0","4","","","","","","","",""
"pit-trial","89","792562","0.0-2.0-17.1-3.1","battery-v0.2","","""event"",""trial"",""time""
""fullscreenenter"",""1"",""1513""
","
","
","""event"",""trial"",""time""
""fullscreenenter"",""1"",""1513""
","
","","","-1","","","23","18668","6940","&#9789;","elianto","#f73b6a7A"," ","-1","0","0","[]","0","0","4","","","","","","","",""
"pit-trial","90","797415","0.0-2.0-17.1-4.1","battery-v0.2","","""event"",""trial"",""time""
""fullscreenenter"",""1"",""1513""
","
","
","""event"",""trial"",""time""
""fullscreenenter"",""1"",""1513""
","
","","","-1","","","23","18668","6940","&#9789;","elianto","#f73b6a7A"," ","-1","0","-10","[]","0","0","4","","","","","","","",""
"pit-trial","91","802270","0.0-2.0-17.2-0.2","battery-v0.2","","""event"",""trial"",""time""
""fullscreenenter"",""1"",""1513""
","
","
","""event"",""trial"",""time""
""fullscreenenter"",""1"",""1513""
","
","","","-1","","","23","18668","6940","&#9789;","elianto","#f73b6a7A"," ","-1","0","-10","[]","0","0","4","","","","","","","",""
"pit-trial","92","807124","0.0-2.0-17.2-1.2","battery-v0.2","","""event"",""trial"",""time""
""fullscreenenter"",""1"",""1513""
","
","
","""event"",""trial"",""time""
""fullscreenenter"",""1"",""1513""
","
","","","-1","","","23","18668","6940","&#9789;","elianto","#f73b6a7A"," ","-1","0","-10","[]","0","0","4","","","","","","","",""
"pit-trial","93","811976","0.0-2.0-17.2-2.2","battery-v0.2","","""event"",""trial"",""time""
""fullscreenenter"",""1"",""1513""
","
","
","""event"",""trial"",""time""
""fullscreenenter"",""1"",""1513""
","
","","","-1","","","23","18668","6940","&#9789;","elianto","#f73b6a7A"," ","-1","0","-10","[]","0","0","4","","","","","","","",""
"pit-trial","94","816829","0.0-2.0-17.2-3.2","battery-v0.2","","""event"",""trial"",""time""
""fullscreenenter"",""1"",""1513""
","
","
","""event"",""trial"",""time""
""fullscreenenter"",""1"",""1513""
","
","","","-1","","","23","18668","6940","&#9789;","elianto","#f73b6a7A"," ","-1","0","0","[]","0","0","4","","","","","","","",""
"pit-trial","95","821683","0.0-2.0-17.2-4.2","battery-v0.2","","""event"",""trial"",""time""
""fullscreenenter"",""1"",""1513""
","
","
","""event"",""trial"",""time""
""fullscreenenter"",""1"",""1513""
","
","","","-1","","","23","18668","6940","&#9789;","elianto","#f73b6a7A"," ","-1","0","-10","[]","0","0","4","","","","","","","",""
"pit-trial","96","826536","0.0-2.0-17.3-0.3","battery-v0.2","","""event"",""trial"",""time""
""fullscreenenter"",""1"",""1513""
","
","
","""event"",""trial"",""time""
""fullscreenenter"",""1"",""1513""
","
","","","-1","","","23","18668","6940","&#9789;","elianto","#f73b6a7A"," ","-1","0","-10","[]","0","0","4","","","","","","","",""
"pit-trial","97","831390","0.0-2.0-17.3-1.3","battery-v0.2","","""event"",""trial"",""time""
""fullscreenenter"",""1"",""1513""
","
","
","""event"",""trial"",""time""
""fullscreenenter"",""1"",""1513""
","
","","","-1","","","23","18668","6940","&#9789;","elianto","#f73b6a7A"," ","-1","0","-10","[]","0","0","4","","","","","","","",""
"pit-trial","98","836244","0.0-2.0-17.3-2.3","battery-v0.2","","""event"",""trial"",""time""
""fullscreenenter"",""1"",""1513""
","
","
","""event"",""trial"",""time""
""fullscreenenter"",""1"",""1513""
","
","","","-1","","","23","18668","6940","&#9789;","elianto","#f73b6a7A"," ","-1","0","-10","[]","0","0","4","","","","","","","",""
"pit-trial","99","841098","0.0-2.0-17.3-3.3","battery-v0.2","","""event"",""trial"",""time""
""fullscreenenter"",""1"",""1513""
","
","
","""event"",""trial"",""time""
""fullscreenenter"",""1"",""1513""
","
","","","-1","","","23","18668","6940","&#9789;","elianto","#f73b6a7A"," ","-1","0","0","[]","0","0","4","","","","","","","",""
"pit-trial","100","845952","0.0-2.0-17.3-4.3","battery-v0.2","","""event"",""trial"",""time""
""fullscreenenter"",""1"",""1513""
","
","
","""event"",""trial"",""time""
""fullscreenenter"",""1"",""1513""
","
","","","-1","","","23","18668","6940","&#9789;","elianto","#f73b6a7A"," ","-1","0","-10","[]","0","0","4","","","","","","","",""
"call-function","101","845954","0.0-2.0-18.0","battery-v0.2","","""event"",""trial"",""time""
""fullscreenenter"",""1"",""1513""
","
","
","""event"",""trial"",""time""
""fullscreenenter"",""1"",""1513""
","
","","","","","","","","","","","","","","","","","","","","","","","","","","",""
"pit-instructions","102","921087","0.0-2.0-19.0","battery-v0.2","","""event"",""trial"",""time""
""fullscreenenter"",""1"",""1513""
","
","
","""event"",""trial"",""time""
""fullscreenenter"",""1"",""1513""
","
","","[{""page_index"":0,""viewing_time"":10019.200000017881},{""page_index"":1,""viewing_time"":6711},{""page_index"":2,""viewing_time"":16082.09999999404},{""page_index"":3,""viewing_time"":6828.300000011921},{""page_index"":4,""viewing_time"":8924.399999976158},{""page_index"":5,""viewing_time"":9089.600000023842},{""page_index"":6,""viewing_time"":7849.399999976158},{""page_index"":7,""viewing_time"":5725.300000011921},{""page_index"":8,""viewing_time"":3900.5}]","75130.10000002384","","","","","","","","","","","","","","","","","","","","","","","",""
"pit-comprehension","103","925927","0.0-2.0-20.0-0.0","battery-v0.2","","""event"",""trial"",""time""
""fullscreenenter"",""1"",""1513""
","
","
","""event"",""trial"",""time""
""fullscreenenter"",""1"",""1513""
","
","","","4836.199999988079","[""SPACE""]","0","23","18668","6940","","","","","","","","","","","","","","","","","","",""
"pit-instructions","104","930588","0.0-2.0-20.0-1.0","battery-v0.2","","""event"",""trial"",""time""
""fullscreenenter"",""1"",""1513""
","
","
","""event"",""trial"",""time""
""fullscreenenter"",""1"",""1513""
","
","","[{""page_index"":0,""viewing_time"":4623.600000023842}]","4623.800000011921","","","","","","","","","","","","","","","","","","","","","","","",""
"pit-comprehension","105","936713","0.0-2.0-21.0-0.0","battery-v0.2","","""event"",""trial"",""time""
""fullscreenenter"",""1"",""1513""
","
","
","""event"",""trial"",""time""
""fullscreenenter"",""1"",""1513""
","
","","","6121.5","[""10""]","0","23","18668","6940","","","","","","","","","","","","","","","","","","",""
"pit-instructions","106","941328","0.0-2.0-21.0-1.0","battery-v0.2","","""event"",""trial"",""time""
""fullscreenenter"",""1"",""1513""
","
","
","""event"",""trial"",""time""
""fullscreenenter"",""1"",""1513""
","
","","[{""page_index"":0,""viewing_time"":4573}]","4573.300000011921","","","","","","","","","","","","","","","","","","","","","","","",""
"pit-comprehension","107","950789","0.0-2.0-22.0-0.0","battery-v0.2","","""event"",""trial"",""time""
""fullscreenenter"",""1"",""1513""
","
","
","""event"",""trial"",""time""
""fullscreenenter"",""1"",""1513""
","
","","","9457.800000011921","[""0""]","0","23","18668","6940","","","","","","","","","","","","","","","","","","",""
"pit-instructions","108","954096","0.0-2.0-22.0-1.0","battery-v0.2","","""event"",""trial"",""time""
""fullscreenenter"",""1"",""1513""
","
","
","""event"",""trial"",""time""
""fullscreenenter"",""1"",""1513""
","
","","[{""page_index"":0,""viewing_time"":3265.5999999940395}]","3266","","","","","","","","","","","","","","","","","","","","","","","",""
"pit-comprehension","109","969023","0.0-2.0-23.0-0.0","battery-v0.2","","""event"",""trial"",""time""
""fullscreenenter"",""1"",""1513""
","
","
","""event"",""trial"",""time""
""fullscreenenter"",""1"",""1513""
","
","","","14923.200000017881","[""True""]","0","23","18668","6940","","","","","","","","","","","","","","","","","","",""
"pit-instructions","110","970757","0.0-2.0-23.0-1.0","battery-v0.2","","""event"",""trial"",""time""
""fullscreenenter"",""1"",""1513""
","
","
","""event"",""trial"",""time""
""fullscreenenter"",""1"",""1513""
","
","","[{""page_index"":0,""viewing_time"":1689}]","1689.2999999821186","","","","","","","","","","","","","","","","","","","","","","","",""
"pit-comprehension","111","978462","0.0-2.0-24.0-0.0","battery-v0.2","","""event"",""trial"",""time""
""fullscreenenter"",""1"",""1513""
","
","
","""event"",""trial"",""time""
""fullscreenenter"",""1"",""1513""
","
","","","7702.0999999940395","[""True""]","0","23","18668","6940","","","","","","","","","","","","","","","","","","",""
"pit-instructions","112","980629","0.0-2.0-24.0-1.0","battery-v0.2","","""event"",""trial"",""time""
""fullscreenenter"",""1"",""1513""
","
","
","""event"",""trial"",""time""
""fullscreenenter"",""1"",""1513""
","
","","[{""page_index"":0,""viewing_time"":2123.7999999821186}]","2124","","","","","","","","","","","","","","","","","","","","","","","",""
"pit-comprehension","113","987132","0.0-2.0-25.0-0.0","battery-v0.2","","""event"",""trial"",""time""
""fullscreenenter"",""1"",""1513""
","
","
","""event"",""trial"",""time""
""fullscreenenter"",""1"",""1513""
","
","","","6499.5","[""True""]","0","23","18668","6940","","","","","","","","","","","","","","","","","","",""
"pit-instructions","114","988890","0.0-2.0-25.0-1.0","battery-v0.2","","""event"",""trial"",""time""
""fullscreenenter"",""1"",""1513""
","
","
","""event"",""trial"",""time""
""fullscreenenter"",""1"",""1513""
","
","","[{""page_index"":0,""viewing_time"":1715.800000011921}]","1716","","","","","","","","","","","","","","","","","","","","","","","",""
"pit-comprehension","115","993888","0.0-2.0-26.0-0.0","battery-v0.2","","""event"",""trial"",""time""
""fullscreenenter"",""1"",""1513""
","
","
","""event"",""trial"",""time""
""fullscreenenter"",""1"",""1513""
","
","","","4995.0999999940395","[""False""]","0","23","18668","6940","","","","","","","","","","","","","","","","","","",""
"pit-instructions","116","995378","0.0-2.0-26.0-1.0","battery-v0.2","","""event"",""trial"",""time""
""fullscreenenter"",""1"",""1513""
","
","
","""event"",""trial"",""time""
""fullscreenenter"",""1"",""1513""
","
","","[{""page_index"":0,""viewing_time"":1450.2000000178814}]","1450.4000000059605","","","","","","","","","","","","","","","","","","","","","","","",""
"pit-instructions","117","1012828","0.0-3.0","battery-v0.2","","""event"",""trial"",""time""
""fullscreenenter"",""1"",""1513""
","
","
","""event"",""trial"",""time""
""fullscreenenter"",""1"",""1513""
","
","","[{""page_index"":0,""viewing_time"":4178.799999982119},{""page_index"":1,""viewing_time"":6356.700000017881},{""page_index"":2,""viewing_time"":6912.699999988079}]","17448.5","","","","","","","","","","","","","","","","","","","","","","","",""
"pit-trial","118","1016325","0.0-4.0","battery-v0.2","","""event"",""trial"",""time""
""fullscreenenter"",""1"",""1513""
","
","
","""event"",""trial"",""time""
""fullscreenenter"",""1"",""1513""
","
","","","638.9000000059605","","","23","18668","6940","&#9728;","elianto","#f73b6a7A","-1"," ","0","-10","[1489.5999999940395]","1","1","","","18668","1","0","4","lose","no-go","0"
"pit-trial","119","1019983","0.0-5.0","battery-v0.2","","""event"",""trial"",""time""
""fullscreenenter"",""1"",""1513""
","
","
","""event"",""trial"",""time""
""fullscreenenter"",""1"",""1513""
","
","","","804.3000000119209","","","23","18668","6940","&#9730;","elianto","#3366ff99"," "," ","1","+10","[1655.4000000059605]","1","1","","","18668","2","1","1","win","go","0"
"pit-trial","120","1023661","0.0-6.0","battery-v0.2","","""event"",""trial"",""time""
""fullscreenenter"",""1"",""1513""
","
","
","""event"",""trial"",""time""
""fullscreenenter"",""1"",""1513""
","
","","","824","","","23","18668","6940","&#9752;","elianto","#f73b6a7A"," "," ","1","-10","[1675.4000000059605]","1","1","","","18668","3","3","3","lose","go","1"
"pit-trial","121","1027374","0.0-7.0","battery-v0.2","","""event"",""trial"",""time""
""fullscreenenter"",""1"",""1513""
","
","
","""event"",""trial"",""time""
""fullscreenenter"",""1"",""1513""
","
","","","855.2999999821186","","","23","18668","6940","&#9733;","elianto","#3366ff99","-1"," ","0","+10","[1709.2999999821186]","1","1","","","18668","4","2","2","win","no-go","1"
"pit-trial","122","1031178","0.0-8.0","battery-v0.2","","""event"",""trial"",""time""
""fullscreenenter"",""1"",""1513""
","
","
","""event"",""trial"",""time""
""fullscreenenter"",""1"",""1513""
","
","","","951","","","23","18668","6940","&#9730;","elianto","#3366ff99"," "," ","1","+10","[1801.199999988079]","1","1","","","18668","5","1","1","win","go","0"
"pit-trial","123","1034684","0.0-9.0","battery-v0.2","","""event"",""trial"",""time""
""fullscreenenter"",""1"",""1513""
","
","
","""event"",""trial"",""time""
""fullscreenenter"",""1"",""1513""
","
","","","651.6999999880791","","","23","18668","6940","&#9733;","elianto","#3366ff99","-1"," ","0","0","[1503.5]","1","1","","","18668","6","2","2","win","no-go","0"
"pit-trial","124","1039539","0.0-10.0","battery-v0.2","","""event"",""trial"",""time""
""fullscreenenter"",""1"",""1513""
","
","
","""event"",""trial"",""time""
""fullscreenenter"",""1"",""1513""
","
","","","-1","","","23","18668","6940","&#9752;","elianto","#f73b6a7A"," ","-1","0","-10","[]","0","1","","","18668","7","3","3","lose","go","0"
"pit-trial","125","1043267","0.0-11.0","battery-v0.2","","""event"",""trial"",""time""
""fullscreenenter"",""1"",""1513""
","
","
","""event"",""trial"",""time""
""fullscreenenter"",""1"",""1513""
","
","","","872.9000000059605","","","23","18668","6940","&#9728;","elianto","#f73b6a7A","-1"," ","0","-10","[1724.300000011921]","1","1","","","18668","8","0","4","lose","no-go","0"
"pit-trial","126","1046783","0.0-12.0","battery-v0.2","","""event"",""trial"",""time""
""fullscreenenter"",""1"",""1513""
","
","
","""event"",""trial"",""time""
""fullscreenenter"",""1"",""1513""
","
","","","660.8999999761581","","","23","18668","6940","&#9730;","elianto","#3366ff99"," "," ","1","+10","[1511.5999999940395]","1","1","","","18668","9","1","1","win","go","0"
"pit-trial","127","1050242","0.0-13.0","battery-v0.2","","""event"",""trial"",""time""
""fullscreenenter"",""1"",""1513""
","
","
","""event"",""trial"",""time""
""fullscreenenter"",""1"",""1513""
","
","","","605.5","","","23","18668","6940","&#9733;","elianto","#3366ff99","-1"," ","0","+10","[1455.699999988079]","1","1","","","18668","10","2","2","win","no-go","1"
"pit-trial","128","1055070","0.0-14.0","battery-v0.2","","""event"",""trial"",""time""
""fullscreenenter"",""1"",""1513""
","
","
","""event"",""trial"",""time""
""fullscreenenter"",""1"",""1513""
","
","","","1971.2000000178814","","","23","18668","6940","&#9728;","elianto","#f73b6a7A","-1"," ","0","-10","[2824.800000011921]","1","1","","","18668","11","0","4","lose","no-go","0"
"pit-trial","129","1059026","0.0-15.0","battery-v0.2","","""event"",""trial"",""time""
""fullscreenenter"",""1"",""1513""
","
","
","""event"",""trial"",""time""
""fullscreenenter"",""1"",""1513""
","
","","","1101.5999999940395","","","23","18668","6940","&#9752;","elianto","#f73b6a7A"," "," ","1","0","[1952]","1","1","","","18668","12","3","3","lose","go","0"
"pit-trial","130","1063880","0.0-16.0","battery-v0.2","","""event"",""trial"",""time""
""fullscreenenter"",""1"",""1513""
","
","
","""event"",""trial"",""time""
""fullscreenenter"",""1"",""1513""
","
","","","-1","","","23","18668","6940","&#9728;","elianto","#f73b6a7A","-1","-1","1","-10","[]","0","1","","","18668","13","0","4","lose","no-go","1"
"pit-trial","131","1067511","0.0-17.0","battery-v0.2","","""event"",""trial"",""time""
""fullscreenenter"",""1"",""1513""
","
","
","""event"",""trial"",""time""
""fullscreenenter"",""1"",""1513""
","
","","","776.2999999821186","","","23","18668","6940","&#9733;","elianto","#3366ff99","-1"," ","0","+10","[1627.0999999940395]","1","1","","","18668","14","2","2","win","no-go","1"
"pit-trial","132","1072366","0.0-18.0","battery-v0.2","","""event"",""trial"",""time""
""fullscreenenter"",""1"",""1513""
","
","
","""event"",""trial"",""time""
""fullscreenenter"",""1"",""1513""
","
","","","-1","","","23","18668","6940","&#9752;","elianto","#f73b6a7A"," ","-1","0","-10","[]","0","1","","","18668","15","3","3","lose","go","0"
"pit-trial","133","1075897","0.0-19.0","battery-v0.2","","""event"",""trial"",""time""
""fullscreenenter"",""1"",""1513""
","
","
","""event"",""trial"",""time""
""fullscreenenter"",""1"",""1513""
","
","","","677.0999999940395","","","23","18668","6940","&#9730;","elianto","#3366ff99"," "," ","1","+10","[1527.7999999821186]","1","1","","","18668","16","1","1","win","go","0"
"pit-trial","134","1079294","0.0-20.0","battery-v0.2","","""event"",""trial"",""time""
""fullscreenenter"",""1"",""1513""
","
","
","""event"",""trial"",""time""
""fullscreenenter"",""1"",""1513""
","
","","","544.4000000059605","","","23","18668","6940","&#9733;","elianto","#3366ff99","-1"," ","0","0","[1394.5]","1","1","","","18668","17","2","2","win","no-go","0"
"pit-trial","135","1082699","0.0-21.0","battery-v0.2","","""event"",""trial"",""time""
""fullscreenenter"",""1"",""1513""
","
","
","""event"",""trial"",""time""
""fullscreenenter"",""1"",""1513""
","
","","","550.1999999880791","","","23","18668","6940","&#9730;","elianto","#3366ff99"," "," ","1","+10","[1401.7000000178814]","1","1","","","18668","18","1","1","win","go","0"
"pit-trial","136","1086285","0.0-22.0","battery-v0.2","","""event"",""trial"",""time""
""fullscreenenter"",""1"",""1513""
","
","
","""event"",""trial"",""time""
""fullscreenenter"",""1"",""1513""
","
","","","731.5999999940395","","","23","18668","6940","&#9752;","elianto","#f73b6a7A"," "," ","1","0","[1582.5]","1","1","","","18668","19","3","3","lose","go","0"
"pit-trial","137","1089934","0.0-23.0","battery-v0.2","","""event"",""trial"",""time""
""fullscreenenter"",""1"",""1513""
","
","
","""event"",""trial"",""time""
""fullscreenenter"",""1"",""1513""
","
","","","795.5","","","23","18668","6940","&#9728;","elianto","#f73b6a7A","-1"," ","0","-10","[1646.4000000059605]","1","1","","","18668","20","0","4","lose","no-go","0"
"pit-instructions","138","1102505","0.0-24.0","battery-v0.2","","""event"",""trial"",""time""
""fullscreenenter"",""1"",""1513""
","
","
","""event"",""trial"",""time""
""fullscreenenter"",""1"",""1513""
","
","","[{""page_index"":0,""viewing_time"":5536.300000011921},{""page_index"":1,""viewing_time"":7032.0999999940395}]","12568.59999999404","","","","","","","","","","","","","","","","","","","","","","","",""
"pit-trial","139","1106015","0.0-25.0","battery-v0.2","","""event"",""trial"",""time""
""fullscreenenter"",""1"",""1513""
","
","
","""event"",""trial"",""time""
""fullscreenenter"",""1"",""1513""
","
","","","656.1000000238419","","","23","18668","6940","l","elianto","#3366ff99"," "," ","1","+10","[1507]","1","2","","","18668","21","1","1","win","go","0"
"pit-trial","140","1109635","0.0-26.0","battery-v0.2","","""event"",""trial"",""time""
""fullscreenenter"",""1"",""1513""
","
","
","""event"",""trial"",""time""
""fullscreenenter"",""1"",""1513""
","
","","","765.3999999761581","","","23","18668","6940","u","elianto","#f73b6a7A","-1"," ","0","0","[1618.2999999821186]","1","2","","","18668","22","0","4","lose","no-go","1"
"pit-trial","141","1113160","0.0-27.0","battery-v0.2","","""event"",""trial"",""time""
""fullscreenenter"",""1"",""1513""
","
","
","""event"",""trial"",""time""
""fullscreenenter"",""1"",""1513""
","
","","","670.5","","","23","18668","6940","a","elianto","#f73b6a7A","-1"," ","0","-10","[1521.5]","1","2","","","18668","23","2","4","lose","no-go","0"
"pit-trial","142","1117231","0.0-28.0","battery-v0.2","","""event"",""trial"",""time""
""fullscreenenter"",""1"",""1513""
","
","
","""event"",""trial"",""time""
""fullscreenenter"",""1"",""1513""
","
","","","1218.2000000178814","","","23","18668","6940","g","elianto","#f73b6a7A"," "," ","1","0","[2068.7000000178814]","1","2","","","18668","24","3","3","lose","go","0"
"pit-trial","143","1122086","0.0-29.0","battery-v0.2","","""event"",""trial"",""time""
""fullscreenenter"",""1"",""1513""
","
","
","""event"",""trial"",""time""
""fullscreenenter"",""1"",""1513""
","
","","","-1","","","23","18668","6940","a","elianto","#f73b6a7A","-1","-1","1","0","[]","0","2","","","18668","25","2","4","lose","no-go","0"
"pit-trial","144","1125580","0.0-30.0","battery-v0.2","","""event"",""trial"",""time""
""fullscreenenter"",""1"",""1513""
","
","
","""event"",""trial"",""time""
""fullscreenenter"",""1"",""1513""
","
","","","638.7999999821186","","","23","18668","6940","l","elianto","#3366ff99"," "," ","1","+10","[1489.4000000059605]","1","2","","","18668","26","1","1","win","go","0"
"pit-trial","145","1129732","0.0-31.0","battery-v0.2","","""event"",""trial"",""time""
""fullscreenenter"",""1"",""1513""
","
","
","""event"",""trial"",""time""
""fullscreenenter"",""1"",""1513""
","
","","","1298.4000000059605","","","23","18668","6940","u","elianto","#f73b6a7A","-1"," ","0","0","[2149.199999988079]","1","2","","","18668","27","0","4","lose","no-go","1"
"pit-trial","146","1133144","0.0-32.0","battery-v0.2","","""event"",""trial"",""time""
""fullscreenenter"",""1"",""1513""
","
","
","""event"",""trial"",""time""
""fullscreenenter"",""1"",""1513""
","
","","","558.8000000119209","","","23","18668","6940","g","elianto","#f73b6a7A"," "," ","1","0","[1409.0999999940395]","1","2","","","18668","28","3","3","lose","go","0"
"pit-trial","147","1136662","0.0-33.0","battery-v0.2","","""event"",""trial"",""time""
""fullscreenenter"",""1"",""1513""
","
","
","""event"",""trial"",""time""
""fullscreenenter"",""1"",""1513""
","
","","","663.7999999821186","","","23","18668","6940","u","elianto","#f73b6a7A","-1"," ","0","0","[1514.699999988079]","1","2","","","18668","29","0","4","lose","no-go","1"
"pit-trial","148","1141516","0.0-34.0","battery-v0.2","","""event"",""trial"",""time""
""fullscreenenter"",""1"",""1513""
","
","
","""event"",""trial"",""time""
""fullscreenenter"",""1"",""1513""
","
","","","-1","","","23","18668","6940","a","elianto","#f73b6a7A","-1","-1","1","0","[]","0","2","","","18668","30","2","4","lose","no-go","0"
"pit-trial","149","1144886","0.0-35.0","battery-v0.2","","""event"",""trial"",""time""
""fullscreenenter"",""1"",""1513""
","
","
","""event"",""trial"",""time""
""fullscreenenter"",""1"",""1513""
","
","","","515.4000000059605","","","23","18668","6940","l","elianto","#3366ff99"," "," ","1","+10","[1366.0999999940395]","1","2","","","18668","31","1","1","win","go","0"
"pit-trial","150","1148312","0.0-36.0","battery-v0.2","","""event"",""trial"",""time""
""fullscreenenter"",""1"",""1513""
","
","
","""event"",""trial"",""time""
""fullscreenenter"",""1"",""1513""
","
","","","571.4000000059605","","","23","18668","6940","g","elianto","#f73b6a7A"," "," ","1","0","[1422.5]","1","2","","","18668","32","3","3","lose","go","0"
"pit-trial","151","1151791","0.0-37.0","battery-v0.2","","""event"",""trial"",""time""
""fullscreenenter"",""1"",""1513""
","
","
","""event"",""trial"",""time""
""fullscreenenter"",""1"",""1513""
","
","","","623.5","","","23","18668","6940","l","elianto","#3366ff99"," "," ","1","+10","[1476.5]","1","2","","","18668","33","1","1","win","go","0"
"pit-trial","152","1155315","0.0-38.0","battery-v0.2","","""event"",""trial"",""time""
""fullscreenenter"",""1"",""1513""
","
","
","""event"",""trial"",""time""
""fullscreenenter"",""1"",""1513""
","
","","","670.3000000119209","","","23","18668","6940","g","elianto","#f73b6a7A"," "," ","1","0","[1521.0999999940395]","1","2","","","18668","34","3","3","lose","go","0"
"pit-trial","153","1158638","0.0-39.0","battery-v0.2","","""event"",""trial"",""time""
""fullscreenenter"",""1"",""1513""
","
","
","""event"",""trial"",""time""
""fullscreenenter"",""1"",""1513""
","
","","","469.69999998807907","","","23","18668","6940","u","elianto","#f73b6a7A","-1"," ","0","-10","[1320.300000011921]","1","2","","","18668","35","0","4","lose","no-go","0"
"pit-trial","154","1162059","0.0-40.0","battery-v0.2","","""event"",""trial"",""time""
""fullscreenenter"",""1"",""1513""
","
","
","""event"",""trial"",""time""
""fullscreenenter"",""1"",""1513""
","
","","","566.4000000059605","","","23","18668","6940","a","elianto","#f73b6a7A","-1"," ","0","0","[1417]","1","2","","","18668","36","2","4","lose","no-go","1"
"pit-trial","155","1165465","0.0-41.0","battery-v0.2","","""event"",""trial"",""time""
""fullscreenenter"",""1"",""1513""
","
","
","""event"",""trial"",""time""
""fullscreenenter"",""1"",""1513""
","
","","","553.4000000059605","","","23","18668","6940","l","elianto","#3366ff99"," "," ","1","+10","[1404.4000000059605]","1","2","","","18668","37","1","1","win","go","0"
"pit-trial","156","1168998","0.0-42.0","battery-v0.2","","""event"",""trial"",""time""
""fullscreenenter"",""1"",""1513""
","
","
","""event"",""trial"",""time""
""fullscreenenter"",""1"",""1513""
","
","","","661.6999999880791","","","23","18668","6940","u","elianto","#f73b6a7A","-1"," ","0","0","[1529.699999988079]","1","2","","","18668","38","0","4","lose","no-go","1"
"pit-trial","157","1172290","0.0-43.0","battery-v0.2","","""event"",""trial"",""time""
""fullscreenenter"",""1"",""1513""
","
","
","""event"",""trial"",""time""
""fullscreenenter"",""1"",""1513""
","
","","","438.09999999403954","","","23","18668","6940","g","elianto","#f73b6a7A"," "," ","1","-10","[1289.0999999940395]","1","2","","","18668","39","3","3","lose","go","1"
"pit-trial","158","1176254","0.0-44.0","battery-v0.2","","""event"",""trial"",""time""
""fullscreenenter"",""1"",""1513""
","
","
","""event"",""trial"",""time""
""fullscreenenter"",""1"",""1513""
","
","","","1110.9000000059605","","","23","18668","6940","a","elianto","#f73b6a7A","-1"," ","0","0","[1961.7000000178814]","1","2","","","18668","40","2","4","lose","no-go","1"
"pit-trial","159","1179897","0.0-45.0","battery-v0.2","","""event"",""trial"",""time""
""fullscreenenter"",""1"",""1513""
","
","
","""event"",""trial"",""time""
""fullscreenenter"",""1"",""1513""
","
","","","789.5999999940395","","","23","18668","6940","g","elianto","#f73b6a7A"," "," ","1","-10","[1640.5]","1","2","","","18668","41","3","3","lose","go","1"
"pit-trial","160","1183403","0.0-46.0","battery-v0.2","","""event"",""trial"",""time""
""fullscreenenter"",""1"",""1513""
","
","
","""event"",""trial"",""time""
""fullscreenenter"",""1"",""1513""
","
","","","650","","","23","18668","6940","a","elianto","#f73b6a7A","-1"," ","0","-10","[1502.5]","1","2","","","18668","42","2","4","lose","no-go","0"
"pit-trial","161","1187069","0.0-47.0","battery-v0.2","","""event"",""trial"",""time""
""fullscreenenter"",""1"",""1513""
","
","
","""event"",""trial"",""time""
""fullscreenenter"",""1"",""1513""
","
","","","811.9000000059605","","","23","18668","6940","u","elianto","#f73b6a7A","-1"," ","0","-10","[1662.300000011921]","1","2","","","18668","43","0","4","lose","no-go","0"
"pit-trial","162","1190472","0.0-48.0","battery-v0.2","","""event"",""trial"",""time""
""fullscreenenter"",""1"",""1513""
","
","
","""event"",""trial"",""time""
""fullscreenenter"",""1"",""1513""
","
","","","549.0999999940395","","","23","18668","6940","l","elianto","#3366ff99"," "," ","1","+10","[1400]","1","2","","","18668","44","1","1","win","go","0"
"pit-trial","163","1193908","0.0-49.0","battery-v0.2","","""event"",""trial"",""time""
""fullscreenenter"",""1"",""1513""
","
","
","""event"",""trial"",""time""
""fullscreenenter"",""1"",""1513""
","
","","","580.7000000178814","","","23","18668","6940","p","elianto","#3366ff99","-1"," ","0","0","[1432.2000000178814]","1","2","","","18668","45","4","2","win","no-go","0"
"pit-trial","164","1197709","0.0-50.0","battery-v0.2","","""event"",""trial"",""time""
""fullscreenenter"",""1"",""1513""
","
","
","""event"",""trial"",""time""
""fullscreenenter"",""1"",""1513""
","
","","","946.5999999940395","","","23","18668","6940","a","elianto","#f73b6a7A","-1"," ","0","-10","[1797.5999999940395]","1","2","","","18668","46","2","4","lose","no-go","0"
"pit-trial","165","1202563","0.0-51.0","battery-v0.2","","""event"",""trial"",""time""
""fullscreenenter"",""1"",""1513""
","
","
","""event"",""trial"",""time""
""fullscreenenter"",""1"",""1513""
","
","","","-1","","","23","18668","6940","g","elianto","#f73b6a7A"," ","-1","0","0","[]","0","2","","","18668","47","3","3","lose","go","1"
"pit-trial","166","1207416","0.0-52.0","battery-v0.2","","""event"",""trial"",""time""
""fullscreenenter"",""1"",""1513""
","
","
","""event"",""trial"",""time""
""fullscreenenter"",""1"",""1513""
","
","","","-1","","","23","18668","6940","u","elianto","#f73b6a7A","-1","-1","1","-10","[]","0","2","","","18668","48","0","4","lose","no-go","1"
"pit-trial","167","1211549","0.0-53.0","battery-v0.2","","""event"",""trial"",""time""
""fullscreenenter"",""1"",""1513""
","
","
","""event"",""trial"",""time""
""fullscreenenter"",""1"",""1513""
","
","","","1279.300000011921","","","23","18668","6940","p","elianto","#3366ff99","-1"," ","0","+10","[2130.5]","1","2","","","18668","49","4","2","win","no-go","1"
"pit-trial","168","1215388","0.0-54.0","battery-v0.2","","""event"",""trial"",""time""
""fullscreenenter"",""1"",""1513""
","
","
","""event"",""trial"",""time""
""fullscreenenter"",""1"",""1513""
","
","","","985.0999999940395","","","23","18668","6940","u","elianto","#f73b6a7A","-1"," ","0","0","[1835.8999999761581]","1","2","","","18668","50","0","4","lose","no-go","1"
"pit-trial","169","1219427","0.0-55.0","battery-v0.2","","""event"",""trial"",""time""
""fullscreenenter"",""1"",""1513""
","
","
","""event"",""trial"",""time""
""fullscreenenter"",""1"",""1513""
","
","","","1184.199999988079","","","23","18668","6940","l","elianto","#3366ff99"," "," ","1","+10","[2034.7999999821186]","1","2","","","18668","51","1","1","win","go","0"
"pit-trial","170","1224281","0.0-56.0","battery-v0.2","","""event"",""trial"",""time""
""fullscreenenter"",""1"",""1513""
","
","
","""event"",""trial"",""time""
""fullscreenenter"",""1"",""1513""
","
","","","-1","","","23","18668","6940","g","elianto","#f73b6a7A"," ","-1","0","-10","[]","0","2","","","18668","52","3","3","lose","go","0"
"pit-trial","171","1229136","0.0-57.0","battery-v0.2","","""event"",""trial"",""time""
""fullscreenenter"",""1"",""1513""
","
","
","""event"",""trial"",""time""
""fullscreenenter"",""1"",""1513""
","
","","","-1","","","23","18668","6940","a","elianto","#f73b6a7A","-1","-1","1","0","[]","0","2","","","18668","53","2","4","lose","no-go","0"
"pit-trial","172","1232660","0.0-58.0","battery-v0.2","","""event"",""trial"",""time""
""fullscreenenter"",""1"",""1513""
","
","
","""event"",""trial"",""time""
""fullscreenenter"",""1"",""1513""
","
","","","670.7999999821186","","","23","18668","6940","l","elianto","#3366ff99"," "," ","1","+10","[1521.699999988079]","1","2","","","18668","54","1","1","win","go","0"
"pit-trial","173","1236440","0.0-59.0","battery-v0.2","","""event"",""trial"",""time""
""fullscreenenter"",""1"",""1513""
","
","
","""event"",""trial"",""time""
""fullscreenenter"",""1"",""1513""
","
","","","926.5","","","23","18668","6940","p","elianto","#3366ff99","-1"," ","0","0","[1777]","1","2","","","18668","55","4","2","win","no-go","0"
"pit-trial","174","1240385","0.0-60.0","battery-v0.2","","""event"",""trial"",""time""
""fullscreenenter"",""1"",""1513""
","
","
","""event"",""trial"",""time""
""fullscreenenter"",""1"",""1513""
","
","","","1090.2999999821186","","","23","18668","6940","u","elianto","#f73b6a7A","-1"," ","0","-10","[1941.5]","1","2","","","18668","56","0","4","lose","no-go","0"
"pit-trial","175","1243880","0.0-61.0","battery-v0.2","","""event"",""trial"",""time""
""fullscreenenter"",""1"",""1513""
","
","
","""event"",""trial"",""time""
""fullscreenenter"",""1"",""1513""
","
","","","642.4000000059605","","","23","18668","6940","l","elianto","#3366ff99"," "," ","1","0","[1493]","1","2","","","18668","57","1","1","win","go","1"
"pit-trial","176","1247564","0.0-62.0","battery-v0.2","","""event"",""trial"",""time""
""fullscreenenter"",""1"",""1513""
","
","
","""event"",""trial"",""time""
""fullscreenenter"",""1"",""1513""
","
","","","829.1999999880791","","","23","18668","6940","p","elianto","#3366ff99","-1"," ","0","+10","[1680.699999988079]","1","2","","","18668","58","4","2","win","no-go","1"
"pit-trial","177","1252417","0.0-63.0","battery-v0.2","","""event"",""trial"",""time""
""fullscreenenter"",""1"",""1513""
","
","
","""event"",""trial"",""time""
""fullscreenenter"",""1"",""1513""
","
","","","-1","","","23","18668","6940","g","elianto","#f73b6a7A"," ","-1","0","-10","[]","0","2","","","18668","59","3","3","lose","go","0"
"pit-trial","178","1256011","0.0-64.0","battery-v0.2","","""event"",""trial"",""time""
""fullscreenenter"",""1"",""1513""
","
","
","""event"",""trial"",""time""
""fullscreenenter"",""1"",""1513""
","
","","","739.7999999821186","","","23","18668","6940","u","elianto","#f73b6a7A","-1"," ","0","0","[1590.7999999821186]","1","2","","","18668","60","0","4","lose","no-go","1"
"pit-trial","179","1259800","0.0-65.0","battery-v0.2","","""event"",""trial"",""time""
""fullscreenenter"",""1"",""1513""
","
","
","""event"",""trial"",""time""
""fullscreenenter"",""1"",""1513""
","
","","","933.5","","","23","18668","6940","g","elianto","#f73b6a7A"," "," ","1","0","[1785.0999999940395]","1","2","","","18668","61","3","3","lose","go","0"
"pit-trial","180","1263345","0.0-66.0","battery-v0.2","","""event"",""trial"",""time""
""fullscreenenter"",""1"",""1513""
","
","
","""event"",""trial"",""time""
""fullscreenenter"",""1"",""1513""
","
","","","691.1999999880791","","","23","18668","6940","l","elianto","#3366ff99"," "," ","1","+10","[1542.0999999940395]","1","2","","","18668","62","1","1","win","go","0"
"pit-trial","181","1268199","0.0-67.0","battery-v0.2","","""event"",""trial"",""time""
""fullscreenenter"",""1"",""1513""
","
","
","""event"",""trial"",""time""
""fullscreenenter"",""1"",""1513""
","
","","","-1","","","23","18668","6940","a","elianto","#f73b6a7A","-1","-1","1","-10","[]","0","2","","","18668","63","2","4","lose","no-go","1"
"pit-trial","182","1271655","0.0-68.0","battery-v0.2","","""event"",""trial"",""time""
""fullscreenenter"",""1"",""1513""
","
","
","""event"",""trial"",""time""
""fullscreenenter"",""1"",""1513""
","
","","","603.1999999880791","","","23","18668","6940","p","elianto","#3366ff99","-1"," ","0","0","[1454.0999999940395]","1","2","","","18668","64","4","2","win","no-go","0"
"pit-trial","183","1276509","0.0-69.0","battery-v0.2","","""event"",""trial"",""time""
""fullscreenenter"",""1"",""1513""
","
","
","""event"",""trial"",""time""
""fullscreenenter"",""1"",""1513""
","
","","","-1","","","23","18668","6940","a","elianto","#f73b6a7A","-1","-1","1","0","[]","0","2","","","18668","65","2","4","lose","no-go","0"
"pit-trial","184","1280264","0.0-70.0","battery-v0.2","","""event"",""trial"",""time""
""fullscreenenter"",""1"",""1513""
","
","
","""event"",""trial"",""time""
""fullscreenenter"",""1"",""1513""
","
","","","901.7000000178814","","","23","18668","6940","p","elianto","#3366ff99","-1"," ","0","0","[1751.9000000059605]","1","2","","","18668","66","4","2","win","no-go","0"
"pit-trial","185","1285118","0.0-71.0","battery-v0.2","","""event"",""trial"",""time""
""fullscreenenter"",""1"",""1513""
","
","
","""event"",""trial"",""time""
""fullscreenenter"",""1"",""1513""
","
","","","-1","","","23","18668","6940","g","elianto","#f73b6a7A"," ","-1","0","-10","[]","0","2","","","18668","67","3","3","lose","go","0"
"pit-trial","186","1288611","0.0-72.0","battery-v0.2","","""event"",""trial"",""time""
""fullscreenenter"",""1"",""1513""
","
","
","""event"",""trial"",""time""
""fullscreenenter"",""1"",""1513""
","
","","","639","","","23","18668","6940","l","elianto","#3366ff99"," "," ","1","+10","[1489.800000011921]","1","2","","","18668","68","1","1","win","go","0"
"pit-trial","187","1292712","0.0-73.0","battery-v0.2","","""event"",""trial"",""time""
""fullscreenenter"",""1"",""1513""
","
","
","""event"",""trial"",""time""
""fullscreenenter"",""1"",""1513""
","
","","","1247.7999999821186","","","23","18668","6940","g","elianto","#f73b6a7A"," "," ","1","0","[2099]","1","2","","","18668","69","3","3","lose","go","0"
"pit-trial","188","1296190","0.0-74.0","battery-v0.2","","""event"",""trial"",""time""
""fullscreenenter"",""1"",""1513""
","
","
","""event"",""trial"",""time""
""fullscreenenter"",""1"",""1513""
","
","","","624.5999999940395","","","23","18668","6940","l","elianto","#3366ff99"," "," ","1","+10","[1475.7000000178814]","1","2","","","18668","70","1","1","win","go","0"
"pit-trial","189","1299850","0.0-75.0","battery-v0.2","","""event"",""trial"",""time""
""fullscreenenter"",""1"",""1513""
","
","
","""event"",""trial"",""time""
""fullscreenenter"",""1"",""1513""
","
","","","806.8000000119209","","","23","18668","6940","p","elianto","#3366ff99","-1"," ","0","0","[1657.9000000059605]","1","2","","","18668","71","4","2","win","no-go","0"
"pit-trial","190","1303766","0.0-76.0","battery-v0.2","","""event"",""trial"",""time""
""fullscreenenter"",""1"",""1513""
","
","
","""event"",""trial"",""time""
""fullscreenenter"",""1"",""1513""
","
","","","1061.3999999761581","","","23","18668","6940","s","elianto","#3366ff99"," "," ","1","+10","[1911.8999999761581]","1","2","","","18668","72","5","1","win","go","0"
"pit-trial","191","1307639","0.0-77.0","battery-v0.2","","""event"",""trial"",""time""
""fullscreenenter"",""1"",""1513""
","
","
","""event"",""trial"",""time""
""fullscreenenter"",""1"",""1513""
","
","","","1018.5","","","23","18668","6940","p","elianto","#3366ff99","-1"," ","0","+10","[1869.5]","1","2","","","18668","73","4","2","win","no-go","1"
"pit-trial","192","1311075","0.0-78.0","battery-v0.2","","""event"",""trial"",""time""
""fullscreenenter"",""1"",""1513""
","
","
","""event"",""trial"",""time""
""fullscreenenter"",""1"",""1513""
","
","","","582.0999999940395","","","23","18668","6940","s","elianto","#3366ff99"," "," ","1","+10","[1433.199999988079]","1","2","","","18668","74","5","1","win","go","0"
"pit-trial","193","1315929","0.0-79.0","battery-v0.2","","""event"",""trial"",""time""
""fullscreenenter"",""1"",""1513""
","
","
","""event"",""trial"",""time""
""fullscreenenter"",""1"",""1513""
","
","","","-1","","","23","18668","6940","g","elianto","#f73b6a7A"," ","-1","0","-10","[]","0","2","","","18668","75","3","3","lose","go","0"
"pit-trial","194","1319484","0.0-80.0","battery-v0.2","","""event"",""trial"",""time""
""fullscreenenter"",""1"",""1513""
","
","
","""event"",""trial"",""time""
""fullscreenenter"",""1"",""1513""
","
","","","702.2000000178814","","","23","18668","6940","l","elianto","#3366ff99"," "," ","1","+10","[1552.4000000059605]","1","2","","","18668","76","1","1","win","go","0"
"pit-trial","195","1323089","0.0-81.0","battery-v0.2","","""event"",""trial"",""time""
""fullscreenenter"",""1"",""1513""
","
","
","""event"",""trial"",""time""
""fullscreenenter"",""1"",""1513""
","
","","","751.5","","","23","18668","6940","p","elianto","#3366ff99","-1"," ","0","0","[1601.800000011921]","1","2","","","18668","77","4","2","win","no-go","0"
"pit-trial","196","1327942","0.0-82.0","battery-v0.2","","""event"",""trial"",""time""
""fullscreenenter"",""1"",""1513""
","
","
","""event"",""trial"",""time""
""fullscreenenter"",""1"",""1513""
","
","","","-1","","","23","18668","6940","w","elianto","#f73b6a7A","-1","-1","1","0","[]","0","2","","","18668","78","6","4","lose","no-go","0"
"pit-trial","197","1331596","0.0-83.0","battery-v0.2","","""event"",""trial"",""time""
""fullscreenenter"",""1"",""1513""
","
","
","""event"",""trial"",""time""
""fullscreenenter"",""1"",""1513""
","
","","","800.5","","","23","18668","6940","s","elianto","#3366ff99"," "," ","1","+10","[1651.199999988079]","1","2","","","18668","79","5","1","win","go","0"
"pit-trial","198","1335499","0.0-84.0","battery-v0.2","","""event"",""trial"",""time""
""fullscreenenter"",""1"",""1513""
","
","
","""event"",""trial"",""time""
""fullscreenenter"",""1"",""1513""
","
","","","1049.2999999821186","","","23","18668","6940","g","elianto","#f73b6a7A"," "," ","1","0","[1899.5]","1","2","","","18668","80","3","3","lose","go","0"
"pit-trial","199","1339567","0.0-85.0","battery-v0.2","","""event"",""trial"",""time""
""fullscreenenter"",""1"",""1513""
","
","
","""event"",""trial"",""time""
""fullscreenenter"",""1"",""1513""
","
","","","1214.9000000059605","","","23","18668","6940","p","elianto","#3366ff99","-1"," ","0","0","[2065.699999988079]","1","2","","","18668","81","4","2","win","no-go","0"
"pit-trial","200","1343878","0.0-86.0","battery-v0.2","","""event"",""trial"",""time""
""fullscreenenter"",""1"",""1513""
","
","
","""event"",""trial"",""time""
""fullscreenenter"",""1"",""1513""
","
","","","1457","","","23","18668","6940","w","elianto","#f73b6a7A","-1"," ","0","-10","[2308.300000011921]","1","2","","","18668","82","6","4","lose","no-go","0"
"pit-trial","201","1347410","0.0-87.0","battery-v0.2","","""event"",""trial"",""time""
""fullscreenenter"",""1"",""1513""
","
","
","""event"",""trial"",""time""
""fullscreenenter"",""1"",""1513""
","
","","","677.7999999821186","","","23","18668","6940","s","elianto","#3366ff99"," "," ","1","+10","[1528.8999999761581]","1","2","","","18668","83","5","1","win","go","0"
"pit-trial","202","1351774","0.0-88.0","battery-v0.2","","""event"",""trial"",""time""
""fullscreenenter"",""1"",""1513""
","
","
","""event"",""trial"",""time""
""fullscreenenter"",""1"",""1513""
","
","","","1509.4000000059605","","","23","18668","6940","e","elianto","#f73b6a7A"," "," ","1","0","[2360.300000011921]","1","2","","","18668","84","7","3","lose","go","0"
"pit-trial","203","1356628","0.0-89.0","battery-v0.2","","""event"",""trial"",""time""
""fullscreenenter"",""1"",""1513""
","
","
","""event"",""trial"",""time""
""fullscreenenter"",""1"",""1513""
","
","","","-1","","","23","18668","6940","w","elianto","#f73b6a7A","-1","-1","1","0","[]","0","2","","","18668","85","6","4","lose","no-go","0"
"pit-trial","204","1360799","0.0-90.0","battery-v0.2","","""event"",""trial"",""time""
""fullscreenenter"",""1"",""1513""
","
","
","""event"",""trial"",""time""
""fullscreenenter"",""1"",""1513""
","
","","","1317","","","23","18668","6940","e","elianto","#f73b6a7A"," "," ","1","0","[2167.800000011921]","1","2","","","18668","86","7","3","lose","go","0"
"pit-trial","205","1364559","0.0-91.0","battery-v0.2","","""event"",""trial"",""time""
""fullscreenenter"",""1"",""1513""
","
","
","""event"",""trial"",""time""
""fullscreenenter"",""1"",""1513""
","
","","","906.8000000119209","","","23","18668","6940","s","elianto","#3366ff99"," "," ","1","+10","[1757.199999988079]","1","2","","","18668","87","5","1","win","go","0"
"pit-trial","206","1369413","0.0-92.0","battery-v0.2","","""event"",""trial"",""time""
""fullscreenenter"",""1"",""1513""
","
","
","""event"",""trial"",""time""
""fullscreenenter"",""1"",""1513""
","
","","","-1","","","23","18668","6940","p","elianto","#3366ff99","-1","-1","1","+10","[]","0","2","","","18668","88","4","2","win","no-go","0"
"pit-trial","207","1373392","0.0-93.0","battery-v0.2","","""event"",""trial"",""time""
""fullscreenenter"",""1"",""1513""
","
","
","""event"",""trial"",""time""
""fullscreenenter"",""1"",""1513""
","
","","","1125.7000000178814","","","23","18668","6940","s","elianto","#3366ff99"," "," ","1","+10","[1975.9000000059605]","1","2","","","18668","89","5","1","win","go","0"
"pit-trial","208","1378245","0.0-94.0","battery-v0.2","","""event"",""trial"",""time""
""fullscreenenter"",""1"",""1513""
","
","
","""event"",""trial"",""time""
""fullscreenenter"",""1"",""1513""
","
","","","-1","","","23","18668","6940","w","elianto","#f73b6a7A","-1","-1","1","0","[]","0","2","","","18668","90","6","4","lose","no-go","0"
"pit-trial","209","1382022","0.0-95.0","battery-v0.2","","""event"",""trial"",""time""
""fullscreenenter"",""1"",""1513""
","
","
","""event"",""trial"",""time""
""fullscreenenter"",""1"",""1513""
","
","","","924.0999999940395","","","23","18668","6940","p","elianto","#3366ff99","-1"," ","0","0","[1774.7999999821186]","1","2","","","18668","91","4","2","win","no-go","0"
"pit-trial","210","1386876","0.0-96.0","battery-v0.2","","""event"",""trial"",""time""
""fullscreenenter"",""1"",""1513""
","
","
","""event"",""trial"",""time""
""fullscreenenter"",""1"",""1513""
","
","","","-1","","","23","18668","6940","e","elianto","#f73b6a7A"," ","-1","0","-10","[]","0","2","","","18668","92","7","3","lose","go","0"
"pit-trial","211","1390583","0.0-97.0","battery-v0.2","","""event"",""trial"",""time""
""fullscreenenter"",""1"",""1513""
","
","
","""event"",""trial"",""time""
""fullscreenenter"",""1"",""1513""
","
","","","852.5","","","23","18668","6940","e","elianto","#f73b6a7A"," "," ","1","-10","[1703.199999988079]","1","2","","","18668","93","7","3","lose","go","1"
"pit-trial","212","1395437","0.0-98.0","battery-v0.2","","""event"",""trial"",""time""
""fullscreenenter"",""1"",""1513""
","
","
","""event"",""trial"",""time""
""fullscreenenter"",""1"",""1513""
","
","","","-1","","","23","18668","6940","w","elianto","#f73b6a7A","-1","-1","1","0","[]","0","2","","","18668","94","6","4","lose","no-go","0"
"pit-trial","213","1399225","0.0-99.0","battery-v0.2","","""event"",""trial"",""time""
""fullscreenenter"",""1"",""1513""
","
","
","""event"",""trial"",""time""
""fullscreenenter"",""1"",""1513""
","
","","","933.3000000119209","","","23","18668","6940","d","elianto","#3366ff99","-1"," ","0","0","[1783.9000000059605]","1","2","","","18668","95","8","2","win","no-go","0"
"pit-trial","214","1402836","0.0-100.0","battery-v0.2","","""event"",""trial"",""time""
""fullscreenenter"",""1"",""1513""
","
","
","""event"",""trial"",""time""
""fullscreenenter"",""1"",""1513""
","
","","","757.3000000119209","","","23","18668","6940","s","elianto","#3366ff99"," "," ","1","+10","[1608.300000011921]","1","2","","","18668","96","5","1","win","go","0"
"pit-trial","215","1407689","0.0-101.0","battery-v0.2","","""event"",""trial"",""time""
""fullscreenenter"",""1"",""1513""
","
","
","""event"",""trial"",""time""
""fullscreenenter"",""1"",""1513""
","
","","","-1","","","23","18668","6940","e","elianto","#f73b6a7A"," ","-1","0","-10","[]","0","2","","","18668","97","7","3","lose","go","0"
"pit-trial","216","1412544","0.0-102.0","battery-v0.2","","""event"",""trial"",""time""
""fullscreenenter"",""1"",""1513""
","
","
","""event"",""trial"",""time""
""fullscreenenter"",""1"",""1513""
","
","","","-1","","","23","18668","6940","w","elianto","#f73b6a7A","-1","-1","1","0","[]","0","2","","","18668","98","6","4","lose","no-go","0"
"pit-trial","217","1416192","0.0-103.0","battery-v0.2","","""event"",""trial"",""time""
""fullscreenenter"",""1"",""1513""
","
","
","""event"",""trial"",""time""
""fullscreenenter"",""1"",""1513""
","
","","","792.8999999761581","","","23","18668","6940","s","elianto","#3366ff99"," "," ","1","+10","[1643.5]","1","2","","","18668","99","5","1","win","go","0"
"pit-trial","218","1419901","0.0-104.0","battery-v0.2","","""event"",""trial"",""time""
""fullscreenenter"",""1"",""1513""
","
","
","""event"",""trial"",""time""
""fullscreenenter"",""1"",""1513""
","
","","","855.4000000059605","","","23","18668","6940","d","elianto","#3366ff99","-1"," ","0","0","[1705.9000000059605]","1","2","","","18668","100","8","2","win","no-go","0"
"pit-trial","219","1424753","0.0-105.0","battery-v0.2","","""event"",""trial"",""time""
""fullscreenenter"",""1"",""1513""
","
","
","""event"",""trial"",""time""
""fullscreenenter"",""1"",""1513""
","
","","","-1","","","23","18668","6940","w","elianto","#f73b6a7A","-1","-1","1","0","[]","0","2","","","18668","101","6","4","lose","no-go","0"
"pit-trial","220","1428432","0.0-106.0","battery-v0.2","","""event"",""trial"",""time""
""fullscreenenter"",""1"",""1513""
","
","
","""event"",""trial"",""time""
""fullscreenenter"",""1"",""1513""
","
","","","824.8000000119209","","","23","18668","6940","j","elianto","#3366ff99","-1"," ","0","0","[1675.4000000059605]","1","2","","","18668","102","9","2","win","no-go","0"
"pit-trial","221","1432145","0.0-107.0","battery-v0.2","","""event"",""trial"",""time""
""fullscreenenter"",""1"",""1513""
","
","
","""event"",""trial"",""time""
""fullscreenenter"",""1"",""1513""
","
","","","858.2999999821186","","","23","18668","6940","s","elianto","#3366ff99"," "," ","1","+10","[1709.5]","1","2","","","18668","103","5","1","win","go","0"
"pit-trial","222","1435817","0.0-108.0","battery-v0.2","","""event"",""trial"",""time""
""fullscreenenter"",""1"",""1513""
","
","
","""event"",""trial"",""time""
""fullscreenenter"",""1"",""1513""
","
","","","818.3000000119209","","","23","18668","6940","d","elianto","#3366ff99","-1"," ","0","0","[1669]","1","2","","","18668","104","8","2","win","no-go","0"
"pit-trial","223","1440651","0.0-109.0","battery-v0.2","","""event"",""trial"",""time""
""fullscreenenter"",""1"",""1513""
","
","
","""event"",""trial"",""time""
""fullscreenenter"",""1"",""1513""
","
","","","1980.2999999821186","","","23","18668","6940","j","elianto","#3366ff99","-1"," ","0","0","[2831]","1","2","","","18668","105","9","2","win","no-go","0"
"pit-trial","224","1444216","0.0-110.0","battery-v0.2","","""event"",""trial"",""time""
""fullscreenenter"",""1"",""1513""
","
","
","""event"",""trial"",""time""
""fullscreenenter"",""1"",""1513""
","
","","","711.4000000059605","","","23","18668","6940","s","elianto","#3366ff99"," "," ","1","+10","[1561.800000011921]","1","2","","","18668","106","5","1","win","go","0"
"pit-trial","225","1449070","0.0-111.0","battery-v0.2","","""event"",""trial"",""time""
""fullscreenenter"",""1"",""1513""
","
","
","""event"",""trial"",""time""
""fullscreenenter"",""1"",""1513""
","
","","","-1","","","23","18668","6940","w","elianto","#f73b6a7A","-1","-1","1","0","[]","0","2","","","18668","107","6","4","lose","no-go","0"
"pit-trial","226","1453924","0.0-112.0","battery-v0.2","","""event"",""trial"",""time""
""fullscreenenter"",""1"",""1513""
","
","
","""event"",""trial"",""time""
""fullscreenenter"",""1"",""1513""
","
","","","-1","","","23","18668","6940","d","elianto","#3366ff99","-1","-1","1","+10","[]","0","2","","","18668","108","8","2","win","no-go","0"
"pit-trial","227","1457504","0.0-113.0","battery-v0.2","","""event"",""trial"",""time""
""fullscreenenter"",""1"",""1513""
","
","
","""event"",""trial"",""time""
""fullscreenenter"",""1"",""1513""
","
","","","727.3999999761581","","","23","18668","6940","d","elianto","#3366ff99","-1"," ","0","+10","[1577.5]","1","2","","","18668","109","8","2","win","no-go","1"
"pit-trial","228","1461423","0.0-114.0","battery-v0.2","","""event"",""trial"",""time""
""fullscreenenter"",""1"",""1513""
","
","
","""event"",""trial"",""time""
""fullscreenenter"",""1"",""1513""
","
","","","1064.9000000059605","","","23","18668","6940","s","elianto","#3366ff99"," "," ","1","0","[1915.800000011921]","1","2","","","18668","110","5","1","win","go","1"
"pit-trial","229","1466278","0.0-115.0","battery-v0.2","","""event"",""trial"",""time""
""fullscreenenter"",""1"",""1513""
","
","
","""event"",""trial"",""time""
""fullscreenenter"",""1"",""1513""
","
","","","-1","","","23","18668","6940","j","elianto","#3366ff99","-1","-1","1","+10","[]","0","2","","","18668","111","9","2","win","no-go","0"
"pit-trial","230","1471131","0.0-116.0","battery-v0.2","","""event"",""trial"",""time""
""fullscreenenter"",""1"",""1513""
","
","
","""event"",""trial"",""time""
""fullscreenenter"",""1"",""1513""
","
","","","-1","","","23","18668","6940","w","elianto","#f73b6a7A","-1","-1","1","0","[]","0","2","","","18668","112","6","4","lose","no-go","0"
"pit-trial","231","1474845","0.0-117.0","battery-v0.2","","""event"",""trial"",""time""
""fullscreenenter"",""1"",""1513""
","
","
","""event"",""trial"",""time""
""fullscreenenter"",""1"",""1513""
","
","","","860.4000000059605","","","23","18668","6940","d","elianto","#3366ff99","-1"," ","0","0","[1711.2999999821186]","1","2","","","18668","113","8","2","win","no-go","0"
"pit-trial","232","1479700","0.0-118.0","battery-v0.2","","""event"",""trial"",""time""
""fullscreenenter"",""1"",""1513""
","
","
","""event"",""trial"",""time""
""fullscreenenter"",""1"",""1513""
","
","","","-1","","","23","18668","6940","j","elianto","#3366ff99","-1","-1","1","+10","[]","0","2","","","18668","114","9","2","win","no-go","0"
"pit-trial","233","1484553","0.0-119.0","battery-v0.2","","""event"",""trial"",""time""
""fullscreenenter"",""1"",""1513""
","
","
","""event"",""trial"",""time""
""fullscreenenter"",""1"",""1513""
","
","","","-1","","","23","18668","6940","e","elianto","#f73b6a7A"," ","-1","0","-10","[]","0","2","","","18668","115","7","3","lose","go","0"
"pit-trial","234","1488166","0.0-120.0","battery-v0.2","","""event"",""trial"",""time""
""fullscreenenter"",""1"",""1513""
","
","
","""event"",""trial"",""time""
""fullscreenenter"",""1"",""1513""
","
","","","758.8000000119209","","","23","18668","6940","s","elianto","#3366ff99"," "," ","1","+10","[1609.0999999940395]","1","2","","","18668","116","5","1","win","go","0"
"pit-trial","235","1491781","0.0-121.0","battery-v0.2","","""event"",""trial"",""time""
""fullscreenenter"",""1"",""1513""
","
","
","""event"",""trial"",""time""
""fullscreenenter"",""1"",""1513""
","
","","","757.0999999940395","","","23","18668","6940","s","elianto","#3366ff99"," "," ","1","+10","[1611.699999988079]","1","2","","","18668","117","5","1","win","go","0"
"pit-trial","236","1496635","0.0-122.0","battery-v0.2","","""event"",""trial"",""time""
""fullscreenenter"",""1"",""1513""
","
","
","""event"",""trial"",""time""
""fullscreenenter"",""1"",""1513""
","
","","","-1","","","23","18668","6940","w","elianto","#f73b6a7A","-1","-1","1","0","[]","0","2","","","18668","118","6","4","lose","no-go","0"
"pit-trial","237","1500222","0.0-123.0","battery-v0.2","","""event"",""trial"",""time""
""fullscreenenter"",""1"",""1513""
","
","
","""event"",""trial"",""time""
""fullscreenenter"",""1"",""1513""
","
","","","734.5999999940395","","","23","18668","6940","d","elianto","#3366ff99","-1"," ","0","0","[1585.0999999940395]","1","2","","","18668","119","8","2","win","no-go","0"
"pit-trial","238","1504386","0.0-124.0","battery-v0.2","","""event"",""trial"",""time""
""fullscreenenter"",""1"",""1513""
","
","
","""event"",""trial"",""time""
""fullscreenenter"",""1"",""1513""
","
","","","1312","","","23","18668","6940","j","elianto","#3366ff99","-1"," ","0","0","[2162.9000000059605]","1","2","","","18668","120","9","2","win","no-go","0"
"pit-trial","239","1508086","0.0-125.0","battery-v0.2","","""event"",""trial"",""time""
""fullscreenenter"",""1"",""1513""
","
","
","""event"",""trial"",""time""
""fullscreenenter"",""1"",""1513""
","
","","","844.2999999821186","","","23","18668","6940","s","elianto","#3366ff99"," "," ","1","+10","[1696.199999988079]","1","2","","","18668","121","5","1","win","go","0"
"pit-trial","240","1511774","0.0-126.0","battery-v0.2","","""event"",""trial"",""time""
""fullscreenenter"",""1"",""1513""
","
","
","""event"",""trial"",""time""
""fullscreenenter"",""1"",""1513""
","
","","","833.7000000178814","","","23","18668","6940","j","elianto","#3366ff99","-1"," ","0","0","[1684.4000000059605]","1","2","","","18668","122","9","2","win","no-go","0"
"pit-trial","241","1515683","0.0-127.0","battery-v0.2","","""event"",""trial"",""time""
""fullscreenenter"",""1"",""1513""
","
","
","""event"",""trial"",""time""
""fullscreenenter"",""1"",""1513""
","
","","","1055","","","23","18668","6940","d","elianto","#3366ff99","-1"," ","0","+10","[1906.2000000178814]","1","2","","","18668","123","8","2","win","no-go","1"
"pit-trial","242","1519797","0.0-128.0","battery-v0.2","","""event"",""trial"",""time""
""fullscreenenter"",""1"",""1513""
","
","
","""event"",""trial"",""time""
""fullscreenenter"",""1"",""1513""
","
","","","1260.199999988079","","","23","18668","6940","e","elianto","#f73b6a7A"," "," ","1","0","[2111.5]","1","2","","","18668","124","7","3","lose","go","0"
"pit-trial","243","1523745","0.0-129.0","battery-v0.2","","""event"",""trial"",""time""
""fullscreenenter"",""1"",""1513""
","
","
","""event"",""trial"",""time""
""fullscreenenter"",""1"",""1513""
","
","","","1093.5","","","23","18668","6940","d","elianto","#3366ff99","-1"," ","0","0","[1944.0999999940395]","1","2","","","18668","125","8","2","win","no-go","0"
"pit-trial","244","1527446","0.0-130.0","battery-v0.2","","""event"",""trial"",""time""
""fullscreenenter"",""1"",""1513""
","
","
","""event"",""trial"",""time""
""fullscreenenter"",""1"",""1513""
","
","","","846.7999999821186","","","23","18668","6940","j","elianto","#3366ff99","-1"," ","0","0","[1697.699999988079]","1","2","","","18668","126","9","2","win","no-go","0"
"pit-trial","245","1532300","0.0-131.0","battery-v0.2","","""event"",""trial"",""time""
""fullscreenenter"",""1"",""1513""
","
","
","""event"",""trial"",""time""
""fullscreenenter"",""1"",""1513""
","
","","","-1","","","23","18668","6940","w","elianto","#f73b6a7A","-1","-1","1","0","[]","0","2","","","18668","127","6","4","lose","no-go","0"
"pit-trial","246","1536665","0.0-132.0","battery-v0.2","","""event"",""trial"",""time""
""fullscreenenter"",""1"",""1513""
","
","
","""event"",""trial"",""time""
""fullscreenenter"",""1"",""1513""
","
","","","1512.5","","","23","18668","6940","e","elianto","#f73b6a7A"," "," ","1","0","[2363.2999999821186]","1","2","","","18668","128","7","3","lose","go","0"
"pit-trial","247","1541519","0.0-133.0","battery-v0.2","","""event"",""trial"",""time""
""fullscreenenter"",""1"",""1513""
","
","
","""event"",""trial"",""time""
""fullscreenenter"",""1"",""1513""
","
","","","-1","","","23","18668","6940","e","elianto","#f73b6a7A"," ","-1","0","-10","[]","0","2","","","18668","129","7","3","lose","go","0"
"pit-trial","248","1545059","0.0-134.0","battery-v0.2","","""event"",""trial"",""time""
""fullscreenenter"",""1"",""1513""
","
","
","""event"",""trial"",""time""
""fullscreenenter"",""1"",""1513""
","
","","","680.5","","","23","18668","6940","j","elianto","#3366ff99","-1"," ","0","0","[1537.5999999940395]","1","2","","","18668","130","9","2","win","no-go","0"
"pit-trial","249","1549890","0.0-135.0","battery-v0.2","","""event"",""trial"",""time""
""fullscreenenter"",""1"",""1513""
","
","
","""event"",""trial"",""time""
""fullscreenenter"",""1"",""1513""
","
","","","1976","","","23","18668","6940","d","elianto","#3366ff99","-1"," ","0","0","[2826.9000000059605]","1","2","","","18668","131","8","2","win","no-go","0"
"pit-trial","250","1554744","0.0-136.0","battery-v0.2","","""event"",""trial"",""time""
""fullscreenenter"",""1"",""1513""
","
","
","""event"",""trial"",""time""
""fullscreenenter"",""1"",""1513""
","
","","","-1","","","23","18668","6940","w","elianto","#f73b6a7A","-1","-1","1","0","[]","0","2","","","18668","132","6","4","lose","no-go","0"
"pit-trial","251","1559554","0.0-137.0","battery-v0.2","","""event"",""trial"",""time""
""fullscreenenter"",""1"",""1513""
","
","
","""event"",""trial"",""time""
""fullscreenenter"",""1"",""1513""
","
","","","1956","","","23","18668","6940","d","elianto","#3366ff99","-1"," ","0","0","[2806.5]","1","2","","","18668","133","8","2","win","no-go","0"
"pit-trial","252","1564408","0.0-138.0","battery-v0.2","","""event"",""trial"",""time""
""fullscreenenter"",""1"",""1513""
","
","
","""event"",""trial"",""time""
""fullscreenenter"",""1"",""1513""
","
","","","-1","","","23","18668","6940","j","elianto","#3366ff99","-1","-1","1","+10","[]","0","2","","","18668","134","9","2","win","no-go","0"
"pit-trial","253","1569262","0.0-139.0","battery-v0.2","","""event"",""trial"",""time""
""fullscreenenter"",""1"",""1513""
","
","
","""event"",""trial"",""time""
""fullscreenenter"",""1"",""1513""
","
","","","-1","","","23","18668","6940","w","elianto","#f73b6a7A","-1","-1","1","0","[]","0","2","","","18668","135","6","4","lose","no-go","0"
"pit-trial","254","1573157","0.0-140.0","battery-v0.2","","""event"",""trial"",""time""
""fullscreenenter"",""1"",""1513""
","
","
","""event"",""trial"",""time""
""fullscreenenter"",""1"",""1513""
","
","","","1041.300000011921","","","23","18668","6940","e","elianto","#f73b6a7A"," "," ","1","-10","[1891.800000011921]","1","2","","","18668","136","7","3","lose","go","1"
"pit-trial","255","1577477","0.0-141.0","battery-v0.2","","""event"",""trial"",""time""
""fullscreenenter"",""1"",""1513""
","
","
","""event"",""trial"",""time""
""fullscreenenter"",""1"",""1513""
","
","","","1466.699999988079","","","23","18668","6940","d","elianto","#3366ff99","-1"," ","0","0","[2317.5]","1","2","","","18668","137","8","2","win","no-go","0"
"pit-trial","256","1582331","0.0-142.0","battery-v0.2","","""event"",""trial"",""time""
""fullscreenenter"",""1"",""1513""
","
","
","""event"",""trial"",""time""
""fullscreenenter"",""1"",""1513""
","
","","","-1","","","23","18668","6940","j","elianto","#3366ff99","-1","-1","1","+10","[]","0","2","","","18668","138","9","2","win","no-go","0"
"pit-trial","257","1586099","0.0-143.0","battery-v0.2","","""event"",""trial"",""time""
""fullscreenenter"",""1"",""1513""
","
","
","""event"",""trial"",""time""
""fullscreenenter"",""1"",""1513""
","
","","","914.5999999940395","","","23","18668","6940","e","elianto","#f73b6a7A"," "," ","1","0","[1765.3999999761581]","1","2","","","18668","139","7","3","lose","go","0"
"pit-trial","258","1590951","0.0-144.0","battery-v0.2","","""event"",""trial"",""time""
""fullscreenenter"",""1"",""1513""
","
","
","""event"",""trial"",""time""
""fullscreenenter"",""1"",""1513""
","
","","","-1","","","23","18668","6940","w","elianto","#f73b6a7A","-1","-1","1","0","[]","0","2","","","18668","140","6","4","lose","no-go","0"
"pit-instructions","259","1607252","0.0-145.0","battery-v0.2","","""event"",""trial"",""time""
""fullscreenenter"",""1"",""1513""
","
","
","""event"",""trial"",""time""
""fullscreenenter"",""1"",""1513""
","
","","[{""page_index"":0,""viewing_time"":5668.5999999940395},{""page_index"":1,""viewing_time"":10630.5}]","16299.299999982119","","","","","","","","","","","","","","","","","","","","","","","",""
"pit-trial","260","1611057","0.0-146.0","battery-v0.2","","""event"",""trial"",""time""
""fullscreenenter"",""1"",""1513""
","
","
","""event"",""trial"",""time""
""fullscreenenter"",""1"",""1513""
","
","","","943.4000000059605","","","23","18668","6940","r","elianto","#3366ff99","-1"," ","0","0","[1798.5]","1","3","","","18668","141","1","2","win","no-go","0"
"pit-trial","261","1614765","0.0-147.0","battery-v0.2","","""event"",""trial"",""time""
""fullscreenenter"",""1"",""1513""
","
","
","""event"",""trial"",""time""
""fullscreenenter"",""1"",""1513""
","
","","","853.8000000119209","","","23","18668","6940","m","elianto","#f73b6a7A"," "," ","1","0","[1704.5]","1","3","","","18668","142","0","3","lose","go","0"
"pit-trial","262","1618587","0.0-148.0","battery-v0.2","","""event"",""trial"",""time""
""fullscreenenter"",""1"",""1513""
","
","
","""event"",""trial"",""time""
""fullscreenenter"",""1"",""1513""
","
","","","967.5","","","23","18668","6940","h","elianto","#f73b6a7A","-1"," ","0","-10","[1818.199999988079]","1","3","","","18668","143","3","4","lose","no-go","0"
"pit-trial","263","1623304","0.0-149.0","battery-v0.2","","""event"",""trial"",""time""
""fullscreenenter"",""1"",""1513""
","
","
","""event"",""trial"",""time""
""fullscreenenter"",""1"",""1513""
","
","","","1864.7999999821186","","","23","18668","6940","y","elianto","#f73b6a7A"," "," ","1","0","[2714.7999999821186]","1","3","","","18668","144","2","3","lose","go","0"
"pit-trial","264","1627074","0.0-150.0","battery-v0.2","","""event"",""trial"",""time""
""fullscreenenter"",""1"",""1513""
","
","
","""event"",""trial"",""time""
""fullscreenenter"",""1"",""1513""
","
","","","915.7999999821186","","","23","18668","6940","y","elianto","#f73b6a7A"," "," ","1","-10","[1766.699999988079]","1","3","","","18668","145","2","3","lose","go","1"
"pit-trial","265","1630679","0.0-151.0","battery-v0.2","","""event"",""trial"",""time""
""fullscreenenter"",""1"",""1513""
","
","
","""event"",""trial"",""time""
""fullscreenenter"",""1"",""1513""
","
