"trial_type","trial_index","time_elapsed","internal_node_id","task_version","subject_id","interactions","blur_events","focus_events","fullscreenenter_events","fullscreenexit_events","success","view_history","rt","responses","num_errors","age","subject","participantId","rune","rune_set","hex","correct","choice","accuracy","outcome","keys","total_keys","block","practice","value","sub","trial","stimulus","robot","valence","action","sham"
"pavlovia","0","17","0.0-0.0","battery-v0.2","","""event"",""trial"",""time""
""fullscreenenter"",""1"",""3107""
","
","
","""event"",""trial"",""time""
""fullscreenenter"",""1"",""3107""
","
","","","","","","","","","","","","","","","","","","","","","","","","","","",""
"fullscreen","1","4107","0.0-1.0","battery-v0.2","","""event"",""trial"",""time""
""fullscreenenter"",""1"",""3107""
","
","
","""event"",""trial"",""time""
""fullscreenenter"",""1"",""3107""
","
","true","","","","","","","","","","","","","","","","","","","","","","","","","",""
"pit-instructions","2","10247","0.0-2.0-0.0","battery-v0.2","","""event"",""trial"",""time""
""fullscreenenter"",""1"",""3107""
","
","
","""event"",""trial"",""time""
""fullscreenenter"",""1"",""3107""
","
","","[{""page_index"":0,""viewing_time"":6133}]","6133.600000023842","","","","","","","","","","","","","","","","","","","","","","","",""
"pit-comprehension","3","12504","0.0-2.0-1.0-0.0","battery-v0.2","","""event"",""trial"",""time""
""fullscreenenter"",""1"",""3107""
","
","
","""event"",""trial"",""time""
""fullscreenenter"",""1"",""3107""
","
","","","2252.5","[""shark""]","0","20","10881","5251","","","","","","","","","","","","","","","","","","",""
"pit-instructions","4","15698","0.0-2.0-1.0-1.0","battery-v0.2","","""event"",""trial"",""time""
""fullscreenenter"",""1"",""3107""
","
","
","""event"",""trial"",""time""
""fullscreenenter"",""1"",""3107""
","
","","[{""page_index"":0,""viewing_time"":3177.5}]","3177.600000023842","","","","","","","","","","","","","","","","","","","","","","","",""
"pit-comprehension","5","18745","0.0-2.0-2.0-0.0","battery-v0.2","","""event"",""trial"",""time""
""fullscreenenter"",""1"",""3107""
","
","
","""event"",""trial"",""time""
""fullscreenenter"",""1"",""3107""
","
","","","3042.600000023842","[""tiger""]","0","20","10881","5251","","","","","","","","","","","","","","","","","","",""
"pit-instructions","6","20238","0.0-2.0-2.0-1.0","battery-v0.2","","""event"",""trial"",""time""
""fullscreenenter"",""1"",""3107""
","
","
","""event"",""trial"",""time""
""fullscreenenter"",""1"",""3107""
","
","","[{""page_index"":0,""viewing_time"":1486.5999999642372}]","1487.0999999642372","","","","","","","","","","","","","","","","","","","","","","","",""
"pit-instructions","7","109439","0.0-2.0-3.0","battery-v0.2","","""event"",""trial"",""time""
""fullscreenenter"",""1"",""3107""
","
","
","""event"",""trial"",""time""
""fullscreenenter"",""1"",""3107""
","
","","[{""page_index"":0,""viewing_time"":8685.199999988079},{""page_index"":1,""viewing_time"":5522.5},{""page_index"":2,""viewing_time"":6750.700000047684},{""page_index"":3,""viewing_time"":5011.799999952316},{""page_index"":4,""viewing_time"":5308.200000047684},{""page_index"":5,""viewing_time"":5100.899999976158},{""page_index"":6,""viewing_time"":6396.100000023842},{""page_index"":7,""viewing_time"":6192.799999952316},{""page_index"":8,""viewing_time"":6029.5},{""page_index"":9,""viewing_time"":8135},{""page_index"":10,""viewing_time"":7736.100000023842},{""page_index"":11,""viewing_time"":7389.800000011921},{""page_index"":12,""viewing_time"":6050.699999988079},{""page_index"":13,""viewing_time"":4886.100000023842}]","89196","","","","","","","","","","","","","","","","","","","","","","","",""
"pit-trial","8","112929","0.0-2.0-4.0-0.0","battery-v0.2","","""event"",""trial"",""time""
""fullscreenenter"",""1"",""3107""
","
","
","""event"",""trial"",""time""
""fullscreenenter"",""1"",""3107""
","
","","","626.3999999761581","","","20","10881","5251","&#9784;","elianto","#FFFFF080"," "," ","1","&#10004","[1477.199999988079]","1","0","0","","","","","","","",""
"pit-trial","9","116474","0.0-2.0-4.1-0.1","battery-v0.2","","""event"",""trial"",""time""
""fullscreenenter"",""1"",""3107""
","
","
","""event"",""trial"",""time""
""fullscreenenter"",""1"",""3107""
","
","","","686.6000000238419","","","20","10881","5251","&#9784;","elianto","#FFFFF080"," "," ","1","&#10004","[1538.300000011921]","1","0","0","","","","","","","",""
"pit-trial","10","119877","0.0-2.0-4.2-0.2","battery-v0.2","","""event"",""trial"",""time""
""fullscreenenter"",""1"",""3107""
","
","
","""event"",""trial"",""time""
""fullscreenenter"",""1"",""3107""
","
","","","542.8999999761581","","","20","10881","5251","&#9784;","elianto","#FFFFF080"," "," ","1","&#10004","[1394]","1","0","0","","","","","","","",""
"pit-trial","11","123440","0.0-2.0-4.3-0.3","battery-v0.2","","""event"",""trial"",""time""
""fullscreenenter"",""1"",""3107""
","
","
","""event"",""trial"",""time""
""fullscreenenter"",""1"",""3107""
","
","","","702.3999999761581","","","20","10881","5251","&#9784;","elianto","#FFFFF080"," "," ","1","&#10004","[1554.300000011921]","1","0","0","","","","","","","",""
"pit-trial","12","126901","0.0-2.0-4.4-0.4","battery-v0.2","","""event"",""trial"",""time""
""fullscreenenter"",""1"",""3107""
","
","
","""event"",""trial"",""time""
""fullscreenenter"",""1"",""3107""
","
","","","603.6999999880791","","","20","10881","5251","&#9784;","elianto","#FFFFF080"," "," ","1","&#10004","[1454.5999999642372]","1","0","0","","","","","","","",""
"pit-instructions","13","147208","0.0-2.0-5.0","battery-v0.2","","""event"",""trial"",""time""
""fullscreenenter"",""1"",""3107""
","
","
","""event"",""trial"",""time""
""fullscreenenter"",""1"",""3107""
","
","","[{""page_index"":0,""viewing_time"":4575.899999976158},{""page_index"":1,""viewing_time"":5892.199999988079},{""page_index"":2,""viewing_time"":4621.100000023842},{""page_index"":3,""viewing_time"":5212.5}]","20302.19999998808","","","","","","","","","","","","","","","","","","","","","","","",""
"pit-trial","14","152065","0.0-2.0-6.0-0.0","battery-v0.2","","""event"",""trial"",""time""
""fullscreenenter"",""1"",""3107""
","
","
","""event"",""trial"",""time""
""fullscreenenter"",""1"",""3107""
","
","","","-1","","","20","10881","5251","&#9854;","elianto","#FFFFF080","-1","-1","1","&#10004","[]","0","0","1","","","","","","","",""
"pit-trial","15","156923","0.0-2.0-6.1-0.1","battery-v0.2","","""event"",""trial"",""time""
""fullscreenenter"",""1"",""3107""
","
","
","""event"",""trial"",""time""
""fullscreenenter"",""1"",""3107""
","
","","","-1","","","20","10881","5251","&#9854;","elianto","#FFFFF080","-1","-1","1","&#10004","[]","0","0","1","","","","","","","",""
"pit-trial","16","161782","0.0-2.0-6.2-0.2","battery-v0.2","","""event"",""trial"",""time""
""fullscreenenter"",""1"",""3107""
","
","
","""event"",""trial"",""time""
""fullscreenenter"",""1"",""3107""
","
","","","-1","","","20","10881","5251","&#9854;","elianto","#FFFFF080","-1","-1","1","&#10004","[]","0","0","1","","","","","","","",""
"pit-trial","17","166641","0.0-2.0-6.3-0.3","battery-v0.2","","""event"",""trial"",""time""
""fullscreenenter"",""1"",""3107""
","
","
","""event"",""trial"",""time""
""fullscreenenter"",""1"",""3107""
","
","","","-1","","","20","10881","5251","&#9854;","elianto","#FFFFF080","-1","-1","1","&#10004","[]","0","0","1","","","","","","","",""
"pit-trial","18","171498","0.0-2.0-6.4-0.4","battery-v0.2","","""event"",""trial"",""time""
""fullscreenenter"",""1"",""3107""
","
","
","""event"",""trial"",""time""
""fullscreenenter"",""1"",""3107""
","
","","","-1","","","20","10881","5251","&#9854;","elianto","#FFFFF080","-1","-1","1","&#10004","[]","0","0","1","","","","","","","",""
"pit-instructions","19","282001","0.0-2.0-7.0","battery-v0.2","","""event"",""trial"",""time""
""fullscreenenter"",""1"",""3107""
","
","
","""event"",""trial"",""time""
""fullscreenenter"",""1"",""3107""
","
","","[{""page_index"":0,""viewing_time"":5666.199999988079},{""page_index"":1,""viewing_time"":6710},{""page_index"":2,""viewing_time"":5824.300000011921},{""page_index"":3,""viewing_time"":5819.399999976158},{""page_index"":4,""viewing_time"":5854.400000035763},{""page_index"":5,""viewing_time"":5073.5},{""page_index"":6,""viewing_time"":4168.399999976158},{""page_index"":7,""viewing_time"":7211},{""page_index"":8,""viewing_time"":6028.800000011921},{""page_index"":9,""viewing_time"":5107.699999988079},{""page_index"":10,""viewing_time"":6277.5},{""page_index"":11,""viewing_time"":4207.699999988079},{""page_index"":12,""viewing_time"":6436.400000035763},{""page_index"":13,""viewing_time"":6883.5},{""page_index"":14,""viewing_time"":8711.599999964237},{""page_index"":15,""viewing_time"":6525.600000023842},{""page_index"":16,""viewing_time"":7095.600000023842},{""page_index"":17,""viewing_time"":6893.199999988079}]","110496.39999997616","","","","","","","","","","","","","","","","","","","","","","","",""
"pit-trial","20","285367","0.0-2.0-8.0-0.0","battery-v0.2","","""event"",""trial"",""time""
""fullscreenenter"",""1"",""3107""
","
","
","""event"",""trial"",""time""
""fullscreenenter"",""1"",""3107""
","
","","","508.80000001192093","","","20","10881","5251","&#9776;","elianto","#3366ff99"," "," ","1","+10","[1360.300000011921]","1","0","1","","","","","","","",""
"pit-trial","21","288757","0.0-2.0-8.0-1.0","battery-v0.2","","""event"",""trial"",""time""
""fullscreenenter"",""1"",""3107""
","
","
","""event"",""trial"",""time""
""fullscreenenter"",""1"",""3107""
","
","","","531.0999999642372","","","20","10881","5251","&#9776;","elianto","#3366ff99"," "," ","1","+10","[1383]","1","0","1","","","","","","","",""
"pit-trial","22","292054","0.0-2.0-8.0-2.0","battery-v0.2","","""event"",""trial"",""time""
""fullscreenenter"",""1"",""3107""
","
","
","""event"",""trial"",""time""
""fullscreenenter"",""1"",""3107""
","
","","","443.30000001192093","","","20","10881","5251","&#9776;","elianto","#3366ff99"," "," ","1","+10","[1293.5]","1","0","1","","","","","","","",""
"pit-trial","23","295456","0.0-2.0-8.0-3.0","battery-v0.2","","""event"",""trial"",""time""
""fullscreenenter"",""1"",""3107""
","
","
","""event"",""trial"",""time""
""fullscreenenter"",""1"",""3107""
","
","","","539.3999999761581","","","20","10881","5251","&#9776;","elianto","#3366ff99"," "," ","1","0","[1394.199999988079]","1","0","1","","","","","","","",""
"pit-trial","24","298562","0.0-2.0-8.0-4.0","battery-v0.2","","""event"",""trial"",""time""
""fullscreenenter"",""1"",""3107""
","
","
","""event"",""trial"",""time""
""fullscreenenter"",""1"",""3107""
","
","","","247.70000004768372","","","20","10881","5251","&#9776;","elianto","#3366ff99"," "," ","1","+10","[1100]","1","0","1","","","","","","","",""
"pit-trial","25","301784","0.0-2.0-8.1-0.1","battery-v0.2","","""event"",""trial"",""time""
""fullscreenenter"",""1"",""3107""
","
","
","""event"",""trial"",""time""
""fullscreenenter"",""1"",""3107""
","
","","","367.30000001192093","","","20","10881","5251","&#9776;","elianto","#3366ff99"," "," ","1","+10","[1218.5999999642372]","1","0","1","","","","","","","",""
"pit-trial","26","305093","0.0-2.0-8.1-1.1","battery-v0.2","","""event"",""trial"",""time""
""fullscreenenter"",""1"",""3107""
","
","
","""event"",""trial"",""time""
""fullscreenenter"",""1"",""3107""
","
","","","451.0999999642372","","","20","10881","5251","&#9776;","elianto","#3366ff99"," "," ","1","+10","[1302.7999999523163]","1","0","1","","","","","","","",""
"pit-trial","27","308390","0.0-2.0-8.1-2.1","battery-v0.2","","""event"",""trial"",""time""
""fullscreenenter"",""1"",""3107""
","
","
","""event"",""trial"",""time""
""fullscreenenter"",""1"",""3107""
","
","","","440","","","20","10881","5251","&#9776;","elianto","#3366ff99"," "," ","1","+10","[1290.800000011921]","1","0","1","","","","","","","",""
"pit-trial","28","311828","0.0-2.0-8.1-3.1","battery-v0.2","","""event"",""trial"",""time""
""fullscreenenter"",""1"",""3107""
","
","
","""event"",""trial"",""time""
""fullscreenenter"",""1"",""3107""
","
","","","581.3000000119209","","","20","10881","5251","&#9776;","elianto","#3366ff99"," "," ","1","0","[1434.199999988079]","1","0","1","","","","","","","",""
"pit-trial","29","315039","0.0-2.0-8.1-4.1","battery-v0.2","","""event"",""trial"",""time""
""fullscreenenter"",""1"",""3107""
","
","
","""event"",""trial"",""time""
""fullscreenenter"",""1"",""3107""
","
","","","358.10000002384186","","","20","10881","5251","&#9776;","elianto","#3366ff99"," "," ","1","+10","[1208.800000011921]","1","0","1","","","","","","","",""
"pit-trial","30","318295","0.0-2.0-8.2-0.2","battery-v0.2","","""event"",""trial"",""time""
""fullscreenenter"",""1"",""3107""
","
","
","""event"",""trial"",""time""
""fullscreenenter"",""1"",""3107""
","
","","","395.5999999642372","","","20","10881","5251","&#9776;","elianto","#3366ff99"," "," ","1","+10","[1247]","1","0","1","","","","","","","",""
"pit-trial","31","321517","0.0-2.0-8.2-1.2","battery-v0.2","","""event"",""trial"",""time""
""fullscreenenter"",""1"",""3107""
","
","
","""event"",""trial"",""time""
""fullscreenenter"",""1"",""3107""
","
","","","365.9000000357628","","","20","10881","5251","&#9776;","elianto","#3366ff99"," "," ","1","+10","[1216.5]","1","0","1","","","","","","","",""
"pit-trial","32","324727","0.0-2.0-8.2-2.2","battery-v0.2","","""event"",""trial"",""time""
""fullscreenenter"",""1"",""3107""
","
","
","""event"",""trial"",""time""
""fullscreenenter"",""1"",""3107""
","
","","","351.80000001192093","","","20","10881","5251","&#9776;","elianto","#3366ff99"," "," ","1","+10","[1203]","1","0","1","","","","","","","",""
"pit-trial","33","328041","0.0-2.0-8.2-3.2","battery-v0.2","","""event"",""trial"",""time""
""fullscreenenter"",""1"",""3107""
","
","
","""event"",""trial"",""time""
""fullscreenenter"",""1"",""3107""
","
","","","456.0999999642372","","","20","10881","5251","&#9776;","elianto","#3366ff99"," "," ","1","0","[1306.699999988079]","1","0","1","","","","","","","",""
"pit-trial","34","331228","0.0-2.0-8.2-4.2","battery-v0.2","","""event"",""trial"",""time""
""fullscreenenter"",""1"",""3107""
","
","
","""event"",""trial"",""time""
""fullscreenenter"",""1"",""3107""
","
","","","326","","","20","10881","5251","&#9776;","elianto","#3366ff99"," "," ","1","+10","[1178.8999999761581]","1","0","1","","","","","","","",""
"call-function","35","331230","0.0-2.0-9.0","battery-v0.2","","""event"",""trial"",""time""
""fullscreenenter"",""1"",""3107""
","
","
","""event"",""trial"",""time""
""fullscreenenter"",""1"",""3107""
","
","","","","","","","","","","","","","","","","","","","","","","","","","","",""
"pit-instructions","36","369867","0.0-2.0-10.0","battery-v0.2","","""event"",""trial"",""time""
""fullscreenenter"",""1"",""3107""
","
","
","""event"",""trial"",""time""
""fullscreenenter"",""1"",""3107""
","
","","[{""page_index"":0,""viewing_time"":5599.400000035763},{""page_index"":1,""viewing_time"":6974.599999964237},{""page_index"":2,""viewing_time"":10445.200000047684},{""page_index"":3,""viewing_time"":8443.399999976158},{""page_index"":4,""viewing_time"":7172.199999988079}]","38635.30000001192","","","","","","","","","","","","","","","","","","","","","","","",""
"pit-trial","37","374725","0.0-2.0-11.0-0.0","battery-v0.2","","""event"",""trial"",""time""
""fullscreenenter"",""1"",""3107""
","
","
","""event"",""trial"",""time""
""fullscreenenter"",""1"",""3107""
","
","","","-1","","","20","10881","5251","&#9761;","elianto","#3366ff99","-1","-1","1","+10","[]","0","0","2","","","","","","","",""
"pit-trial","38","379584","0.0-2.0-11.0-1.0","battery-v0.2","","""event"",""trial"",""time""
""fullscreenenter"",""1"",""3107""
","
","
","""event"",""trial"",""time""
""fullscreenenter"",""1"",""3107""
","
","","","-1","","","20","10881","5251","&#9761;","elianto","#3366ff99","-1","-1","1","+10","[]","0","0","2","","","","","","","",""
"pit-trial","39","384444","0.0-2.0-11.0-2.0","battery-v0.2","","""event"",""trial"",""time""
""fullscreenenter"",""1"",""3107""
","
","
","""event"",""trial"",""time""
""fullscreenenter"",""1"",""3107""
","
","","","-1","","","20","10881","5251","&#9761;","elianto","#3366ff99","-1","-1","1","+10","[]","0","0","2","","","","","","","",""
"pit-trial","40","389301","0.0-2.0-11.0-3.0","battery-v0.2","","""event"",""trial"",""time""
""fullscreenenter"",""1"",""3107""
","
","
","""event"",""trial"",""time""
""fullscreenenter"",""1"",""3107""
","
","","","-1","","","20","10881","5251","&#9761;","elianto","#3366ff99","-1","-1","1","0","[]","0","0","2","","","","","","","",""
"pit-trial","41","394160","0.0-2.0-11.0-4.0","battery-v0.2","","""event"",""trial"",""time""
""fullscreenenter"",""1"",""3107""
","
","
","""event"",""trial"",""time""
""fullscreenenter"",""1"",""3107""
","
","","","-1","","","20","10881","5251","&#9761;","elianto","#3366ff99","-1","-1","1","+10","[]","0","0","2","","","","","","","",""
"pit-trial","42","399019","0.0-2.0-11.1-0.1","battery-v0.2","","""event"",""trial"",""time""
""fullscreenenter"",""1"",""3107""
","
","
","""event"",""trial"",""time""
""fullscreenenter"",""1"",""3107""
","
","","","-1","","","20","10881","5251","&#9761;","elianto","#3366ff99","-1","-1","1","+10","[]","0","0","2","","","","","","","",""
"pit-trial","43","403882","0.0-2.0-11.1-1.1","battery-v0.2","","""event"",""trial"",""time""
""fullscreenenter"",""1"",""3107""
","
","
","""event"",""trial"",""time""
""fullscreenenter"",""1"",""3107""
","
","","","-1","","","20","10881","5251","&#9761;","elianto","#3366ff99","-1","-1","1","+10","[]","0","0","2","","","","","","","",""
"pit-trial","44","408740","0.0-2.0-11.1-2.1","battery-v0.2","","""event"",""trial"",""time""
""fullscreenenter"",""1"",""3107""
","
","
","""event"",""trial"",""time""
""fullscreenenter"",""1"",""3107""
","
","","","-1","","","20","10881","5251","&#9761;","elianto","#3366ff99","-1","-1","1","+10","[]","0","0","2","","","","","","","",""
"pit-trial","45","413599","0.0-2.0-11.1-3.1","battery-v0.2","","""event"",""trial"",""time""
""fullscreenenter"",""1"",""3107""
","
","
","""event"",""trial"",""time""
""fullscreenenter"",""1"",""3107""
","
","","","-1","","","20","10881","5251","&#9761;","elianto","#3366ff99","-1","-1","1","0","[]","0","0","2","","","","","","","",""
"pit-trial","46","418462","0.0-2.0-11.1-4.1","battery-v0.2","","""event"",""trial"",""time""
""fullscreenenter"",""1"",""3107""
","
","
","""event"",""trial"",""time""
""fullscreenenter"",""1"",""3107""
","
","","","-1","","","20","10881","5251","&#9761;","elianto","#3366ff99","-1","-1","1","+10","[]","0","0","2","","","","","","","",""
"pit-trial","47","423320","0.0-2.0-11.2-0.2","battery-v0.2","","""event"",""trial"",""time""
""fullscreenenter"",""1"",""3107""
","
","
","""event"",""trial"",""time""
""fullscreenenter"",""1"",""3107""
","
","","","-1","","","20","10881","5251","&#9761;","elianto","#3366ff99","-1","-1","1","+10","[]","0","0","2","","","","","","","",""
"pit-trial","48","428179","0.0-2.0-11.2-1.2","battery-v0.2","","""event"",""trial"",""time""
""fullscreenenter"",""1"",""3107""
","
","
","""event"",""trial"",""time""
""fullscreenenter"",""1"",""3107""
","
","","","-1","","","20","10881","5251","&#9761;","elianto","#3366ff99","-1","-1","1","+10","[]","0","0","2","","","","","","","",""
"pit-trial","49","433036","0.0-2.0-11.2-2.2","battery-v0.2","","""event"",""trial"",""time""
""fullscreenenter"",""1"",""3107""
","
","
","""event"",""trial"",""time""
""fullscreenenter"",""1"",""3107""
","
","","","-1","","","20","10881","5251","&#9761;","elianto","#3366ff99","-1","-1","1","+10","[]","0","0","2","","","","","","","",""
"pit-trial","50","437897","0.0-2.0-11.2-3.2","battery-v0.2","","""event"",""trial"",""time""
""fullscreenenter"",""1"",""3107""
","
","
","""event"",""trial"",""time""
""fullscreenenter"",""1"",""3107""
","
","","","-1","","","20","10881","5251","&#9761;","elianto","#3366ff99","-1","-1","1","0","[]","0","0","2","","","","","","","",""
"pit-trial","51","442756","0.0-2.0-11.2-4.2","battery-v0.2","","""event"",""trial"",""time""
""fullscreenenter"",""1"",""3107""
","
","
","""event"",""trial"",""time""
""fullscreenenter"",""1"",""3107""
","
","","","-1","","","20","10881","5251","&#9761;","elianto","#3366ff99","-1","-1","1","+10","[]","0","0","2","","","","","","","",""
"pit-trial","52","447615","0.0-2.0-11.3-0.3","battery-v0.2","","""event"",""trial"",""time""
""fullscreenenter"",""1"",""3107""
","
","
","""event"",""trial"",""time""
""fullscreenenter"",""1"",""3107""
","
","","","-1","","","20","10881","5251","&#9761;","elianto","#3366ff99","-1","-1","1","+10","[]","0","0","2","","","","","","","",""
"pit-trial","53","452474","0.0-2.0-11.3-1.3","battery-v0.2","","""event"",""trial"",""time""
""fullscreenenter"",""1"",""3107""
","
","
","""event"",""trial"",""time""
""fullscreenenter"",""1"",""3107""
","
","","","-1","","","20","10881","5251","&#9761;","elianto","#3366ff99","-1","-1","1","+10","[]","0","0","2","","","","","","","",""
"pit-trial","54","457331","0.0-2.0-11.3-2.3","battery-v0.2","","""event"",""trial"",""time""
""fullscreenenter"",""1"",""3107""
","
","
","""event"",""trial"",""time""
""fullscreenenter"",""1"",""3107""
","
","","","-1","","","20","10881","5251","&#9761;","elianto","#3366ff99","-1","-1","1","+10","[]","0","0","2","","","","","","","",""
"pit-trial","55","462190","0.0-2.0-11.3-3.3","battery-v0.2","","""event"",""trial"",""time""
""fullscreenenter"",""1"",""3107""
","
","
","""event"",""trial"",""time""
""fullscreenenter"",""1"",""3107""
","
","","","-1","","","20","10881","5251","&#9761;","elianto","#3366ff99","-1","-1","1","0","[]","0","0","2","","","","","","","",""
"pit-trial","56","467050","0.0-2.0-11.3-4.3","battery-v0.2","","""event"",""trial"",""time""
""fullscreenenter"",""1"",""3107""
","
","
","""event"",""trial"",""time""
""fullscreenenter"",""1"",""3107""
","
","","","-1","","","20","10881","5251","&#9761;","elianto","#3366ff99","-1","-1","1","+10","[]","0","0","2","","","","","","","",""
"call-function","57","467052","0.0-2.0-12.0","battery-v0.2","","""event"",""trial"",""time""
""fullscreenenter"",""1"",""3107""
","
","
","""event"",""trial"",""time""
""fullscreenenter"",""1"",""3107""
","
","","","","","","","","","","","","","","","","","","","","","","","","","","",""
"pit-instructions","58","499838","0.0-2.0-13.0","battery-v0.2","","""event"",""trial"",""time""
""fullscreenenter"",""1"",""3107""
","
","
","""event"",""trial"",""time""
""fullscreenenter"",""1"",""3107""
","
","","[{""page_index"":0,""viewing_time"":5256.099999964237},{""page_index"":1,""viewing_time"":7244},{""page_index"":2,""viewing_time"":3357.5},{""page_index"":3,""viewing_time"":11297.700000047684},{""page_index"":4,""viewing_time"":5627.899999976158}]","32783.89999997616","","","","","","","","","","","","","","","","","","","","","","","",""
"pit-trial","59","503217","0.0-2.0-14.0-0.0","battery-v0.2","","""event"",""trial"",""time""
""fullscreenenter"",""1"",""3107""
","
","
","""event"",""trial"",""time""
""fullscreenenter"",""1"",""3107""
","
","","","518.6000000238419","","","20","10881","5251","&#9826;","elianto","#f73b6a7A","-1"," ","0","-10","[1370.800000011921]","1","0","3","","","","","","","",""
"pit-trial","60","508078","0.0-2.0-14.0-1.0","battery-v0.2","","""event"",""trial"",""time""
""fullscreenenter"",""1"",""3107""
","
","
","""event"",""trial"",""time""
""fullscreenenter"",""1"",""3107""
","
","","","-1","","","20","10881","5251","&#9826;","elianto","#f73b6a7A","-1","-1","1","0","[]","0","0","3","","","","","","","",""
"pit-trial","61","512935","0.0-2.0-14.0-2.0","battery-v0.2","","""event"",""trial"",""time""
""fullscreenenter"",""1"",""3107""
","
","
","""event"",""trial"",""time""
""fullscreenenter"",""1"",""3107""
","
","","","-1","","","20","10881","5251","&#9826;","elianto","#f73b6a7A","-1","-1","1","0","[]","0","0","3","","","","","","","",""
"pit-trial","62","517797","0.0-2.0-14.0-3.0","battery-v0.2","","""event"",""trial"",""time""
""fullscreenenter"",""1"",""3107""
","
","
","""event"",""trial"",""time""
""fullscreenenter"",""1"",""3107""
","
","","","-1","","","20","10881","5251","&#9826;","elianto","#f73b6a7A","-1","-1","1","-10","[]","0","0","3","","","","","","","",""
"pit-trial","63","522659","0.0-2.0-14.0-4.0","battery-v0.2","","""event"",""trial"",""time""
""fullscreenenter"",""1"",""3107""
","
","
","""event"",""trial"",""time""
""fullscreenenter"",""1"",""3107""
","
","","","-1","","","20","10881","5251","&#9826;","elianto","#f73b6a7A","-1","-1","1","0","[]","0","0","3","","","","","","","",""
"pit-trial","64","527517","0.0-2.0-14.1-0.1","battery-v0.2","","""event"",""trial"",""time""
""fullscreenenter"",""1"",""3107""
","
","
","""event"",""trial"",""time""
""fullscreenenter"",""1"",""3107""
","
","","","-1","","","20","10881","5251","&#9826;","elianto","#f73b6a7A","-1","-1","1","0","[]","0","0","3","","","","","","","",""
"pit-trial","65","532374","0.0-2.0-14.1-1.1","battery-v0.2","","""event"",""trial"",""time""
""fullscreenenter"",""1"",""3107""
","
","
","""event"",""trial"",""time""
""fullscreenenter"",""1"",""3107""
","
","","","-1","","","20","10881","5251","&#9826;","elianto","#f73b6a7A","-1","-1","1","0","[]","0","0","3","","","","","","","",""
"pit-trial","66","537231","0.0-2.0-14.1-2.1","battery-v0.2","","""event"",""trial"",""time""
""fullscreenenter"",""1"",""3107""
","
","
","""event"",""trial"",""time""
""fullscreenenter"",""1"",""3107""
","
","","","-1","","","20","10881","5251","&#9826;","elianto","#f73b6a7A","-1","-1","1","0","[]","0","0","3","","","","","","","",""
"pit-trial","67","542090","0.0-2.0-14.1-3.1","battery-v0.2","","""event"",""trial"",""time""
""fullscreenenter"",""1"",""3107""
","
","
","""event"",""trial"",""time""
""fullscreenenter"",""1"",""3107""
","
","","","-1","","","20","10881","5251","&#9826;","elianto","#f73b6a7A","-1","-1","1","-10","[]","0","0","3","","","","","","","",""
"pit-trial","68","546948","0.0-2.0-14.1-4.1","battery-v0.2","","""event"",""trial"",""time""
""fullscreenenter"",""1"",""3107""
","
","
","""event"",""trial"",""time""
""fullscreenenter"",""1"",""3107""
","
","","","-1","","","20","10881","5251","&#9826;","elianto","#f73b6a7A","-1","-1","1","0","[]","0","0","3","","","","","","","",""
"pit-trial","69","551805","0.0-2.0-14.2-0.2","battery-v0.2","","""event"",""trial"",""time""
""fullscreenenter"",""1"",""3107""
","
","
","""event"",""trial"",""time""
""fullscreenenter"",""1"",""3107""
","
","","","-1","","","20","10881","5251","&#9826;","elianto","#f73b6a7A","-1","-1","1","0","[]","0","0","3","","","","","","","",""
"pit-trial","70","556666","0.0-2.0-14.2-1.2","battery-v0.2","","""event"",""trial"",""time""
""fullscreenenter"",""1"",""3107""
","
","
","""event"",""trial"",""time""
""fullscreenenter"",""1"",""3107""
","
","","","-1","","","20","10881","5251","&#9826;","elianto","#f73b6a7A","-1","-1","1","0","[]","0","0","3","","","","","","","",""
"pit-trial","71","561527","0.0-2.0-14.2-2.2","battery-v0.2","","""event"",""trial"",""time""
""fullscreenenter"",""1"",""3107""
","
","
","""event"",""trial"",""time""
""fullscreenenter"",""1"",""3107""
","
","","","-1","","","20","10881","5251","&#9826;","elianto","#f73b6a7A","-1","-1","1","0","[]","0","0","3","","","","","","","",""
"pit-trial","72","566384","0.0-2.0-14.2-3.2","battery-v0.2","","""event"",""trial"",""time""
""fullscreenenter"",""1"",""3107""
","
","
","""event"",""trial"",""time""
""fullscreenenter"",""1"",""3107""
","
","","","-1","","","20","10881","5251","&#9826;","elianto","#f73b6a7A","-1","-1","1","-10","[]","0","0","3","","","","","","","",""
"pit-trial","73","571247","0.0-2.0-14.2-4.2","battery-v0.2","","""event"",""trial"",""time""
""fullscreenenter"",""1"",""3107""
","
","
","""event"",""trial"",""time""
""fullscreenenter"",""1"",""3107""
","
","","","-1","","","20","10881","5251","&#9826;","elianto","#f73b6a7A","-1","-1","1","0","[]","0","0","3","","","","","","","",""
"pit-trial","74","576108","0.0-2.0-14.3-0.3","battery-v0.2","","""event"",""trial"",""time""
""fullscreenenter"",""1"",""3107""
","
","
","""event"",""trial"",""time""
""fullscreenenter"",""1"",""3107""
","
","","","-1","","","20","10881","5251","&#9826;","elianto","#f73b6a7A","-1","-1","1","0","[]","0","0","3","","","","","","","",""
"pit-trial","75","580972","0.0-2.0-14.3-1.3","battery-v0.2","","""event"",""trial"",""time""
""fullscreenenter"",""1"",""3107""
","
","
","""event"",""trial"",""time""
""fullscreenenter"",""1"",""3107""
","
","","","-1","","","20","10881","5251","&#9826;","elianto","#f73b6a7A","-1","-1","1","0","[]","0","0","3","","","","","","","",""
"pit-trial","76","585833","0.0-2.0-14.3-2.3","battery-v0.2","","""event"",""trial"",""time""
""fullscreenenter"",""1"",""3107""
","
","
","""event"",""trial"",""time""
""fullscreenenter"",""1"",""3107""
","
","","","-1","","","20","10881","5251","&#9826;","elianto","#f73b6a7A","-1","-1","1","0","[]","0","0","3","","","","","","","",""
"pit-trial","77","590692","0.0-2.0-14.3-3.3","battery-v0.2","","""event"",""trial"",""time""
""fullscreenenter"",""1"",""3107""
","
","
","""event"",""trial"",""time""
""fullscreenenter"",""1"",""3107""
","
","","","-1","","","20","10881","5251","&#9826;","elianto","#f73b6a7A","-1","-1","1","-10","[]","0","0","3","","","","","","","",""
"pit-trial","78","595548","0.0-2.0-14.3-4.3","battery-v0.2","","""event"",""trial"",""time""
""fullscreenenter"",""1"",""3107""
","
","
","""event"",""trial"",""time""
""fullscreenenter"",""1"",""3107""
","
","","","-1","","","20","10881","5251","&#9826;","elianto","#f73b6a7A","-1","-1","1","0","[]","0","0","3","","","","","","","",""
"call-function","79","595550","0.0-2.0-15.0","battery-v0.2","","""event"",""trial"",""time""
""fullscreenenter"",""1"",""3107""
","
","
","""event"",""trial"",""time""
""fullscreenenter"",""1"",""3107""
","
","","","","","","","","","","","","","","","","","","","","","","","","","","",""
"pit-instructions","80","623088","0.0-2.0-16.0","battery-v0.2","","""event"",""trial"",""time""
""fullscreenenter"",""1"",""3107""
","
","
","""event"",""trial"",""time""
""fullscreenenter"",""1"",""3107""
","
","","[{""page_index"":0,""viewing_time"":8930.199999988079},{""page_index"":1,""viewing_time"":8622},{""page_index"":2,""viewing_time"":4507.399999976158},{""page_index"":3,""viewing_time"":5476.699999988079}]","27536.899999976158","","","","","","","","","","","","","","","","","","","","","","","",""
"pit-trial","81","626419","0.0-2.0-17.0-0.0","battery-v0.2","","""event"",""trial"",""time""
""fullscreenenter"",""1"",""3107""
","
","
","""event"",""trial"",""time""
""fullscreenenter"",""1"",""3107""
","
","","","477.10000002384186","","","20","10881","5251","&#9789;","elianto","#f73b6a7A"," "," ","1","0","[1328.699999988079]","1","0","4","","","","","","","",""
"pit-trial","82","629595","0.0-2.0-17.0-1.0","battery-v0.2","","""event"",""trial"",""time""
""fullscreenenter"",""1"",""3107""
","
","
","""event"",""trial"",""time""
""fullscreenenter"",""1"",""3107""
","
","","","319.19999998807907","","","20","10881","5251","&#9789;","elianto","#f73b6a7A"," "," ","1","0","[1170.800000011921]","1","0","4","","","","","","","",""
"pit-trial","83","632834","0.0-2.0-17.0-2.0","battery-v0.2","","""event"",""trial"",""time""
""fullscreenenter"",""1"",""3107""
","
","
","""event"",""trial"",""time""
""fullscreenenter"",""1"",""3107""
","
","","","380.0999999642372","","","20","10881","5251","&#9789;","elianto","#f73b6a7A"," "," ","1","0","[1231.199999988079]","1","0","4","","","","","","","",""
"pit-trial","84","635887","0.0-2.0-17.0-3.0","battery-v0.2","","""event"",""trial"",""time""
""fullscreenenter"",""1"",""3107""
","
","
","""event"",""trial"",""time""
""fullscreenenter"",""1"",""3107""
","
","","","195.0999999642372","","","20","10881","5251","&#9789;","elianto","#f73b6a7A"," "," ","1","-10","[1046.0999999642372]","1","0","4","","","","","","","",""
"pit-trial","85","639243","0.0-2.0-17.0-4.0","battery-v0.2","","""event"",""trial"",""time""
""fullscreenenter"",""1"",""3107""
","
","
","""event"",""trial"",""time""
""fullscreenenter"",""1"",""3107""
","
","","","498.89999997615814","","","20","10881","5251","&#9789;","elianto","#f73b6a7A"," "," ","1","0","[1349.7000000476837]","1","0","4","","","","","","","",""
"pit-trial","86","642140","0.0-2.0-17.1-0.1","battery-v0.2","","""event"",""trial"",""time""
""fullscreenenter"",""1"",""3107""
","
","
","""event"",""trial"",""time""
""fullscreenenter"",""1"",""3107""
","
","","","38.80000001192093","","","20","10881","5251","&#9789;","elianto","#f73b6a7A"," "," ","1","0","[892.4000000357628]","1","0","4","","","","","","","",""
"pit-trial","87","645216","0.0-2.0-17.1-1.1","battery-v0.2","","""event"",""trial"",""time""
""fullscreenenter"",""1"",""3107""
","
","
","""event"",""trial"",""time""
""fullscreenenter"",""1"",""3107""
","
","","","220.30000001192093","","","20","10881","5251","&#9789;","elianto","#f73b6a7A"," "," ","1","0","[1070.699999988079]","1","0","4","","","","","","","",""
"pit-trial","88","648217","0.0-2.0-17.1-2.1","battery-v0.2","","""event"",""trial"",""time""
""fullscreenenter"",""1"",""3107""
","
","
","""event"",""trial"",""time""
""fullscreenenter"",""1"",""3107""
","
","","","142.60000002384186","","","20","10881","5251","&#9789;","elianto","#f73b6a7A"," "," ","1","0","[994.1000000238419]","1","0","4","","","","","","","",""
"pit-trial","89","651323","0.0-2.0-17.1-3.1","battery-v0.2","","""event"",""trial"",""time""
""fullscreenenter"",""1"",""3107""
","
","
","""event"",""trial"",""time""
""fullscreenenter"",""1"",""3107""
","
","","","246.89999997615814","","","20","10881","5251","&#9789;","elianto","#f73b6a7A"," "," ","1","-10","[1098.2000000476837]","1","0","4","","","","","","","",""
"pit-trial","90","654459","0.0-2.0-17.1-4.1","battery-v0.2","","""event"",""trial"",""time""
""fullscreenenter"",""1"",""3107""
","
","
","""event"",""trial"",""time""
""fullscreenenter"",""1"",""3107""
","
","","","278.30000001192093","","","20","10881","5251","&#9789;","elianto","#f73b6a7A"," "," ","1","0","[1132.300000011921]","1","0","4","","","","","","","",""
"pit-trial","91","657786","0.0-2.0-17.2-0.2","battery-v0.2","","""event"",""trial"",""time""
""fullscreenenter"",""1"",""3107""
","
","
","""event"",""trial"",""time""
""fullscreenenter"",""1"",""3107""
","
","","","473.19999998807907","","","20","10881","5251","&#9789;","elianto","#f73b6a7A"," "," ","1","0","[1324]","1","0","4","","","","","","","",""
"pit-trial","92","660864","0.0-2.0-17.2-1.2","battery-v0.2","","""event"",""trial"",""time""
""fullscreenenter"",""1"",""3107""
","
","
","""event"",""trial"",""time""
""fullscreenenter"",""1"",""3107""
","
","","","223.60000002384186","","","20","10881","5251","&#9789;","elianto","#f73b6a7A"," "," ","1","0","[1075.1000000238419]","1","0","4","","","","","","","",""
"pit-trial","93","663989","0.0-2.0-17.2-2.2","battery-v0.2","","""event"",""trial"",""time""
""fullscreenenter"",""1"",""3107""
","
","
","""event"",""trial"",""time""
""fullscreenenter"",""1"",""3107""
","
","","","266.7000000476837","","","20","10881","5251","&#9789;","elianto","#f73b6a7A"," "," ","1","0","[1117.9000000357628]","1","0","4","","","","","","","",""
"pit-trial","94","667052","0.0-2.0-17.2-3.2","battery-v0.2","","""event"",""trial"",""time""
""fullscreenenter"",""1"",""3107""
","
","
","""event"",""trial"",""time""
""fullscreenenter"",""1"",""3107""
","
","","","207","","","20","10881","5251","&#9789;","elianto","#f73b6a7A"," "," ","1","-10","[1058.1000000238419]","1","0","4","","","","","","","",""
"pit-trial","95","670186","0.0-2.0-17.2-4.2","battery-v0.2","","""event"",""trial"",""time""
""fullscreenenter"",""1"",""3107""
","
","
","""event"",""trial"",""time""
""fullscreenenter"",""1"",""3107""
","
","","","277.30000001192093","","","20","10881","5251","&#9789;","elianto","#f73b6a7A"," "," ","1","0","[1128.9000000357628]","1","0","4","","","","","","","",""
"pit-trial","96","673227","0.0-2.0-17.3-0.3","battery-v0.2","","""event"",""trial"",""time""
""fullscreenenter"",""1"",""3107""
","
","
","""event"",""trial"",""time""
""fullscreenenter"",""1"",""3107""
","
","","","185","","","20","10881","5251","&#9789;","elianto","#f73b6a7A"," "," ","1","0","[1037]","1","0","4","","","","","","","",""
"pit-trial","97","676432","0.0-2.0-17.3-1.3","battery-v0.2","","""event"",""trial"",""time""
""fullscreenenter"",""1"",""3107""
","
","
","""event"",""trial"",""time""
""fullscreenenter"",""1"",""3107""
","
","","","352.5999999642372","","","20","10881","5251","&#9789;","elianto","#f73b6a7A"," "," ","1","0","[1202.699999988079]","1","0","4","","","","","","","",""
"pit-trial","98","679539","0.0-2.0-17.3-2.3","battery-v0.2","","""event"",""trial"",""time""
""fullscreenenter"",""1"",""3107""
","
","
","""event"",""trial"",""time""
""fullscreenenter"",""1"",""3107""
","
","","","249.30000001192093","","","20","10881","5251","&#9789;","elianto","#f73b6a7A"," "," ","1","0","[1100.3999999761581]","1","0","4","","","","","","","",""
"pit-trial","99","682566","0.0-2.0-17.3-3.3","battery-v0.2","","""event"",""trial"",""time""
""fullscreenenter"",""1"",""3107""
","
","
","""event"",""trial"",""time""
""fullscreenenter"",""1"",""3107""
","
","","","170.9000000357628","","","20","10881","5251","&#9789;","elianto","#f73b6a7A"," "," ","1","-10","[1022.3000000119209]","1","0","4","","","","","","","",""
"pit-trial","100","685589","0.0-2.0-17.3-4.3","battery-v0.2","","""event"",""trial"",""time""
""fullscreenenter"",""1"",""3107""
","
","
","""event"",""trial"",""time""
""fullscreenenter"",""1"",""3107""
","
","","","166.30000001192093","","","20","10881","5251","&#9789;","elianto","#f73b6a7A"," "," ","1","0","[1018.3999999761581]","1","0","4","","","","","","","",""
"call-function","101","685591","0.0-2.0-18.0","battery-v0.2","","""event"",""trial"",""time""
""fullscreenenter"",""1"",""3107""
","
","
","""event"",""trial"",""time""
""fullscreenenter"",""1"",""3107""
","
","","","","","","","","","","","","","","","","","","","","","","","","","","",""
"pit-instructions","102","751127","0.0-2.0-19.0","battery-v0.2","","""event"",""trial"",""time""
""fullscreenenter"",""1"",""3107""
","
","
","""event"",""trial"",""time""
""fullscreenenter"",""1"",""3107""
","
","","[{""page_index"":0,""viewing_time"":6883.800000011921},{""page_index"":1,""viewing_time"":5442.699999988079},{""page_index"":2,""viewing_time"":13408},{""page_index"":3,""viewing_time"":7059.100000023842},{""page_index"":4,""viewing_time"":8094.5},{""page_index"":5,""viewing_time"":8056.099999964237},{""page_index"":6,""viewing_time"":7440},{""page_index"":7,""viewing_time"":5572.400000035763},{""page_index"":8,""viewing_time"":3576.699999988079}]","65534","","","","","","","","","","","","","","","","","","","","","","","",""
"pit-comprehension","103","755475","0.0-2.0-20.0-0.0","battery-v0.2","","""event"",""trial"",""time""
""fullscreenenter"",""1"",""3107""
","
","
","""event"",""trial"",""time""
""fullscreenenter"",""1"",""3107""
","
","","","4343.199999988079","[""SPACE""]","0","20","10881","5251","","","","","","","","","","","","","","","","","","",""
"pit-instructions","104","758094","0.0-2.0-20.0-1.0","battery-v0.2","","""event"",""trial"",""time""
""fullscreenenter"",""1"",""3107""
","
","
","""event"",""trial"",""time""
""fullscreenenter"",""1"",""3107""
","
","","[{""page_index"":0,""viewing_time"":2575.699999988079}]","2576.199999988079","","","","","","","","","","","","","","","","","","","","","","","",""
"pit-comprehension","105","763119","0.0-2.0-21.0-0.0","battery-v0.2","","""event"",""trial"",""time""
""fullscreenenter"",""1"",""3107""
","
","
","""event"",""trial"",""time""
""fullscreenenter"",""1"",""3107""
","
","","","5020.5","[""10""]","0","20","10881","5251","","","","","","","","","","","","","","","","","","",""
"pit-instructions","106","764440","0.0-2.0-21.0-1.0","battery-v0.2","","""event"",""trial"",""time""
""fullscreenenter"",""1"",""3107""
","
","
","""event"",""trial"",""time""
""fullscreenenter"",""1"",""3107""
","
","","[{""page_index"":0,""viewing_time"":1273.0999999642372}]","1273.800000011921","","","","","","","","","","","","","","","","","","","","","","","",""
"pit-comprehension","107","770954","0.0-2.0-22.0-0.0","battery-v0.2","","""event"",""trial"",""time""
""fullscreenenter"",""1"",""3107""
","
","
","""event"",""trial"",""time""
""fullscreenenter"",""1"",""3107""
","
","","","6506.399999976158","[""0""]","0","20","10881","5251","","","","","","","","","","","","","","","","","","",""
"pit-instructions","108","772009","0.0-2.0-22.0-1.0","battery-v0.2","","""event"",""trial"",""time""
""fullscreenenter"",""1"",""3107""
","
","
","""event"",""trial"",""time""
""fullscreenenter"",""1"",""3107""
","
","","[{""page_index"":0,""viewing_time"":1013.5}]","1013.7999999523163","","","","","","","","","","","","","","","","","","","","","","","",""
"pit-comprehension","109","780366","0.0-2.0-23.0-0.0","battery-v0.2","","""event"",""trial"",""time""
""fullscreenenter"",""1"",""3107""
","
","
","""event"",""trial"",""time""
""fullscreenenter"",""1"",""3107""
","
","","","8354.300000011921","[""True""]","0","20","10881","5251","","","","","","","","","","","","","","","","","","",""
"pit-instructions","110","781903","0.0-2.0-23.0-1.0","battery-v0.2","","""event"",""trial"",""time""
""fullscreenenter"",""1"",""3107""
","
","
","""event"",""trial"",""time""
""fullscreenenter"",""1"",""3107""
","
","","[{""page_index"":0,""viewing_time"":1493.800000011921}]","1494.5999999642372","","","","","","","","","","","","","","","","","","","","","","","",""
"pit-comprehension","111","789217","0.0-2.0-24.0-0.0","battery-v0.2","","""event"",""trial"",""time""
""fullscreenenter"",""1"",""3107""
","
","
","""event"",""trial"",""time""
""fullscreenenter"",""1"",""3107""
","
","","","7310.100000023842","[""True""]","0","20","10881","5251","","","","","","","","","","","","","","","","","","",""
"pit-instructions","112","790321","0.0-2.0-24.0-1.0","battery-v0.2","","""event"",""trial"",""time""
""fullscreenenter"",""1"",""3107""
","
","
","""event"",""trial"",""time""
""fullscreenenter"",""1"",""3107""
","
","","[{""page_index"":0,""viewing_time"":1056.699999988079}]","1057.199999988079","","","","","","","","","","","","","","","","","","","","","","","",""
"pit-comprehension","113","796509","0.0-2.0-25.0-0.0","battery-v0.2","","""event"",""trial"",""time""
""fullscreenenter"",""1"",""3107""
","
","
","""event"",""trial"",""time""
""fullscreenenter"",""1"",""3107""
","
","","","6184","[""True""]","0","20","10881","5251","","","","","","","","","","","","","","","","","","",""
"pit-instructions","114","798121","0.0-2.0-25.0-1.0","battery-v0.2","","""event"",""trial"",""time""
""fullscreenenter"",""1"",""3107""
","
","
","""event"",""trial"",""time""
""fullscreenenter"",""1"",""3107""
","
","","[{""page_index"":0,""viewing_time"":1568.5}]","1568.9000000357628","","","","","","","","","","","","","","","","","","","","","","","",""
"pit-comprehension","115","802645","0.0-2.0-26.0-0.0","battery-v0.2","","""event"",""trial"",""time""
""fullscreenenter"",""1"",""3107""
","
","
","""event"",""trial"",""time""
""fullscreenenter"",""1"",""3107""
","
","","","4519","[""False""]","0","20","10881","5251","","","","","","","","","","","","","","","","","","",""
"pit-instructions","116","806600","0.0-2.0-26.0-1.0","battery-v0.2","","""event"",""trial"",""time""
""fullscreenenter"",""1"",""3107""
","
","
","""event"",""trial"",""time""
""fullscreenenter"",""1"",""3107""
","
","","[{""page_index"":0,""viewing_time"":3911.199999988079}]","3911.600000023842","","","","","","","","","","","","","","","","","","","","","","","",""
"pit-instructions","117","826320","0.0-3.0","battery-v0.2","","""event"",""trial"",""time""
""fullscreenenter"",""1"",""3107""
","
","
","""event"",""trial"",""time""
""fullscreenenter"",""1"",""3107""
","
","","[{""page_index"":0,""viewing_time"":6675.099999964237},{""page_index"":1,""viewing_time"":5868.200000047684},{""page_index"":2,""viewing_time"":7172.599999964237}]","19716.399999976158","","","","","","","","","","","","","","","","","","","","","","","",""
"pit-trial","118","829914","0.0-4.0","battery-v0.2","","""event"",""trial"",""time""
""fullscreenenter"",""1"",""3107""
","
","
","""event"",""trial"",""time""
""fullscreenenter"",""1"",""3107""
","
","","","731.8000000119209","","","20","10881","5251","&#9752;","elianto","#f73b6a7A"," "," ","1","0","[1583.5]","1","1","","","10881","1","3","3","lose","go","0"
"pit-trial","119","833308","0.0-5.0","battery-v0.2","","""event"",""trial"",""time""
""fullscreenenter"",""1"",""3107""
","
","
","""event"",""trial"",""time""
""fullscreenenter"",""1"",""3107""
","
","","","539.8999999761581","","","20","10881","5251","&#9728;","elianto","#f73b6a7A","-1"," ","0","0","[1390.3999999761581]","1","1","","","10881","2","0","4","lose","no-go","1"
"pit-trial","120","836732","0.0-6.0","battery-v0.2","","""event"",""trial"",""time""
""fullscreenenter"",""1"",""3107""
","
","
","""event"",""trial"",""time""
""fullscreenenter"",""1"",""3107""
","
","","","561.5","","","20","10881","5251","&#9733;","elianto","#3366ff99","-1"," ","0","0","[1416.5]","1","1","","","10881","3","2","2","win","no-go","0"
"pit-trial","121","840273","0.0-7.0","battery-v0.2","","""event"",""trial"",""time""
""fullscreenenter"",""1"",""3107""
","
","
","""event"",""trial"",""time""
""fullscreenenter"",""1"",""3107""
","
","","","683.8000000119209","","","20","10881","5251","&#9730;","elianto","#3366ff99"," "," ","1","+10","[1535]","1","1","","","10881","4","1","1","win","go","0"
"pit-trial","122","844209","0.0-8.0","battery-v0.2","","""event"",""trial"",""time""
""fullscreenenter"",""1"",""3107""
","
","
","""event"",""trial"",""time""
""fullscreenenter"",""1"",""3107""
","
","","","1078.9000000357628","","","20","10881","5251","&#9730;","elianto","#3366ff99"," "," ","1","+10","[1929.5999999642372]","1","1","","","10881","5","1","1","win","go","0"
"pit-trial","123","849067","0.0-9.0","battery-v0.2","","""event"",""trial"",""time""
""fullscreenenter"",""1"",""3107""
","
","
","""event"",""trial"",""time""
""fullscreenenter"",""1"",""3107""
","
","","","-1","","","20","10881","5251","&#9728;","elianto","#f73b6a7A","-1","-1","1","0","[]","0","1","","","10881","6","0","4","lose","no-go","0"
"pit-trial","124","853122","0.0-10.0","battery-v0.2","","""event"",""trial"",""time""
""fullscreenenter"",""1"",""3107""
","
","
","""event"",""trial"",""time""
""fullscreenenter"",""1"",""3107""
","
","","","1198","","","20","10881","5251","&#9752;","elianto","#f73b6a7A"," "," ","1","0","[2049.199999988079]","1","1","","","10881","7","3","3","lose","go","0"
"pit-trial","125","857030","0.0-11.0","battery-v0.2","","""event"",""trial"",""time""
""fullscreenenter"",""1"",""3107""
","
","
","""event"",""trial"",""time""
""fullscreenenter"",""1"",""3107""
","
","","","1052.199999988079","","","20","10881","5251","&#9733;","elianto","#3366ff99","-1"," ","0","0","[1904.5]","1","1","","","10881","8","2","2","win","no-go","0"
"pit-trial","126","860618","0.0-12.0","battery-v0.2","","""event"",""trial"",""time""
""fullscreenenter"",""1"",""3107""
","
","
","""event"",""trial"",""time""
""fullscreenenter"",""1"",""3107""
","
","","","730.0999999642372","","","20","10881","5251","&#9730;","elianto","#3366ff99"," "," ","1","+10","[1580.5]","1","1","","","10881","9","1","1","win","go","0"
"pit-trial","127","864126","0.0-13.0","battery-v0.2","","""event"",""trial"",""time""
""fullscreenenter"",""1"",""3107""
","
","
","""event"",""trial"",""time""
""fullscreenenter"",""1"",""3107""
","
","","","650.1999999880791","","","20","10881","5251","&#9733;","elianto","#3366ff99","-1"," ","0","0","[1501.699999988079]","1","1","","","10881","10","2","2","win","no-go","0"
"pit-trial","128","868987","0.0-14.0","battery-v0.2","","""event"",""trial"",""time""
""fullscreenenter"",""1"",""3107""
","
","
","""event"",""trial"",""time""
""fullscreenenter"",""1"",""3107""
","
","","","-1","","","20","10881","5251","&#9752;","elianto","#f73b6a7A"," ","-1","0","-10","[]","0","1","","","10881","11","3","3","lose","go","0"
"pit-trial","129","872644","0.0-15.0","battery-v0.2","","""event"",""trial"",""time""
""fullscreenenter"",""1"",""3107""
","
","
","""event"",""trial"",""time""
""fullscreenenter"",""1"",""3107""
","
","","","800.6999999880791","","","20","10881","5251","&#9728;","elianto","#f73b6a7A","-1"," ","0","-10","[1651.5]","1","1","","","10881","12","0","4","lose","no-go","0"
"pit-trial","130","876731","0.0-16.0","battery-v0.2","","""event"",""trial"",""time""
""fullscreenenter"",""1"",""3107""
","
","
","""event"",""trial"",""time""
""fullscreenenter"",""1"",""3107""
","
","","","1229.7999999523163","","","20","10881","5251","&#9730;","elianto","#3366ff99"," "," ","1","+10","[2081.099999964237]","1","1","","","10881","13","1","1","win","go","0"
"pit-trial","131","881590","0.0-17.0","battery-v0.2","","""event"",""trial"",""time""
""fullscreenenter"",""1"",""3107""
","
","
","""event"",""trial"",""time""
""fullscreenenter"",""1"",""3107""
","
","","","-1","","","20","10881","5251","&#9733;","elianto","#3366ff99","-1","-1","1","0","[]","0","1","","","10881","14","2","2","win","no-go","1"
"pit-trial","132","885809","0.0-18.0","battery-v0.2","","""event"",""trial"",""time""
""fullscreenenter"",""1"",""3107""
","
","
","""event"",""trial"",""time""
""fullscreenenter"",""1"",""3107""
","
","","","1363.800000011921","","","20","10881","5251","&#9728;","elianto","#f73b6a7A","-1"," ","0","-10","[2215.699999988079]","1","1","","","10881","15","0","4","lose","no-go","0"
"pit-trial","133","890668","0.0-19.0","battery-v0.2","","""event"",""trial"",""time""
""fullscreenenter"",""1"",""3107""
","
","
","""event"",""trial"",""time""
""fullscreenenter"",""1"",""3107""
","
","","","-1","","","20","10881","5251","&#9752;","elianto","#f73b6a7A"," ","-1","0","-10","[3047.199999988079]","1","1","","","10881","16","3","3","lose","go","0"
"pit-trial","134","894214","0.0-20.0","battery-v0.2","","""event"",""trial"",""time""
""fullscreenenter"",""1"",""3107""
","
","
","""event"",""trial"",""time""
""fullscreenenter"",""1"",""3107""
","
","","","688.3999999761581","","","20","10881","5251","&#9752;","elianto","#f73b6a7A"," "," ","1","-10","[1539.300000011921]","1","1","","","10881","17","3","3","lose","go","1"
"pit-trial","135","897693","0.0-21.0","battery-v0.2","","""event"",""trial"",""time""
""fullscreenenter"",""1"",""3107""
","
","
","""event"",""trial"",""time""
""fullscreenenter"",""1"",""3107""
","
","","","620.1000000238419","","","20","10881","5251","&#9730;","elianto","#3366ff99"," "," ","1","0","[1470.2999999523163]","1","1","","","10881","18","1","1","win","go","1"
"pit-trial","136","902550","0.0-22.0","battery-v0.2","","""event"",""trial"",""time""
""fullscreenenter"",""1"",""3107""
","
","
","""event"",""trial"",""time""
""fullscreenenter"",""1"",""3107""
","
","","","-1","","","20","10881","5251","&#9733;","elianto","#3366ff99","-1","-1","1","+10","[]","0","1","","","10881","19","2","2","win","no-go","0"
"pit-trial","137","907411","0.0-23.0","battery-v0.2","","""event"",""trial"",""time""
""fullscreenenter"",""1"",""3107""
","
","
","""event"",""trial"",""time""
""fullscreenenter"",""1"",""3107""
","
","","","-1","","","20","10881","5251","&#9728;","elianto","#f73b6a7A","-1","-1","1","0","[]","0","1","","","10881","20","0","4","lose","no-go","0"
"pit-instructions","138","919233","0.0-24.0","battery-v0.2","","""event"",""trial"",""time""
""fullscreenenter"",""1"",""3107""
","
","
","""event"",""trial"",""time""
""fullscreenenter"",""1"",""3107""
","
","","[{""page_index"":0,""viewing_time"":5505},{""page_index"":1,""viewing_time"":6313.400000035763}]","11820","","","","","","","","","","","","","","","","","","","","","","","",""
"pit-trial","139","924097","0.0-25.0","battery-v0.2","","""event"",""trial"",""time""
""fullscreenenter"",""1"",""3107""
","
","
","""event"",""trial"",""time""
""fullscreenenter"",""1"",""3107""
","
","","","-1","","","20","10881","5251","d","elianto","#3366ff99"," ","-1","0","+10","[]","0","2","","","10881","21","1","1","win","go","1"
"pit-trial","140","928083","0.0-26.0","battery-v0.2","","""event"",""trial"",""time""
""fullscreenenter"",""1"",""3107""
","
","
","""event"",""trial"",""time""
""fullscreenenter"",""1"",""3107""
","
","","","1127.699999988079","","","20","10881","5251","w","elianto","#f73b6a7A"," "," ","1","0","[1978.6000000238419]","1","2","","","10881","22","3","3","lose","go","0"
"pit-trial","141","931607","0.0-27.0","battery-v0.2","","""event"",""trial"",""time""
""fullscreenenter"",""1"",""3107""
","
","
","""event"",""trial"",""time""
""fullscreenenter"",""1"",""3107""
","
","","","663.8000000119209","","","20","10881","5251","e","elianto","#f73b6a7A","-1"," ","0","-10","[1516.199999988079]","1","2","","","10881","23","2","4","lose","no-go","0"
"pit-trial","142","935324","0.0-28.0","battery-v0.2","","""event"",""trial"",""time""
""fullscreenenter"",""1"",""3107""
","
","
","""event"",""trial"",""time""
""fullscreenenter"",""1"",""3107""
","
","","","850.1999999880791","","","20","10881","5251","j","elianto","#f73b6a7A","-1"," ","0","0","[1711.0999999642372]","1","2","","","10881","24","0","4","lose","no-go","1"
"pit-trial","143","940183","0.0-29.0","battery-v0.2","","""event"",""trial"",""time""
""fullscreenenter"",""1"",""3107""
","
","
","""event"",""trial"",""time""
""fullscreenenter"",""1"",""3107""
","
","","","-1","","","20","10881","5251","e","elianto","#f73b6a7A","-1","-1","1","0","[]","0","2","","","10881","25","2","4","lose","no-go","0"
"pit-trial","144","944346","0.0-30.0","battery-v0.2","","""event"",""trial"",""time""
""fullscreenenter"",""1"",""3107""
","
","
","""event"",""trial"",""time""
""fullscreenenter"",""1"",""3107""
","
","","","1309.5","","","20","10881","5251","j","elianto","#f73b6a7A","-1"," ","0","-10","[2160.199999988079]","1","2","","","10881","26","0","4","lose","no-go","0"
"pit-trial","145","949206","0.0-31.0","battery-v0.2","","""event"",""trial"",""time""
""fullscreenenter"",""1"",""3107""
","
","
","""event"",""trial"",""time""
""fullscreenenter"",""1"",""3107""
","
","","","-1","","","20","10881","5251","d","elianto","#3366ff99"," ","-1","0","0","[]","0","2","","","10881","27","1","1","win","go","0"
"pit-trial","146","953663","0.0-32.0","battery-v0.2","","""event"",""trial"",""time""
""fullscreenenter"",""1"",""3107""
","
","
","""event"",""trial"",""time""
""fullscreenenter"",""1"",""3107""
","
","","","1603.300000011921","","","20","10881","5251","w","elianto","#f73b6a7A"," "," ","1","0","[2453.7999999523163]","1","2","","","10881","28","3","3","lose","go","0"
"pit-trial","147","957458","0.0-33.0","battery-v0.2","","""event"",""trial"",""time""
""fullscreenenter"",""1"",""3107""
","
","
","""event"",""trial"",""time""
""fullscreenenter"",""1"",""3107""
","
","","","935.3000000119209","","","20","10881","5251","w","elianto","#f73b6a7A"," "," ","1","0","[1786.300000011921]","1","2","","","10881","29","3","3","lose","go","0"
"pit-trial","148","962319","0.0-34.0","battery-v0.2","","""event"",""trial"",""time""
""fullscreenenter"",""1"",""3107""
","
","
","""event"",""trial"",""time""
""fullscreenenter"",""1"",""3107""
","
","","","-1","","","20","10881","5251","e","elianto","#f73b6a7A","-1","-1","1","0","[]","0","2","","","10881","30","2","4","lose","no-go","0"
"pit-trial","149","967178","0.0-35.0","battery-v0.2","","""event"",""trial"",""time""
""fullscreenenter"",""1"",""3107""
","
","
","""event"",""trial"",""time""
""fullscreenenter"",""1"",""3107""
","
","","","-1","","","20","10881","5251","j","elianto","#f73b6a7A","-1","-1","1","0","[]","0","2","","","10881","31","0","4","lose","no-go","0"
"pit-trial","150","970854","0.0-36.0","battery-v0.2","","""event"",""trial"",""time""
""fullscreenenter"",""1"",""3107""
","
","
","""event"",""trial"",""time""
""fullscreenenter"",""1"",""3107""
","
","","","817.5","","","20","10881","5251","d","elianto","#3366ff99"," "," ","1","0","[1669.5]","1","2","","","10881","32","1","1","win","go","1"
"pit-trial","151","975713","0.0-37.0","battery-v0.2","","""event"",""trial"",""time""
""fullscreenenter"",""1"",""3107""
","
","
","""event"",""trial"",""time""
""fullscreenenter"",""1"",""3107""
","
","","","-1","","","20","10881","5251","j","elianto","#f73b6a7A","-1","-1","1","0","[]","0","2","","","10881","33","0","4","lose","no-go","0"
"pit-trial","152","980570","0.0-38.0","battery-v0.2","","""event"",""trial"",""time""
""fullscreenenter"",""1"",""3107""
","
","
","""event"",""trial"",""time""
""fullscreenenter"",""1"",""3107""
","
","","","-1","","","20","10881","5251","e","elianto","#f73b6a7A","-1","-1","1","0","[]","0","2","","","10881","34","2","4","lose","no-go","0"
"pit-trial","153","985428","0.0-39.0","battery-v0.2","","""event"",""trial"",""time""
""fullscreenenter"",""1"",""3107""
","
","
","""event"",""trial"",""time""
""fullscreenenter"",""1"",""3107""
","
","","","-1","","","20","10881","5251","w","elianto","#f73b6a7A"," ","-1","0","-10","[]","0","2","","","10881","35","3","3","lose","go","0"
"pit-trial","154","990288","0.0-40.0","battery-v0.2","","""event"",""trial"",""time""
""fullscreenenter"",""1"",""3107""
","
","
","""event"",""trial"",""time""
""fullscreenenter"",""1"",""3107""
","
","","","-1","","","20","10881","5251","d","elianto","#3366ff99"," ","-1","0","0","[]","0","2","","","10881","36","1","1","win","go","0"
"pit-trial","155","994897","0.0-41.0","battery-v0.2","","""event"",""trial"",""time""
""fullscreenenter"",""1"",""3107""
","
","
","""event"",""trial"",""time""
""fullscreenenter"",""1"",""3107""
","
","","","1751.300000011921","","","20","10881","5251","w","elianto","#f73b6a7A"," "," ","1","0","[2603.099999964237]","1","2","","","10881","37","3","3","lose","go","0"
"pit-trial","156","999756","0.0-42.0","battery-v0.2","","""event"",""trial"",""time""
""fullscreenenter"",""1"",""3107""
","
","
","""event"",""trial"",""time""
""fullscreenenter"",""1"",""3107""
","
","","","-1","","","20","10881","5251","j","elianto","#f73b6a7A","-1","-1","1","0","[]","0","2","","","10881","38","0","4","lose","no-go","0"
"pit-trial","157","1004615","0.0-43.0","battery-v0.2","","""event"",""trial"",""time""
""fullscreenenter"",""1"",""3107""
","
","
","""event"",""trial"",""time""
""fullscreenenter"",""1"",""3107""
","
","","","-1","","","20","10881","5251","e","elianto","#f73b6a7A","-1","-1","1","0","[]","0","2","","","10881","39","2","4","lose","no-go","0"
"pit-trial","158","1008077","0.0-44.0","battery-v0.2","","""event"",""trial"",""time""
""fullscreenenter"",""1"",""3107""
","
","
","""event"",""trial"",""time""
""fullscreenenter"",""1"",""3107""
","
","","","605","","","20","10881","5251","d","elianto","#3366ff99"," "," ","1","+10","[1455.8999999761581]","1","2","","","10881","40","1","1","win","go","0"
"pit-trial","159","1012214","0.0-45.0","battery-v0.2","","""event"",""trial"",""time""
""fullscreenenter"",""1"",""3107""
","
","
","""event"",""trial"",""time""
""fullscreenenter"",""1"",""3107""
","
","","","1280.0999999642372","","","20","10881","5251","w","elianto","#f73b6a7A"," "," ","1","0","[2131.2000000476837]","1","2","","","10881","41","3","3","lose","go","0"
"pit-trial","160","1017072","0.0-46.0","battery-v0.2","","""event"",""trial"",""time""
""fullscreenenter"",""1"",""3107""
","
","
","""event"",""trial"",""time""
""fullscreenenter"",""1"",""3107""
","
","","","-1","","","20","10881","5251","j","elianto","#f73b6a7A","-1","-1","1","0","[]","0","2","","","10881","42","0","4","lose","no-go","0"
"pit-trial","161","1020579","0.0-47.0","battery-v0.2","","""event"",""trial"",""time""
""fullscreenenter"",""1"",""3107""
","
","
","""event"",""trial"",""time""
""fullscreenenter"",""1"",""3107""
","
","","","652.7999999523163","","","20","10881","5251","d","elianto","#3366ff99"," "," ","1","+10","[1503.699999988079]","1","2","","","10881","43","1","1","win","go","0"
"pit-trial","162","1025438","0.0-48.0","battery-v0.2","","""event"",""trial"",""time""
""fullscreenenter"",""1"",""3107""
","
","
","""event"",""trial"",""time""
""fullscreenenter"",""1"",""3107""
","
","","","-1","","","20","10881","5251","e","elianto","#f73b6a7A","-1","-1","1","0","[]","0","2","","","10881","44","2","4","lose","no-go","0"
"pit-trial","163","1030299","0.0-49.0","battery-v0.2","","""event"",""trial"",""time""
""fullscreenenter"",""1"",""3107""
","
","
","""event"",""trial"",""time""
""fullscreenenter"",""1"",""3107""
","
","","","-1","","","20","10881","5251","j","elianto","#f73b6a7A","-1","-1","1","-10","[]","0","2","","","10881","45","0","4","lose","no-go","1"
"pit-trial","164","1034187","0.0-50.0","battery-v0.2","","""event"",""trial"",""time""
""fullscreenenter"",""1"",""3107""
","
","
","""event"",""trial"",""time""
""fullscreenenter"",""1"",""3107""
","
","","","1032.5","","","20","10881","5251","w","elianto","#f73b6a7A"," "," ","1","-10","[1884]","1","2","","","10881","46","3","3","lose","go","1"
"pit-trial","165","1039050","0.0-51.0","battery-v0.2","","""event"",""trial"",""time""
""fullscreenenter"",""1"",""3107""
","
","
","""event"",""trial"",""time""
""fullscreenenter"",""1"",""3107""
","
","","","-1","","","20","10881","5251","e","elianto","#f73b6a7A","-1","-1","1","0","[]","0","2","","","10881","47","2","4","lose","no-go","0"
"pit-trial","166","1043119","0.0-52.0","battery-v0.2","","""event"",""trial"",""time""
""fullscreenenter"",""1"",""3107""
","
","
","""event"",""trial"",""time""
""fullscreenenter"",""1"",""3107""
","
","","","1212.3999999761581","","","20","10881","5251","s","elianto","#3366ff99","-1"," ","0","+10","[2063.699999988079]","1","2","","","10881","48","4","2","win","no-go","1"
"pit-trial","167","1046666","0.0-53.0","battery-v0.2","","""event"",""trial"",""time""
""fullscreenenter"",""1"",""3107""
","
","
","""event"",""trial"",""time""
""fullscreenenter"",""1"",""3107""
","
","","","689.6999999880791","","","20","10881","5251","d","elianto","#3366ff99"," "," ","1","0","[1541.5999999642372]","1","2","","","10881","49","1","1","win","go","1"
"pit-trial","168","1051526","0.0-54.0","battery-v0.2","","""event"",""trial"",""time""
""fullscreenenter"",""1"",""3107""
","
","
","""event"",""trial"",""time""
""fullscreenenter"",""1"",""3107""
","
","","","-1","","","20","10881","5251","j","elianto","#f73b6a7A","-1","-1","1","-10","[]","0","2","","","10881","50","0","4","lose","no-go","1"
"pit-trial","169","1054968","0.0-55.0","battery-v0.2","","""event"",""trial"",""time""
""fullscreenenter"",""1"",""3107""
","
","
","""event"",""trial"",""time""
""fullscreenenter"",""1"",""3107""
","
","","","583.4000000357628","","","20","10881","5251","s","elianto","#3366ff99","-1"," ","0","0","[1435.800000011921]","1","2","","","10881","51","4","2","win","no-go","0"
"pit-trial","170","1058910","0.0-56.0","battery-v0.2","","""event"",""trial"",""time""
""fullscreenenter"",""1"",""3107""
","
","
","""event"",""trial"",""time""
""fullscreenenter"",""1"",""3107""
","
","","","1086.4000000357628","","","20","10881","5251","w","elianto","#f73b6a7A"," "," ","1","-10","[1937.199999988079]","1","2","","","10881","52","3","3","lose","go","1"
"pit-trial","171","1062640","0.0-57.0","battery-v0.2","","""event"",""trial"",""time""
""fullscreenenter"",""1"",""3107""
","
","
","""event"",""trial"",""time""
""fullscreenenter"",""1"",""3107""
","
","","","873","","","20","10881","5251","d","elianto","#3366ff99"," "," ","1","+10","[1724.300000011921]","1","2","","","10881","53","1","1","win","go","0"
"pit-trial","172","1066174","0.0-58.0","battery-v0.2","","""event"",""trial"",""time""
""fullscreenenter"",""1"",""3107""
","
","
","""event"",""trial"",""time""
""fullscreenenter"",""1"",""3107""
","
","","","677.6999999880791","","","20","10881","5251","s","elianto","#3366ff99","-1"," ","0","0","[1528.5999999642372]","1","2","","","10881","54","4","2","win","no-go","0"
"pit-trial","173","1071034","0.0-59.0","battery-v0.2","","""event"",""trial"",""time""
""fullscreenenter"",""1"",""3107""
","
","
","""event"",""trial"",""time""
""fullscreenenter"",""1"",""3107""
","
","","","-1","","","20","10881","5251","e","elianto","#f73b6a7A","-1","-1","1","0","[]","0","2","","","10881","55","2","4","lose","no-go","0"
"pit-trial","174","1075895","0.0-60.0","battery-v0.2","","""event"",""trial"",""time""
""fullscreenenter"",""1"",""3107""
","
","
","""event"",""trial"",""time""
""fullscreenenter"",""1"",""3107""
","
","","","-1","","","20","10881","5251","j","elianto","#f73b6a7A","-1","-1","1","-10","[]","0","2","","","10881","56","0","4","lose","no-go","1"
"pit-trial","175","1079495","0.0-61.0","battery-v0.2","","""event"",""trial"",""time""
""fullscreenenter"",""1"",""3107""
","
","
","""event"",""trial"",""time""
""fullscreenenter"",""1"",""3107""
","
","","","748.6000000238419","","","20","10881","5251","d","elianto","#3366ff99"," "," ","1","+10","[1599.3999999761581]","1","2","","","10881","57","1","1","win","go","0"
"pit-trial","176","1084346","0.0-62.0","battery-v0.2","","""event"",""trial"",""time""
""fullscreenenter"",""1"",""3107""
","
","
","""event"",""trial"",""time""
""fullscreenenter"",""1"",""3107""
","
","","","-1","","","20","10881","5251","j","elianto","#f73b6a7A","-1","-1","1","0","[]","0","2","","","10881","58","0","4","lose","no-go","0"
"pit-trial","177","1089203","0.0-63.0","battery-v0.2","","""event"",""trial"",""time""
""fullscreenenter"",""1"",""3107""
","
","
","""event"",""trial"",""time""
""fullscreenenter"",""1"",""3107""
","
","","","-1","","","20","10881","5251","s","elianto","#3366ff99","-1","-1","1","0","[]","0","2","","","10881","59","4","2","win","no-go","1"
"pit-trial","178","1093107","0.0-64.0","battery-v0.2","","""event"",""trial"",""time""
""fullscreenenter"",""1"",""3107""
","
","
","""event"",""trial"",""time""
""fullscreenenter"",""1"",""3107""
","
","","","1048.699999988079","","","20","10881","5251","w","elianto","#f73b6a7A"," "," ","1","0","[1900.2999999523163]","1","2","","","10881","60","3","3","lose","go","0"
"pit-trial","179","1096716","0.0-65.0","battery-v0.2","","""event"",""trial"",""time""
""fullscreenenter"",""1"",""3107""
","
","
","""event"",""trial"",""time""
""fullscreenenter"",""1"",""3107""
","
","","","755.0999999642372","","","20","10881","5251","d","elianto","#3366ff99"," "," ","1","+10","[1607.6000000238419]","1","2","","","10881","61","1","1","win","go","0"
"pit-trial","180","1101570","0.0-66.0","battery-v0.2","","""event"",""trial"",""time""
""fullscreenenter"",""1"",""3107""
","
","
","""event"",""trial"",""time""
""fullscreenenter"",""1"",""3107""
","
","","","-1","","","20","10881","5251","e","elianto","#f73b6a7A","-1","-1","1","-10","[]","0","2","","","10881","62","2","4","lose","no-go","1"
"pit-trial","181","1105423","0.0-67.0","battery-v0.2","","""event"",""trial"",""time""
""fullscreenenter"",""1"",""3107""
","
","
","""event"",""trial"",""time""
""fullscreenenter"",""1"",""3107""
","
","","","999.8000000119209","","","20","10881","5251","w","elianto","#f73b6a7A"," "," ","1","0","[1850.8999999761581]","1","2","","","10881","63","3","3","lose","go","0"
"pit-trial","182","1109038","0.0-68.0","battery-v0.2","","""event"",""trial"",""time""
""fullscreenenter"",""1"",""3107""
","
","
","""event"",""trial"",""time""
""fullscreenenter"",""1"",""3107""
","
","","","757.5","","","20","10881","5251","s","elianto","#3366ff99","-1"," ","0","0","[1608.699999988079]","1","2","","","10881","64","4","2","win","no-go","0"
"pit-trial","183","1113896","0.0-69.0","battery-v0.2","","""event"",""trial"",""time""
""fullscreenenter"",""1"",""3107""
","
","
","""event"",""trial"",""time""
""fullscreenenter"",""1"",""3107""
","
","","","-1","","","20","10881","5251","e","elianto","#f73b6a7A","-1","-1","1","0","[]","0","2","","","10881","65","2","4","lose","no-go","0"
"pit-trial","184","1118754","0.0-70.0","battery-v0.2","","""event"",""trial"",""time""
""fullscreenenter"",""1"",""3107""
","
","
","""event"",""trial"",""time""
""fullscreenenter"",""1"",""3107""
","
","","","-1","","","20","10881","5251","s","elianto","#3366ff99","-1","-1","1","+10","[]","0","2","","","10881","66","4","2","win","no-go","0"
"pit-trial","185","1122300","0.0-71.0","battery-v0.2","","""event"",""trial"",""time""
""fullscreenenter"",""1"",""3107""
","
","
","""event"",""trial"",""time""
""fullscreenenter"",""1"",""3107""
","
","","","690","","","20","10881","5251","d","elianto","#3366ff99"," "," ","1","+10","[1541.3999999761581]","1","2","","","10881","67","1","1","win","go","0"
"pit-trial","186","1126145","0.0-72.0","battery-v0.2","","""event"",""trial"",""time""
""fullscreenenter"",""1"",""3107""
","
","
","""event"",""trial"",""time""
""fullscreenenter"",""1"",""3107""
","
","","","988.3000000119209","","","20","10881","5251","w","elianto","#f73b6a7A"," "," ","1","0","[1839.0999999642372]","1","2","","","10881","68","3","3","lose","go","0"
"pit-trial","187","1130144","0.0-73.0","battery-v0.2","","""event"",""trial"",""time""
""fullscreenenter"",""1"",""3107""
","
","
","""event"",""trial"",""time""
""fullscreenenter"",""1"",""3107""
","
","","","1136.6000000238419","","","20","10881","5251","w","elianto","#f73b6a7A"," "," ","1","0","[1991.699999988079]","1","2","","","10881","69","3","3","lose","go","0"
"pit-trial","188","1135001","0.0-74.0","battery-v0.2","","""event"",""trial"",""time""
""fullscreenenter"",""1"",""3107""
","
","
","""event"",""trial"",""time""
""fullscreenenter"",""1"",""3107""
","
","","","-1","","","20","10881","5251","s","elianto","#3366ff99","-1","-1","1","0","[]","0","2","","","10881","70","4","2","win","no-go","1"
"pit-trial","189","1138571","0.0-75.0","battery-v0.2","","""event"",""trial"",""time""
""fullscreenenter"",""1"",""3107""
","
","
","""event"",""trial"",""time""
""fullscreenenter"",""1"",""3107""
","
","","","711.8000000119209","","","20","10881","5251","d","elianto","#3366ff99"," "," ","1","0","[1563.199999988079]","1","2","","","10881","71","1","1","win","go","1"
"pit-trial","190","1143429","0.0-76.0","battery-v0.2","","""event"",""trial"",""time""
""fullscreenenter"",""1"",""3107""
","
","
","""event"",""trial"",""time""
""fullscreenenter"",""1"",""3107""
","
","","","-1","","","20","10881","5251","p","elianto","#3366ff99"," ","-1","0","0","[]","0","2","","","10881","72","5","1","win","go","0"
"pit-trial","191","1146965","0.0-77.0","battery-v0.2","","""event"",""trial"",""time""
""fullscreenenter"",""1"",""3107""
","
","
","""event"",""trial"",""time""
""fullscreenenter"",""1"",""3107""
","
","","","678","","","20","10881","5251","p","elianto","#3366ff99"," "," ","1","+10","[1529.2999999523163]","1","2","","","10881","73","5","1","win","go","0"
"pit-trial","192","1151309","0.0-78.0","battery-v0.2","","""event"",""trial"",""time""
""fullscreenenter"",""1"",""3107""
","
","
","""event"",""trial"",""time""
""fullscreenenter"",""1"",""3107""
","
","","","1484.1000000238419","","","20","10881","5251","d","elianto","#3366ff99"," "," ","1","+10","[2336.600000023842]","1","2","","","10881","74","1","1","win","go","0"
"pit-trial","193","1155014","0.0-79.0","battery-v0.2","","""event"",""trial"",""time""
""fullscreenenter"",""1"",""3107""
","
","
","""event"",""trial"",""time""
""fullscreenenter"",""1"",""3107""
","
","","","845.1999999880791","","","20","10881","5251","w","elianto","#f73b6a7A"," "," ","1","0","[1697.6000000238419]","1","2","","","10881","75","3","3","lose","go","0"
"pit-trial","194","1159875","0.0-80.0","battery-v0.2","","""event"",""trial"",""time""
""fullscreenenter"",""1"",""3107""
","
","
","""event"",""trial"",""time""
""fullscreenenter"",""1"",""3107""
","
","","","-1","","","20","10881","5251","s","elianto","#3366ff99","-1","-1","1","+10","[]","0","2","","","10881","76","4","2","win","no-go","0"
"pit-trial","195","1164734","0.0-81.0","battery-v0.2","","""event"",""trial"",""time""
""fullscreenenter"",""1"",""3107""
","
","
","""event"",""trial"",""time""
""fullscreenenter"",""1"",""3107""
","
","","","-1","","","20","10881","5251","s","elianto","#3366ff99","-1","-1","1","+10","[]","0","2","","","10881","77","4","2","win","no-go","0"
"pit-trial","196","1168329","0.0-82.0","battery-v0.2","","""event"",""trial"",""time""
""fullscreenenter"",""1"",""3107""
","
","
","""event"",""trial"",""time""
""fullscreenenter"",""1"",""3107""
","
","","","740.1999999880791","","","20","10881","5251","p","elianto","#3366ff99"," "," ","1","+10","[1591.4000000357628]","1","2","","","10881","78","5","1","win","go","0"
"pit-trial","197","1171956","0.0-83.0","battery-v0.2","","""event"",""trial"",""time""
""fullscreenenter"",""1"",""3107""
","
","
","""event"",""trial"",""time""
""fullscreenenter"",""1"",""3107""
","
","","","770.1999999880791","","","20","10881","5251","w","elianto","#f73b6a7A"," "," ","1","0","[1620.800000011921]","1","2","","","10881","79","3","3","lose","go","0"
"pit-trial","198","1176815","0.0-84.0","battery-v0.2","","""event"",""trial"",""time""
""fullscreenenter"",""1"",""3107""
","
","
","""event"",""trial"",""time""
""fullscreenenter"",""1"",""3107""
","
","","","-1","","","20","10881","5251","g","elianto","#f73b6a7A","-1","-1","1","0","[]","0","2","","","10881","80","6","4","lose","no-go","0"
"pit-trial","199","1181674","0.0-85.0","battery-v0.2","","""event"",""trial"",""time""
""fullscreenenter"",""1"",""3107""
","
","
","""event"",""trial"",""time""
""fullscreenenter"",""1"",""3107""
","
","","","-1","","","20","10881","5251","s","elianto","#3366ff99","-1","-1","1","+10","[]","0","2","","","10881","81","4","2","win","no-go","0"
"pit-trial","200","1186532","0.0-86.0","battery-v0.2","","""event"",""trial"",""time""
""fullscreenenter"",""1"",""3107""
","
","
","""event"",""trial"",""time""
""fullscreenenter"",""1"",""3107""
","
","","","-1","","","20","10881","5251","a","elianto","#f73b6a7A"," ","-1","0","-10","[]","0","2","","","10881","82","7","3","lose","go","0"
"pit-trial","201","1191393","0.0-87.0","battery-v0.2","","""event"",""trial"",""time""
""fullscreenenter"",""1"",""3107""
","
","
","""event"",""trial"",""time""
""fullscreenenter"",""1"",""3107""
","
","","","-1","","","20","10881","5251","g","elianto","#f73b6a7A","-1","-1","1","0","[]","0","2","","","10881","83","6","4","lose","no-go","0"
"pit-trial","202","1195026","0.0-88.0","battery-v0.2","","""event"",""trial"",""time""
""fullscreenenter"",""1"",""3107""
","
","
","""event"",""trial"",""time""
""fullscreenenter"",""1"",""3107""
","
","","","773.8000000119209","","","20","10881","5251","p","elianto","#3366ff99"," "," ","1","+10","[1625]","1","2","","","10881","84","5","1","win","go","0"
"pit-trial","203","1199879","0.0-89.0","battery-v0.2","","""event"",""trial"",""time""
""fullscreenenter"",""1"",""3107""
","
","
","""event"",""trial"",""time""
""fullscreenenter"",""1"",""3107""
","
","","","-1","","","20","10881","5251","s","elianto","#3366ff99","-1","-1","1","0","[]","0","2","","","10881","85","4","2","win","no-go","1"
"pit-trial","204","1204739","0.0-90.0","battery-v0.2","","""event"",""trial"",""time""
""fullscreenenter"",""1"",""3107""
","
","
","""event"",""trial"",""time""
""fullscreenenter"",""1"",""3107""
","
","","","-1","","","20","10881","5251","g","elianto","#f73b6a7A","-1","-1","1","-10","[]","0","2","","","10881","86","6","4","lose","no-go","1"
"pit-trial","205","1208414","0.0-91.0","battery-v0.2","","""event"",""trial"",""time""
""fullscreenenter"",""1"",""3107""
","
","
","""event"",""trial"",""time""
""fullscreenenter"",""1"",""3107""
","
","","","819.8999999761581","","","20","10881","5251","a","elianto","#f73b6a7A"," "," ","1","0","[1671.300000011921]","1","2","","","10881","87","7","3","lose","go","0"
"pit-trial","206","1212127","0.0-92.0","battery-v0.2","","""event"",""trial"",""time""
""fullscreenenter"",""1"",""3107""
","
","
","""event"",""trial"",""time""
""fullscreenenter"",""1"",""3107""
","
","","","855.3000000119209","","","20","10881","5251","p","elianto","#3366ff99"," "," ","1","+10","[1706.300000011921]","1","2","","","10881","88","5","1","win","go","0"
"pit-trial","207","1215744","0.0-93.0","battery-v0.2","","""event"",""trial"",""time""
""fullscreenenter"",""1"",""3107""
","
","
","""event"",""trial"",""time""
""fullscreenenter"",""1"",""3107""
","
","","","753.2999999523163","","","20","10881","5251","a","elianto","#f73b6a7A"," "," ","1","0","[1610]","1","2","","","10881","89","7","3","lose","go","0"
"pit-trial","208","1219307","0.0-94.0","battery-v0.2","","""event"",""trial"",""time""
""fullscreenenter"",""1"",""3107""
","
","
","""event"",""trial"",""time""
""fullscreenenter"",""1"",""3107""
","
","","","704.5","","","20","10881","5251","p","elianto","#3366ff99"," "," ","1","+10","[1555.4000000357628]","1","2","","","10881","90","5","1","win","go","0"
"pit-trial","209","1224169","0.0-95.0","battery-v0.2","","""event"",""trial"",""time""
""fullscreenenter"",""1"",""3107""
","
","
","""event"",""trial"",""time""
""fullscreenenter"",""1"",""3107""
","
","","","-1","","","20","10881","5251","s","elianto","#3366ff99","-1","-1","1","+10","[]","0","2","","","10881","91","4","2","win","no-go","0"
"pit-trial","210","1229026","0.0-96.0","battery-v0.2","","""event"",""trial"",""time""
""fullscreenenter"",""1"",""3107""
","
","
","""event"",""trial"",""time""
""fullscreenenter"",""1"",""3107""
","
","","","-1","","","20","10881","5251","g","elianto","#f73b6a7A","-1","-1","1","0","[]","0","2","","","10881","92","6","4","lose","no-go","0"
"pit-trial","211","1233888","0.0-97.0","battery-v0.2","","""event"",""trial"",""time""
""fullscreenenter"",""1"",""3107""
","
","
","""event"",""trial"",""time""
""fullscreenenter"",""1"",""3107""
","
","","","-1","","","20","10881","5251","l","elianto","#3366ff99","-1","-1","1","+10","[]","0","2","","","10881","93","8","2","win","no-go","0"
"pit-trial","212","1238744","0.0-98.0","battery-v0.2","","""event"",""trial"",""time""
""fullscreenenter"",""1"",""3107""
","
","
","""event"",""trial"",""time""
""fullscreenenter"",""1"",""3107""
","
","","","-1","","","20","10881","5251","g","elianto","#f73b6a7A","-1","-1","1","0","[]","0","2","","","10881","94","6","4","lose","no-go","0"
"pit-trial","213","1242203","0.0-99.0","battery-v0.2","","""event"",""trial"",""time""
""fullscreenenter"",""1"",""3107""
","
","
","""event"",""trial"",""time""
""fullscreenenter"",""1"",""3107""
","
","","","601.8999999761581","","","20","10881","5251","a","elianto","#f73b6a7A"," "," ","1","0","[1452.2000000476837]","1","2","","","10881","95","7","3","lose","go","0"
"pit-trial","214","1245797","0.0-100.0","battery-v0.2","","""event"",""trial"",""time""
""fullscreenenter"",""1"",""3107""
","
","
","""event"",""trial"",""time""
""fullscreenenter"",""1"",""3107""
","
","","","736","","","20","10881","5251","p","elianto","#3366ff99"," "," ","1","+10","[1587.199999988079]","1","2","","","10881","96","5","1","win","go","0"
"pit-trial","215","1249546","0.0-101.0","battery-v0.2","","""event"",""trial"",""time""
""fullscreenenter"",""1"",""3107""
","
","
","""event"",""trial"",""time""
""fullscreenenter"",""1"",""3107""
","
","","","893.5","","","20","10881","5251","a","elianto","#f73b6a7A"," "," ","1","0","[1745.199999988079]","1","2","","","10881","97","7","3","lose","go","0"
"pit-trial","216","1254407","0.0-102.0","battery-v0.2","","""event"",""trial"",""time""
""fullscreenenter"",""1"",""3107""
","
","
","""event"",""trial"",""time""
""fullscreenenter"",""1"",""3107""
","
","","","-1","","","20","10881","5251","l","elianto","#3366ff99","-1","-1","1","0","[]","0","2","","","10881","98","8","2","win","no-go","1"
"pit-trial","217","1258156","0.0-103.0","battery-v0.2","","""event"",""trial"",""time""
""fullscreenenter"",""1"",""3107""
","
","
","""event"",""trial"",""time""
""fullscreenenter"",""1"",""3107""
","
","","","893.3999999761581","","","20","10881","5251","p","elianto","#3366ff99"," "," ","1","0","[1745]","1","2","","","10881","99","5","1","win","go","1"
"pit-trial","218","1263017","0.0-104.0","battery-v0.2","","""event"",""trial"",""time""
""fullscreenenter"",""1"",""3107""
","
","
","""event"",""trial"",""time""
""fullscreenenter"",""1"",""3107""
","
","","","-1","","","20","10881","5251","g","elianto","#f73b6a7A","-1","-1","1","0","[]","0","2","","","10881","100","6","4","lose","no-go","0"
"pit-trial","219","1267877","0.0-105.0","battery-v0.2","","""event"",""trial"",""time""
""fullscreenenter"",""1"",""3107""
","
","
","""event"",""trial"",""time""
""fullscreenenter"",""1"",""3107""
","
","","","-1","","","20","10881","5251","l","elianto","#3366ff99","-1","-1","1","0","[]","0","2","","","10881","101","8","2","win","no-go","1"
"pit-trial","220","1271385","0.0-106.0","battery-v0.2","","""event"",""trial"",""time""
""fullscreenenter"",""1"",""3107""
","
","
","""event"",""trial"",""time""
""fullscreenenter"",""1"",""3107""
","
","","","648.4000000357628","","","20","10881","5251","p","elianto","#3366ff99"," "," ","1","0","[1501.2000000476837]","1","2","","","10881","102","5","1","win","go","1"
"pit-trial","221","1276244","0.0-107.0","battery-v0.2","","""event"",""trial"",""time""
""fullscreenenter"",""1"",""3107""
","
","
","""event"",""trial"",""time""
""fullscreenenter"",""1"",""3107""
","
","","","-1","","","20","10881","5251","g","elianto","#f73b6a7A","-1","-1","1","0","[]","0","2","","","10881","103","6","4","lose","no-go","0"
"pit-trial","222","1280377","0.0-108.0","battery-v0.2","","""event"",""trial"",""time""
""fullscreenenter"",""1"",""3107""
","
","
","""event"",""trial"",""time""
""fullscreenenter"",""1"",""3107""
","
","","","1270.199999988079","","","20","10881","5251","u","elianto","#3366ff99","-1"," ","0","0","[2124.100000023842]","1","2","","","10881","104","9","2","win","no-go","0"
"pit-trial","223","1285237","0.0-109.0","battery-v0.2","","""event"",""trial"",""time""
""fullscreenenter"",""1"",""3107""
","
","
","""event"",""trial"",""time""
""fullscreenenter"",""1"",""3107""
","
","","","-1","","","20","10881","5251","g","elianto","#f73b6a7A","-1","-1","1","-10","[]","0","2","","","10881","105","6","4","lose","no-go","1"
"pit-trial","224","1288877","0.0-110.0","battery-v0.2","","""event"",""trial"",""time""
""fullscreenenter"",""1"",""3107""
","
","
","""event"",""trial"",""time""
""fullscreenenter"",""1"",""3107""
","
","","","781.6000000238419","","","20","10881","5251","l","elianto","#3366ff99","-1"," ","0","0","[1633.5999999642372]","1","2","","","10881","106","8","2","win","no-go","0"
"pit-trial","225","1292372","0.0-111.0","battery-v0.2","","""event"",""trial"",""time""
""fullscreenenter"",""1"",""3107""
","
","
","""event"",""trial"",""time""
""fullscreenenter"",""1"",""3107""
","
","","","635.5","","","20","10881","5251","p","elianto","#3366ff99"," "," ","1","0","[1488.5]","1","2","","","10881","107","5","1","win","go","1"
"pit-trial","226","1297231","0.0-112.0","battery-v0.2","","""event"",""trial"",""time""
""fullscreenenter"",""1"",""3107""
","
","
","""event"",""trial"",""time""
""fullscreenenter"",""1"",""3107""
","
","","","-1","","","20","10881","5251","u","elianto","#3366ff99","-1","-1","1","0","[]","0","2","","","10881","108","9","2","win","no-go","1"
"pit-trial","227","1302091","0.0-113.0","battery-v0.2","","""event"",""trial"",""time""
""fullscreenenter"",""1"",""3107""
","
","
","""event"",""trial"",""time""
""fullscreenenter"",""1"",""3107""
","
","","","-1","","","20","10881","5251","l","elianto","#3366ff99","-1","-1","1","+10","[]","0","2","","","10881","109","8","2","win","no-go","0"
"pit-trial","228","1306948","0.0-114.0","battery-v0.2","","""event"",""trial"",""time""
""fullscreenenter"",""1"",""3107""
","
","
","""event"",""trial"",""time""
""fullscreenenter"",""1"",""3107""
","
","","","-1","","","20","10881","5251","g","elianto","#f73b6a7A","-1","-1","1","0","[]","0","2","","","10881","110","6","4","lose","no-go","0"
"pit-trial","229","1310530","0.0-115.0","battery-v0.2","","""event"",""trial"",""time""
""fullscreenenter"",""1"",""3107""
","
","
","""event"",""trial"",""time""
""fullscreenenter"",""1"",""3107""
","
","","","726.9000000357628","","","20","10881","5251","u","elianto","#3366ff99","-1"," ","0","0","[1577.699999988079]","1","2","","","10881","111","9","2","win","no-go","0"
"pit-trial","230","1314059","0.0-116.0","battery-v0.2","","""event"",""trial"",""time""
""fullscreenenter"",""1"",""3107""
","
","
","""event"",""trial"",""time""
""fullscreenenter"",""1"",""3107""
","
","","","670.9000000357628","","","20","10881","5251","p","elianto","#3366ff99"," "," ","1","+10","[1521.300000011921]","1","2","","","10881","112","5","1","win","go","0"
"pit-trial","231","1317717","0.0-117.0","battery-v0.2","","""event"",""trial"",""time""
""fullscreenenter"",""1"",""3107""
","
","
","""event"",""trial"",""time""
""fullscreenenter"",""1"",""3107""
","
","","","800.1000000238419","","","20","10881","5251","a","elianto","#f73b6a7A"," "," ","1","-10","[1651.699999988079]","1","2","","","10881","113","7","3","lose","go","1"
"pit-trial","232","1322576","0.0-118.0","battery-v0.2","","""event"",""trial"",""time""
""fullscreenenter"",""1"",""3107""
","
","
","""event"",""trial"",""time""
""fullscreenenter"",""1"",""3107""
","
","","","-1","","","20","10881","5251","l","elianto","#3366ff99","-1","-1","1","+10","[]","0","2","","","10881","114","8","2","win","no-go","0"
"pit-trial","233","1327435","0.0-119.0","battery-v0.2","","""event"",""trial"",""time""
""fullscreenenter"",""1"",""3107""
","
","
","""event"",""trial"",""time""
""fullscreenenter"",""1"",""3107""
","
","","","-1","","","20","10881","5251","u","elianto","#3366ff99","-1","-1","1","+10","[]","0","2","","","10881","115","9","2","win","no-go","0"
"pit-trial","234","1330940","0.0-120.0","battery-v0.2","","""event"",""trial"",""time""
""fullscreenenter"",""1"",""3107""
","
","
","""event"",""trial"",""time""
""fullscreenenter"",""1"",""3107""
","
","","","650.7999999523163","","","20","10881","5251","p","elianto","#3366ff99"," "," ","1","+10","[1502.199999988079]","1","2","","","10881","116","5","1","win","go","0"
"pit-trial","235","1334529","0.0-121.0","battery-v0.2","","""event"",""trial"",""time""
""fullscreenenter"",""1"",""3107""
","
","
","""event"",""trial"",""time""
""fullscreenenter"",""1"",""3107""
","
","","","728.5","","","20","10881","5251","p","elianto","#3366ff99"," "," ","1","+10","[1580.8999999761581]","1","2","","","10881","117","5","1","win","go","0"
"pit-trial","236","1339388","0.0-122.0","battery-v0.2","","""event"",""trial"",""time""
""fullscreenenter"",""1"",""3107""
","
","
","""event"",""trial"",""time""
""fullscreenenter"",""1"",""3107""
","
","","","-1","","","20","10881","5251","g","elianto","#f73b6a7A","-1","-1","1","0","[]","0","2","","","10881","118","6","4","lose","no-go","0"
"pit-trial","237","1344246","0.0-123.0","battery-v0.2","","""event"",""trial"",""time""
""fullscreenenter"",""1"",""3107""
","
","
","""event"",""trial"",""time""
""fullscreenenter"",""1"",""3107""
","
","","","-1","","","20","10881","5251","u","elianto","#3366ff99","-1","-1","1","0","[]","0","2","","","10881","119","9","2","win","no-go","1"
"pit-trial","238","1349108","0.0-124.0","battery-v0.2","","""event"",""trial"",""time""
""fullscreenenter"",""1"",""3107""
","
","
","""event"",""trial"",""time""
""fullscreenenter"",""1"",""3107""
","
","","","-1","","","20","10881","5251","l","elianto","#3366ff99","-1","-1","1","+10","[183.9000000357628]","1","2","","","10881","120","8","2","win","no-go","0"
"pit-trial","239","1352679","0.0-125.0","battery-v0.2","","""event"",""trial"",""time""
""fullscreenenter"",""1"",""3107""
","
","
","""event"",""trial"",""time""
""fullscreenenter"",""1"",""3107""
","
","","","713","","","20","10881","5251","a","elianto","#f73b6a7A"," "," ","1","0","[1564.0999999642372]","1","2","","","10881","121","7","3","lose","go","0"
"pit-trial","240","1357540","0.0-126.0","battery-v0.2","","""event"",""trial"",""time""
""fullscreenenter"",""1"",""3107""
","
","
","""event"",""trial"",""time""
""fullscreenenter"",""1"",""3107""
","
","","","-1","","","20","10881","5251","l","elianto","#3366ff99","-1","-1","1","0","[]","0","2","","","10881","122","8","2","win","no-go","1"
"pit-trial","241","1362398","0.0-127.0","battery-v0.2","","""event"",""trial"",""time""
""fullscreenenter"",""1"",""3107""
","
","
","""event"",""trial"",""time""
""fullscreenenter"",""1"",""3107""
","
","","","-1","","","20","10881","5251","u","elianto","#3366ff99","-1","-1","1","+10","[]","0","2","","","10881","123","9","2","win","no-go","0"
"pit-trial","242","1366212","0.0-128.0","battery-v0.2","","""event"",""trial"",""time""
""fullscreenenter"",""1"",""3107""
","
","
","""event"",""trial"",""time""
""fullscreenenter"",""1"",""3107""
","
","","","952.7999999523163","","","20","10881","5251","p","elianto","#3366ff99"," "," ","1","0","[1808]","1","2","","","10881","124","5","1","win","go","1"
"pit-trial","243","1371073","0.0-129.0","battery-v0.2","","""event"",""trial"",""time""
""fullscreenenter"",""1"",""3107""
","
","
","""event"",""trial"",""time""
""fullscreenenter"",""1"",""3107""
","
","","","-1","","","20","10881","5251","g","elianto","#f73b6a7A","-1","-1","1","0","[]","0","2","","","10881","125","6","4","lose","no-go","0"
"pit-trial","244","1375931","0.0-130.0","battery-v0.2","","""event"",""trial"",""time""
""fullscreenenter"",""1"",""3107""
","
","
","""event"",""trial"",""time""
""fullscreenenter"",""1"",""3107""
","
","","","-1","","","20","10881","5251","l","elianto","#3366ff99","-1","-1","1","0","[]","0","2","","","10881","126","8","2","win","no-go","1"
"pit-trial","245","1380569","0.0-131.0","battery-v0.2","","""event"",""trial"",""time""
""fullscreenenter"",""1"",""3107""
","
","
","""event"",""trial"",""time""
""fullscreenenter"",""1"",""3107""
","
","","","1782.4000000357628","","","20","10881","5251","a","elianto","#f73b6a7A"," "," ","1","0","[2634.400000035763]","1","2","","","10881","127","7","3","lose","go","0"
"pit-trial","246","1385431","0.0-132.0","battery-v0.2","","""event"",""trial"",""time""
""fullscreenenter"",""1"",""3107""
","
","
","""event"",""trial"",""time""
""fullscreenenter"",""1"",""3107""
","
","","","-1","","","20","10881","5251","u","elianto","#3366ff99","-1","-1","1","0","[]","0","2","","","10881","128","9","2","win","no-go","1"
"pit-trial","247","1390286","0.0-133.0","battery-v0.2","","""event"",""trial"",""time""
""fullscreenenter"",""1"",""3107""
","
","
","""event"",""trial"",""time""
""fullscreenenter"",""1"",""3107""
","
","","","-1","","","20","10881","5251","u","elianto","#3366ff99","-1","-1","1","+10","[]","0","2","","","10881","129","9","2","win","no-go","0"
"pit-trial","248","1394285","0.0-134.0","battery-v0.2","","""event"",""trial"",""time""
""fullscreenenter"",""1"",""3107""
","
","
","""event"",""trial"",""time""
""fullscreenenter"",""1"",""3107""
","
","","","1145.3999999761581","","","20","10881","5251","a","elianto","#f73b6a7A"," "," ","1","0","[1995.5]","1","2","","","10881","130","7","3","lose","go","0"
"pit-trial","249","1399146","0.0-135.0","battery-v0.2","","""event"",""trial"",""time""
""fullscreenenter"",""1"",""3107""
","
","
","""event"",""trial"",""time""
""fullscreenenter"",""1"",""3107""
","
","","","-1","","","20","10881","5251","g","elianto","#f73b6a7A","-1","-1","1","0","[]","0","2","","","10881","131","6","4","lose","no-go","0"
"pit-trial","250","1404005","0.0-136.0","battery-v0.2","","""event"",""trial"",""time""
""fullscreenenter"",""1"",""3107""
","
","
","""event"",""trial"",""time""
""fullscreenenter"",""1"",""3107""
","
","","","-1","","","20","10881","5251","l","elianto","#3366ff99","-1","-1","1","+10","[]","0","2","","","10881","132","8","2","win","no-go","0"
"pit-trial","251","1408863","0.0-137.0","battery-v0.2","","""event"",""trial"",""time""
""fullscreenenter"",""1"",""3107""
","
","
","""event"",""trial"",""time""
""fullscreenenter"",""1"",""3107""
","
","","","-1","","","20","10881","5251","l","elianto","#3366ff99","-1","-1","1","+10","[]","0","2","","","10881","133","8","2","win","no-go","0"
"pit-trial","252","1413722","0.0-138.0","battery-v0.2","","""event"",""trial"",""time""
""fullscreenenter"",""1"",""3107""
","
","
","""event"",""trial"",""time""
""fullscreenenter"",""1"",""3107""
","
","","","-1","","","20","10881","5251","g","elianto","#f73b6a7A","-1","-1","1","0","[]","0","2","","","10881","134","6","4","lose","no-go","0"
"pit-trial","253","1417373","0.0-139.0","battery-v0.2","","""event"",""trial"",""time""
""fullscreenenter"",""1"",""3107""
","
","
","""event"",""trial"",""time""
""fullscreenenter"",""1"",""3107""
","
","","","797.8000000119209","","","20","10881","5251","a","elianto","#f73b6a7A"," "," ","1","0","[1647.4000000357628]","1","2","","","10881","135","7","3","lose","go","0"
"pit-trial","254","1422235","0.0-140.0","battery-v0.2","","""event"",""trial"",""time""
""fullscreenenter"",""1"",""3107""
","
","
","""event"",""trial"",""time""
""fullscreenenter"",""1"",""3107""
","
","","","-1","","","20","10881","5251","u","elianto","#3366ff99","-1","-1","1","0","[]","0","2","","","10881","136","9","2","win","no-go","1"
"pit-trial","255","1426182","0.0-141.0","battery-v0.2","","""event"",""trial"",""time""
""fullscreenenter"",""1"",""3107""
","
","
","""event"",""trial"",""time""
""fullscreenenter"",""1"",""3107""
","
","","","1093","","","20","10881","5251","a","elianto","#f73b6a7A"," "," ","1","0","[1943.699999988079]","1","2","","","10881","137","7","3","lose","go","0"
"pit-trial","256","1431038","0.0-142.0","battery-v0.2","","""event"",""trial"",""time""
""fullscreenenter"",""1"",""3107""
","
","
","""event"",""trial"",""time""
""fullscreenenter"",""1"",""3107""
","
","","","-1","","","20","10881","5251","u","elianto","#3366ff99","-1","-1","1","+10","[]","0","2","","","10881","138","9","2","win","no-go","0"
"pit-trial","257","1435898","0.0-143.0","battery-v0.2","","""event"",""trial"",""time""
""fullscreenenter"",""1"",""3107""
","
","
","""event"",""trial"",""time""
""fullscreenenter"",""1"",""3107""
","
","","","-1","","","20","10881","5251","g","elianto","#f73b6a7A","-1","-1","1","-10","[]","0","2","","","10881","139","6","4","lose","no-go","1"
"pit-trial","258","1440756","0.0-144.0","battery-v0.2","","""event"",""trial"",""time""
""fullscreenenter"",""1"",""3107""
","
","
","""event"",""trial"",""time""
""fullscreenenter"",""1"",""3107""
","
","","","-1","","","20","10881","5251","l","elianto","#3366ff99","-1","-1","1","+10","[]","0","2","","","10881","140","8","2","win","no-go","0"
"pit-instructions","259","1456644","0.0-145.0","battery-v0.2","","""event"",""trial"",""time""
""fullscreenenter"",""1"",""3107""
","
","
","""event"",""trial"",""time""
""fullscreenenter"",""1"",""3107""
","
","","[{""page_index"":0,""viewing_time"":5894.900000035763},{""page_index"":1,""viewing_time"":9990.5}]","15885.700000047684","","","","","","","","","","","","","","","","","","","","","","","",""
"pit-trial","260","1461508","0.0-146.0","battery-v0.2","","""event"",""trial"",""time""
""fullscreenenter"",""1"",""3107""
","
","
","""event"",""trial"",""time""
""fullscreenenter"",""1"",""3107""
","
","","","-1","","","20","10881","5251","h","elianto","#f73b6a7A","-1","-1","1","0","[]","0","3","","","10881","141","3","4","lose","no-go","0"
"pit-trial","261","1466367","0.0-147.0","battery-v0.2","","""event"",""trial"",""time""
""fullscreenenter"",""1"",""3107""
","
","
","""event"",""trial"",""time""
""fullscreenenter"",""1"",""3107""
","
","","","-1","","","20","10881","5251","y","elianto","#f73b6a7A"," ","-1","0","-10","[]","0","3","","","10881","142","2","3","lose","go","0"
"pit-trial","262","1470594","0.0-148.0","battery-v0.2","","""event"",""trial"",""time""
""fullscreenenter"",""1"",""3107""
","
","
","""event"",""trial"",""time""
""fullscreenenter"",""1"",""3107""
","
","","","1367.9000000357628","","","20","10881","5251","r","elianto","#3366ff99","-1"," ","0","+10","[2220.600000023842]","1","3","","","10881","143","1","2","win","no-go","1"
"pit-trial","263","1475452","0.0-149.0","battery-v0.2","","""event"",""trial"",""time""
""fullscreenenter"",""1"",""3107""
","
","
","""event"",""trial"",""time""
""fullscreenenter"",""1"",""3107""
","
","","","-1","","","20","10881","5251","m","elianto","#f73b6a7A"," ","-1","0","0","[]","0","3","","","10881","144","0","3","lose","go","1"
"pit-trial","264","1480311","0.0-150.0","battery-v0.2","","""event"",""trial"",""time""
""fullscreenenter"",""1"",""3107""
","
","
","""event"",""trial"",""time""
""fullscreenenter"",""1"",""3107""
","
","","","-1","","","20","10881","5251","h","elianto","#f73b6a7A","-1","-1","1","0","[]","0","3","","","10881","145","3","4","lose","no-go","0"
"pit-trial","265","1483835","0.0-151.0","battery-v0.2","","""event"",""trial"",""time""
""fullscreenenter"",""1"",""3107""
","
","
","""event"",""trial"",""time""
""fullscreenenter"",""1"",""3107""
","
","","","665","","","20","10881","5251","r","elianto","#3366ff99","-1"," ","0","+10","[1516.300000011921]","1","3","","","10881","146","1","2","win","no-go","1"
"pit-trial","266","1487919","0.0-152.0","battery-v0.2","","""event"",""trial"",""time""
""fullscreenenter"",""1"",""3107""
","
","
","""event"",""trial"",""time""
""fullscreenenter"",""1"",""3107""
","
","","","1214.6000000238419","","","20","10881","5251","y","elianto","#f73b6a7A"," "," ","1","0","[2079.300000011921]","1","3","","","10881","147","2","3","lose","go","0"
"pit-trial","267","1492777","0.0-153.0","battery-v0.2","","""event"",""trial"",""time""
""fullscreenenter"",""1"",""3107""
","
","
","""event"",""trial"",""time""
""fullscreenenter"",""1"",""3107""
","
","","","-1","","","20","10881","5251","m","elianto","#f73b6a7A"," ","-1","0","0","[]","0","3","","","10881","148","0","3","lose","go","1"
"pit-trial","268","1496330","0.0-154.0","battery-v0.2","","""event"",""trial"",""time""
