"trial_type","trial_index","time_elapsed","internal_node_id","task_version","subject_id","interactions","blur_events","focus_events","fullscreenenter_events","fullscreenexit_events","success","view_history","rt","responses","num_errors","age","subject","participantId","rune","rune_set","hex","correct","choice","accuracy","outcome","keys","total_keys","block","practice","value","sub","trial","stimulus","robot","valence","action","sham"
"pavlovia","0","16","0.0-0.0","battery-v0.2","","""event"",""trial"",""time""
""fullscreenenter"",""1"",""3113""
","
","
","""event"",""trial"",""time""
""fullscreenenter"",""1"",""3113""
","
","","","","","","","","","","","","","","","","","","","","","","","","","","",""
"fullscreen","1","4102","0.0-1.0","battery-v0.2","","""event"",""trial"",""time""
""fullscreenenter"",""1"",""3113""
","
","
","""event"",""trial"",""time""
""fullscreenenter"",""1"",""3113""
","
","true","","","","","","","","","","","","","","","","","","","","","","","","","",""
"pit-instructions","2","13594","0.0-2.0-0.0","battery-v0.2","","""event"",""trial"",""time""
""fullscreenenter"",""1"",""3113""
","
","
","""event"",""trial"",""time""
""fullscreenenter"",""1"",""3113""
","
","","[{""page_index"":0,""viewing_time"":9488.900000000023}]","9489.5","","","","","","","","","","","","","","","","","","","","","","","",""
"pit-comprehension","3","17130","0.0-2.0-1.0-0.0","battery-v0.2","","""event"",""trial"",""time""
""fullscreenenter"",""1"",""3113""
","
","
","""event"",""trial"",""time""
""fullscreenenter"",""1"",""3113""
","
","","","3531.8000000000466","[""shark""]","0","23","5283","787","","","","","","","","","","","","","","","","","","",""
"pit-instructions","4","18793","0.0-2.0-1.0-1.0","battery-v0.2","","""event"",""trial"",""time""
""fullscreenenter"",""1"",""3113""
","
","
","""event"",""trial"",""time""
""fullscreenenter"",""1"",""3113""
","
","","[{""page_index"":0,""viewing_time"":1651.7000000000116}]","1652.2000000000116","","","","","","","","","","","","","","","","","","","","","","","",""
"pit-comprehension","5","22302","0.0-2.0-2.0-0.0","battery-v0.2","","""event"",""trial"",""time""
""fullscreenenter"",""1"",""3113""
","
","
","""event"",""trial"",""time""
""fullscreenenter"",""1"",""3113""
","
","","","3505.100000000035","[""tiger""]","0","23","5283","787","","","","","","","","","","","","","","","","","","",""
"pit-instructions","6","23355","0.0-2.0-2.0-1.0","battery-v0.2","","""event"",""trial"",""time""
""fullscreenenter"",""1"",""3113""
","
","
","""event"",""trial"",""time""
""fullscreenenter"",""1"",""3113""
","
","","[{""page_index"":0,""viewing_time"":1048.6999999999534}]","1049.1999999999534","","","","","","","","","","","","","","","","","","","","","","","",""
"pit-instructions","7","117975","0.0-2.0-3.0","battery-v0.2","","""event"",""trial"",""time""
""fullscreenenter"",""1"",""3113""
","
","
","""event"",""trial"",""time""
""fullscreenenter"",""1"",""3113""
","
","","[{""page_index"":0,""viewing_time"":8923.600000000035},{""page_index"":1,""viewing_time"":6244.700000000012},{""page_index"":2,""viewing_time"":7587.299999999988},{""page_index"":3,""viewing_time"":5065.899999999965},{""page_index"":4,""viewing_time"":5644.300000000047},{""page_index"":5,""viewing_time"":5418.099999999977},{""page_index"":6,""viewing_time"":6907.099999999977},{""page_index"":7,""viewing_time"":6338.700000000012},{""page_index"":8,""viewing_time"":6750.299999999988},{""page_index"":9,""viewing_time"":8018.800000000047},{""page_index"":10,""viewing_time"":8133},{""page_index"":11,""viewing_time"":7138.099999999977},{""page_index"":12,""viewing_time"":6887.400000000023},{""page_index"":13,""viewing_time"":5559.399999999965}]","94617.30000000005","","","","","","","","","","","","","","","","","","","","","","","",""
"pit-trial","8","121352","0.0-2.0-4.0-0.0","battery-v0.2","","""event"",""trial"",""time""
""fullscreenenter"",""1"",""3113""
","
","
","""event"",""trial"",""time""
""fullscreenenter"",""1"",""3113""
","
","","","509.0999999999767","","","23","5283","787","&#9784;","elianto","#FFFFF080"," "," ","1","&#10004","[1364.5999999999767]","1","0","0","","","","","","","",""
"pit-trial","9","124733","0.0-2.0-4.1-0.1","battery-v0.2","","""event"",""trial"",""time""
""fullscreenenter"",""1"",""3113""
","
","
","""event"",""trial"",""time""
""fullscreenenter"",""1"",""3113""
","
","","","508.70000000001164","","","23","5283","787","&#9784;","elianto","#FFFFF080"," "," ","1","&#10004","[1361]","1","0","0","","","","","","","",""
"pit-trial","10","128072","0.0-2.0-4.2-0.2","battery-v0.2","","""event"",""trial"",""time""
""fullscreenenter"",""1"",""3113""
","
","
","""event"",""trial"",""time""
""fullscreenenter"",""1"",""3113""
","
","","","475.6000000000349","","","23","5283","787","&#9784;","elianto","#FFFFF080"," "," ","1","&#10004","[1333.7000000000116]","1","0","0","","","","","","","",""
"pit-trial","11","131415","0.0-2.0-4.3-0.3","battery-v0.2","","""event"",""trial"",""time""
""fullscreenenter"",""1"",""3113""
","
","
","""event"",""trial"",""time""
""fullscreenenter"",""1"",""3113""
","
","","","471.4000000000233","","","23","5283","787","&#9784;","elianto","#FFFFF080"," "," ","1","&#10004","[1322.600000000035]","1","0","0","","","","","","","",""
"pit-trial","12","134740","0.0-2.0-4.4-0.4","battery-v0.2","","""event"",""trial"",""time""
""fullscreenenter"",""1"",""3113""
","
","
","""event"",""trial"",""time""
""fullscreenenter"",""1"",""3113""
","
","","","454.0999999999767","","","23","5283","787","&#9784;","elianto","#FFFFF080"," "," ","1","&#10004","[1312]","1","0","0","","","","","","","",""
"pit-instructions","13","157022","0.0-2.0-5.0","battery-v0.2","","""event"",""trial"",""time""
""fullscreenenter"",""1"",""3113""
","
","
","""event"",""trial"",""time""
""fullscreenenter"",""1"",""3113""
","
","","[{""page_index"":0,""viewing_time"":5300},{""page_index"":1,""viewing_time"":5901.700000000012},{""page_index"":2,""viewing_time"":5565},{""page_index"":3,""viewing_time"":5505.599999999977}]","22272.599999999977","","","","","","","","","","","","","","","","","","","","","","","",""
"pit-trial","14","161907","0.0-2.0-6.0-0.0","battery-v0.2","","""event"",""trial"",""time""
""fullscreenenter"",""1"",""3113""
","
","
","""event"",""trial"",""time""
""fullscreenenter"",""1"",""3113""
","
","","","-1","","","23","5283","787","&#9854;","elianto","#FFFFF080","-1","-1","1","&#10004","[]","0","0","1","","","","","","","",""
"pit-trial","15","166791","0.0-2.0-6.1-0.1","battery-v0.2","","""event"",""trial"",""time""
""fullscreenenter"",""1"",""3113""
","
","
","""event"",""trial"",""time""
""fullscreenenter"",""1"",""3113""
","
","","","-1","","","23","5283","787","&#9854;","elianto","#FFFFF080","-1","-1","1","&#10004","[]","0","0","1","","","","","","","",""
"pit-trial","16","171676","0.0-2.0-6.2-0.2","battery-v0.2","","""event"",""trial"",""time""
""fullscreenenter"",""1"",""3113""
","
","
","""event"",""trial"",""time""
""fullscreenenter"",""1"",""3113""
","
","","","-1","","","23","5283","787","&#9854;","elianto","#FFFFF080","-1","-1","1","&#10004","[]","0","0","1","","","","","","","",""
"pit-trial","17","176564","0.0-2.0-6.3-0.3","battery-v0.2","","""event"",""trial"",""time""
""fullscreenenter"",""1"",""3113""
","
","
","""event"",""trial"",""time""
""fullscreenenter"",""1"",""3113""
","
","","","-1","","","23","5283","787","&#9854;","elianto","#FFFFF080","-1","-1","1","&#10004","[]","0","0","1","","","","","","","",""
"pit-trial","18","181437","0.0-2.0-6.4-0.4","battery-v0.2","","""event"",""trial"",""time""
""fullscreenenter"",""1"",""3113""
","
","
","""event"",""trial"",""time""
""fullscreenenter"",""1"",""3113""
","
","","","-1","","","23","5283","787","&#9854;","elianto","#FFFFF080","-1","-1","1","&#10004","[]","0","0","1","","","","","","","",""
"pit-instructions","19","296628","0.0-2.0-7.0","battery-v0.2","","""event"",""trial"",""time""
""fullscreenenter"",""1"",""3113""
","
","
","""event"",""trial"",""time""
""fullscreenenter"",""1"",""3113""
","
","","[{""page_index"":0,""viewing_time"":5734.699999999953},{""page_index"":1,""viewing_time"":6813.800000000047},{""page_index"":2,""viewing_time"":6123.399999999907},{""page_index"":3,""viewing_time"":6277.400000000023},{""page_index"":4,""viewing_time"":5802.599999999977},{""page_index"":5,""viewing_time"":5541.900000000023},{""page_index"":6,""viewing_time"":4697},{""page_index"":7,""viewing_time"":7719.300000000047},{""page_index"":8,""viewing_time"":6681.400000000023},{""page_index"":9,""viewing_time"":5931},{""page_index"":10,""viewing_time"":6408.699999999953},{""page_index"":11,""viewing_time"":4676.699999999953},{""page_index"":12,""viewing_time"":7212.400000000023},{""page_index"":13,""viewing_time"":7401.400000000023},{""page_index"":14,""viewing_time"":7595.599999999977},{""page_index"":15,""viewing_time"":6584.70000000007},{""page_index"":16,""viewing_time"":6202.699999999953},{""page_index"":17,""viewing_time"":7781.900000000023}]","115187.29999999993","","","","","","","","","","","","","","","","","","","","","","","",""
"pit-trial","20","299955","0.0-2.0-8.0-0.0","battery-v0.2","","""event"",""trial"",""time""
""fullscreenenter"",""1"",""3113""
","
","
","""event"",""trial"",""time""
""fullscreenenter"",""1"",""3113""
","
","","","450.80000000004657","","","23","5283","787","&#9776;","elianto","#3366ff99"," "," ","1","+10","[1307.8999999999069]","1","0","1","","","","","","","",""
"pit-trial","21","303286","0.0-2.0-8.0-1.0","battery-v0.2","","""event"",""trial"",""time""
""fullscreenenter"",""1"",""3113""
","
","
","""event"",""trial"",""time""
""fullscreenenter"",""1"",""3113""
","
","","","470.69999999995343","","","23","5283","787","&#9776;","elianto","#3366ff99"," "," ","1","+10","[1322.0999999999767]","1","0","1","","","","","","","",""
"pit-trial","22","306603","0.0-2.0-8.0-2.0","battery-v0.2","","""event"",""trial"",""time""
""fullscreenenter"",""1"",""3113""
","
","
","""event"",""trial"",""time""
""fullscreenenter"",""1"",""3113""
","
","","","450","","","23","5283","787","&#9776;","elianto","#3366ff99"," "," ","1","+10","[1304.5999999999767]","1","0","1","","","","","","","",""
"pit-trial","23","309577","0.0-2.0-8.0-3.0","battery-v0.2","","""event"",""trial"",""time""
""fullscreenenter"",""1"",""3113""
","
","
","""event"",""trial"",""time""
""fullscreenenter"",""1"",""3113""
","
","","","102.69999999995343","","","23","5283","787","&#9776;","elianto","#3366ff99"," "," ","1","0","[957.6999999999534]","1","0","1","","","","","","","",""
"pit-trial","24","312689","0.0-2.0-8.0-4.0","battery-v0.2","","""event"",""trial"",""time""
""fullscreenenter"",""1"",""3113""
","
","
","""event"",""trial"",""time""
""fullscreenenter"",""1"",""3113""
","
","","","237.90000000002328","","","23","5283","787","&#9776;","elianto","#3366ff99"," "," ","1","+10","[1088.4000000000233]","1","0","1","","","","","","","",""
"pit-trial","25","315746","0.0-2.0-8.1-0.1","battery-v0.2","","""event"",""trial"",""time""
""fullscreenenter"",""1"",""3113""
","
","
","""event"",""trial"",""time""
""fullscreenenter"",""1"",""3113""
","
","","","178.40000000002328","","","23","5283","787","&#9776;","elianto","#3366ff99"," "," ","1","+10","[1033.1999999999534]","1","0","1","","","","","","","",""
"pit-trial","26","318816","0.0-2.0-8.1-1.1","battery-v0.2","","""event"",""trial"",""time""
""fullscreenenter"",""1"",""3113""
","
","
","""event"",""trial"",""time""
""fullscreenenter"",""1"",""3113""
","
","","","195","","","23","5283","787","&#9776;","elianto","#3366ff99"," "," ","1","+10","[1055.3000000000466]","1","0","1","","","","","","","",""
"pit-trial","27","321861","0.0-2.0-8.1-2.1","battery-v0.2","","""event"",""trial"",""time""
""fullscreenenter"",""1"",""3113""
","
","
","""event"",""trial"",""time""
""fullscreenenter"",""1"",""3113""
","
","","","162.90000000002328","","","23","5283","787","&#9776;","elianto","#3366ff99"," "," ","1","+10","[1021.4000000000233]","1","0","1","","","","","","","",""
"pit-trial","28","324822","0.0-2.0-8.1-3.1","battery-v0.2","","""event"",""trial"",""time""
""fullscreenenter"",""1"",""3113""
","
","
","""event"",""trial"",""time""
""fullscreenenter"",""1"",""3113""
","
","","","91.80000000004657","","","23","5283","787","&#9776;","elianto","#3366ff99"," "," ","1","0","[942.3000000000466]","1","0","1","","","","","","","",""
"pit-trial","29","327742","0.0-2.0-8.1-4.1","battery-v0.2","","""event"",""trial"",""time""
""fullscreenenter"",""1"",""3113""
","
","
","""event"",""trial"",""time""
""fullscreenenter"",""1"",""3113""
","
","","","55","","","23","5283","787","&#9776;","elianto","#3366ff99"," "," ","1","+10","[912.2000000000698]","1","0","1","","","","","","","",""
"pit-trial","30","330650","0.0-2.0-8.2-0.2","battery-v0.2","","""event"",""trial"",""time""
""fullscreenenter"",""1"",""3113""
","
","
","""event"",""trial"",""time""
""fullscreenenter"",""1"",""3113""
","
","","","33.699999999953434","","","23","5283","787","&#9776;","elianto","#3366ff99"," "," ","1","+10","[886.9000000000233]","1","0","1","","","","","","","",""
"pit-trial","31","333616","0.0-2.0-8.2-1.2","battery-v0.2","","""event"",""trial"",""time""
""fullscreenenter"",""1"",""3113""
","
","
","""event"",""trial"",""time""
""fullscreenenter"",""1"",""3113""
","
","","","96.09999999997672","","","23","5283","787","&#9776;","elianto","#3366ff99"," "," ","1","+10","[951.6999999999534,1254]","2","0","1","","","","","","","",""
"pit-trial","32","336610","0.0-2.0-8.2-2.2","battery-v0.2","","""event"",""trial"",""time""
""fullscreenenter"",""1"",""3113""
","
","
","""event"",""trial"",""time""
""fullscreenenter"",""1"",""3113""
","
","","","119.79999999993015","","","23","5283","787","&#9776;","elianto","#3366ff99"," "," ","1","+10","[982.1999999999534]","1","0","1","","","","","","","",""
"pit-trial","33","339610","0.0-2.0-8.2-3.2","battery-v0.2","","""event"",""trial"",""time""
""fullscreenenter"",""1"",""3113""
","
","
","""event"",""trial"",""time""
""fullscreenenter"",""1"",""3113""
","
","","","125.90000000002328","","","23","5283","787","&#9776;","elianto","#3366ff99"," "," ","1","0","[979.5]","1","0","1","","","","","","","",""
"pit-trial","34","342677","0.0-2.0-8.2-4.2","battery-v0.2","","""event"",""trial"",""time""
""fullscreenenter"",""1"",""3113""
","
","
","""event"",""trial"",""time""
""fullscreenenter"",""1"",""3113""
","
","","","199.40000000002328","","","23","5283","787","&#9776;","elianto","#3366ff99"," "," ","1","+10","[1056.5]","1","0","1","","","","","","","",""
"call-function","35","342680","0.0-2.0-9.0","battery-v0.2","","""event"",""trial"",""time""
""fullscreenenter"",""1"",""3113""
","
","
","""event"",""trial"",""time""
""fullscreenenter"",""1"",""3113""
","
","","","","","","","","","","","","","","","","","","","","","","","","","","",""
"pit-instructions","36","381823","0.0-2.0-10.0","battery-v0.2","","""event"",""trial"",""time""
""fullscreenenter"",""1"",""3113""
","
","
","""event"",""trial"",""time""
""fullscreenenter"",""1"",""3113""
","
","","[{""page_index"":0,""viewing_time"":6746.300000000047},{""page_index"":1,""viewing_time"":6978.199999999953},{""page_index"":2,""viewing_time"":9513.699999999953},{""page_index"":3,""viewing_time"":8848.300000000047},{""page_index"":4,""viewing_time"":7055.199999999953}]","39142.19999999995","","","","","","","","","","","","","","","","","","","","","","","",""
"pit-trial","37","386702","0.0-2.0-11.0-0.0","battery-v0.2","","""event"",""trial"",""time""
""fullscreenenter"",""1"",""3113""
","
","
","""event"",""trial"",""time""
""fullscreenenter"",""1"",""3113""
","
","","","-1","","","23","5283","787","&#9761;","elianto","#3366ff99","-1","-1","1","+10","[]","0","0","2","","","","","","","",""
"pit-trial","38","391571","0.0-2.0-11.0-1.0","battery-v0.2","","""event"",""trial"",""time""
""fullscreenenter"",""1"",""3113""
","
","
","""event"",""trial"",""time""
""fullscreenenter"",""1"",""3113""
","
","","","-1","","","23","5283","787","&#9761;","elianto","#3366ff99","-1","-1","1","+10","[]","0","0","2","","","","","","","",""
"pit-trial","39","396451","0.0-2.0-11.0-2.0","battery-v0.2","","""event"",""trial"",""time""
""fullscreenenter"",""1"",""3113""
","
","
","""event"",""trial"",""time""
""fullscreenenter"",""1"",""3113""
","
","","","-1","","","23","5283","787","&#9761;","elianto","#3366ff99","-1","-1","1","+10","[]","0","0","2","","","","","","","",""
"pit-trial","40","401333","0.0-2.0-11.0-3.0","battery-v0.2","","""event"",""trial"",""time""
""fullscreenenter"",""1"",""3113""
","
","
","""event"",""trial"",""time""
""fullscreenenter"",""1"",""3113""
","
","","","-1","","","23","5283","787","&#9761;","elianto","#3366ff99","-1","-1","1","0","[]","0","0","2","","","","","","","",""
"pit-trial","41","406202","0.0-2.0-11.0-4.0","battery-v0.2","","""event"",""trial"",""time""
""fullscreenenter"",""1"",""3113""
","
","
","""event"",""trial"",""time""
""fullscreenenter"",""1"",""3113""
","
","","","-1","","","23","5283","787","&#9761;","elianto","#3366ff99","-1","-1","1","+10","[]","0","0","2","","","","","","","",""
"pit-trial","42","411090","0.0-2.0-11.1-0.1","battery-v0.2","","""event"",""trial"",""time""
""fullscreenenter"",""1"",""3113""
","
","
","""event"",""trial"",""time""
""fullscreenenter"",""1"",""3113""
","
","","","-1","","","23","5283","787","&#9761;","elianto","#3366ff99","-1","-1","1","+10","[]","0","0","2","","","","","","","",""
"pit-trial","43","415971","0.0-2.0-11.1-1.1","battery-v0.2","","""event"",""trial"",""time""
""fullscreenenter"",""1"",""3113""
","
","
","""event"",""trial"",""time""
""fullscreenenter"",""1"",""3113""
","
","","","-1","","","23","5283","787","&#9761;","elianto","#3366ff99","-1","-1","1","+10","[]","0","0","2","","","","","","","",""
"pit-trial","44","420847","0.0-2.0-11.1-2.1","battery-v0.2","","""event"",""trial"",""time""
""fullscreenenter"",""1"",""3113""
","
","
","""event"",""trial"",""time""
""fullscreenenter"",""1"",""3113""
","
","","","-1","","","23","5283","787","&#9761;","elianto","#3366ff99","-1","-1","1","+10","[]","0","0","2","","","","","","","",""
"pit-trial","45","425727","0.0-2.0-11.1-3.1","battery-v0.2","","""event"",""trial"",""time""
""fullscreenenter"",""1"",""3113""
","
","
","""event"",""trial"",""time""
""fullscreenenter"",""1"",""3113""
","
","","","-1","","","23","5283","787","&#9761;","elianto","#3366ff99","-1","-1","1","0","[]","0","0","2","","","","","","","",""
"pit-trial","46","430612","0.0-2.0-11.1-4.1","battery-v0.2","","""event"",""trial"",""time""
""fullscreenenter"",""1"",""3113""
","
","
","""event"",""trial"",""time""
""fullscreenenter"",""1"",""3113""
","
","","","-1","","","23","5283","787","&#9761;","elianto","#3366ff99","-1","-1","1","+10","[]","0","0","2","","","","","","","",""
"pit-trial","47","435477","0.0-2.0-11.2-0.2","battery-v0.2","","""event"",""trial"",""time""
""fullscreenenter"",""1"",""3113""
","
","
","""event"",""trial"",""time""
""fullscreenenter"",""1"",""3113""
","
","","","-1","","","23","5283","787","&#9761;","elianto","#3366ff99","-1","-1","1","+10","[]","0","0","2","","","","","","","",""
"pit-trial","48","440352","0.0-2.0-11.2-1.2","battery-v0.2","","""event"",""trial"",""time""
""fullscreenenter"",""1"",""3113""
","
","
","""event"",""trial"",""time""
""fullscreenenter"",""1"",""3113""
","
","","","-1","","","23","5283","787","&#9761;","elianto","#3366ff99","-1","-1","1","+10","[]","0","0","2","","","","","","","",""
"pit-trial","49","445235","0.0-2.0-11.2-2.2","battery-v0.2","","""event"",""trial"",""time""
""fullscreenenter"",""1"",""3113""
","
","
","""event"",""trial"",""time""
""fullscreenenter"",""1"",""3113""
","
","","","-1","","","23","5283","787","&#9761;","elianto","#3366ff99","-1","-1","1","+10","[]","0","0","2","","","","","","","",""
"pit-trial","50","450108","0.0-2.0-11.2-3.2","battery-v0.2","","""event"",""trial"",""time""
""fullscreenenter"",""1"",""3113""
","
","
","""event"",""trial"",""time""
""fullscreenenter"",""1"",""3113""
","
","","","-1","","","23","5283","787","&#9761;","elianto","#3366ff99","-1","-1","1","0","[]","0","0","2","","","","","","","",""
"pit-trial","51","454978","0.0-2.0-11.2-4.2","battery-v0.2","","""event"",""trial"",""time""
""fullscreenenter"",""1"",""3113""
","
","
","""event"",""trial"",""time""
""fullscreenenter"",""1"",""3113""
","
","","","-1","","","23","5283","787","&#9761;","elianto","#3366ff99","-1","-1","1","+10","[]","0","0","2","","","","","","","",""
"pit-trial","52","459858","0.0-2.0-11.3-0.3","battery-v0.2","","""event"",""trial"",""time""
""fullscreenenter"",""1"",""3113""
","
","
","""event"",""trial"",""time""
""fullscreenenter"",""1"",""3113""
","
","","","-1","","","23","5283","787","&#9761;","elianto","#3366ff99","-1","-1","1","+10","[]","0","0","2","","","","","","","",""
"pit-trial","53","464736","0.0-2.0-11.3-1.3","battery-v0.2","","""event"",""trial"",""time""
""fullscreenenter"",""1"",""3113""
","
","
","""event"",""trial"",""time""
""fullscreenenter"",""1"",""3113""
","
","","","-1","","","23","5283","787","&#9761;","elianto","#3366ff99","-1","-1","1","+10","[]","0","0","2","","","","","","","",""
"pit-trial","54","469606","0.0-2.0-11.3-2.3","battery-v0.2","","""event"",""trial"",""time""
""fullscreenenter"",""1"",""3113""
","
","
","""event"",""trial"",""time""
""fullscreenenter"",""1"",""3113""
","
","","","-1","","","23","5283","787","&#9761;","elianto","#3366ff99","-1","-1","1","+10","[]","0","0","2","","","","","","","",""
"pit-trial","55","474491","0.0-2.0-11.3-3.3","battery-v0.2","","""event"",""trial"",""time""
""fullscreenenter"",""1"",""3113""
","
","
","""event"",""trial"",""time""
""fullscreenenter"",""1"",""3113""
","
","","","-1","","","23","5283","787","&#9761;","elianto","#3366ff99","-1","-1","1","0","[]","0","0","2","","","","","","","",""
"pit-trial","56","479353","0.0-2.0-11.3-4.3","battery-v0.2","","""event"",""trial"",""time""
""fullscreenenter"",""1"",""3113""
","
","
","""event"",""trial"",""time""
""fullscreenenter"",""1"",""3113""
","
","","","-1","","","23","5283","787","&#9761;","elianto","#3366ff99","-1","-1","1","+10","[]","0","0","2","","","","","","","",""
"call-function","57","479356","0.0-2.0-12.0","battery-v0.2","","""event"",""trial"",""time""
""fullscreenenter"",""1"",""3113""
","
","
","""event"",""trial"",""time""
""fullscreenenter"",""1"",""3113""
","
","","","","","","","","","","","","","","","","","","","","","","","","","","",""
"pit-instructions","58","512357","0.0-2.0-13.0","battery-v0.2","","""event"",""trial"",""time""
""fullscreenenter"",""1"",""3113""
","
","
","""event"",""trial"",""time""
""fullscreenenter"",""1"",""3113""
","
","","[{""page_index"":0,""viewing_time"":5188.699999999953},{""page_index"":1,""viewing_time"":6279.70000000007},{""page_index"":2,""viewing_time"":3171},{""page_index"":3,""viewing_time"":13400.399999999907},{""page_index"":4,""viewing_time"":4959.5}]","32999.79999999993","","","","","","","","","","","","","","","","","","","","","","","",""
"pit-trial","59","515644","0.0-2.0-14.0-0.0","battery-v0.2","","""event"",""trial"",""time""
""fullscreenenter"",""1"",""3113""
","
","
","""event"",""trial"",""time""
""fullscreenenter"",""1"",""3113""
","
","","","429.5","","","23","5283","787","&#9826;","elianto","#f73b6a7A","-1"," ","0","-10","[1282]","1","0","3","","","","","","","",""
"pit-trial","60","520518","0.0-2.0-14.0-1.0","battery-v0.2","","""event"",""trial"",""time""
""fullscreenenter"",""1"",""3113""
","
","
","""event"",""trial"",""time""
""fullscreenenter"",""1"",""3113""
","
","","","-1","","","23","5283","787","&#9826;","elianto","#f73b6a7A","-1","-1","1","0","[]","0","0","3","","","","","","","",""
"pit-trial","61","525390","0.0-2.0-14.0-2.0","battery-v0.2","","""event"",""trial"",""time""
""fullscreenenter"",""1"",""3113""
","
","
","""event"",""trial"",""time""
""fullscreenenter"",""1"",""3113""
","
","","","-1","","","23","5283","787","&#9826;","elianto","#f73b6a7A","-1","-1","1","0","[]","0","0","3","","","","","","","",""
"pit-trial","62","530267","0.0-2.0-14.0-3.0","battery-v0.2","","""event"",""trial"",""time""
""fullscreenenter"",""1"",""3113""
","
","
","""event"",""trial"",""time""
""fullscreenenter"",""1"",""3113""
","
","","","-1","","","23","5283","787","&#9826;","elianto","#f73b6a7A","-1","-1","1","-10","[]","0","0","3","","","","","","","",""
"pit-trial","63","535142","0.0-2.0-14.0-4.0","battery-v0.2","","""event"",""trial"",""time""
""fullscreenenter"",""1"",""3113""
","
","
","""event"",""trial"",""time""
""fullscreenenter"",""1"",""3113""
","
","","","-1","","","23","5283","787","&#9826;","elianto","#f73b6a7A","-1","-1","1","0","[]","0","0","3","","","","","","","",""
"pit-trial","64","540035","0.0-2.0-14.1-0.1","battery-v0.2","","""event"",""trial"",""time""
""fullscreenenter"",""1"",""3113""
","
","
","""event"",""trial"",""time""
""fullscreenenter"",""1"",""3113""
","
","","","-1","","","23","5283","787","&#9826;","elianto","#f73b6a7A","-1","-1","1","0","[]","0","0","3","","","","","","","",""
"pit-trial","65","544903","0.0-2.0-14.1-1.1","battery-v0.2","","""event"",""trial"",""time""
""fullscreenenter"",""1"",""3113""
","
","
","""event"",""trial"",""time""
""fullscreenenter"",""1"",""3113""
","
","","","-1","","","23","5283","787","&#9826;","elianto","#f73b6a7A","-1","-1","1","0","[]","0","0","3","","","","","","","",""
"pit-trial","66","549778","0.0-2.0-14.1-2.1","battery-v0.2","","""event"",""trial"",""time""
""fullscreenenter"",""1"",""3113""
","
","
","""event"",""trial"",""time""
""fullscreenenter"",""1"",""3113""
","
","","","-1","","","23","5283","787","&#9826;","elianto","#f73b6a7A","-1","-1","1","0","[]","0","0","3","","","","","","","",""
"pit-trial","67","554654","0.0-2.0-14.1-3.1","battery-v0.2","","""event"",""trial"",""time""
""fullscreenenter"",""1"",""3113""
","
","
","""event"",""trial"",""time""
""fullscreenenter"",""1"",""3113""
","
","","","-1","","","23","5283","787","&#9826;","elianto","#f73b6a7A","-1","-1","1","-10","[]","0","0","3","","","","","","","",""
"pit-trial","68","559518","0.0-2.0-14.1-4.1","battery-v0.2","","""event"",""trial"",""time""
""fullscreenenter"",""1"",""3113""
","
","
","""event"",""trial"",""time""
""fullscreenenter"",""1"",""3113""
","
","","","-1","","","23","5283","787","&#9826;","elianto","#f73b6a7A","-1","-1","1","0","[]","0","0","3","","","","","","","",""
"pit-trial","69","564393","0.0-2.0-14.2-0.2","battery-v0.2","","""event"",""trial"",""time""
""fullscreenenter"",""1"",""3113""
","
","
","""event"",""trial"",""time""
""fullscreenenter"",""1"",""3113""
","
","","","-1","","","23","5283","787","&#9826;","elianto","#f73b6a7A","-1","-1","1","0","[]","0","0","3","","","","","","","",""
"pit-trial","70","569261","0.0-2.0-14.2-1.2","battery-v0.2","","""event"",""trial"",""time""
""fullscreenenter"",""1"",""3113""
","
","
","""event"",""trial"",""time""
""fullscreenenter"",""1"",""3113""
","
","","","-1","","","23","5283","787","&#9826;","elianto","#f73b6a7A","-1","-1","1","0","[]","0","0","3","","","","","","","",""
"pit-trial","71","574132","0.0-2.0-14.2-2.2","battery-v0.2","","""event"",""trial"",""time""
""fullscreenenter"",""1"",""3113""
","
","
","""event"",""trial"",""time""
""fullscreenenter"",""1"",""3113""
","
","","","-1","","","23","5283","787","&#9826;","elianto","#f73b6a7A","-1","-1","1","0","[]","0","0","3","","","","","","","",""
"pit-trial","72","579004","0.0-2.0-14.2-3.2","battery-v0.2","","""event"",""trial"",""time""
""fullscreenenter"",""1"",""3113""
","
","
","""event"",""trial"",""time""
""fullscreenenter"",""1"",""3113""
","
","","","-1","","","23","5283","787","&#9826;","elianto","#f73b6a7A","-1","-1","1","-10","[]","0","0","3","","","","","","","",""
"pit-trial","73","583885","0.0-2.0-14.2-4.2","battery-v0.2","","""event"",""trial"",""time""
""fullscreenenter"",""1"",""3113""
","
","
","""event"",""trial"",""time""
""fullscreenenter"",""1"",""3113""
","
","","","-1","","","23","5283","787","&#9826;","elianto","#f73b6a7A","-1","-1","1","0","[]","0","0","3","","","","","","","",""
"pit-trial","74","588752","0.0-2.0-14.3-0.3","battery-v0.2","","""event"",""trial"",""time""
""fullscreenenter"",""1"",""3113""
","
","
","""event"",""trial"",""time""
""fullscreenenter"",""1"",""3113""
","
","","","-1","","","23","5283","787","&#9826;","elianto","#f73b6a7A","-1","-1","1","0","[]","0","0","3","","","","","","","",""
"pit-trial","75","593631","0.0-2.0-14.3-1.3","battery-v0.2","","""event"",""trial"",""time""
""fullscreenenter"",""1"",""3113""
","
","
","""event"",""trial"",""time""
""fullscreenenter"",""1"",""3113""
","
","","","-1","","","23","5283","787","&#9826;","elianto","#f73b6a7A","-1","-1","1","0","[]","0","0","3","","","","","","","",""
"pit-trial","76","598513","0.0-2.0-14.3-2.3","battery-v0.2","","""event"",""trial"",""time""
""fullscreenenter"",""1"",""3113""
","
","
","""event"",""trial"",""time""
""fullscreenenter"",""1"",""3113""
","
","","","-1","","","23","5283","787","&#9826;","elianto","#f73b6a7A","-1","-1","1","0","[]","0","0","3","","","","","","","",""
"pit-trial","77","603387","0.0-2.0-14.3-3.3","battery-v0.2","","""event"",""trial"",""time""
""fullscreenenter"",""1"",""3113""
","
","
","""event"",""trial"",""time""
""fullscreenenter"",""1"",""3113""
","
","","","-1","","","23","5283","787","&#9826;","elianto","#f73b6a7A","-1","-1","1","-10","[]","0","0","3","","","","","","","",""
"pit-trial","78","608259","0.0-2.0-14.3-4.3","battery-v0.2","","""event"",""trial"",""time""
""fullscreenenter"",""1"",""3113""
","
","
","""event"",""trial"",""time""
""fullscreenenter"",""1"",""3113""
","
","","","-1","","","23","5283","787","&#9826;","elianto","#f73b6a7A","-1","-1","1","0","[]","0","0","3","","","","","","","",""
"call-function","79","608262","0.0-2.0-15.0","battery-v0.2","","""event"",""trial"",""time""
""fullscreenenter"",""1"",""3113""
","
","
","""event"",""trial"",""time""
""fullscreenenter"",""1"",""3113""
","
","","","","","","","","","","","","","","","","","","","","","","","","","","",""
"pit-instructions","80","633855","0.0-2.0-16.0","battery-v0.2","","""event"",""trial"",""time""
""fullscreenenter"",""1"",""3113""
","
","
","""event"",""trial"",""time""
""fullscreenenter"",""1"",""3113""
","
","","[{""page_index"":0,""viewing_time"":7982.800000000047},{""page_index"":1,""viewing_time"":8782.599999999977},{""page_index"":2,""viewing_time"":4154.300000000047},{""page_index"":3,""viewing_time"":4672.199999999953}]","25592.400000000023","","","","","","","","","","","","","","","","","","","","","","","",""
"pit-trial","81","637229","0.0-2.0-17.0-0.0","battery-v0.2","","""event"",""trial"",""time""
""fullscreenenter"",""1"",""3113""
","
","
","""event"",""trial"",""time""
""fullscreenenter"",""1"",""3113""
","
","","","510.79999999993015","","","23","5283","787","&#9789;","elianto","#f73b6a7A"," "," ","1","0","[1364.6999999999534]","1","0","4","","","","","","","",""
"pit-trial","82","640290","0.0-2.0-17.0-1.0","battery-v0.2","","""event"",""trial"",""time""
""fullscreenenter"",""1"",""3113""
","
","
","""event"",""trial"",""time""
""fullscreenenter"",""1"",""3113""
","
","","","191.40000000002328","","","23","5283","787","&#9789;","elianto","#f73b6a7A"," "," ","1","0","[1051.6999999999534]","1","0","4","","","","","","","",""
"pit-trial","83","643411","0.0-2.0-17.0-2.0","battery-v0.2","","""event"",""trial"",""time""
""fullscreenenter"",""1"",""3113""
","
","
","""event"",""trial"",""time""
""fullscreenenter"",""1"",""3113""
","
","","","255.80000000004657","","","23","5283","787","&#9789;","elianto","#f73b6a7A"," "," ","1","0","[1108]","1","0","4","","","","","","","",""
"pit-trial","84","646513","0.0-2.0-17.0-3.0","battery-v0.2","","""event"",""trial"",""time""
""fullscreenenter"",""1"",""3113""
","
","
","""event"",""trial"",""time""
""fullscreenenter"",""1"",""3113""
","
","","","235","","","23","5283","787","&#9789;","elianto","#f73b6a7A"," "," ","1","-10","[1085.5]","1","0","4","","","","","","","",""
"pit-trial","85","649463","0.0-2.0-17.0-4.0","battery-v0.2","","""event"",""trial"",""time""
""fullscreenenter"",""1"",""3113""
","
","
","""event"",""trial"",""time""
""fullscreenenter"",""1"",""3113""
","
","","","88.59999999997672","","","23","5283","787","&#9789;","elianto","#f73b6a7A"," "," ","1","0","[939.8000000000466]","1","0","4","","","","","","","",""
"pit-trial","86","652414","0.0-2.0-17.1-0.1","battery-v0.2","","""event"",""trial"",""time""
""fullscreenenter"",""1"",""3113""
","
","
","""event"",""trial"",""time""
""fullscreenenter"",""1"",""3113""
","
","","","85.90000000002328","","","23","5283","787","&#9789;","elianto","#f73b6a7A"," "," ","1","0","[936.5999999999767]","1","0","4","","","","","","","",""
"pit-trial","87","655382","0.0-2.0-17.1-1.1","battery-v0.2","","""event"",""trial"",""time""
""fullscreenenter"",""1"",""3113""
","
","
","""event"",""trial"",""time""
""fullscreenenter"",""1"",""3113""
","
","","","108.29999999993015","","","23","5283","787","&#9789;","elianto","#f73b6a7A"," "," ","1","0","[959.1999999999534]","1","0","4","","","","","","","",""
"pit-trial","88","658434","0.0-2.0-17.1-2.1","battery-v0.2","","""event"",""trial"",""time""
""fullscreenenter"",""1"",""3113""
","
","
","""event"",""trial"",""time""
""fullscreenenter"",""1"",""3113""
","
","","","180.59999999997672","","","23","5283","787","&#9789;","elianto","#f73b6a7A"," "," ","1","0","[1030.5999999999767]","1","0","4","","","","","","","",""
"pit-trial","89","661397","0.0-2.0-17.1-3.1","battery-v0.2","","""event"",""trial"",""time""
""fullscreenenter"",""1"",""3113""
","
","
","""event"",""trial"",""time""
""fullscreenenter"",""1"",""3113""
","
","","","89.09999999997672","","","23","5283","787","&#9789;","elianto","#f73b6a7A"," "," ","1","-10","[950.4000000000233]","1","0","4","","","","","","","",""
"pit-trial","90","664473","0.0-2.0-17.1-4.1","battery-v0.2","","""event"",""trial"",""time""
""fullscreenenter"",""1"",""3113""
","
","
","""event"",""trial"",""time""
""fullscreenenter"",""1"",""3113""
","
","","","214.19999999995343","","","23","5283","787","&#9789;","elianto","#f73b6a7A"," "," ","1","0","[1065.5]","1","0","4","","","","","","","",""
"pit-trial","91","667464","0.0-2.0-17.2-0.2","battery-v0.2","","""event"",""trial"",""time""
""fullscreenenter"",""1"",""3113""
","
","
","""event"",""trial"",""time""
""fullscreenenter"",""1"",""3113""
","
","","","118.79999999993015","","","23","5283","787","&#9789;","elianto","#f73b6a7A"," "," ","1","0","[976.5999999999767]","1","0","4","","","","","","","",""
"pit-trial","92","670405","0.0-2.0-17.2-1.2","battery-v0.2","","""event"",""trial"",""time""
""fullscreenenter"",""1"",""3113""
","
","
","""event"",""trial"",""time""
""fullscreenenter"",""1"",""3113""
","
","","","79.39999999990687","","","23","5283","787","&#9789;","elianto","#f73b6a7A"," "," ","1","0","[932.6999999999534]","1","0","4","","","","","","","",""
"pit-trial","93","673371","0.0-2.0-17.2-2.2","battery-v0.2","","""event"",""trial"",""time""
""fullscreenenter"",""1"",""3113""
","
","
","""event"",""trial"",""time""
""fullscreenenter"",""1"",""3113""
","
","","","101.89999999990687","","","23","5283","787","&#9789;","elianto","#f73b6a7A"," "," ","1","0","[954.2999999999302]","1","0","4","","","","","","","",""
"pit-trial","94","676430","0.0-2.0-17.2-3.2","battery-v0.2","","""event"",""trial"",""time""
""fullscreenenter"",""1"",""3113""
","
","
","""event"",""trial"",""time""
""fullscreenenter"",""1"",""3113""
","
","","","185.80000000004657","","","23","5283","787","&#9789;","elianto","#f73b6a7A"," "," ","1","-10","[1045.4000000000233]","1","0","4","","","","","","","",""
"pit-trial","95","679466","0.0-2.0-17.2-4.2","battery-v0.2","","""event"",""trial"",""time""
""fullscreenenter"",""1"",""3113""
","
","
","""event"",""trial"",""time""
""fullscreenenter"",""1"",""3113""
","
","","","171.30000000004657","","","23","5283","787","&#9789;","elianto","#f73b6a7A"," "," ","1","0","[1026.5]","1","0","4","","","","","","","",""
"pit-trial","96","682457","0.0-2.0-17.3-0.3","battery-v0.2","","""event"",""trial"",""time""
""fullscreenenter"",""1"",""3113""
","
","
","""event"",""trial"",""time""
""fullscreenenter"",""1"",""3113""
","
","","","124.80000000004657","","","23","5283","787","&#9789;","elianto","#f73b6a7A"," "," ","1","0","[977.5]","1","0","4","","","","","","","",""
"pit-trial","97","685629","0.0-2.0-17.3-1.3","battery-v0.2","","""event"",""trial"",""time""
""fullscreenenter"",""1"",""3113""
","
","
","""event"",""trial"",""time""
""fullscreenenter"",""1"",""3113""
","
","","","304.80000000004657","","","23","5283","787","&#9789;","elianto","#f73b6a7A"," "," ","1","0","[1166.5]","1","0","4","","","","","","","",""
"pit-trial","98","688816","0.0-2.0-17.3-2.3","battery-v0.2","","""event"",""trial"",""time""
""fullscreenenter"",""1"",""3113""
","
","
","""event"",""trial"",""time""
""fullscreenenter"",""1"",""3113""
","
","","","324.19999999995343","","","23","5283","787","&#9789;","elianto","#f73b6a7A"," "," ","1","0","[1177.7999999999302]","1","0","4","","","","","","","",""
"pit-trial","99","691859","0.0-2.0-17.3-3.3","battery-v0.2","","""event"",""trial"",""time""
""fullscreenenter"",""1"",""3113""
","
","
","""event"",""trial"",""time""
""fullscreenenter"",""1"",""3113""
","
","","","167.70000000006985","","","23","5283","787","&#9789;","elianto","#f73b6a7A"," "," ","1","-10","[1024.3999999999069]","1","0","4","","","","","","","",""
"pit-trial","100","694981","0.0-2.0-17.3-4.3","battery-v0.2","","""event"",""trial"",""time""
""fullscreenenter"",""1"",""3113""
","
","
","""event"",""trial"",""time""
""fullscreenenter"",""1"",""3113""
","
","","","265.29999999993015","","","23","5283","787","&#9789;","elianto","#f73b6a7A"," "," ","1","0","[1115.3999999999069]","1","0","4","","","","","","","",""
"call-function","101","694984","0.0-2.0-18.0","battery-v0.2","","""event"",""trial"",""time""
""fullscreenenter"",""1"",""3113""
","
","
","""event"",""trial"",""time""
""fullscreenenter"",""1"",""3113""
","
","","","","","","","","","","","","","","","","","","","","","","","","","","",""
"pit-instructions","102","764423","0.0-2.0-19.0","battery-v0.2","","""event"",""trial"",""time""
""fullscreenenter"",""1"",""3113""
","
","
","""event"",""trial"",""time""
""fullscreenenter"",""1"",""3113""
","
","","[{""page_index"":0,""viewing_time"":6716.20000000007},{""page_index"":1,""viewing_time"":5636},{""page_index"":2,""viewing_time"":13539},{""page_index"":3,""viewing_time"":7317.699999999953},{""page_index"":4,""viewing_time"":8269.300000000047},{""page_index"":5,""viewing_time"":9154.5},{""page_index"":6,""viewing_time"":8512.699999999953},{""page_index"":7,""viewing_time"":6120.899999999907},{""page_index"":8,""viewing_time"":4171}]","69438.09999999998","","","","","","","","","","","","","","","","","","","","","","","",""
"pit-comprehension","103","769293","0.0-2.0-20.0-0.0","battery-v0.2","","""event"",""trial"",""time""
""fullscreenenter"",""1"",""3113""
","
","
","""event"",""trial"",""time""
""fullscreenenter"",""1"",""3113""
","
","","","4865.300000000047","[""SPACE""]","0","23","5283","787","","","","","","","","","","","","","","","","","","",""
"pit-instructions","104","772723","0.0-2.0-20.0-1.0","battery-v0.2","","""event"",""trial"",""time""
""fullscreenenter"",""1"",""3113""
","
","
","""event"",""trial"",""time""
""fullscreenenter"",""1"",""3113""
","
","","[{""page_index"":0,""viewing_time"":3389.4000000001397}]","3389.8000000000466","","","","","","","","","","","","","","","","","","","","","","","",""
"pit-comprehension","105","779344","0.0-2.0-21.0-0.0","battery-v0.2","","""event"",""trial"",""time""
""fullscreenenter"",""1"",""3113""
","
","
","""event"",""trial"",""time""
""fullscreenenter"",""1"",""3113""
","
","","","6616.699999999953","[""10""]","0","23","5283","787","","","","","","","","","","","","","","","","","","",""
"pit-instructions","106","781140","0.0-2.0-21.0-1.0","battery-v0.2","","""event"",""trial"",""time""
""fullscreenenter"",""1"",""3113""
","
","
","""event"",""trial"",""time""
""fullscreenenter"",""1"",""3113""
","
","","[{""page_index"":0,""viewing_time"":1763.8000000000466}]","1764.1999999999534","","","","","","","","","","","","","","","","","","","","","","","",""
"pit-comprehension","107","787924","0.0-2.0-22.0-0.0","battery-v0.2","","""event"",""trial"",""time""
""fullscreenenter"",""1"",""3113""
","
","
","""event"",""trial"",""time""
""fullscreenenter"",""1"",""3113""
","
","","","6780.300000000047","[""0""]","0","23","5283","787","","","","","","","","","","","","","","","","","","",""
"pit-instructions","108","790012","0.0-2.0-22.0-1.0","battery-v0.2","","""event"",""trial"",""time""
""fullscreenenter"",""1"",""3113""
","
","
","""event"",""trial"",""time""
""fullscreenenter"",""1"",""3113""
","
","","[{""page_index"":0,""viewing_time"":2055.4000000001397}]","2055.6999999999534","","","","","","","","","","","","","","","","","","","","","","","",""
"pit-comprehension","109","798424","0.0-2.0-23.0-0.0","battery-v0.2","","""event"",""trial"",""time""
""fullscreenenter"",""1"",""3113""
","
","
","""event"",""trial"",""time""
""fullscreenenter"",""1"",""3113""
","
","","","8409.09999999986","[""True""]","0","23","5283","787","","","","","","","","","","","","","","","","","","",""
"pit-instructions","110","806111","0.0-2.0-23.0-1.0","battery-v0.2","","""event"",""trial"",""time""
""fullscreenenter"",""1"",""3113""
","
","
","""event"",""trial"",""time""
""fullscreenenter"",""1"",""3113""
","
","","[{""page_index"":0,""viewing_time"":7649.899999999907}]","7650.299999999814","","","","","","","","","","","","","","","","","","","","","","","",""
"pit-comprehension","111","813776","0.0-2.0-24.0-0.0","battery-v0.2","","""event"",""trial"",""time""
""fullscreenenter"",""1"",""3113""
","
","
","""event"",""trial"",""time""
""fullscreenenter"",""1"",""3113""
","
","","","7661.600000000093","[""True""]","0","23","5283","787","","","","","","","","","","","","","","","","","","",""
"pit-instructions","112","816029","0.0-2.0-24.0-1.0","battery-v0.2","","""event"",""trial"",""time""
""fullscreenenter"",""1"",""3113""
","
","
","""event"",""trial"",""time""
""fullscreenenter"",""1"",""3113""
","
","","[{""page_index"":0,""viewing_time"":2219.6999999999534}]","2220.0999999998603","","","","","","","","","","","","","","","","","","","","","","","",""
"pit-comprehension","113","822518","0.0-2.0-25.0-0.0","battery-v0.2","","""event"",""trial"",""time""
""fullscreenenter"",""1"",""3113""
","
","
","""event"",""trial"",""time""
""fullscreenenter"",""1"",""3113""
","
","","","6488.90000000014","[""True""]","0","23","5283","787","","","","","","","","","","","","","","","","","","",""
"pit-instructions","114","823966","0.0-2.0-25.0-1.0","battery-v0.2","","""event"",""trial"",""time""
""fullscreenenter"",""1"",""3113""
","
","
","""event"",""trial"",""time""
""fullscreenenter"",""1"",""3113""
","
","","[{""page_index"":0,""viewing_time"":1414.3000000000466}]","1414.6000000000931","","","","","","","","","","","","","","","","","","","","","","","",""
"pit-comprehension","115","828897","0.0-2.0-26.0-0.0","battery-v0.2","","""event"",""trial"",""time""
""fullscreenenter"",""1"",""3113""
","
","
","""event"",""trial"",""time""
""fullscreenenter"",""1"",""3113""
","
","","","4927.199999999953","[""False""]","0","23","5283","787","","","","","","","","","","","","","","","","","","",""
"pit-instructions","116","830166","0.0-2.0-26.0-1.0","battery-v0.2","","""event"",""trial"",""time""
""fullscreenenter"",""1"",""3113""
","
","
","""event"",""trial"",""time""
""fullscreenenter"",""1"",""3113""
","
","","[{""page_index"":0,""viewing_time"":1228.8000000000466}]","1229","","","","","","","","","","","","","","","","","","","","","","","",""
"pit-instructions","117","845805","0.0-3.0","battery-v0.2","","""event"",""trial"",""time""
""fullscreenenter"",""1"",""3113""
","
","
","""event"",""trial"",""time""
""fullscreenenter"",""1"",""3113""
","
","","[{""page_index"":0,""viewing_time"":4277.300000000047},{""page_index"":1,""viewing_time"":5142.40000000014},{""page_index"":2,""viewing_time"":6215.899999999907}]","15636.100000000093","","","","","","","","","","","","","","","","","","","","","","","",""
"pit-trial","118","849350","0.0-4.0","battery-v0.2","","""event"",""trial"",""time""
""fullscreenenter"",""1"",""3113""
","
","
","""event"",""trial"",""time""
""fullscreenenter"",""1"",""3113""
","
","","","673.3000000000466","","","23","5283","787","&#9730;","elianto","#3366ff99"," "," ","1","+10","[1526.0999999998603]","1","1","","","5283","1","1","1","win","go","0"
"pit-trial","119","854232","0.0-5.0","battery-v0.2","","""event"",""trial"",""time""
""fullscreenenter"",""1"",""3113""
","
","
","""event"",""trial"",""time""
""fullscreenenter"",""1"",""3113""
","
","","","-1","","","23","5283","787","&#9728;","elianto","#f73b6a7A","-1","-1","1","0","[]","0","1","","","5283","2","0","4","lose","no-go","0"
"pit-trial","120","857882","0.0-6.0","battery-v0.2","","""event"",""trial"",""time""
""fullscreenenter"",""1"",""3113""
","
","
","""event"",""trial"",""time""
""fullscreenenter"",""1"",""3113""
","
","","","771.6000000000931","","","23","5283","787","&#9733;","elianto","#3366ff99","-1"," ","0","0","[1631.8000000000466]","1","1","","","5283","3","2","2","win","no-go","0"
"pit-trial","121","861744","0.0-7.0","battery-v0.2","","""event"",""trial"",""time""
""fullscreenenter"",""1"",""3113""
","
","
","""event"",""trial"",""time""
""fullscreenenter"",""1"",""3113""
","
","","","992.5","","","23","5283","787","&#9752;","elianto","#f73b6a7A"," "," ","1","0","[1843.5999999998603]","1","1","","","5283","4","3","3","lose","go","0"
"pit-trial","122","865609","0.0-8.0","battery-v0.2","","""event"",""trial"",""time""
""fullscreenenter"",""1"",""3113""
","
","
","""event"",""trial"",""time""
""fullscreenenter"",""1"",""3113""
","
","","","988.6999999999534","","","23","5283","787","&#9730;","elianto","#3366ff99"," "," ","1","+10","[1842.1000000000931]","1","1","","","5283","5","1","1","win","go","0"
"pit-trial","123","869447","0.0-9.0","battery-v0.2","","""event"",""trial"",""time""
""fullscreenenter"",""1"",""3113""
","
","
","""event"",""trial"",""time""
""fullscreenenter"",""1"",""3113""
","
","","","963.0999999998603","","","23","5283","787","&#9752;","elianto","#f73b6a7A"," "," ","1","-10","[1817.8000000000466]","1","1","","","5283","6","3","3","lose","go","1"
"pit-trial","124","873388","0.0-10.0","battery-v0.2","","""event"",""trial"",""time""
""fullscreenenter"",""1"",""3113""
","
","
","""event"",""trial"",""time""
""fullscreenenter"",""1"",""3113""
","
","","","1067.1000000000931","","","23","5283","787","&#9728;","elianto","#f73b6a7A","-1"," ","0","0","[1918.7000000001863]","1","1","","","5283","7","0","4","lose","no-go","1"
"pit-trial","125","878258","0.0-11.0","battery-v0.2","","""event"",""trial"",""time""
""fullscreenenter"",""1"",""3113""
","
","
","""event"",""trial"",""time""
""fullscreenenter"",""1"",""3113""
","
","","","-1","","","23","5283","787","&#9733;","elianto","#3366ff99","-1","-1","1","0","[]","0","1","","","5283","8","2","2","win","no-go","1"
"pit-trial","126","881706","0.0-12.0","battery-v0.2","","""event"",""trial"",""time""
""fullscreenenter"",""1"",""3113""
","
","
","""event"",""trial"",""time""
""fullscreenenter"",""1"",""3113""
","
","","","570.5","","","23","5283","787","&#9730;","elianto","#3366ff99"," "," ","1","+10","[1430.6000000000931]","1","1","","","5283","9","1","1","win","go","0"
"pit-trial","127","885401","0.0-13.0","battery-v0.2","","""event"",""trial"",""time""
""fullscreenenter"",""1"",""3113""
","
","
","""event"",""trial"",""time""
""fullscreenenter"",""1"",""3113""
","
","","","831.7999999998137","","","23","5283","787","&#9733;","elianto","#3366ff99","-1"," ","0","0","[1683.0999999998603]","1","1","","","5283","10","2","2","win","no-go","0"
"pit-trial","128","889091","0.0-14.0","battery-v0.2","","""event"",""trial"",""time""
""fullscreenenter"",""1"",""3113""
","
","
","""event"",""trial"",""time""
""fullscreenenter"",""1"",""3113""
","
","","","807","","","23","5283","787","&#9728;","elianto","#f73b6a7A","-1"," ","0","-10","[1665.6000000000931]","1","1","","","5283","11","0","4","lose","no-go","0"
"pit-trial","129","892903","0.0-15.0","battery-v0.2","","""event"",""trial"",""time""
""fullscreenenter"",""1"",""3113""
","
","
","""event"",""trial"",""time""
""fullscreenenter"",""1"",""3113""
","
","","","949.8999999999069","","","23","5283","787","&#9752;","elianto","#f73b6a7A"," "," ","1","0","[1800.5]","1","1","","","5283","12","3","3","lose","go","0"
"pit-trial","130","896779","0.0-16.0","battery-v0.2","","""event"",""trial"",""time""
""fullscreenenter"",""1"",""3113""
","
","
","""event"",""trial"",""time""
""fullscreenenter"",""1"",""3113""
","
","","","1009.8000000000466","","","23","5283","787","&#9752;","elianto","#f73b6a7A"," "," ","1","0","[1864.3000000000466]","1","1","","","5283","13","3","3","lose","go","0"
"pit-trial","131","901648","0.0-17.0","battery-v0.2","","""event"",""trial"",""time""
""fullscreenenter"",""1"",""3113""
","
","
","""event"",""trial"",""time""
""fullscreenenter"",""1"",""3113""
","
","","","-1","","","23","5283","787","&#9728;","elianto","#f73b6a7A","-1","-1","1","0","[]","0","1","","","5283","14","0","4","lose","no-go","0"
"pit-trial","132","905158","0.0-18.0","battery-v0.2","","""event"",""trial"",""time""
""fullscreenenter"",""1"",""3113""
","
","
","""event"",""trial"",""time""
""fullscreenenter"",""1"",""3113""
","
","","","630.8999999999069","","","23","5283","787","&#9730;","elianto","#3366ff99"," "," ","1","+10","[1490.7000000001863]","1","1","","","5283","15","1","1","win","go","0"
"pit-trial","133","909041","0.0-19.0","battery-v0.2","","""event"",""trial"",""time""
""fullscreenenter"",""1"",""3113""
","
","
","""event"",""trial"",""time""
""fullscreenenter"",""1"",""3113""
","
","","","1012.5","","","23","5283","787","&#9733;","elianto","#3366ff99","-1"," ","0","0","[1868]","1","1","","","5283","16","2","2","win","no-go","0"
"pit-trial","134","913915","0.0-20.0","battery-v0.2","","""event"",""trial"",""time""
""fullscreenenter"",""1"",""3113""
","
","
","""event"",""trial"",""time""
""fullscreenenter"",""1"",""3113""
","
","","","-1","","","23","5283","787","&#9728;","elianto","#f73b6a7A","-1","-1","1","0","[]","0","1","","","5283","17","0","4","lose","no-go","0"
"pit-trial","135","917661","0.0-21.0","battery-v0.2","","""event"",""trial"",""time""
""fullscreenenter"",""1"",""3113""
","
","
","""event"",""trial"",""time""
""fullscreenenter"",""1"",""3113""
","
","","","876.8000000000466","","","23","5283","787","&#9752;","elianto","#f73b6a7A"," "," ","1","0","[1726.8000000000466]","1","1","","","5283","18","3","3","lose","go","0"
"pit-trial","136","921515","0.0-22.0","battery-v0.2","","""event"",""trial"",""time""
""fullscreenenter"",""1"",""3113""
","
","
","""event"",""trial"",""time""
""fullscreenenter"",""1"",""3113""
","
","","","982.8000000000466","","","23","5283","787","&#9733;","elianto","#3366ff99","-1"," ","0","+10","[1838.1000000000931]","1","1","","","5283","19","2","2","win","no-go","1"
"pit-trial","137","925011","0.0-23.0","battery-v0.2","","""event"",""trial"",""time""
""fullscreenenter"",""1"",""3113""
","
","
","""event"",""trial"",""time""
""fullscreenenter"",""1"",""3113""
","
","","","626.3000000000466","","","23","5283","787","&#9730;","elianto","#3366ff99"," "," ","1","+10","[1478.0999999998603]","1","1","","","5283","20","1","1","win","go","0"
"pit-instructions","138","938835","0.0-24.0","battery-v0.2","","""event"",""trial"",""time""
""fullscreenenter"",""1"",""3113""
","
","
","""event"",""trial"",""time""
""fullscreenenter"",""1"",""3113""
","
","","[{""page_index"":0,""viewing_time"":7355.90000000014},{""page_index"":1,""viewing_time"":6465.199999999953}]","13821.300000000047","","","","","","","","","","","","","","","","","","","","","","","",""
"pit-trial","139","943712","0.0-25.0","battery-v0.2","","""event"",""trial"",""time""
""fullscreenenter"",""1"",""3113""
","
","
","""event"",""trial"",""time""
""fullscreenenter"",""1"",""3113""
","
","","","-1","","","23","5283","787","a","elianto","#f73b6a7A"," ","-1","0","-10","[]","0","2","","","5283","21","2","3","lose","go","0"
"pit-trial","140","948598","0.0-26.0","battery-v0.2","","""event"",""trial"",""time""
""fullscreenenter"",""1"",""3113""
","
","
","""event"",""trial"",""time""
""fullscreenenter"",""1"",""3113""
","
","","","-1","","","23","5283","787","g","elianto","#f73b6a7A","-1","-1","1","0","[]","0","2","","","5283","22","3","4","lose","no-go","0"
"pit-trial","141","952282","0.0-27.0","battery-v0.2","","""event"",""trial"",""time""
""fullscreenenter"",""1"",""3113""
","
","
","""event"",""trial"",""time""
""fullscreenenter"",""1"",""3113""
","
","","","817.9000000001397","","","23","5283","787","l","elianto","#3366ff99","-1"," ","0","0","[1671.6999999999534]","1","2","","","5283","23","1","2","win","no-go","0"
"pit-trial","142","955940","0.0-28.0","battery-v0.2","","""event"",""trial"",""time""
""fullscreenenter"",""1"",""3113""
","
","
","""event"",""trial"",""time""
""fullscreenenter"",""1"",""3113""
","
","","","785.1000000000931","","","23","5283","787","u","elianto","#f73b6a7A"," "," ","1","0","[1642.3999999999069]","1","2","","","5283","24","0","3","lose","go","0"
"pit-trial","143","959400","0.0-29.0","battery-v0.2","","""event"",""trial"",""time""
""fullscreenenter"",""1"",""3113""
","
","
","""event"",""trial"",""time""
""fullscreenenter"",""1"",""3113""
","
","","","594.1000000000931","","","23","5283","787","a","elianto","#f73b6a7A"," "," ","1","0","[1446.3000000000466]","1","2","","","5283","25","2","3","lose","go","0"
"pit-trial","144","962830","0.0-30.0","battery-v0.2","","""event"",""trial"",""time""
""fullscreenenter"",""1"",""3113""
","
","
","""event"",""trial"",""time""
""fullscreenenter"",""1"",""3113""
","
","","","555.1000000000931","","","23","5283","787","u","elianto","#f73b6a7A"," "," ","1","-10","[1414.2000000001863]","1","2","","","5283","26","0","3","lose","go","1"
"pit-trial","145","967718","0.0-31.0","battery-v0.2","","""event"",""trial"",""time""
""fullscreenenter"",""1"",""3113""
","
","
","""event"",""trial"",""time""
""fullscreenenter"",""1"",""3113""
","
","","","-1","","","23","5283","787","l","elianto","#3366ff99","-1","-1","1","0","[]","0","2","","","5283","27","1","2","win","no-go","1"
"pit-trial","146","972589","0.0-32.0","battery-v0.2","","""event"",""trial"",""time""
""fullscreenenter"",""1"",""3113""
","
","
","""event"",""trial"",""time""
""fullscreenenter"",""1"",""3113""
","
","","","-1","","","23","5283","787","g","elianto","#f73b6a7A","-1","-1","1","0","[]","0","2","","","5283","28","3","4","lose","no-go","0"
"pit-trial","147","976472","0.0-33.0","battery-v0.2","","""event"",""trial"",""time""
""fullscreenenter"",""1"",""3113""
","
","
","""event"",""trial"",""time""
""fullscreenenter"",""1"",""3113""
","
","","","1018.6999999999534","","","23","5283","787","l","elianto","#3366ff99","-1"," ","0","0","[1874.3000000000466]","1","2","","","5283","29","1","2","win","no-go","0"
"pit-trial","148","980080","0.0-34.0","battery-v0.2","","""event"",""trial"",""time""
""fullscreenenter"",""1"",""3113""
","
","
","""event"",""trial"",""time""
""fullscreenenter"",""1"",""3113""
","
","","","740.6999999999534","","","23","5283","787","u","elianto","#f73b6a7A"," "," ","1","0","[1598.5999999998603]","1","2","","","5283","30","0","3","lose","go","0"
"pit-trial","149","983527","0.0-35.0","battery-v0.2","","""event"",""trial"",""time""
""fullscreenenter"",""1"",""3113""
","
","
","""event"",""trial"",""time""
""fullscreenenter"",""1"",""3113""
","
","","","587.5","","","23","5283","787","a","elianto","#f73b6a7A"," "," ","1","0","[1439.6999999999534]","1","2","","","5283","31","2","3","lose","go","0"
"pit-trial","150","988397","0.0-36.0","battery-v0.2","","""event"",""trial"",""time""
""fullscreenenter"",""1"",""3113""
","
","
","""event"",""trial"",""time""
""fullscreenenter"",""1"",""3113""
","
","","","-1","","","23","5283","787","g","elianto","#f73b6a7A","-1","-1","1","0","[]","0","2","","","5283","32","3","4","lose","no-go","0"
"pit-trial","151","993265","0.0-37.0","battery-v0.2","","""event"",""trial"",""time""
""fullscreenenter"",""1"",""3113""
","
","
","""event"",""trial"",""time""
""fullscreenenter"",""1"",""3113""
","
","","","-1","","","23","5283","787","l","elianto","#3366ff99","-1","-1","1","+10","[]","0","2","","","5283","33","1","2","win","no-go","0"
"pit-trial","152","997031","0.0-38.0","battery-v0.2","","""event"",""trial"",""time""
""fullscreenenter"",""1"",""3113""
","
","
","""event"",""trial"",""time""
""fullscreenenter"",""1"",""3113""
","
","","","900.3000000000466","","","23","5283","787","u","elianto","#f73b6a7A"," "," ","1","0","[1753.6000000000931]","1","2","","","5283","34","0","3","lose","go","0"
"pit-trial","153","1001910","0.0-39.0","battery-v0.2","","""event"",""trial"",""time""
""fullscreenenter"",""1"",""3113""
","
","
","""event"",""trial"",""time""
""fullscreenenter"",""1"",""3113""
","
","","","-1","","","23","5283","787","g","elianto","#f73b6a7A","-1","-1","1","0","[]","0","2","","","5283","35","3","4","lose","no-go","0"
"pit-trial","154","1005590","0.0-40.0","battery-v0.2","","""event"",""trial"",""time""
""fullscreenenter"",""1"",""3113""
","
","
","""event"",""trial"",""time""
""fullscreenenter"",""1"",""3113""
","
","","","812.8999999999069","","","23","5283","787","a","elianto","#f73b6a7A"," "," ","1","-10","[1670.8999999999069]","1","2","","","5283","36","2","3","lose","go","1"
"pit-trial","155","1010458","0.0-41.0","battery-v0.2","","""event"",""trial"",""time""
""fullscreenenter"",""1"",""3113""
","
","
","""event"",""trial"",""time""
""fullscreenenter"",""1"",""3113""
","
","","","-1","","","23","5283","787","g","elianto","#f73b6a7A","-1","-1","1","0","[]","0","2","","","5283","37","3","4","lose","no-go","0"
"pit-trial","156","1015340","0.0-42.0","battery-v0.2","","""event"",""trial"",""time""
""fullscreenenter"",""1"",""3113""
","
","
","""event"",""trial"",""time""
""fullscreenenter"",""1"",""3113""
","
","","","-1","","","23","5283","787","l","elianto","#3366ff99","-1","-1","1","+10","[]","0","2","","","5283","38","1","2","win","no-go","0"
"pit-trial","157","1018847","0.0-43.0","battery-v0.2","","""event"",""trial"",""time""
""fullscreenenter"",""1"",""3113""
","
","
","""event"",""trial"",""time""
""fullscreenenter"",""1"",""3113""
","
","","","647.3000000000466","","","23","5283","787","u","elianto","#f73b6a7A"," "," ","1","0","[1498.1999999999534]","1","2","","","5283","39","0","3","lose","go","0"
"pit-trial","158","1022196","0.0-44.0","battery-v0.2","","""event"",""trial"",""time""
""fullscreenenter"",""1"",""3113""
","
","
","""event"",""trial"",""time""
""fullscreenenter"",""1"",""3113""
","
","","","473.30000000004657","","","23","5283","787","a","elianto","#f73b6a7A"," "," ","1","0","[1331.3000000000466]","1","2","","","5283","40","2","3","lose","go","0"
"pit-trial","159","1025730","0.0-45.0","battery-v0.2","","""event"",""trial"",""time""
""fullscreenenter"",""1"",""3113""
","
","
","""event"",""trial"",""time""
""fullscreenenter"",""1"",""3113""
","
","","","668","","","23","5283","787","a","elianto","#f73b6a7A"," "," ","1","0","[1518.8000000000466]","1","2","","","5283","41","2","3","lose","go","0"
"pit-trial","160","1030601","0.0-46.0","battery-v0.2","","""event"",""trial"",""time""
""fullscreenenter"",""1"",""3113""
","
","
","""event"",""trial"",""time""
""fullscreenenter"",""1"",""3113""
","
","","","-1","","","23","5283","787","l","elianto","#3366ff99","-1","-1","1","+10","[]","0","2","","","5283","42","1","2","win","no-go","0"
"pit-trial","161","1034105","0.0-47.0","battery-v0.2","","""event"",""trial"",""time""
""fullscreenenter"",""1"",""3113""
","
","
","""event"",""trial"",""time""
""fullscreenenter"",""1"",""3113""
","
","","","636.8000000000466","","","23","5283","787","u","elianto","#f73b6a7A"," "," ","1","0","[1493.6999999999534]","1","2","","","5283","43","0","3","lose","go","0"
"pit-trial","162","1038976","0.0-48.0","battery-v0.2","","""event"",""trial"",""time""
""fullscreenenter"",""1"",""3113""
","
","
","""event"",""trial"",""time""
""fullscreenenter"",""1"",""3113""
","
","","","-1","","","23","5283","787","g","elianto","#f73b6a7A","-1","-1","1","0","[]","0","2","","","5283","44","3","4","lose","no-go","0"
"pit-trial","163","1043847","0.0-49.0","battery-v0.2","","""event"",""trial"",""time""
""fullscreenenter"",""1"",""3113""
","
","
","""event"",""trial"",""time""
""fullscreenenter"",""1"",""3113""
","
","","","-1","","","23","5283","787","l","elianto","#3366ff99","-1","-1","1","+10","[]","0","2","","","5283","45","1","2","win","no-go","0"
"pit-trial","164","1048717","0.0-50.0","battery-v0.2","","""event"",""trial"",""time""
""fullscreenenter"",""1"",""3113""
","
","
","""event"",""trial"",""time""
""fullscreenenter"",""1"",""3113""
","
","","","-1","","","23","5283","787","g","elianto","#f73b6a7A","-1","-1","1","0","[]","0","2","","","5283","46","3","4","lose","no-go","0"
"pit-trial","165","1052241","0.0-51.0","battery-v0.2","","""event"",""trial"",""time""
""fullscreenenter"",""1"",""3113""
","
","
","""event"",""trial"",""time""
""fullscreenenter"",""1"",""3113""
","
","","","657.6000000000931","","","23","5283","787","a","elianto","#f73b6a7A"," "," ","1","0","[1509.1000000000931]","1","2","","","5283","47","2","3","lose","go","0"
"pit-trial","166","1055596","0.0-52.0","battery-v0.2","","""event"",""trial"",""time""
""fullscreenenter"",""1"",""3113""
","
","
","""event"",""trial"",""time""
""fullscreenenter"",""1"",""3113""
","
","","","477.1999999997206","","","23","5283","787","u","elianto","#f73b6a7A"," "," ","1","0","[1335.8999999999069]","1","2","","","5283","48","0","3","lose","go","0"
"pit-trial","167","1060473","0.0-53.0","battery-v0.2","","""event"",""trial"",""time""
""fullscreenenter"",""1"",""3113""
","
","
","""event"",""trial"",""time""
""fullscreenenter"",""1"",""3113""
","
","","","-1","","","23","5283","787","g","elianto","#f73b6a7A","-1","-1","1","0","[]","0","2","","","5283","49","3","4","lose","no-go","0"
"pit-trial","168","1065349","0.0-54.0","battery-v0.2","","""event"",""trial"",""time""
""fullscreenenter"",""1"",""3113""
","
","
","""event"",""trial"",""time""
""fullscreenenter"",""1"",""3113""
","
","","","-1","","","23","5283","787","l","elianto","#3366ff99","-1","-1","1","+10","[]","0","2","","","5283","50","1","2","win","no-go","0"
"pit-trial","169","1068843","0.0-55.0","battery-v0.2","","""event"",""trial"",""time""
""fullscreenenter"",""1"",""3113""
","
","
","""event"",""trial"",""time""
""fullscreenenter"",""1"",""3113""
","
","","","635.1000000000931","","","23","5283","787","a","elianto","#f73b6a7A"," "," ","1","0","[1487.8999999999069]","1","2","","","5283","51","2","3","lose","go","0"
"pit-trial","170","1072242","0.0-56.0","battery-v0.2","","""event"",""trial"",""time""
""fullscreenenter"",""1"",""3113""
","
","
","""event"",""trial"",""time""
""fullscreenenter"",""1"",""3113""
","
","","","525.1000000000931","","","23","5283","787","u","elianto","#f73b6a7A"," "," ","1","-10","[1383.6000000000931]","1","2","","","5283","52","0","3","lose","go","1"
"pit-trial","171","1075768","0.0-57.0","battery-v0.2","","""event"",""trial"",""time""
""fullscreenenter"",""1"",""3113""
","
","
","""event"",""trial"",""time""
""fullscreenenter"",""1"",""3113""
","
","","","654.6000000000931","","","23","5283","787","u","elianto","#f73b6a7A"," "," ","1","0","[1514.1000000000931]","1","2","","","5283","53","0","3","lose","go","0"
"pit-trial","172","1080639","0.0-58.0","battery-v0.2","","""event"",""trial"",""time""
""fullscreenenter"",""1"",""3113""
","
","
","""event"",""trial"",""time""
""fullscreenenter"",""1"",""3113""
","
","","","-1","","","23","5283","787","l","elianto","#3366ff99","-1","-1","1","0","[]","0","2","","","5283","54","1","2","win","no-go","1"
"pit-trial","173","1085513","0.0-59.0","battery-v0.2","","""event"",""trial"",""time""
""fullscreenenter"",""1"",""3113""
","
","
","""event"",""trial"",""time""
""fullscreenenter"",""1"",""3113""
","
","","","-1","","","23","5283","787","g","elianto","#f73b6a7A","-1","-1","1","-10","[]","0","2","","","5283","55","3","4","lose","no-go","1"
"pit-trial","174","1089014","0.0-60.0","battery-v0.2","","""event"",""trial"",""time""
""fullscreenenter"",""1"",""3113""
","
","
","""event"",""trial"",""time""
""fullscreenenter"",""1"",""3113""
","
","","","630","","","23","5283","787","a","elianto","#f73b6a7A"," "," ","1","0","[1488.5]","1","2","","","5283","56","2","3","lose","go","0"
"pit-trial","175","1092419","0.0-61.0","battery-v0.2","","""event"",""trial"",""time""
""fullscreenenter"",""1"",""3113""
","
","
","""event"",""trial"",""time""
""fullscreenenter"",""1"",""3113""
","
","","","533.3000000002794","","","23","5283","787","a","elianto","#f73b6a7A"," "," ","1","-10","[1392.5]","1","2","","","5283","57","2","3","lose","go","1"
"pit-trial","176","1096304","0.0-62.0","battery-v0.2","","""event"",""trial"",""time""
""fullscreenenter"",""1"",""3113""
","
","
","""event"",""trial"",""time""
""fullscreenenter"",""1"",""3113""
","
","","","1008.2999999998137","","","23","5283","787","p","elianto","#3366ff99"," "," ","1","+10","[1863.2999999998137]","1","2","","","5283","58","4","1","win","go","0"
"pit-trial","177","1101180","0.0-63.0","battery-v0.2","","""event"",""trial"",""time""
""fullscreenenter"",""1"",""3113""
","
","
","""event"",""trial"",""time""
""fullscreenenter"",""1"",""3113""
","
","","","-1","","","23","5283","787","g","elianto","#f73b6a7A","-1","-1","1","0","[]","0","2","","","5283","59","3","4","lose","no-go","0"
"pit-trial","178","1104652","0.0-64.0","battery-v0.2","","""event"",""trial"",""time""
""fullscreenenter"",""1"",""3113""
","
","
","""event"",""trial"",""time""
""fullscreenenter"",""1"",""3113""
","
","","","612.3999999999069","","","23","5283","787","u","elianto","#f73b6a7A"," "," ","1","0","[1462.3999999999069]","1","2","","","5283","60","0","3","lose","go","0"
"pit-trial","179","1109527","0.0-65.0","battery-v0.2","","""event"",""trial"",""time""
""fullscreenenter"",""1"",""3113""
","
","
","""event"",""trial"",""time""
""fullscreenenter"",""1"",""3113""
","
","","","-1","","","23","5283","787","l","elianto","#3366ff99","-1","-1","1","+10","[]","0","2","","","5283","61","1","2","win","no-go","0"
"pit-trial","180","1112902","0.0-66.0","battery-v0.2","","""event"",""trial"",""time""
""fullscreenenter"",""1"",""3113""
","
","
","""event"",""trial"",""time""
""fullscreenenter"",""1"",""3113""
","
","","","511.10000000009313","","","23","5283","787","p","elianto","#3366ff99"," "," ","1","+10","[1364.1000000000931]","1","2","","","5283","62","4","1","win","go","0"
"pit-trial","181","1117785","0.0-67.0","battery-v0.2","","""event"",""trial"",""time""
""fullscreenenter"",""1"",""3113""
","
","
","""event"",""trial"",""time""
""fullscreenenter"",""1"",""3113""
","
","","","-1","","","23","5283","787","g","elianto","#f73b6a7A","-1","-1","1","0","[]","0","2","","","5283","63","3","4","lose","no-go","0"
"pit-trial","182","1121253","0.0-68.0","battery-v0.2","","""event"",""trial"",""time""
""fullscreenenter"",""1"",""3113""
","
","
","""event"",""trial"",""time""
""fullscreenenter"",""1"",""3113""
","
","","","610.5999999996275","","","23","5283","787","a","elianto","#f73b6a7A"," "," ","1","-10","[1461.1999999997206]","1","2","","","5283","64","2","3","lose","go","1"
"pit-trial","183","1126129","0.0-69.0","battery-v0.2","","""event"",""trial"",""time""
""fullscreenenter"",""1"",""3113""
","
","
","""event"",""trial"",""time""
""fullscreenenter"",""1"",""3113""
","
","","","-1","","","23","5283","787","g","elianto","#f73b6a7A","-1","-1","1","0","[]","0","2","","","5283","65","3","4","lose","no-go","0"
"pit-trial","184","1130440","0.0-70.0","battery-v0.2","","""event"",""trial"",""time""
""fullscreenenter"",""1"",""3113""
","
","
","""event"",""trial"",""time""
""fullscreenenter"",""1"",""3113""
","
","","","1437.5999999996275","","","23","5283","787","s","elianto","#3366ff99","-1"," ","0","0","[2296.7000000001863]","1","2","","","5283","66","5","2","win","no-go","0"
"pit-trial","185","1133867","0.0-71.0","battery-v0.2","","""event"",""trial"",""time""
""fullscreenenter"",""1"",""3113""
","
","
","""event"",""trial"",""time""
""fullscreenenter"",""1"",""3113""
","
","","","563.5","","","23","5283","787","p","elianto","#3366ff99"," "," ","1","+10","[1413.8999999999069]","1","2","","","5283","67","4","1","win","go","0"
"pit-trial","186","1138755","0.0-72.0","battery-v0.2","","""event"",""trial"",""time""
""fullscreenenter"",""1"",""3113""
","
","
","""event"",""trial"",""time""
""fullscreenenter"",""1"",""3113""
","
","","","-1","","","23","5283","787","l","elianto","#3366ff99","-1","-1","1","0","[]","0","2","","","5283","68","1","2","win","no-go","1"
"pit-trial","187","1142190","0.0-73.0","battery-v0.2","","""event"",""trial"",""time""
""fullscreenenter"",""1"",""3113""
","
","
","""event"",""trial"",""time""
""fullscreenenter"",""1"",""3113""
","
","","","573","","","23","5283","787","p","elianto","#3366ff99"," "," ","1","+10","[1424.1999999997206]","1","2","","","5283","69","4","1","win","go","0"
"pit-trial","188","1145054","0.0-74.0","battery-v0.2","","""event"",""trial"",""time""
""fullscreenenter"",""1"",""3113""
","
","
","""event"",""trial"",""time""
""fullscreenenter"",""1"",""3113""
","
","","","4.2999999998137355","","","23","5283","787","a","elianto","#f73b6a7A"," "," ","1","0","[856.3999999999069]","1","2","","","5283","70","2","3","lose","go","0"
"pit-trial","189","1148860","0.0-75.0","battery-v0.2","","""event"",""trial"",""time""
""fullscreenenter"",""1"",""3113""
","
","
","""event"",""trial"",""time""
""fullscreenenter"",""1"",""3113""
","
","","","938.8999999999069","","","23","5283","787","s","elianto","#3366ff99","-1"," ","0","0","[1790.7999999998137]","1","2","","","5283","71","5","2","win","no-go","0"
"pit-trial","190","1153729","0.0-76.0","battery-v0.2","","""event"",""trial"",""time""
""fullscreenenter"",""1"",""3113""
","
","
","""event"",""trial"",""time""
""fullscreenenter"",""1"",""3113""
","
","","","-1","","","23","5283","787","l","elianto","#3366ff99","-1","-1","1","+10","[]","0","2","","","5283","72","1","2","win","no-go","0"
"pit-trial","191","1158610","0.0-77.0","battery-v0.2","","""event"",""trial"",""time""
""fullscreenenter"",""1"",""3113""
","
","
","""event"",""trial"",""time""
""fullscreenenter"",""1"",""3113""
","
","","","-1","","","23","5283","787","g","elianto","#f73b6a7A","-1","-1","1","0","[]","0","2","","","5283","73","3","4","lose","no-go","0"
"pit-trial","192","1163481","0.0-78.0","battery-v0.2","","""event"",""trial"",""time""
""fullscreenenter"",""1"",""3113""
","
","
","""event"",""trial"",""time""
""fullscreenenter"",""1"",""3113""
","
","","","-1","","","23","5283","787","s","elianto","#3366ff99","-1","-1","1","+10","[]","0","2","","","5283","74","5","2","win","no-go","0"
"pit-trial","193","1168352","0.0-79.0","battery-v0.2","","""event"",""trial"",""time""
""fullscreenenter"",""1"",""3113""
","
","
","""event"",""trial"",""time""
""fullscreenenter"",""1"",""3113""
","
","","","-1","","","23","5283","787","l","elianto","#3366ff99","-1","-1","1","+10","[]","0","2","","","5283","75","1","2","win","no-go","0"
"pit-trial","194","1171871","0.0-80.0","battery-v0.2","","""event"",""trial"",""time""
""fullscreenenter"",""1"",""3113""
","
","
","""event"",""trial"",""time""
""fullscreenenter"",""1"",""3113""
","
","","","649.6000000000931","","","23","5283","787","p","elianto","#3366ff99"," "," ","1","0","[1510.7000000001863]","1","2","","","5283","76","4","1","win","go","1"
"pit-trial","195","1176737","0.0-81.0","battery-v0.2","","""event"",""trial"",""time""
""fullscreenenter"",""1"",""3113""
","
","
","""event"",""trial"",""time""
""fullscreenenter"",""1"",""3113""
","
","","","-1","","","23","5283","787","s","elianto","#3366ff99","-1","-1","1","+10","[]","0","2","","","5283","77","5","2","win","no-go","0"
"pit-trial","196","1181612","0.0-82.0","battery-v0.2","","""event"",""trial"",""time""
""fullscreenenter"",""1"",""3113""
","
","
","""event"",""trial"",""time""
""fullscreenenter"",""1"",""3113""
","
","","","-1","","","23","5283","787","g","elianto","#f73b6a7A","-1","-1","1","0","[]","0","2","","","5283","78","3","4","lose","no-go","0"
"pit-trial","197","1185140","0.0-83.0","battery-v0.2","","""event"",""trial"",""time""
""fullscreenenter"",""1"",""3113""
","
","
","""event"",""trial"",""time""
""fullscreenenter"",""1"",""3113""
","
","","","661.8999999999069","","","23","5283","787","p","elianto","#3366ff99"," "," ","1","+10","[1516.5]","1","2","","","5283","79","4","1","win","go","0"
"pit-trial","198","1188584","0.0-84.0","battery-v0.2","","""event"",""trial"",""time""
""fullscreenenter"",""1"",""3113""
","
","
","""event"",""trial"",""time""
""fullscreenenter"",""1"",""3113""
","
","","","570.8999999999069","","","23","5283","787","p","elianto","#3366ff99"," "," ","1","+10","[1431.1999999997206]","1","2","","","5283","80","4","1","win","go","0"
"pit-trial","199","1193448","0.0-85.0","battery-v0.2","","""event"",""trial"",""time""
""fullscreenenter"",""1"",""3113""
","
","
","""event"",""trial"",""time""
""fullscreenenter"",""1"",""3113""
","
","","","-1","","","23","5283","787","e","elianto","#f73b6a7A","-1","-1","1","-10","[]","0","2","","","5283","81","7","4","lose","no-go","1"
"pit-trial","200","1198316","0.0-86.0","battery-v0.2","","""event"",""trial"",""time""
""fullscreenenter"",""1"",""3113""
","
","
","""event"",""trial"",""time""
""fullscreenenter"",""1"",""3113""
","
","","","-1","","","23","5283","787","g","elianto","#f73b6a7A","-1","-1","1","0","[]","0","2","","","5283","82","3","4","lose","no-go","0"
"pit-trial","201","1203184","0.0-87.0","battery-v0.2","","""event"",""trial"",""time""
""fullscreenenter"",""1"",""3113""
","
","
","""event"",""trial"",""time""
""fullscreenenter"",""1"",""3113""
","
","","","-1","","","23","5283","787","s","elianto","#3366ff99","-1","-1","1","+10","[]","0","2","","","5283","83","5","2","win","no-go","0"
"pit-trial","202","1206658","0.0-88.0","battery-v0.2","","""event"",""trial"",""time""
""fullscreenenter"",""1"",""3113""
","
","
","""event"",""trial"",""time""
""fullscreenenter"",""1"",""3113""
","
","","","601.6000000000931","","","23","5283","787","p","elianto","#3366ff99"," "," ","1","+10","[1454.8999999999069]","1","2","","","5283","84","4","1","win","go","0"
"pit-trial","203","1210226","0.0-89.0","battery-v0.2","","""event"",""trial"",""time""
""fullscreenenter"",""1"",""3113""
","
","
","""event"",""trial"",""time""
""fullscreenenter"",""1"",""3113""
","
","","","701.8999999999069","","","23","5283","787","e","elianto","#f73b6a7A","-1"," ","0","-10","[1556.3999999999069]","1","2","","","5283","85","7","4","lose","no-go","0"
"pit-trial","204","1215099","0.0-90.0","battery-v0.2","","""event"",""trial"",""time""
""fullscreenenter"",""1"",""3113""
","
","
","""event"",""trial"",""time""
""fullscreenenter"",""1"",""3113""
","
","","","-1","","","23","5283","787","s","elianto","#3366ff99","-1","-1","1","+10","[]","0","2","","","5283","86","5","2","win","no-go","0"
"pit-trial","205","1219242","0.0-91.0","battery-v0.2","","""event"",""trial"",""time""
""fullscreenenter"",""1"",""3113""
","
","
","""event"",""trial"",""time""
""fullscreenenter"",""1"",""3113""
","
","","","1274.1000000000931","","","23","5283","787","w","elianto","#f73b6a7A"," "," ","1","0","[2128.7000000001863]","1","2","","","5283","87","6","3","lose","go","0"
"pit-trial","206","1222837","0.0-92.0","battery-v0.2","","""event"",""trial"",""time""
""fullscreenenter"",""1"",""3113""
","
","
","""event"",""trial"",""time""
""fullscreenenter"",""1"",""3113""
","
","","","727.7999999998137","","","23","5283","787","p","elianto","#3366ff99"," "," ","1","+10","[1578.3000000002794]","1","2","","","5283","88","4","1","win","go","0"
"pit-trial","207","1226276","0.0-93.0","battery-v0.2","","""event"",""trial"",""time""
""fullscreenenter"",""1"",""3113""
","
","
","""event"",""trial"",""time""
""fullscreenenter"",""1"",""3113""
","
","","","569.2999999998137","","","23","5283","787","p","elianto","#3366ff99"," "," ","1","0","[1424.6999999997206]","1","2","","","5283","89","4","1","win","go","1"
"pit-trial","208","1231153","0.0-94.0","battery-v0.2","","""event"",""trial"",""time""
""fullscreenenter"",""1"",""3113""
","
","
","""event"",""trial"",""time""
""fullscreenenter"",""1"",""3113""
","
","","","-1","","","23","5283","787","s","elianto","#3366ff99","-1","-1","1","0","[]","0","2","","","5283","90","5","2","win","no-go","1"
"pit-trial","209","1234820","0.0-95.0","battery-v0.2","","""event"",""trial"",""time""
""fullscreenenter"",""1"",""3113""
","
","
","""event"",""trial"",""time""
""fullscreenenter"",""1"",""3113""
","
","","","799.1999999997206","","","23","5283","787","e","elianto","#f73b6a7A","-1"," ","0","-10","[1657.5999999996275]","1","2","","","5283","91","7","4","lose","no-go","0"
"pit-trial","210","1238348","0.0-96.0","battery-v0.2","","""event"",""trial"",""time""
""fullscreenenter"",""1"",""3113""
","
","
","""event"",""trial"",""time""
""fullscreenenter"",""1"",""3113""
","
","","","658.6000000000931","","","23","5283","787","w","elianto","#f73b6a7A"," "," ","1","0","[1517.2000000001863]","1","2","","","5283","92","6","3","lose","go","0"
"pit-trial","211","1243219","0.0-97.0","battery-v0.2","","""event"",""trial"",""time""
""fullscreenenter"",""1"",""3113""
","
","
","""event"",""trial"",""time""
""fullscreenenter"",""1"",""3113""
","
","","","-1","","","23","5283","787","s","elianto","#3366ff99","-1","-1","1","+10","[]","0","2","","","5283","93","5","2","win","no-go","0"
"pit-trial","212","1247475","0.0-98.0","battery-v0.2","","""event"",""trial"",""time""
""fullscreenenter"",""1"",""3113""
","
","
","""event"",""trial"",""time""
""fullscreenenter"",""1"",""3113""
","
","","","1378.1999999997206","","","23","5283","787","d","elianto","#3366ff99"," "," ","1","+10","[2238.0999999996275]","1","2","","","5283","94","8","1","win","go","0"
"pit-trial","213","1251768","0.0-99.0","battery-v0.2","","""event"",""trial"",""time""
""fullscreenenter"",""1"",""3113""
","
","
","""event"",""trial"",""time""
""fullscreenenter"",""1"",""3113""
","
","","","1424.3999999999069","","","23","5283","787","w","elianto","#f73b6a7A"," "," ","1","0","[2282.7999999998137]","1","2","","","5283","95","6","3","lose","go","0"
"pit-trial","214","1256645","0.0-100.0","battery-v0.2","","""event"",""trial"",""time""
""fullscreenenter"",""1"",""3113""
","
","
","""event"",""trial"",""time""
""fullscreenenter"",""1"",""3113""
","
","","","-1","","","23","5283","787","e","elianto","#f73b6a7A","-1","-1","1","-10","[]","0","2","","","5283","96","7","4","lose","no-go","1"
"pit-trial","215","1260192","0.0-101.0","battery-v0.2","","""event"",""trial"",""time""
""fullscreenenter"",""1"",""3113""
","
","
","""event"",""trial"",""time""
""fullscreenenter"",""1"",""3113""
","
","","","681.7000000001863","","","23","5283","787","w","elianto","#f73b6a7A"," "," ","1","-10","[1538.5]","1","2","","","5283","97","6","3","lose","go","1"
"pit-trial","216","1263808","0.0-102.0","battery-v0.2","","""event"",""trial"",""time""
""fullscreenenter"",""1"",""3113""
","
","
","""event"",""trial"",""time""
""fullscreenenter"",""1"",""3113""
","
","","","743.9000000003725","","","23","5283","787","d","elianto","#3366ff99"," "," ","1","0","[1604.5]","1","2","","","5283","98","8","1","win","go","1"
"pit-trial","217","1267423","0.0-103.0","battery-v0.2","","""event"",""trial"",""time""
""fullscreenenter"",""1"",""3113""
","
","
","""event"",""trial"",""time""
""fullscreenenter"",""1"",""3113""
","
","","","741.3999999999069","","","23","5283","787","e","elianto","#f73b6a7A","-1"," ","0","-10","[1601.7999999998137]","1","2","","","5283","99","7","4","lose","no-go","0"
"pit-trial","218","1272291","0.0-104.0","battery-v0.2","","""event"",""trial"",""time""
""fullscreenenter"",""1"",""3113""
","
","
","""event"",""trial"",""time""
""fullscreenenter"",""1"",""3113""
","
","","","-1","","","23","5283","787","s","elianto","#3366ff99","-1","-1","1","0","[]","0","2","","","5283","100","5","2","win","no-go","1"
"pit-trial","219","1275835","0.0-105.0","battery-v0.2","","""event"",""trial"",""time""
""fullscreenenter"",""1"",""3113""
","
","
","""event"",""trial"",""time""
""fullscreenenter"",""1"",""3113""
","
","","","675.3000000002794","","","23","5283","787","d","elianto","#3366ff99"," "," ","1","0","[1525.6000000000931]","1","2","","","5283","101","8","1","win","go","1"
"pit-trial","220","1280715","0.0-106.0","battery-v0.2","","""event"",""trial"",""time""
""fullscreenenter"",""1"",""3113""
","
","
","""event"",""trial"",""time""
""fullscreenenter"",""1"",""3113""
","
","","","-1","","","23","5283","787","e","elianto","#f73b6a7A","-1","-1","1","0","[]","0","2","","","5283","102","7","4","lose","no-go","0"
"pit-trial","221","1284914","0.0-107.0","battery-v0.2","","""event"",""trial"",""time""
""fullscreenenter"",""1"",""3113""
","
","
","""event"",""trial"",""time""
""fullscreenenter"",""1"",""3113""
","
","","","1325.4000000003725","","","23","5283","787","j","elianto","#3366ff99"," "," ","1","+10","[2184.600000000093]","1","2","","","5283","103","9","1","win","go","0"
"pit-trial","222","1289788","0.0-108.0","battery-v0.2","","""event"",""trial"",""time""
""fullscreenenter"",""1"",""3113""
","
","
","""event"",""trial"",""time""
""fullscreenenter"",""1"",""3113""
","
","","","-1","","","23","5283","787","s","elianto","#3366ff99","-1","-1","1","+10","[]","0","2","","","5283","104","5","2","win","no-go","0"
"pit-trial","223","1293986","0.0-109.0","battery-v0.2","","""event"",""trial"",""time""
""fullscreenenter"",""1"",""3113""
","
","
","""event"",""trial"",""time""
""fullscreenenter"",""1"",""3113""
","
","","","1325.8000000002794","","","23","5283","787","j","elianto","#3366ff99"," "," ","1","+10","[2181.5]","1","2","","","5283","105","9","1","win","go","0"
"pit-trial","224","1297572","0.0-110.0","battery-v0.2","","""event"",""trial"",""time""
""fullscreenenter"",""1"",""3113""
","
","
","""event"",""trial"",""time""
""fullscreenenter"",""1"",""3113""
","
","","","722.1999999997206","","","23","5283","787","p","elianto","#3366ff99"," "," ","1","+10","[1580.2999999998137]","1","2","","","5283","106","4","1","win","go","0"
"pit-trial","225","1302441","0.0-111.0","battery-v0.2","","""event"",""trial"",""time""
""fullscreenenter"",""1"",""3113""
","
","
","""event"",""trial"",""time""
""fullscreenenter"",""1"",""3113""
","
","","","-1","","","23","5283","787","d","elianto","#3366ff99"," ","-1","0","0","[]","0","2","","","5283","107","8","1","win","go","0"
"pit-trial","226","1306391","0.0-112.0","battery-v0.2","","""event"",""trial"",""time""
""fullscreenenter"",""1"",""3113""
","
","
","""event"",""trial"",""time""
""fullscreenenter"",""1"",""3113""
","
","","","1085.9000000003725","","","23","5283","787","w","elianto","#f73b6a7A"," "," ","1","0","[1941.8000000002794]","1","2","","","5283","108","6","3","lose","go","0"
"pit-trial","227","1311275","0.0-113.0","battery-v0.2","","""event"",""trial"",""time""
""fullscreenenter"",""1"",""3113""
","
","
","""event"",""trial"",""time""
""fullscreenenter"",""1"",""3113""
","
","","","-1","","","23","5283","787","s","elianto","#3366ff99","-1","-1","1","+10","[]","0","2","","","5283","109","5","2","win","no-go","0"
"pit-trial","228","1314979","0.0-114.0","battery-v0.2","","""event"",""trial"",""time""
""fullscreenenter"",""1"",""3113""
","
","
","""event"",""trial"",""time""
""fullscreenenter"",""1"",""3113""
","
","","","843.2999999998137","","","23","5283","787","d","elianto","#3366ff99"," "," ","1","+10","[1698.8999999999069]","1","2","","","5283","110","8","1","win","go","0"
"pit-trial","229","1318550","0.0-115.0","battery-v0.2","","""event"",""trial"",""time""
""fullscreenenter"",""1"",""3113""
","
","
","""event"",""trial"",""time""
""fullscreenenter"",""1"",""3113""
","
","","","703.3999999999069","","","23","5283","787","j","elianto","#3366ff99"," "," ","1","+10","[1559.6000000000931]","1","2","","","5283","111","9","1","win","go","0"
"pit-trial","230","1322143","0.0-116.0","battery-v0.2","","""event"",""trial"",""time""
""fullscreenenter"",""1"",""3113""
","
","
","""event"",""trial"",""time""
""fullscreenenter"",""1"",""3113""
","
","","","732","","","23","5283","787","w","elianto","#f73b6a7A"," "," ","1","0","[1582.6999999997206]","1","2","","","5283","112","6","3","lose","go","0"
"pit-trial","231","1325658","0.0-117.0","battery-v0.2","","""event"",""trial"",""time""
""fullscreenenter"",""1"",""3113""
","
","
","""event"",""trial"",""time""
""fullscreenenter"",""1"",""3113""
","
","","","638.2000000001863","","","23","5283","787","w","elianto","#f73b6a7A"," "," ","1","-10","[1497.7000000001863]","1","2","","","5283","113","6","3","lose","go","1"
"pit-trial","232","1330530","0.0-118.0","battery-v0.2","","""event"",""trial"",""time""
""fullscreenenter"",""1"",""3113""
","
","
","""event"",""trial"",""time""
""fullscreenenter"",""1"",""3113""
","
","","","-1","","","23","5283","787","s","elianto","#3366ff99","-1","-1","1","+10","[]","0","2","","","5283","114","5","2","win","no-go","0"
"pit-trial","233","1334090","0.0-119.0","battery-v0.2","","""event"",""trial"",""time""
""fullscreenenter"",""1"",""3113""
","
","
","""event"",""trial"",""time""
""fullscreenenter"",""1"",""3113""
","
","","","691.8999999999069","","","23","5283","787","j","elianto","#3366ff99"," "," ","1","+10","[1548.0999999996275]","1","2","","","5283","115","9","1","win","go","0"
"pit-trial","234","1337625","0.0-120.0","battery-v0.2","","""event"",""trial"",""time""
""fullscreenenter"",""1"",""3113""
","
","
","""event"",""trial"",""time""
""fullscreenenter"",""1"",""3113""
","
","","","667.3999999999069","","","23","5283","787","d","elianto","#3366ff99"," "," ","1","+10","[1517.7000000001863]","1","2","","","5283","116","8","1","win","go","0"
"pit-trial","235","1342496","0.0-121.0","battery-v0.2","","""event"",""trial"",""time""
""fullscreenenter"",""1"",""3113""
","
","
","""event"",""trial"",""time""
""fullscreenenter"",""1"",""3113""
","
","","","-1","","","23","5283","787","s","elianto","#3366ff99","-1","-1","1","+10","[]","0","2","","","5283","117","5","2","win","no-go","0"
"pit-trial","236","1345956","0.0-122.0","battery-v0.2","","""event"",""trial"",""time""
""fullscreenenter"",""1"",""3113""
","
","
","""event"",""trial"",""time""
""fullscreenenter"",""1"",""3113""
","
","","","594.5","","","23","5283","787","w","elianto","#f73b6a7A"," "," ","1","0","[1453.3000000002794]","1","2","","","5283","118","6","3","lose","go","0"
"pit-trial","237","1349444","0.0-123.0","battery-v0.2","","""event"",""trial"",""time""
""fullscreenenter"",""1"",""3113""
","
","
","""event"",""trial"",""time""
""fullscreenenter"",""1"",""3113""
","
","","","615.7999999998137","","","23","5283","787","d","elianto","#3366ff99"," "," ","1","0","[1467.6999999997206]","1","2","","","5283","119","8","1","win","go","1"
"pit-trial","238","1353001","0.0-124.0","battery-v0.2","","""event"",""trial"",""time""
""fullscreenenter"",""1"",""3113""
","
","
","""event"",""trial"",""time""
""fullscreenenter"",""1"",""3113""
","
","","","693.3999999999069","","","23","5283","787","j","elianto","#3366ff99"," "," ","1","+10","[1544.5]","1","2","","","5283","120","9","1","win","go","0"
"pit-trial","239","1356483","0.0-125.0","battery-v0.2","","""event"",""trial"",""time""
""fullscreenenter"",""1"",""3113""
","
","
","""event"",""trial"",""time""
""fullscreenenter"",""1"",""3113""
","
","","","618.8999999999069","","","23","5283","787","j","elianto","#3366ff99"," "," ","1","+10","[1476.5999999996275]","1","2","","","5283","121","9","1","win","go","0"
"pit-trial","240","1359883","0.0-126.0","battery-v0.2","","""event"",""trial"",""time""
""fullscreenenter"",""1"",""3113""
","
","
","""event"",""trial"",""time""
""fullscreenenter"",""1"",""3113""
","
","","","531.0999999996275","","","23","5283","787","d","elianto","#3366ff99"," "," ","1","0","[1390.4000000003725]","1","2","","","5283","122","8","1","win","go","1"
"pit-trial","241","1364754","0.0-127.0","battery-v0.2","","""event"",""trial"",""time""
""fullscreenenter"",""1"",""3113""
","
","
","""event"",""trial"",""time""
""fullscreenenter"",""1"",""3113""
","
","","","-1","","","23","5283","787","e","elianto","#f73b6a7A","-1","-1","1","0","[]","0","2","","","5283","123","7","4","lose","no-go","0"
"pit-trial","242","1368301","0.0-128.0","battery-v0.2","","""event"",""trial"",""time""
""fullscreenenter"",""1"",""3113""
","
","
","""event"",""trial"",""time""
""fullscreenenter"",""1"",""3113""
","
","","","671.3000000002794","","","23","5283","787","w","elianto","#f73b6a7A"," "," ","1","0","[1530]","1","2","","","5283","124","6","3","lose","go","0"
"pit-trial","243","1371760","0.0-129.0","battery-v0.2","","""event"",""trial"",""time""
""fullscreenenter"",""1"",""3113""
","
","
","""event"",""trial"",""time""
""fullscreenenter"",""1"",""3113""
","
","","","583","","","23","5283","787","j","elianto","#3366ff99"," "," ","1","+10","[1443]","1","2","","","5283","125","9","1","win","go","0"
"pit-trial","244","1376626","0.0-130.0","battery-v0.2","","""event"",""trial"",""time""
""fullscreenenter"",""1"",""3113""
","
","
","""event"",""trial"",""time""
""fullscreenenter"",""1"",""3113""
","
","","","-1","","","23","5283","787","e","elianto","#f73b6a7A","-1","-1","1","0","[]","0","2","","","5283","126","7","4","lose","no-go","0"
"pit-trial","245","1380140","0.0-131.0","battery-v0.2","","""event"",""trial"",""time""
""fullscreenenter"",""1"",""3113""
","
","
","""event"",""trial"",""time""
""fullscreenenter"",""1"",""3113""
","
","","","646.6000000000931","","","23","5283","787","d","elianto","#3366ff99"," "," ","1","+10","[1499.6999999997206]","1","2","","","5283","127","8","1","win","go","0"
"pit-trial","246","1383637","0.0-132.0","battery-v0.2","","""event"",""trial"",""time""
""fullscreenenter"",""1"",""3113""
","
","
","""event"",""trial"",""time""
""fullscreenenter"",""1"",""3113""
","
","","","625.8000000002794","","","23","5283","787","w","elianto","#f73b6a7A"," "," ","1","-10","[1484.8000000002794]","1","2","","","5283","128","6","3","lose","go","1"
"pit-trial","247","1387094","0.0-133.0","battery-v0.2","","""event"",""trial"",""time""
""fullscreenenter"",""1"",""3113""
","
","
","""event"",""trial"",""time""
""fullscreenenter"",""1"",""3113""
","
","","","582.5","","","23","5283","787","w","elianto","#f73b6a7A"," "," ","1","0","[1441.8000000002794]","1","2","","","5283","129","6","3","lose","go","0"
"pit-trial","248","1391972","0.0-134.0","battery-v0.2","","""event"",""trial"",""time""
""fullscreenenter"",""1"",""3113""
","
","
","""event"",""trial"",""time""
""fullscreenenter"",""1"",""3113""
","
","","","-1","","","23","5283","787","e","elianto","#f73b6a7A","-1","-1","1","-10","[]","0","2","","","5283","130","7","4","lose","no-go","1"
"pit-trial","249","1395419","0.0-135.0","battery-v0.2","","""event"",""trial"",""time""
""fullscreenenter"",""1"",""3113""
","
","
","""event"",""trial"",""time""
""fullscreenenter"",""1"",""3113""
","
","","","580.0999999996275","","","23","5283","787","d","elianto","#3366ff99"," "," ","1","+10","[1440.5999999996275]","1","2","","","5283","131","8","1","win","go","0"
"pit-trial","250","1398909","0.0-136.0","battery-v0.2","","""event"",""trial"",""time""
""fullscreenenter"",""1"",""3113""
","
","
","""event"",""trial"",""time""
""fullscreenenter"",""1"",""3113""
","
","","","629","","","23","5283","787","j","elianto","#3366ff99"," "," ","1","0","[1479.3000000002794]","1","2","","","5283","132","9","1","win","go","1"
"pit-trial","251","1402396","0.0-137.0","battery-v0.2","","""event"",""trial"",""time""
""fullscreenenter"",""1"",""3113""
","
","
","""event"",""trial"",""time""
""fullscreenenter"",""1"",""3113""
","
","","","612.8999999999069","","","23","5283","787","d","elianto","#3366ff99"," "," ","1","+10","[1472.7999999998137]","1","2","","","5283","133","8","1","win","go","0"
"pit-trial","252","1405779","0.0-138.0","battery-v0.2","","""event"",""trial"",""time""
""fullscreenenter"",""1"",""3113""
","
","
","""event"",""trial"",""time""
""fullscreenenter"",""1"",""3113""
","
","","","516","","","23","5283","787","j","elianto","#3366ff99"," "," ","1","+10","[1373.6000000000931]","1","2","","","5283","134","9","1","win","go","0"
"pit-trial","253","1409294","0.0-139.0","battery-v0.2","","""event"",""trial"",""time""
""fullscreenenter"",""1"",""3113""
","
","
","""event"",""trial"",""time""
""fullscreenenter"",""1"",""3113""
","
","","","646.8999999999069","","","23","5283","787","w","elianto","#f73b6a7A"," "," ","1","0","[1505]","1","2","","","5283","135","6","3","lose","go","0"
"pit-trial","254","1414167","0.0-140.0","battery-v0.2","","""event"",""trial"",""time""
""fullscreenenter"",""1"",""3113""
","
","
","""event"",""trial"",""time""
""fullscreenenter"",""1"",""3113""
","
","","","-1","","","23","5283","787","e","elianto","#f73b6a7A","-1","-1","1","0","[]","0","2","","","5283","136","7","4","lose","no-go","0"
"pit-trial","255","1417606","0.0-141.0","battery-v0.2","","""event"",""trial"",""time""
""fullscreenenter"",""1"",""3113""
","
","
","""event"",""trial"",""time""
""fullscreenenter"",""1"",""3113""
","
","","","572.6000000000931","","","23","5283","787","d","elianto","#3366ff99"," "," ","1","+10","[1429.3999999999069]","1","2","","","5283","137","8","1","win","go","0"
"pit-trial","256","1421173","0.0-142.0","battery-v0.2","","""event"",""trial"",""time""
""fullscreenenter"",""1"",""3113""
","
","
","""event"",""trial"",""time""
""fullscreenenter"",""1"",""3113""
","
","","","703.2000000001863","","","23","5283","787","j","elianto","#3366ff99"," "," ","1","+10","[1556]","1","2","","","5283","138","9","1","win","go","0"
"pit-trial","257","1424961","0.0-143.0","battery-v0.2","","""event"",""trial"",""time""
""fullscreenenter"",""1"",""3113""
","
","
","""event"",""trial"",""time""
""fullscreenenter"",""1"",""3113""
","
","","","925.2999999998137","","","23","5283","787","w","elianto","#f73b6a7A"," "," ","1","0","[1777.8999999999069]","1","2","","","5283","139","6","3","lose","go","0"
"pit-trial","258","1429836","0.0-144.0","battery-v0.2","","""event"",""trial"",""time""
""fullscreenenter"",""1"",""3113""
","
","
","""event"",""trial"",""time""
""fullscreenenter"",""1"",""3113""
","
","","","-1","","","23","5283","787","e","elianto","#f73b6a7A","-1","-1","1","0","[]","0","2","","","5283","140","7","4","lose","no-go","0"
"pit-instructions","259","1446521","0.0-145.0","battery-v0.2","","""event"",""trial"",""time""
""fullscreenenter"",""1"",""3113""
","
","
","""event"",""trial"",""time""
""fullscreenenter"",""1"",""3113""
","
","","[{""page_index"":0,""viewing_time"":7642.200000000186},{""page_index"":1,""viewing_time"":9039.69999999972}]","16682.5","","","","","","","","","","","","","","","","","","","","","","","",""
"pit-trial","260","1451400","0.0-146.0","battery-v0.2","","""event"",""trial"",""time""
""fullscreenenter"",""1"",""3113""
","
","
","""event"",""trial"",""time""
""fullscreenenter"",""1"",""3113""
","
","","","-1","","","23","5283","787","t","elianto","#f73b6a7A","-1","-1","1","0","[]","0","3","","","5283","141","2","4","lose","no-go","0"
"pit-trial","261","1455204","0.0-147.0","battery-v0.2","","""event"",""trial"",""time""
""fullscreenenter"",""1"",""3113""
","
","
","""event"",""trial"",""time""
""fullscreenenter"",""1"",""3113""
","
","","","941.8999999999069","","","23","5283","787","n","elianto","#f73b6a7A","-1"," ","0","0","[1794.8999999999069]","1","3","","","5283","142","0","4","lose","no-go","1"
"pit-trial","262","1459581","0.0-148.0","battery-v0.2","","""event"",""trial"",""time""
""fullscreenenter"",""1"",""3113""
","
","
","""event"",""trial"",""time""
""fullscreenenter"",""1"",""3113""
","
","","","1518.8999999999069","","","23","5283","787","f","elianto","#3366ff99"," "," ","1","+10","[2370.7999999998137]","1","3","","","5283","143","1","1","win","go","0"
"pit-trial","263","1464320","0.0-149.0","battery-v0.2","","""event"",""trial"",""time""
""fullscreenenter"",""1"",""3113""
","
","
","""event"",""trial"",""time""
""fullscreenenter"",""1"",""3113""
","
","","","1864.5999999996275","","","23","5283","787","b","elianto","#f73b6a7A"," "," ","1","0","[2722.5]","1","3","","","5283","144","3","3","lose","go","0"
"pit-trial","264","1467859","0.0-150.0","battery-v0.2","","""event"",""trial"",""time""
""fullscreenenter"",""1"",""3113""
","
","
","""event"",""trial"",""time""
""fullscreenenter"",""1"",""3113""
","
","","","673.6000000000931","","","23","5283","787","b","elianto","#f73b6a7A"," "," ","1","0","[1527]","1","3","","","5283","145","3","3","lose","go","0"
"pit-trial","265","1471311","0.0-151.0","battery-v0.2","","""event"",""trial"",""time""
""fullscreenenter"",""1"",""3113""
","
","
","""event"",""trial"",""time""
""fullscreenenter"",""1"",""3113""
","
","","","586.2000000001863","","","23","5283","787","f","elianto","#3366ff99"," "," ","1","+10","[1436.6000000000931]","1","3","","","5283","146","1","1","win","go","0"
"pit-trial","266","1475090","0.0-152.0","battery-v0.2","","""event"",""trial"",""time""
""fullscreenenter"",""1"",""3113""
","
","
","""event"",""trial"",""time""
""fullscreenenter"",""1"",""3113""
","
","","","903.8000000002794","","","23","5283","787","n","elianto","#f73b6a7A","-1"," ","0","-10","[1763.5]","1","3","","","5283","147","0","4","lose","no-go","0"
"pit-trial","267","1479962","0.0-153.0","battery-v0.2","","""event"",""trial"",""time""
""fullscreenenter"",""1"",""3113""
","
","
","""event"",""trial"",""time""
""fullscreenenter"",""1"",""3113""
","
