"trial_type","trial_index","time_elapsed","internal_node_id","task_version","subject_id","interactions","blur_events","focus_events","fullscreenenter_events","fullscreenexit_events","success","view_history","rt","responses","num_errors","age","subject","participantId","rune","rune_set","hex","correct","choice","accuracy","outcome","keys","total_keys","block","practice","value","sub","trial","stimulus","robot","valence","action","sham"
"pavlovia","0","2","0.0-0.0","battery-v0.2","","""event"",""trial"",""time""
""fullscreenenter"",""1"",""1232""
","
","
","""event"",""trial"",""time""
""fullscreenenter"",""1"",""1232""
","
","","","","","","","","","","","","","","","","","","","","","","","","","","",""
"fullscreen","1","2222","0.0-1.0","battery-v0.2","","""event"",""trial"",""time""
""fullscreenenter"",""1"",""1232""
","
","
","""event"",""trial"",""time""
""fullscreenenter"",""1"",""1232""
","
","true","","","","","","","","","","","","","","","","","","","","","","","","","",""
"pit-instructions","2","5827","0.0-2.0-0.0","battery-v0.2","","""event"",""trial"",""time""
""fullscreenenter"",""1"",""1232""
","
","
","""event"",""trial"",""time""
""fullscreenenter"",""1"",""1232""
","
","","[{""page_index"":0,""viewing_time"":3604}]","3604.2999999970198","","","","","","","","","","","","","","","","","","","","","","","",""
"pit-comprehension","3","8687","0.0-2.0-1.0-0.0","battery-v0.2","","""event"",""trial"",""time""
""fullscreenenter"",""1"",""1232""
","
","
","""event"",""trial"",""time""
""fullscreenenter"",""1"",""1232""
","
","","","2857.7000000029802","[""shark""]","0","25","10843","4942","","","","","","","","","","","","","","","","","","",""
"pit-instructions","4","10153","0.0-2.0-1.0-1.0","battery-v0.2","","""event"",""trial"",""time""
""fullscreenenter"",""1"",""1232""
","
","
","""event"",""trial"",""time""
""fullscreenenter"",""1"",""1232""
","
","","[{""page_index"":0,""viewing_time"":1457.7000000029802}]","1458.1000000089407","","","","","","","","","","","","","","","","","","","","","","","",""
"pit-comprehension","5","13935","0.0-2.0-2.0-0.0","battery-v0.2","","""event"",""trial"",""time""
""fullscreenenter"",""1"",""1232""
","
","
","""event"",""trial"",""time""
""fullscreenenter"",""1"",""1232""
","
","","","3777.4000000059605","[""tiger""]","0","25","10843","4942","","","","","","","","","","","","","","","","","","",""
"pit-instructions","6","15140","0.0-2.0-2.0-1.0","battery-v0.2","","""event"",""trial"",""time""
""fullscreenenter"",""1"",""1232""
","
","
","""event"",""trial"",""time""
""fullscreenenter"",""1"",""1232""
","
","","[{""page_index"":0,""viewing_time"":1203.5}]","1204","","","","","","","","","","","","","","","","","","","","","","","",""
"pit-instructions","7","121737","0.0-2.0-3.0","battery-v0.2","","""event"",""trial"",""time""
""fullscreenenter"",""1"",""1232""
","
","
","""event"",""trial"",""time""
""fullscreenenter"",""1"",""1232""
","
","","[{""page_index"":0,""viewing_time"":11767.79999999702},{""page_index"":1,""viewing_time"":7351.899999991059},{""page_index"":2,""viewing_time"":8264.70000000298},{""page_index"":3,""viewing_time"":6112.29999999702},{""page_index"":4,""viewing_time"":6032.70000000298},{""page_index"":5,""viewing_time"":5694},{""page_index"":6,""viewing_time"":7030.100000008941},{""page_index"":7,""viewing_time"":6760.5999999940395},{""page_index"":8,""viewing_time"":7747.4000000059605},{""page_index"":9,""viewing_time"":9466.79999999702},{""page_index"":10,""viewing_time"":10254.29999999702},{""page_index"":11,""viewing_time"":7921.0999999940395},{""page_index"":12,""viewing_time"":6587.4000000059605},{""page_index"":13,""viewing_time"":5602.4000000059605}]","106594.09999999404","","","","","","","","","","","","","","","","","","","","","","","",""
"pit-trial","8","125072","0.0-2.0-4.0-0.0","battery-v0.2","","""event"",""trial"",""time""
""fullscreenenter"",""1"",""1232""
","
","
","""event"",""trial"",""time""
""fullscreenenter"",""1"",""1232""
","
","","","474","","","25","10843","4942","&#9784;","elianto","#FFFFF080"," "," ","1","&#10004","[1325.5]","1","0","0","","","","","","","",""
"pit-trial","9","128580","0.0-2.0-4.1-0.1","battery-v0.2","","""event"",""trial"",""time""
""fullscreenenter"",""1"",""1232""
","
","
","""event"",""trial"",""time""
""fullscreenenter"",""1"",""1232""
","
","","","647.6000000089407","","","25","10843","4942","&#9784;","elianto","#FFFFF080"," "," ","1","&#10004","[1499.7999999970198]","1","0","0","","","","","","","",""
"pit-trial","10","132167","0.0-2.0-4.2-0.2","battery-v0.2","","""event"",""trial"",""time""
""fullscreenenter"",""1"",""1232""
","
","
","""event"",""trial"",""time""
""fullscreenenter"",""1"",""1232""
","
","","","722.4000000059605","","","25","10843","4942","&#9784;","elianto","#FFFFF080"," "," ","1","&#10004","[1577.0999999940395]","1","0","0","","","","","","","",""
"pit-trial","11","135784","0.0-2.0-4.3-0.3","battery-v0.2","","""event"",""trial"",""time""
""fullscreenenter"",""1"",""1232""
","
","
","""event"",""trial"",""time""
""fullscreenenter"",""1"",""1232""
","
","","","756.2000000029802","","","25","10843","4942","&#9784;","elianto","#FFFFF080"," "," ","1","&#10004","[1606.7000000029802]","1","0","0","","","","","","","",""
"pit-trial","12","139309","0.0-2.0-4.4-0.4","battery-v0.2","","""event"",""trial"",""time""
""fullscreenenter"",""1"",""1232""
","
","
","""event"",""trial"",""time""
""fullscreenenter"",""1"",""1232""
","
","","","658.2999999970198","","","25","10843","4942","&#9784;","elianto","#FFFFF080"," "," ","1","&#10004","[1512.3999999910593]","1","0","0","","","","","","","",""
"pit-instructions","13","162864","0.0-2.0-5.0","battery-v0.2","","""event"",""trial"",""time""
""fullscreenenter"",""1"",""1232""
","
","
","""event"",""trial"",""time""
""fullscreenenter"",""1"",""1232""
","
","","[{""page_index"":0,""viewing_time"":6890.20000000298},{""page_index"":1,""viewing_time"":5775.29999999702},{""page_index"":2,""viewing_time"":5368.5999999940395},{""page_index"":3,""viewing_time"":5518.4000000059605}]","23552.89999999106","","","","","","","","","","","","","","","","","","","","","","","",""
"pit-trial","14","167741","0.0-2.0-6.0-0.0","battery-v0.2","","""event"",""trial"",""time""
""fullscreenenter"",""1"",""1232""
","
","
","""event"",""trial"",""time""
""fullscreenenter"",""1"",""1232""
","
","","","-1","","","25","10843","4942","&#9854;","elianto","#FFFFF080","-1","-1","1","&#10004","[]","0","0","1","","","","","","","",""
"pit-trial","15","172613","0.0-2.0-6.1-0.1","battery-v0.2","","""event"",""trial"",""time""
""fullscreenenter"",""1"",""1232""
","
","
","""event"",""trial"",""time""
""fullscreenenter"",""1"",""1232""
","
","","","-1","","","25","10843","4942","&#9854;","elianto","#FFFFF080","-1","-1","1","&#10004","[]","0","0","1","","","","","","","",""
"pit-trial","16","177476","0.0-2.0-6.2-0.2","battery-v0.2","","""event"",""trial"",""time""
""fullscreenenter"",""1"",""1232""
","
","
","""event"",""trial"",""time""
""fullscreenenter"",""1"",""1232""
","
","","","-1","","","25","10843","4942","&#9854;","elianto","#FFFFF080","-1","-1","1","&#10004","[]","0","0","1","","","","","","","",""
"pit-trial","17","182353","0.0-2.0-6.3-0.3","battery-v0.2","","""event"",""trial"",""time""
""fullscreenenter"",""1"",""1232""
","
","
","""event"",""trial"",""time""
""fullscreenenter"",""1"",""1232""
","
","","","-1","","","25","10843","4942","&#9854;","elianto","#FFFFF080","-1","-1","1","&#10004","[]","0","0","1","","","","","","","",""
"pit-trial","18","187214","0.0-2.0-6.4-0.4","battery-v0.2","","""event"",""trial"",""time""
""fullscreenenter"",""1"",""1232""
","
","
","""event"",""trial"",""time""
""fullscreenenter"",""1"",""1232""
","
","","","-1","","","25","10843","4942","&#9854;","elianto","#FFFFF080","-1","-1","1","&#10004","[]","0","0","1","","","","","","","",""
"pit-instructions","19","305556","0.0-2.0-7.0","battery-v0.2","","""event"",""trial"",""time""
""fullscreenenter"",""1"",""1232""
","
","
","""event"",""trial"",""time""
""fullscreenenter"",""1"",""1232""
","
","","[{""page_index"":0,""viewing_time"":5920},{""page_index"":1,""viewing_time"":7002.5999999940395},{""page_index"":2,""viewing_time"":6688.5},{""page_index"":3,""viewing_time"":6765},{""page_index"":4,""viewing_time"":5456},{""page_index"":5,""viewing_time"":5603.0999999940395},{""page_index"":6,""viewing_time"":5328.100000008941},{""page_index"":7,""viewing_time"":7793.5},{""page_index"":8,""viewing_time"":7149.70000000298},{""page_index"":9,""viewing_time"":6354.899999991059},{""page_index"":10,""viewing_time"":6354.70000000298},{""page_index"":11,""viewing_time"":4480.0999999940395},{""page_index"":12,""viewing_time"":7117.300000011921},{""page_index"":13,""viewing_time"":8282.199999988079},{""page_index"":14,""viewing_time"":7482},{""page_index"":15,""viewing_time"":6715.800000011921},{""page_index"":16,""viewing_time"":6793.399999991059},{""page_index"":17,""viewing_time"":7053.5}]","118340.59999999404","","","","","","","","","","","","","","","","","","","","","","","",""
"pit-trial","20","309186","0.0-2.0-8.0-0.0","battery-v0.2","","""event"",""trial"",""time""
""fullscreenenter"",""1"",""1232""
","
","
","""event"",""trial"",""time""
""fullscreenenter"",""1"",""1232""
","
","","","764.1000000089407","","","25","10843","4942","&#9776;","elianto","#3366ff99"," "," ","1","+10","[1616.6000000089407]","1","0","1","","","","","","","",""
"pit-trial","21","312702","0.0-2.0-8.0-1.0","battery-v0.2","","""event"",""trial"",""time""
""fullscreenenter"",""1"",""1232""
","
","
","""event"",""trial"",""time""
""fullscreenenter"",""1"",""1232""
","
","","","655.2999999970198","","","25","10843","4942","&#9776;","elianto","#3366ff99"," "," ","1","+10","[1506.5]","1","0","1","","","","","","","",""
"pit-trial","22","316095","0.0-2.0-8.0-2.0","battery-v0.2","","""event"",""trial"",""time""
""fullscreenenter"",""1"",""1232""
","
","
","""event"",""trial"",""time""
""fullscreenenter"",""1"",""1232""
","
","","","527.2000000029802","","","25","10843","4942","&#9776;","elianto","#3366ff99"," "," ","1","+10","[1377.5]","1","0","1","","","","","","","",""
"pit-trial","23","319431","0.0-2.0-8.0-3.0","battery-v0.2","","""event"",""trial"",""time""
""fullscreenenter"",""1"",""1232""
","
","
","""event"",""trial"",""time""
""fullscreenenter"",""1"",""1232""
","
","","","473.29999999701977","","","25","10843","4942","&#9776;","elianto","#3366ff99"," "," ","1","0","[1324.4000000059605]","1","0","1","","","","","","","",""
"pit-trial","24","322781","0.0-2.0-8.0-4.0","battery-v0.2","","""event"",""trial"",""time""
""fullscreenenter"",""1"",""1232""
","
","
","""event"",""trial"",""time""
""fullscreenenter"",""1"",""1232""
","
","","","486.69999998807907","","","25","10843","4942","&#9776;","elianto","#3366ff99"," "," ","1","+10","[1338.199999988079]","1","0","1","","","","","","","",""
"pit-trial","25","326123","0.0-2.0-8.1-0.1","battery-v0.2","","""event"",""trial"",""time""
""fullscreenenter"",""1"",""1232""
","
","
","""event"",""trial"",""time""
""fullscreenenter"",""1"",""1232""
","
","","","478","","","25","10843","4942","&#9776;","elianto","#3366ff99"," "," ","1","+10","[1331.2999999970198]","1","0","1","","","","","","","",""
"pit-trial","26","329524","0.0-2.0-8.1-1.1","battery-v0.2","","""event"",""trial"",""time""
""fullscreenenter"",""1"",""1232""
","
","
","""event"",""trial"",""time""
""fullscreenenter"",""1"",""1232""
","
","","","545","","","25","10843","4942","&#9776;","elianto","#3366ff99"," "," ","1","+10","[1395.8999999910593]","1","0","1","","","","","","","",""
"pit-trial","27","332890","0.0-2.0-8.1-2.1","battery-v0.2","","""event"",""trial"",""time""
""fullscreenenter"",""1"",""1232""
","
","
","""event"",""trial"",""time""
""fullscreenenter"",""1"",""1232""
","
","","","499.90000000596046","","","25","10843","4942","&#9776;","elianto","#3366ff99"," "," ","1","+10","[1351.2999999970198]","1","0","1","","","","","","","",""
"pit-trial","28","336200","0.0-2.0-8.1-3.1","battery-v0.2","","""event"",""trial"",""time""
""fullscreenenter"",""1"",""1232""
","
","
","""event"",""trial"",""time""
""fullscreenenter"",""1"",""1232""
","
","","","455.3999999910593","","","25","10843","4942","&#9776;","elianto","#3366ff99"," "," ","1","0","[1306.0999999940395]","1","0","1","","","","","","","",""
"pit-trial","29","339675","0.0-2.0-8.1-4.1","battery-v0.2","","""event"",""trial"",""time""
""fullscreenenter"",""1"",""1232""
","
","
","""event"",""trial"",""time""
""fullscreenenter"",""1"",""1232""
","
","","","620.2999999970198","","","25","10843","4942","&#9776;","elianto","#3366ff99"," "," ","1","+10","[1471.2999999970198]","1","0","1","","","","","","","",""
"pit-trial","30","343131","0.0-2.0-8.2-0.2","battery-v0.2","","""event"",""trial"",""time""
""fullscreenenter"",""1"",""1232""
","
","
","""event"",""trial"",""time""
""fullscreenenter"",""1"",""1232""
","
","","","602","","","25","10843","4942","&#9776;","elianto","#3366ff99"," "," ","1","+10","[1452.0999999940395]","1","0","1","","","","","","","",""
"pit-trial","31","346496","0.0-2.0-8.2-1.2","battery-v0.2","","""event"",""trial"",""time""
""fullscreenenter"",""1"",""1232""
","
","
","""event"",""trial"",""time""
""fullscreenenter"",""1"",""1232""
","
","","","511.59999999403954","","","25","10843","4942","&#9776;","elianto","#3366ff99"," "," ","1","+10","[1361.8999999910593]","1","0","1","","","","","","","",""
"pit-trial","32","349800","0.0-2.0-8.2-2.2","battery-v0.2","","""event"",""trial"",""time""
""fullscreenenter"",""1"",""1232""
","
","
","""event"",""trial"",""time""
""fullscreenenter"",""1"",""1232""
","
","","","450","","","25","10843","4942","&#9776;","elianto","#3366ff99"," "," ","1","+10","[1300.5999999940395]","1","0","1","","","","","","","",""
"pit-trial","33","353127","0.0-2.0-8.2-3.2","battery-v0.2","","""event"",""trial"",""time""
""fullscreenenter"",""1"",""1232""
","
","
","""event"",""trial"",""time""
""fullscreenenter"",""1"",""1232""
","
","","","474.20000000298023","","","25","10843","4942","&#9776;","elianto","#3366ff99"," "," ","1","0","[1324.9000000059605]","1","0","1","","","","","","","",""
"pit-trial","34","356587","0.0-2.0-8.2-4.2","battery-v0.2","","""event"",""trial"",""time""
""fullscreenenter"",""1"",""1232""
","
","
","""event"",""trial"",""time""
""fullscreenenter"",""1"",""1232""
","
","","","606.3000000119209","","","25","10843","4942","&#9776;","elianto","#3366ff99"," "," ","1","+10","[1457.2000000029802]","1","0","1","","","","","","","",""
"call-function","35","356588","0.0-2.0-9.0","battery-v0.2","","""event"",""trial"",""time""
""fullscreenenter"",""1"",""1232""
","
","
","""event"",""trial"",""time""
""fullscreenenter"",""1"",""1232""
","
","","","","","","","","","","","","","","","","","","","","","","","","","","",""
"pit-instructions","36","403813","0.0-2.0-10.0","battery-v0.2","","""event"",""trial"",""time""
""fullscreenenter"",""1"",""1232""
","
","
","""event"",""trial"",""time""
""fullscreenenter"",""1"",""1232""
","
","","[{""page_index"":0,""viewing_time"":6476.399999991059},{""page_index"":1,""viewing_time"":7653.5},{""page_index"":2,""viewing_time"":13726.40000000596},{""page_index"":3,""viewing_time"":11613},{""page_index"":4,""viewing_time"":7755}]","47224.5","","","","","","","","","","","","","","","","","","","","","","","",""
"pit-trial","37","408674","0.0-2.0-11.0-0.0","battery-v0.2","","""event"",""trial"",""time""
""fullscreenenter"",""1"",""1232""
","
","
","""event"",""trial"",""time""
""fullscreenenter"",""1"",""1232""
","
","","","-1","","","25","10843","4942","&#9761;","elianto","#3366ff99","-1","-1","1","+10","[]","0","0","2","","","","","","","",""
"pit-trial","38","413543","0.0-2.0-11.0-1.0","battery-v0.2","","""event"",""trial"",""time""
""fullscreenenter"",""1"",""1232""
","
","
","""event"",""trial"",""time""
""fullscreenenter"",""1"",""1232""
","
","","","-1","","","25","10843","4942","&#9761;","elianto","#3366ff99","-1","-1","1","+10","[]","0","0","2","","","","","","","",""
"pit-trial","39","418407","0.0-2.0-11.0-2.0","battery-v0.2","","""event"",""trial"",""time""
""fullscreenenter"",""1"",""1232""
","
","
","""event"",""trial"",""time""
""fullscreenenter"",""1"",""1232""
","
","","","-1","","","25","10843","4942","&#9761;","elianto","#3366ff99","-1","-1","1","+10","[]","0","0","2","","","","","","","",""
"pit-trial","40","423273","0.0-2.0-11.0-3.0","battery-v0.2","","""event"",""trial"",""time""
""fullscreenenter"",""1"",""1232""
","
","
","""event"",""trial"",""time""
""fullscreenenter"",""1"",""1232""
","
","","","-1","","","25","10843","4942","&#9761;","elianto","#3366ff99","-1","-1","1","0","[]","0","0","2","","","","","","","",""
"pit-trial","41","428136","0.0-2.0-11.0-4.0","battery-v0.2","","""event"",""trial"",""time""
""fullscreenenter"",""1"",""1232""
","
","
","""event"",""trial"",""time""
""fullscreenenter"",""1"",""1232""
","
","","","-1","","","25","10843","4942","&#9761;","elianto","#3366ff99","-1","-1","1","+10","[]","0","0","2","","","","","","","",""
"pit-trial","42","433003","0.0-2.0-11.1-0.1","battery-v0.2","","""event"",""trial"",""time""
""fullscreenenter"",""1"",""1232""
","
","
","""event"",""trial"",""time""
""fullscreenenter"",""1"",""1232""
","
","","","-1","","","25","10843","4942","&#9761;","elianto","#3366ff99","-1","-1","1","+10","[]","0","0","2","","","","","","","",""
"pit-trial","43","437858","0.0-2.0-11.1-1.1","battery-v0.2","","""event"",""trial"",""time""
""fullscreenenter"",""1"",""1232""
","
","
","""event"",""trial"",""time""
""fullscreenenter"",""1"",""1232""
","
","","","-1","","","25","10843","4942","&#9761;","elianto","#3366ff99","-1","-1","1","+10","[]","0","0","2","","","","","","","",""
"pit-trial","44","442710","0.0-2.0-11.1-2.1","battery-v0.2","","""event"",""trial"",""time""
""fullscreenenter"",""1"",""1232""
","
","
","""event"",""trial"",""time""
""fullscreenenter"",""1"",""1232""
","
","","","-1","","","25","10843","4942","&#9761;","elianto","#3366ff99","-1","-1","1","+10","[]","0","0","2","","","","","","","",""
"pit-trial","45","447563","0.0-2.0-11.1-3.1","battery-v0.2","","""event"",""trial"",""time""
""fullscreenenter"",""1"",""1232""
","
","
","""event"",""trial"",""time""
""fullscreenenter"",""1"",""1232""
","
","","","-1","","","25","10843","4942","&#9761;","elianto","#3366ff99","-1","-1","1","0","[]","0","0","2","","","","","","","",""
"pit-trial","46","452417","0.0-2.0-11.1-4.1","battery-v0.2","","""event"",""trial"",""time""
""fullscreenenter"",""1"",""1232""
","
","
","""event"",""trial"",""time""
""fullscreenenter"",""1"",""1232""
","
","","","-1","","","25","10843","4942","&#9761;","elianto","#3366ff99","-1","-1","1","+10","[]","0","0","2","","","","","","","",""
"pit-trial","47","457271","0.0-2.0-11.2-0.2","battery-v0.2","","""event"",""trial"",""time""
""fullscreenenter"",""1"",""1232""
","
","
","""event"",""trial"",""time""
""fullscreenenter"",""1"",""1232""
","
","","","-1","","","25","10843","4942","&#9761;","elianto","#3366ff99","-1","-1","1","+10","[]","0","0","2","","","","","","","",""
"pit-trial","48","462125","0.0-2.0-11.2-1.2","battery-v0.2","","""event"",""trial"",""time""
""fullscreenenter"",""1"",""1232""
""blur"",""49"",""464647""
""focus"",""49"",""466378""
","""event"",""trial"",""time""
""blur"",""49"",""464647""
","""event"",""trial"",""time""
""focus"",""49"",""466378""
","""event"",""trial"",""time""
""fullscreenenter"",""1"",""1232""
","
","","","-1","","","25","10843","4942","&#9761;","elianto","#3366ff99","-1","-1","1","+10","[]","0","0","2","","","","","","","",""
"pit-trial","49","466979","0.0-2.0-11.2-2.2","battery-v0.2","","""event"",""trial"",""time""
""fullscreenenter"",""1"",""1232""
""blur"",""49"",""464647""
""focus"",""49"",""466378""
","""event"",""trial"",""time""
""blur"",""49"",""464647""
","""event"",""trial"",""time""
""focus"",""49"",""466378""
","""event"",""trial"",""time""
""fullscreenenter"",""1"",""1232""
","
","","","-1","","","25","10843","4942","&#9761;","elianto","#3366ff99","-1","-1","1","+10","[]","0","0","2","","","","","","","",""
"pit-trial","50","471832","0.0-2.0-11.2-3.2","battery-v0.2","","""event"",""trial"",""time""
""fullscreenenter"",""1"",""1232""
""blur"",""49"",""464647""
""focus"",""49"",""466378""
","""event"",""trial"",""time""
""blur"",""49"",""464647""
","""event"",""trial"",""time""
""focus"",""49"",""466378""
","""event"",""trial"",""time""
""fullscreenenter"",""1"",""1232""
","
","","","-1","","","25","10843","4942","&#9761;","elianto","#3366ff99","-1","-1","1","0","[]","0","0","2","","","","","","","",""
"pit-trial","51","476687","0.0-2.0-11.2-4.2","battery-v0.2","","""event"",""trial"",""time""
""fullscreenenter"",""1"",""1232""
""blur"",""49"",""464647""
""focus"",""49"",""466378""
","""event"",""trial"",""time""
""blur"",""49"",""464647""
","""event"",""trial"",""time""
""focus"",""49"",""466378""
","""event"",""trial"",""time""
""fullscreenenter"",""1"",""1232""
","
","","","-1","","","25","10843","4942","&#9761;","elianto","#3366ff99","-1","-1","1","+10","[]","0","0","2","","","","","","","",""
"pit-trial","52","481540","0.0-2.0-11.3-0.3","battery-v0.2","","""event"",""trial"",""time""
""fullscreenenter"",""1"",""1232""
""blur"",""49"",""464647""
""focus"",""49"",""466378""
","""event"",""trial"",""time""
""blur"",""49"",""464647""
","""event"",""trial"",""time""
""focus"",""49"",""466378""
","""event"",""trial"",""time""
""fullscreenenter"",""1"",""1232""
","
","","","-1","","","25","10843","4942","&#9761;","elianto","#3366ff99","-1","-1","1","+10","[]","0","0","2","","","","","","","",""
"pit-trial","53","486394","0.0-2.0-11.3-1.3","battery-v0.2","","""event"",""trial"",""time""
""fullscreenenter"",""1"",""1232""
""blur"",""49"",""464647""
""focus"",""49"",""466378""
","""event"",""trial"",""time""
""blur"",""49"",""464647""
","""event"",""trial"",""time""
""focus"",""49"",""466378""
","""event"",""trial"",""time""
""fullscreenenter"",""1"",""1232""
","
","","","-1","","","25","10843","4942","&#9761;","elianto","#3366ff99","-1","-1","1","+10","[]","0","0","2","","","","","","","",""
"pit-trial","54","491248","0.0-2.0-11.3-2.3","battery-v0.2","","""event"",""trial"",""time""
""fullscreenenter"",""1"",""1232""
""blur"",""49"",""464647""
""focus"",""49"",""466378""
","""event"",""trial"",""time""
""blur"",""49"",""464647""
","""event"",""trial"",""time""
""focus"",""49"",""466378""
","""event"",""trial"",""time""
""fullscreenenter"",""1"",""1232""
","
","","","-1","","","25","10843","4942","&#9761;","elianto","#3366ff99","-1","-1","1","+10","[]","0","0","2","","","","","","","",""
"pit-trial","55","496103","0.0-2.0-11.3-3.3","battery-v0.2","","""event"",""trial"",""time""
""fullscreenenter"",""1"",""1232""
""blur"",""49"",""464647""
""focus"",""49"",""466378""
","""event"",""trial"",""time""
""blur"",""49"",""464647""
","""event"",""trial"",""time""
""focus"",""49"",""466378""
","""event"",""trial"",""time""
""fullscreenenter"",""1"",""1232""
","
","","","-1","","","25","10843","4942","&#9761;","elianto","#3366ff99","-1","-1","1","0","[]","0","0","2","","","","","","","",""
"pit-trial","56","500957","0.0-2.0-11.3-4.3","battery-v0.2","","""event"",""trial"",""time""
""fullscreenenter"",""1"",""1232""
""blur"",""49"",""464647""
""focus"",""49"",""466378""
","""event"",""trial"",""time""
""blur"",""49"",""464647""
","""event"",""trial"",""time""
""focus"",""49"",""466378""
","""event"",""trial"",""time""
""fullscreenenter"",""1"",""1232""
","
","","","-1","","","25","10843","4942","&#9761;","elianto","#3366ff99","-1","-1","1","+10","[]","0","0","2","","","","","","","",""
"call-function","57","500958","0.0-2.0-12.0","battery-v0.2","","""event"",""trial"",""time""
""fullscreenenter"",""1"",""1232""
""blur"",""49"",""464647""
""focus"",""49"",""466378""
","""event"",""trial"",""time""
""blur"",""49"",""464647""
","""event"",""trial"",""time""
""focus"",""49"",""466378""
","""event"",""trial"",""time""
""fullscreenenter"",""1"",""1232""
","
","","","","","","","","","","","","","","","","","","","","","","","","","","",""
"pit-instructions","58","538570","0.0-2.0-13.0","battery-v0.2","","""event"",""trial"",""time""
""fullscreenenter"",""1"",""1232""
""blur"",""49"",""464647""
""focus"",""49"",""466378""
","""event"",""trial"",""time""
""blur"",""49"",""464647""
","""event"",""trial"",""time""
""focus"",""49"",""466378""
","""event"",""trial"",""time""
""fullscreenenter"",""1"",""1232""
","
","","[{""page_index"":0,""viewing_time"":11133.20000000298},{""page_index"":1,""viewing_time"":7851.199999988079},{""page_index"":2,""viewing_time"":3167.1000000089407},{""page_index"":3,""viewing_time"":10528.79999999702},{""page_index"":4,""viewing_time"":4931.5}]","37612.5","","","","","","","","","","","","","","","","","","","","","","","",""
"pit-trial","59","541975","0.0-2.0-14.0-0.0","battery-v0.2","","""event"",""trial"",""time""
""fullscreenenter"",""1"",""1232""
""blur"",""49"",""464647""
""focus"",""49"",""466378""
","""event"",""trial"",""time""
""blur"",""49"",""464647""
","""event"",""trial"",""time""
""focus"",""49"",""466378""
","""event"",""trial"",""time""
""fullscreenenter"",""1"",""1232""
","
","","","546.7000000029802","","","25","10843","4942","&#9826;","elianto","#f73b6a7A","-1"," ","0","-10","[1397.7999999970198]","1","0","3","","","","","","","",""
"pit-trial","60","545385","0.0-2.0-14.0-1.0","battery-v0.2","","""event"",""trial"",""time""
""fullscreenenter"",""1"",""1232""
""blur"",""49"",""464647""
""focus"",""49"",""466378""
","""event"",""trial"",""time""
""blur"",""49"",""464647""
","""event"",""trial"",""time""
""focus"",""49"",""466378""
","""event"",""trial"",""time""
""fullscreenenter"",""1"",""1232""
","
","","","550.8000000119209","","","25","10843","4942","&#9826;","elianto","#f73b6a7A","-1"," ","0","-10","[1405.4000000059605]","1","0","3","","","","","","","",""
"pit-trial","61","550253","0.0-2.0-14.0-2.0","battery-v0.2","","""event"",""trial"",""time""
""fullscreenenter"",""1"",""1232""
""blur"",""49"",""464647""
""focus"",""49"",""466378""
","""event"",""trial"",""time""
""blur"",""49"",""464647""
","""event"",""trial"",""time""
""focus"",""49"",""466378""
","""event"",""trial"",""time""
""fullscreenenter"",""1"",""1232""
","
","","","-1","","","25","10843","4942","&#9826;","elianto","#f73b6a7A","-1","-1","1","0","[]","0","0","3","","","","","","","",""
"pit-trial","62","555113","0.0-2.0-14.0-3.0","battery-v0.2","","""event"",""trial"",""time""
""fullscreenenter"",""1"",""1232""
""blur"",""49"",""464647""
""focus"",""49"",""466378""
","""event"",""trial"",""time""
""blur"",""49"",""464647""
","""event"",""trial"",""time""
""focus"",""49"",""466378""
","""event"",""trial"",""time""
""fullscreenenter"",""1"",""1232""
","
","","","-1","","","25","10843","4942","&#9826;","elianto","#f73b6a7A","-1","-1","1","-10","[]","0","0","3","","","","","","","",""
"pit-trial","63","559984","0.0-2.0-14.0-4.0","battery-v0.2","","""event"",""trial"",""time""
""fullscreenenter"",""1"",""1232""
""blur"",""49"",""464647""
""focus"",""49"",""466378""
","""event"",""trial"",""time""
""blur"",""49"",""464647""
","""event"",""trial"",""time""
""focus"",""49"",""466378""
","""event"",""trial"",""time""
""fullscreenenter"",""1"",""1232""
","
","","","-1","","","25","10843","4942","&#9826;","elianto","#f73b6a7A","-1","-1","1","0","[]","0","0","3","","","","","","","",""
"pit-trial","64","564843","0.0-2.0-14.1-0.1","battery-v0.2","","""event"",""trial"",""time""
""fullscreenenter"",""1"",""1232""
""blur"",""49"",""464647""
""focus"",""49"",""466378""
","""event"",""trial"",""time""
""blur"",""49"",""464647""
","""event"",""trial"",""time""
""focus"",""49"",""466378""
","""event"",""trial"",""time""
""fullscreenenter"",""1"",""1232""
","
","","","-1","","","25","10843","4942","&#9826;","elianto","#f73b6a7A","-1","-1","1","0","[]","0","0","3","","","","","","","",""
"pit-trial","65","569698","0.0-2.0-14.1-1.1","battery-v0.2","","""event"",""trial"",""time""
""fullscreenenter"",""1"",""1232""
""blur"",""49"",""464647""
""focus"",""49"",""466378""
","""event"",""trial"",""time""
""blur"",""49"",""464647""
","""event"",""trial"",""time""
""focus"",""49"",""466378""
","""event"",""trial"",""time""
""fullscreenenter"",""1"",""1232""
","
","","","-1","","","25","10843","4942","&#9826;","elianto","#f73b6a7A","-1","-1","1","0","[]","0","0","3","","","","","","","",""
"pit-trial","66","574551","0.0-2.0-14.1-2.1","battery-v0.2","","""event"",""trial"",""time""
""fullscreenenter"",""1"",""1232""
""blur"",""49"",""464647""
""focus"",""49"",""466378""
","""event"",""trial"",""time""
""blur"",""49"",""464647""
","""event"",""trial"",""time""
""focus"",""49"",""466378""
","""event"",""trial"",""time""
""fullscreenenter"",""1"",""1232""
","
","","","-1","","","25","10843","4942","&#9826;","elianto","#f73b6a7A","-1","-1","1","0","[]","0","0","3","","","","","","","",""
"pit-trial","67","579405","0.0-2.0-14.1-3.1","battery-v0.2","","""event"",""trial"",""time""
""fullscreenenter"",""1"",""1232""
""blur"",""49"",""464647""
""focus"",""49"",""466378""
","""event"",""trial"",""time""
""blur"",""49"",""464647""
","""event"",""trial"",""time""
""focus"",""49"",""466378""
","""event"",""trial"",""time""
""fullscreenenter"",""1"",""1232""
","
","","","-1","","","25","10843","4942","&#9826;","elianto","#f73b6a7A","-1","-1","1","-10","[]","0","0","3","","","","","","","",""
"pit-trial","68","584260","0.0-2.0-14.1-4.1","battery-v0.2","","""event"",""trial"",""time""
""fullscreenenter"",""1"",""1232""
""blur"",""49"",""464647""
""focus"",""49"",""466378""
","""event"",""trial"",""time""
""blur"",""49"",""464647""
","""event"",""trial"",""time""
""focus"",""49"",""466378""
","""event"",""trial"",""time""
""fullscreenenter"",""1"",""1232""
","
","","","-1","","","25","10843","4942","&#9826;","elianto","#f73b6a7A","-1","-1","1","0","[]","0","0","3","","","","","","","",""
"pit-trial","69","589126","0.0-2.0-14.2-0.2","battery-v0.2","","""event"",""trial"",""time""
""fullscreenenter"",""1"",""1232""
""blur"",""49"",""464647""
""focus"",""49"",""466378""
","""event"",""trial"",""time""
""blur"",""49"",""464647""
","""event"",""trial"",""time""
""focus"",""49"",""466378""
","""event"",""trial"",""time""
""fullscreenenter"",""1"",""1232""
","
","","","-1","","","25","10843","4942","&#9826;","elianto","#f73b6a7A","-1","-1","1","0","[]","0","0","3","","","","","","","",""
"pit-trial","70","593983","0.0-2.0-14.2-1.2","battery-v0.2","","""event"",""trial"",""time""
""fullscreenenter"",""1"",""1232""
""blur"",""49"",""464647""
""focus"",""49"",""466378""
","""event"",""trial"",""time""
""blur"",""49"",""464647""
","""event"",""trial"",""time""
""focus"",""49"",""466378""
","""event"",""trial"",""time""
""fullscreenenter"",""1"",""1232""
","
","","","-1","","","25","10843","4942","&#9826;","elianto","#f73b6a7A","-1","-1","1","0","[]","0","0","3","","","","","","","",""
"pit-trial","71","598835","0.0-2.0-14.2-2.2","battery-v0.2","","""event"",""trial"",""time""
""fullscreenenter"",""1"",""1232""
""blur"",""49"",""464647""
""focus"",""49"",""466378""
","""event"",""trial"",""time""
""blur"",""49"",""464647""
","""event"",""trial"",""time""
""focus"",""49"",""466378""
","""event"",""trial"",""time""
""fullscreenenter"",""1"",""1232""
","
","","","-1","","","25","10843","4942","&#9826;","elianto","#f73b6a7A","-1","-1","1","0","[]","0","0","3","","","","","","","",""
"pit-trial","72","603702","0.0-2.0-14.2-3.2","battery-v0.2","","""event"",""trial"",""time""
""fullscreenenter"",""1"",""1232""
""blur"",""49"",""464647""
""focus"",""49"",""466378""
""blur"",""73"",""604186""
""focus"",""73"",""605902""
","""event"",""trial"",""time""
""blur"",""49"",""464647""
""blur"",""73"",""604186""
","""event"",""trial"",""time""
""focus"",""49"",""466378""
""focus"",""73"",""605902""
","""event"",""trial"",""time""
""fullscreenenter"",""1"",""1232""
","
","","","-1","","","25","10843","4942","&#9826;","elianto","#f73b6a7A","-1","-1","1","-10","[]","0","0","3","","","","","","","",""
"pit-trial","73","608554","0.0-2.0-14.2-4.2","battery-v0.2","","""event"",""trial"",""time""
""fullscreenenter"",""1"",""1232""
""blur"",""49"",""464647""
""focus"",""49"",""466378""
""blur"",""73"",""604186""
""focus"",""73"",""605902""
","""event"",""trial"",""time""
""blur"",""49"",""464647""
""blur"",""73"",""604186""
","""event"",""trial"",""time""
""focus"",""49"",""466378""
""focus"",""73"",""605902""
","""event"",""trial"",""time""
""fullscreenenter"",""1"",""1232""
","
","","","-1","","","25","10843","4942","&#9826;","elianto","#f73b6a7A","-1","-1","1","0","[]","0","0","3","","","","","","","",""
"pit-trial","74","613408","0.0-2.0-14.3-0.3","battery-v0.2","","""event"",""trial"",""time""
""fullscreenenter"",""1"",""1232""
""blur"",""49"",""464647""
""focus"",""49"",""466378""
""blur"",""73"",""604186""
""focus"",""73"",""605902""
","""event"",""trial"",""time""
""blur"",""49"",""464647""
""blur"",""73"",""604186""
","""event"",""trial"",""time""
""focus"",""49"",""466378""
""focus"",""73"",""605902""
","""event"",""trial"",""time""
""fullscreenenter"",""1"",""1232""
","
","","","-1","","","25","10843","4942","&#9826;","elianto","#f73b6a7A","-1","-1","1","0","[]","0","0","3","","","","","","","",""
"pit-trial","75","618265","0.0-2.0-14.3-1.3","battery-v0.2","","""event"",""trial"",""time""
""fullscreenenter"",""1"",""1232""
""blur"",""49"",""464647""
""focus"",""49"",""466378""
""blur"",""73"",""604186""
""focus"",""73"",""605902""
","""event"",""trial"",""time""
""blur"",""49"",""464647""
""blur"",""73"",""604186""
","""event"",""trial"",""time""
""focus"",""49"",""466378""
""focus"",""73"",""605902""
","""event"",""trial"",""time""
""fullscreenenter"",""1"",""1232""
","
","","","-1","","","25","10843","4942","&#9826;","elianto","#f73b6a7A","-1","-1","1","0","[]","0","0","3","","","","","","","",""
"pit-trial","76","623118","0.0-2.0-14.3-2.3","battery-v0.2","","""event"",""trial"",""time""
""fullscreenenter"",""1"",""1232""
""blur"",""49"",""464647""
""focus"",""49"",""466378""
""blur"",""73"",""604186""
""focus"",""73"",""605902""
","""event"",""trial"",""time""
""blur"",""49"",""464647""
""blur"",""73"",""604186""
","""event"",""trial"",""time""
""focus"",""49"",""466378""
""focus"",""73"",""605902""
","""event"",""trial"",""time""
""fullscreenenter"",""1"",""1232""
","
","","","-1","","","25","10843","4942","&#9826;","elianto","#f73b6a7A","-1","-1","1","0","[]","0","0","3","","","","","","","",""
"pit-trial","77","627973","0.0-2.0-14.3-3.3","battery-v0.2","","""event"",""trial"",""time""
""fullscreenenter"",""1"",""1232""
""blur"",""49"",""464647""
""focus"",""49"",""466378""
""blur"",""73"",""604186""
""focus"",""73"",""605902""
","""event"",""trial"",""time""
""blur"",""49"",""464647""
""blur"",""73"",""604186""
","""event"",""trial"",""time""
""focus"",""49"",""466378""
""focus"",""73"",""605902""
","""event"",""trial"",""time""
""fullscreenenter"",""1"",""1232""
","
","","","-1","","","25","10843","4942","&#9826;","elianto","#f73b6a7A","-1","-1","1","-10","[]","0","0","3","","","","","","","",""
"pit-trial","78","632826","0.0-2.0-14.3-4.3","battery-v0.2","","""event"",""trial"",""time""
""fullscreenenter"",""1"",""1232""
""blur"",""49"",""464647""
""focus"",""49"",""466378""
""blur"",""73"",""604186""
""focus"",""73"",""605902""
","""event"",""trial"",""time""
""blur"",""49"",""464647""
""blur"",""73"",""604186""
","""event"",""trial"",""time""
""focus"",""49"",""466378""
""focus"",""73"",""605902""
","""event"",""trial"",""time""
""fullscreenenter"",""1"",""1232""
","
","","","-1","","","25","10843","4942","&#9826;","elianto","#f73b6a7A","-1","-1","1","0","[]","0","0","3","","","","","","","",""
"call-function","79","632827","0.0-2.0-15.0","battery-v0.2","","""event"",""trial"",""time""
""fullscreenenter"",""1"",""1232""
""blur"",""49"",""464647""
""focus"",""49"",""466378""
""blur"",""73"",""604186""
""focus"",""73"",""605902""
","""event"",""trial"",""time""
""blur"",""49"",""464647""
""blur"",""73"",""604186""
","""event"",""trial"",""time""
""focus"",""49"",""466378""
""focus"",""73"",""605902""
","""event"",""trial"",""time""
""fullscreenenter"",""1"",""1232""
","
","","","","","","","","","","","","","","","","","","","","","","","","","","",""
"pit-instructions","80","664600","0.0-2.0-16.0","battery-v0.2","","""event"",""trial"",""time""
""fullscreenenter"",""1"",""1232""
""blur"",""49"",""464647""
""focus"",""49"",""466378""
""blur"",""73"",""604186""
""focus"",""73"",""605902""
","""event"",""trial"",""time""
""blur"",""49"",""464647""
""blur"",""73"",""604186""
","""event"",""trial"",""time""
""focus"",""49"",""466378""
""focus"",""73"",""605902""
","""event"",""trial"",""time""
""fullscreenenter"",""1"",""1232""
","
","","[{""page_index"":0,""viewing_time"":12926.79999999702},{""page_index"":1,""viewing_time"":9057.60000000894},{""page_index"":2,""viewing_time"":4797.699999988079},{""page_index"":3,""viewing_time"":4990.5}]","31773","","","","","","","","","","","","","","","","","","","","","","","",""
"pit-trial","81","667981","0.0-2.0-17.0-0.0","battery-v0.2","","""event"",""trial"",""time""
""fullscreenenter"",""1"",""1232""
""blur"",""49"",""464647""
""focus"",""49"",""466378""
""blur"",""73"",""604186""
""focus"",""73"",""605902""
","""event"",""trial"",""time""
""blur"",""49"",""464647""
""blur"",""73"",""604186""
","""event"",""trial"",""time""
""focus"",""49"",""466378""
""focus"",""73"",""605902""
","""event"",""trial"",""time""
""fullscreenenter"",""1"",""1232""
","
","","","516.5999999940395","","","25","10843","4942","&#9789;","elianto","#f73b6a7A"," "," ","1","0","[1370.5999999940395]","1","0","4","","","","","","","",""
"pit-trial","82","671247","0.0-2.0-17.0-1.0","battery-v0.2","","""event"",""trial"",""time""
""fullscreenenter"",""1"",""1232""
""blur"",""49"",""464647""
""focus"",""49"",""466378""
""blur"",""73"",""604186""
""focus"",""73"",""605902""
","""event"",""trial"",""time""
""blur"",""49"",""464647""
""blur"",""73"",""604186""
","""event"",""trial"",""time""
""focus"",""49"",""466378""
""focus"",""73"",""605902""
","""event"",""trial"",""time""
""fullscreenenter"",""1"",""1232""
","
","","","409.5","","","25","10843","4942","&#9789;","elianto","#f73b6a7A"," "," ","1","0","[1263.2000000029802]","1","0","4","","","","","","","",""
"pit-trial","83","674490","0.0-2.0-17.0-2.0","battery-v0.2","","""event"",""trial"",""time""
""fullscreenenter"",""1"",""1232""
""blur"",""49"",""464647""
""focus"",""49"",""466378""
""blur"",""73"",""604186""
""focus"",""73"",""605902""
","""event"",""trial"",""time""
""blur"",""49"",""464647""
""blur"",""73"",""604186""
","""event"",""trial"",""time""
""focus"",""49"",""466378""
""focus"",""73"",""605902""
","""event"",""trial"",""time""
""fullscreenenter"",""1"",""1232""
","
","","","378.5","","","25","10843","4942","&#9789;","elianto","#f73b6a7A"," "," ","1","0","[1228.6000000089407]","1","0","4","","","","","","","",""
"pit-trial","84","677749","0.0-2.0-17.0-3.0","battery-v0.2","","""event"",""trial"",""time""
""fullscreenenter"",""1"",""1232""
""blur"",""49"",""464647""
""focus"",""49"",""466378""
""blur"",""73"",""604186""
""focus"",""73"",""605902""
","""event"",""trial"",""time""
""blur"",""49"",""464647""
""blur"",""73"",""604186""
","""event"",""trial"",""time""
""focus"",""49"",""466378""
""focus"",""73"",""605902""
","""event"",""trial"",""time""
""fullscreenenter"",""1"",""1232""
","
","","","395.09999999403954","","","25","10843","4942","&#9789;","elianto","#f73b6a7A"," "," ","1","-10","[1249.2999999970198]","1","0","4","","","","","","","",""
"pit-trial","85","680954","0.0-2.0-17.0-4.0","battery-v0.2","","""event"",""trial"",""time""
""fullscreenenter"",""1"",""1232""
""blur"",""49"",""464647""
""focus"",""49"",""466378""
""blur"",""73"",""604186""
""focus"",""73"",""605902""
","""event"",""trial"",""time""
""blur"",""49"",""464647""
""blur"",""73"",""604186""
","""event"",""trial"",""time""
""focus"",""49"",""466378""
""focus"",""73"",""605902""
","""event"",""trial"",""time""
""fullscreenenter"",""1"",""1232""
","
","","","348.30000001192093","","","25","10843","4942","&#9789;","elianto","#f73b6a7A"," "," ","1","0","[1198.4000000059605]","1","0","4","","","","","","","",""
"pit-trial","86","684194","0.0-2.0-17.1-0.1","battery-v0.2","","""event"",""trial"",""time""
""fullscreenenter"",""1"",""1232""
""blur"",""49"",""464647""
""focus"",""49"",""466378""
""blur"",""73"",""604186""
""focus"",""73"",""605902""
","""event"",""trial"",""time""
""blur"",""49"",""464647""
""blur"",""73"",""604186""
","""event"",""trial"",""time""
""focus"",""49"",""466378""
""focus"",""73"",""605902""
","""event"",""trial"",""time""
""fullscreenenter"",""1"",""1232""
","
","","","384.20000000298023","","","25","10843","4942","&#9789;","elianto","#f73b6a7A"," "," ","1","0","[1234.9000000059605]","1","0","4","","","","","","","",""
"pit-trial","87","687433","0.0-2.0-17.1-1.1","battery-v0.2","","""event"",""trial"",""time""
""fullscreenenter"",""1"",""1232""
""blur"",""49"",""464647""
""focus"",""49"",""466378""
""blur"",""73"",""604186""
""focus"",""73"",""605902""
","""event"",""trial"",""time""
""blur"",""49"",""464647""
""blur"",""73"",""604186""
","""event"",""trial"",""time""
""focus"",""49"",""466378""
""focus"",""73"",""605902""
","""event"",""trial"",""time""
""fullscreenenter"",""1"",""1232""
","
","","","376.70000000298023","","","25","10843","4942","&#9789;","elianto","#f73b6a7A"," "," ","1","0","[1229.5]","1","0","4","","","","","","","",""
"pit-trial","88","690714","0.0-2.0-17.1-2.1","battery-v0.2","","""event"",""trial"",""time""
""fullscreenenter"",""1"",""1232""
""blur"",""49"",""464647""
""focus"",""49"",""466378""
""blur"",""73"",""604186""
""focus"",""73"",""605902""
","""event"",""trial"",""time""
""blur"",""49"",""464647""
""blur"",""73"",""604186""
","""event"",""trial"",""time""
""focus"",""49"",""466378""
""focus"",""73"",""605902""
","""event"",""trial"",""time""
""fullscreenenter"",""1"",""1232""
","
","","","421.3999999910593","","","25","10843","4942","&#9789;","elianto","#f73b6a7A"," "," ","1","0","[1271.8999999910593]","1","0","4","","","","","","","",""
"pit-trial","89","694063","0.0-2.0-17.1-3.1","battery-v0.2","","""event"",""trial"",""time""
""fullscreenenter"",""1"",""1232""
""blur"",""49"",""464647""
""focus"",""49"",""466378""
""blur"",""73"",""604186""
""focus"",""73"",""605902""
","""event"",""trial"",""time""
""blur"",""49"",""464647""
""blur"",""73"",""604186""
","""event"",""trial"",""time""
""focus"",""49"",""466378""
""focus"",""73"",""605902""
","""event"",""trial"",""time""
""fullscreenenter"",""1"",""1232""
","
","","","486.5","","","25","10843","4942","&#9789;","elianto","#f73b6a7A"," "," ","1","-10","[1337.7999999970198]","1","0","4","","","","","","","",""
"pit-trial","90","697431","0.0-2.0-17.1-4.1","battery-v0.2","","""event"",""trial"",""time""
""fullscreenenter"",""1"",""1232""
""blur"",""49"",""464647""
""focus"",""49"",""466378""
""blur"",""73"",""604186""
""focus"",""73"",""605902""
","""event"",""trial"",""time""
""blur"",""49"",""464647""
""blur"",""73"",""604186""
","""event"",""trial"",""time""
""focus"",""49"",""466378""
""focus"",""73"",""605902""
","""event"",""trial"",""time""
""fullscreenenter"",""1"",""1232""
","
","","","514.7000000029802","","","25","10843","4942","&#9789;","elianto","#f73b6a7A"," "," ","1","0","[1365.7999999970198]","1","0","4","","","","","","","",""
"pit-trial","91","700774","0.0-2.0-17.2-0.2","battery-v0.2","","""event"",""trial"",""time""
""fullscreenenter"",""1"",""1232""
""blur"",""49"",""464647""
""focus"",""49"",""466378""
""blur"",""73"",""604186""
""focus"",""73"",""605902""
","""event"",""trial"",""time""
""blur"",""49"",""464647""
""blur"",""73"",""604186""
","""event"",""trial"",""time""
""focus"",""49"",""466378""
""focus"",""73"",""605902""
","""event"",""trial"",""time""
""fullscreenenter"",""1"",""1232""
","
","","","489.09999999403954","","","25","10843","4942","&#9789;","elianto","#f73b6a7A"," "," ","1","0","[1340.8999999910593]","1","0","4","","","","","","","",""
"pit-trial","92","704004","0.0-2.0-17.2-1.2","battery-v0.2","","""event"",""trial"",""time""
""fullscreenenter"",""1"",""1232""
""blur"",""49"",""464647""
""focus"",""49"",""466378""
""blur"",""73"",""604186""
""focus"",""73"",""605902""
","""event"",""trial"",""time""
""blur"",""49"",""464647""
""blur"",""73"",""604186""
","""event"",""trial"",""time""
""focus"",""49"",""466378""
""focus"",""73"",""605902""
","""event"",""trial"",""time""
""fullscreenenter"",""1"",""1232""
","
","","","376.79999999701977","","","25","10843","4942","&#9789;","elianto","#f73b6a7A"," "," ","1","0","[1227]","1","0","4","","","","","","","",""
"pit-trial","93","707267","0.0-2.0-17.2-2.2","battery-v0.2","","""event"",""trial"",""time""
""fullscreenenter"",""1"",""1232""
""blur"",""49"",""464647""
""focus"",""49"",""466378""
""blur"",""73"",""604186""
""focus"",""73"",""605902""
","""event"",""trial"",""time""
""blur"",""49"",""464647""
""blur"",""73"",""604186""
","""event"",""trial"",""time""
""focus"",""49"",""466378""
""focus"",""73"",""605902""
","""event"",""trial"",""time""
""fullscreenenter"",""1"",""1232""
","
","","","402.6000000089407","","","25","10843","4942","&#9789;","elianto","#f73b6a7A"," "," ","1","0","[1254.199999988079]","1","0","4","","","","","","","",""
"pit-trial","94","710627","0.0-2.0-17.2-3.2","battery-v0.2","","""event"",""trial"",""time""
""fullscreenenter"",""1"",""1232""
""blur"",""49"",""464647""
""focus"",""49"",""466378""
""blur"",""73"",""604186""
""focus"",""73"",""605902""
","""event"",""trial"",""time""
""blur"",""49"",""464647""
""blur"",""73"",""604186""
","""event"",""trial"",""time""
""focus"",""49"",""466378""
""focus"",""73"",""605902""
","""event"",""trial"",""time""
""fullscreenenter"",""1"",""1232""
","
","","","502.59999999403954","","","25","10843","4942","&#9789;","elianto","#f73b6a7A"," "," ","1","-10","[1353.7000000029802]","1","0","4","","","","","","","",""
"pit-trial","95","713873","0.0-2.0-17.2-4.2","battery-v0.2","","""event"",""trial"",""time""
""fullscreenenter"",""1"",""1232""
""blur"",""49"",""464647""
""focus"",""49"",""466378""
""blur"",""73"",""604186""
""focus"",""73"",""605902""
","""event"",""trial"",""time""
""blur"",""49"",""464647""
""blur"",""73"",""604186""
","""event"",""trial"",""time""
""focus"",""49"",""466378""
""focus"",""73"",""605902""
","""event"",""trial"",""time""
""fullscreenenter"",""1"",""1232""
","
","","","377.40000000596046","","","25","10843","4942","&#9789;","elianto","#f73b6a7A"," "," ","1","0","[1228.300000011921]","1","0","4","","","","","","","",""
"pit-trial","96","717148","0.0-2.0-17.3-0.3","battery-v0.2","","""event"",""trial"",""time""
""fullscreenenter"",""1"",""1232""
""blur"",""49"",""464647""
""focus"",""49"",""466378""
""blur"",""73"",""604186""
""focus"",""73"",""605902""
","""event"",""trial"",""time""
""blur"",""49"",""464647""
""blur"",""73"",""604186""
","""event"",""trial"",""time""
""focus"",""49"",""466378""
""focus"",""73"",""605902""
","""event"",""trial"",""time""
""fullscreenenter"",""1"",""1232""
","
","","","421.6000000089407","","","25","10843","4942","&#9789;","elianto","#f73b6a7A"," "," ","1","0","[1272.6000000089407]","1","0","4","","","","","","","",""
"pit-trial","97","720382","0.0-2.0-17.3-1.3","battery-v0.2","","""event"",""trial"",""time""
""fullscreenenter"",""1"",""1232""
""blur"",""49"",""464647""
""focus"",""49"",""466378""
""blur"",""73"",""604186""
""focus"",""73"",""605902""
","""event"",""trial"",""time""
""blur"",""49"",""464647""
""blur"",""73"",""604186""
","""event"",""trial"",""time""
""focus"",""49"",""466378""
""focus"",""73"",""605902""
","""event"",""trial"",""time""
""fullscreenenter"",""1"",""1232""
","
","","","381.5","","","25","10843","4942","&#9789;","elianto","#f73b6a7A"," "," ","1","0","[1232]","1","0","4","","","","","","","",""
"pit-trial","98","723718","0.0-2.0-17.3-2.3","battery-v0.2","","""event"",""trial"",""time""
""fullscreenenter"",""1"",""1232""
""blur"",""49"",""464647""
""focus"",""49"",""466378""
""blur"",""73"",""604186""
""focus"",""73"",""605902""
","""event"",""trial"",""time""
""blur"",""49"",""464647""
""blur"",""73"",""604186""
","""event"",""trial"",""time""
""focus"",""49"",""466378""
""focus"",""73"",""605902""
","""event"",""trial"",""time""
""fullscreenenter"",""1"",""1232""
","
","","","474.19999998807907","","","25","10843","4942","&#9789;","elianto","#f73b6a7A"," "," ","1","0","[1324.5]","1","0","4","","","","","","","",""
"pit-trial","99","727142","0.0-2.0-17.3-3.3","battery-v0.2","","""event"",""trial"",""time""
""fullscreenenter"",""1"",""1232""
""blur"",""49"",""464647""
""focus"",""49"",""466378""
""blur"",""73"",""604186""
""focus"",""73"",""605902""
","""event"",""trial"",""time""
""blur"",""49"",""464647""
""blur"",""73"",""604186""
","""event"",""trial"",""time""
""focus"",""49"",""466378""
""focus"",""73"",""605902""
","""event"",""trial"",""time""
""fullscreenenter"",""1"",""1232""
","
","","","569.2000000029802","","","25","10843","4942","&#9789;","elianto","#f73b6a7A"," "," ","1","-10","[1420.5]","1","0","4","","","","","","","",""
"pit-trial","100","730371","0.0-2.0-17.3-4.3","battery-v0.2","","""event"",""trial"",""time""
""fullscreenenter"",""1"",""1232""
""blur"",""49"",""464647""
""focus"",""49"",""466378""
""blur"",""73"",""604186""
""focus"",""73"",""605902""
","""event"",""trial"",""time""
""blur"",""49"",""464647""
""blur"",""73"",""604186""
","""event"",""trial"",""time""
""focus"",""49"",""466378""
""focus"",""73"",""605902""
","""event"",""trial"",""time""
""fullscreenenter"",""1"",""1232""
","
","","","376.90000000596046","","","25","10843","4942","&#9789;","elianto","#f73b6a7A"," "," ","1","0","[1227.1000000089407]","1","0","4","","","","","","","",""
"call-function","101","730372","0.0-2.0-18.0","battery-v0.2","","""event"",""trial"",""time""
""fullscreenenter"",""1"",""1232""
""blur"",""49"",""464647""
""focus"",""49"",""466378""
""blur"",""73"",""604186""
""focus"",""73"",""605902""
","""event"",""trial"",""time""
""blur"",""49"",""464647""
""blur"",""73"",""604186""
","""event"",""trial"",""time""
""focus"",""49"",""466378""
""focus"",""73"",""605902""
","""event"",""trial"",""time""
""fullscreenenter"",""1"",""1232""
","
","","","","","","","","","","","","","","","","","","","","","","","","","","",""
"pit-instructions","102","814632","0.0-2.0-19.0","battery-v0.2","","""event"",""trial"",""time""
""fullscreenenter"",""1"",""1232""
""blur"",""49"",""464647""
""focus"",""49"",""466378""
""blur"",""73"",""604186""
""focus"",""73"",""605902""
","""event"",""trial"",""time""
""blur"",""49"",""464647""
""blur"",""73"",""604186""
","""event"",""trial"",""time""
""focus"",""49"",""466378""
""focus"",""73"",""605902""
","""event"",""trial"",""time""
""fullscreenenter"",""1"",""1232""
","
","","[{""page_index"":0,""viewing_time"":8660.39999999106},{""page_index"":1,""viewing_time"":6116.20000000298},{""page_index"":2,""viewing_time"":16949.5},{""page_index"":3,""viewing_time"":9727.40000000596},{""page_index"":4,""viewing_time"":10182.5},{""page_index"":5,""viewing_time"":9577.29999999702},{""page_index"":6,""viewing_time"":9339.79999999702},{""page_index"":7,""viewing_time"":8104},{""page_index"":8,""viewing_time"":5601.70000000298}]","84259.09999999404","","","","","","","","","","","","","","","","","","","","","","","",""
"pit-comprehension","103","820471","0.0-2.0-20.0-0.0","battery-v0.2","","""event"",""trial"",""time""
""fullscreenenter"",""1"",""1232""
""blur"",""49"",""464647""
""focus"",""49"",""466378""
""blur"",""73"",""604186""
""focus"",""73"",""605902""
","""event"",""trial"",""time""
""blur"",""49"",""464647""
""blur"",""73"",""604186""
","""event"",""trial"",""time""
""focus"",""49"",""466378""
""focus"",""73"",""605902""
","""event"",""trial"",""time""
""fullscreenenter"",""1"",""1232""
","
","","","5837.0999999940395","[""SPACE""]","0","25","10843","4942","","","","","","","","","","","","","","","","","","",""
"pit-instructions","104","824717","0.0-2.0-20.0-1.0","battery-v0.2","","""event"",""trial"",""time""
""fullscreenenter"",""1"",""1232""
""blur"",""49"",""464647""
""focus"",""49"",""466378""
""blur"",""73"",""604186""
""focus"",""73"",""605902""
","""event"",""trial"",""time""
""blur"",""49"",""464647""
""blur"",""73"",""604186""
","""event"",""trial"",""time""
""focus"",""49"",""466378""
""focus"",""73"",""605902""
","""event"",""trial"",""time""
""fullscreenenter"",""1"",""1232""
","
","","[{""page_index"":0,""viewing_time"":4219.20000000298}]","4219.29999999702","","","","","","","","","","","","","","","","","","","","","","","",""
"pit-comprehension","105","833881","0.0-2.0-21.0-0.0","battery-v0.2","","""event"",""trial"",""time""
""fullscreenenter"",""1"",""1232""
""blur"",""49"",""464647""
""focus"",""49"",""466378""
""blur"",""73"",""604186""
""focus"",""73"",""605902""
","""event"",""trial"",""time""
""blur"",""49"",""464647""
""blur"",""73"",""604186""
","""event"",""trial"",""time""
""focus"",""49"",""466378""
""focus"",""73"",""605902""
","""event"",""trial"",""time""
""fullscreenenter"",""1"",""1232""
","
","","","9161.60000000894","[""10""]","0","25","10843","4942","","","","","","","","","","","","","","","","","","",""
"pit-instructions","106","836945","0.0-2.0-21.0-1.0","battery-v0.2","","""event"",""trial"",""time""
""fullscreenenter"",""1"",""1232""
""blur"",""49"",""464647""
""focus"",""49"",""466378""
""blur"",""73"",""604186""
""focus"",""73"",""605902""
","""event"",""trial"",""time""
""blur"",""49"",""464647""
""blur"",""73"",""604186""
","""event"",""trial"",""time""
""focus"",""49"",""466378""
""focus"",""73"",""605902""
","""event"",""trial"",""time""
""fullscreenenter"",""1"",""1232""
","
","","[{""page_index"":0,""viewing_time"":3034.2000000029802}]","3034.4000000059605","","","","","","","","","","","","","","","","","","","","","","","",""
"pit-comprehension","107","844832","0.0-2.0-22.0-0.0","battery-v0.2","","""event"",""trial"",""time""
""fullscreenenter"",""1"",""1232""
""blur"",""49"",""464647""
""focus"",""49"",""466378""
""blur"",""73"",""604186""
""focus"",""73"",""605902""
","""event"",""trial"",""time""
""blur"",""49"",""464647""
""blur"",""73"",""604186""
","""event"",""trial"",""time""
""focus"",""49"",""466378""
""focus"",""73"",""605902""
","""event"",""trial"",""time""
""fullscreenenter"",""1"",""1232""
","
","","","7883.79999999702","[""0""]","0","25","10843","4942","","","","","","","","","","","","","","","","","","",""
"pit-instructions","108","846718","0.0-2.0-22.0-1.0","battery-v0.2","","""event"",""trial"",""time""
""fullscreenenter"",""1"",""1232""
""blur"",""49"",""464647""
""focus"",""49"",""466378""
""blur"",""73"",""604186""
""focus"",""73"",""605902""
","""event"",""trial"",""time""
""blur"",""49"",""464647""
""blur"",""73"",""604186""
","""event"",""trial"",""time""
""focus"",""49"",""466378""
""focus"",""73"",""605902""
","""event"",""trial"",""time""
""fullscreenenter"",""1"",""1232""
","
","","[{""page_index"":0,""viewing_time"":1856.4000000059605}]","1856.5","","","","","","","","","","","","","","","","","","","","","","","",""
"pit-comprehension","109","856152","0.0-2.0-23.0-0.0","battery-v0.2","","""event"",""trial"",""time""
""fullscreenenter"",""1"",""1232""
""blur"",""49"",""464647""
""focus"",""49"",""466378""
""blur"",""73"",""604186""
""focus"",""73"",""605902""
","""event"",""trial"",""time""
""blur"",""49"",""464647""
""blur"",""73"",""604186""
","""event"",""trial"",""time""
""focus"",""49"",""466378""
""focus"",""73"",""605902""
","""event"",""trial"",""time""
""fullscreenenter"",""1"",""1232""
","
","","","9432.29999999702","[""True""]","0","25","10843","4942","","","","","","","","","","","","","","","","","","",""
"pit-instructions","110","858358","0.0-2.0-23.0-1.0","battery-v0.2","","""event"",""trial"",""time""
""fullscreenenter"",""1"",""1232""
""blur"",""49"",""464647""
""focus"",""49"",""466378""
""blur"",""73"",""604186""
""focus"",""73"",""605902""
","""event"",""trial"",""time""
""blur"",""49"",""464647""
""blur"",""73"",""604186""
","""event"",""trial"",""time""
""focus"",""49"",""466378""
""focus"",""73"",""605902""
","""event"",""trial"",""time""
""fullscreenenter"",""1"",""1232""
","
","","[{""page_index"":0,""viewing_time"":2173.2000000029802}]","2173.6000000089407","","","","","","","","","","","","","","","","","","","","","","","",""
"pit-comprehension","111","868068","0.0-2.0-24.0-0.0","battery-v0.2","","""event"",""trial"",""time""
""fullscreenenter"",""1"",""1232""
""blur"",""49"",""464647""
""focus"",""49"",""466378""
""blur"",""73"",""604186""
""focus"",""73"",""605902""
","""event"",""trial"",""time""
""blur"",""49"",""464647""
""blur"",""73"",""604186""
","""event"",""trial"",""time""
""focus"",""49"",""466378""
""focus"",""73"",""605902""
","""event"",""trial"",""time""
""fullscreenenter"",""1"",""1232""
","
","","","9706.699999988079","[""True""]","0","25","10843","4942","","","","","","","","","","","","","","","","","","",""
"pit-instructions","112","870572","0.0-2.0-24.0-1.0","battery-v0.2","","""event"",""trial"",""time""
""fullscreenenter"",""1"",""1232""
""blur"",""49"",""464647""
""focus"",""49"",""466378""
""blur"",""73"",""604186""
""focus"",""73"",""605902""
","""event"",""trial"",""time""
""blur"",""49"",""464647""
""blur"",""73"",""604186""
","""event"",""trial"",""time""
""focus"",""49"",""466378""
""focus"",""73"",""605902""
","""event"",""trial"",""time""
""fullscreenenter"",""1"",""1232""
","
","","[{""page_index"":0,""viewing_time"":2475.3999999910593}]","2476","","","","","","","","","","","","","","","","","","","","","","","",""
"pit-comprehension","113","880992","0.0-2.0-25.0-0.0","battery-v0.2","","""event"",""trial"",""time""
""fullscreenenter"",""1"",""1232""
""blur"",""49"",""464647""
""focus"",""49"",""466378""
""blur"",""73"",""604186""
""focus"",""73"",""605902""
","""event"",""trial"",""time""
""blur"",""49"",""464647""
""blur"",""73"",""604186""
","""event"",""trial"",""time""
""focus"",""49"",""466378""
""focus"",""73"",""605902""
","""event"",""trial"",""time""
""fullscreenenter"",""1"",""1232""
","
","","","10415.29999999702","[""True""]","0","25","10843","4942","","","","","","","","","","","","","","","","","","",""
"pit-instructions","114","882579","0.0-2.0-25.0-1.0","battery-v0.2","","""event"",""trial"",""time""
""fullscreenenter"",""1"",""1232""
""blur"",""49"",""464647""
""focus"",""49"",""466378""
""blur"",""73"",""604186""
""focus"",""73"",""605902""
","""event"",""trial"",""time""
""blur"",""49"",""464647""
""blur"",""73"",""604186""
","""event"",""trial"",""time""
""focus"",""49"",""466378""
""focus"",""73"",""605902""
","""event"",""trial"",""time""
""fullscreenenter"",""1"",""1232""
","
","","[{""page_index"":0,""viewing_time"":1558.2999999970198}]","1558.699999988079","","","","","","","","","","","","","","","","","","","","","","","",""
"pit-comprehension","115","888969","0.0-2.0-26.0-0.0","battery-v0.2","","""event"",""trial"",""time""
""fullscreenenter"",""1"",""1232""
""blur"",""49"",""464647""
""focus"",""49"",""466378""
""blur"",""73"",""604186""
""focus"",""73"",""605902""
","""event"",""trial"",""time""
""blur"",""49"",""464647""
""blur"",""73"",""604186""
","""event"",""trial"",""time""
""focus"",""49"",""466378""
""focus"",""73"",""605902""
","""event"",""trial"",""time""
""fullscreenenter"",""1"",""1232""
","
","","","6385.899999991059","[""False""]","0","25","10843","4942","","","","","","","","","","","","","","","","","","",""
"pit-instructions","116","890533","0.0-2.0-26.0-1.0","battery-v0.2","","""event"",""trial"",""time""
""fullscreenenter"",""1"",""1232""
""blur"",""49"",""464647""
""focus"",""49"",""466378""
""blur"",""73"",""604186""
""focus"",""73"",""605902""
","""event"",""trial"",""time""
""blur"",""49"",""464647""
""blur"",""73"",""604186""
","""event"",""trial"",""time""
""focus"",""49"",""466378""
""focus"",""73"",""605902""
","""event"",""trial"",""time""
""fullscreenenter"",""1"",""1232""
","
","","[{""page_index"":0,""viewing_time"":1535.1000000089407}]","1535.4000000059605","","","","","","","","","","","","","","","","","","","","","","","",""
"pit-instructions","117","907017","0.0-3.0","battery-v0.2","","""event"",""trial"",""time""
""fullscreenenter"",""1"",""1232""
""blur"",""49"",""464647""
""focus"",""49"",""466378""
""blur"",""73"",""604186""
""focus"",""73"",""605902""
","""event"",""trial"",""time""
""blur"",""49"",""464647""
""blur"",""73"",""604186""
","""event"",""trial"",""time""
""focus"",""49"",""466378""
""focus"",""73"",""605902""
","""event"",""trial"",""time""
""fullscreenenter"",""1"",""1232""
","
","","[{""page_index"":0,""viewing_time"":3672.2000000029802},{""page_index"":1,""viewing_time"":5095.0999999940395},{""page_index"":2,""viewing_time"":7715.20000000298}]","16482.90000000596","","","","","","","","","","","","","","","","","","","","","","","",""
"pit-trial","118","910508","0.0-4.0","battery-v0.2","","""event"",""trial"",""time""
""fullscreenenter"",""1"",""1232""
""blur"",""49"",""464647""
""focus"",""49"",""466378""
""blur"",""73"",""604186""
""focus"",""73"",""605902""
","""event"",""trial"",""time""
""blur"",""49"",""464647""
""blur"",""73"",""604186""
","""event"",""trial"",""time""
""focus"",""49"",""466378""
""focus"",""73"",""605902""
","""event"",""trial"",""time""
""fullscreenenter"",""1"",""1232""
","
","","","629.9000000059605","","","25","10843","4942","&#9730;","elianto","#3366ff99"," "," ","1","+10","[1483.4000000059605]","1","1","","","10843","1","1","1","win","go","0"
"pit-trial","119","913966","0.0-5.0","battery-v0.2","","""event"",""trial"",""time""
""fullscreenenter"",""1"",""1232""
""blur"",""49"",""464647""
""focus"",""49"",""466378""
""blur"",""73"",""604186""
""focus"",""73"",""605902""
","""event"",""trial"",""time""
""blur"",""49"",""464647""
""blur"",""73"",""604186""
","""event"",""trial"",""time""
""focus"",""49"",""466378""
""focus"",""73"",""605902""
","""event"",""trial"",""time""
""fullscreenenter"",""1"",""1232""
","
","","","599.5","","","25","10843","4942","&#9733;","elianto","#3366ff99","-1"," ","0","0","[1450.3999999910593]","1","1","","","10843","2","2","2","win","no-go","0"
"pit-trial","120","917613","0.0-6.0","battery-v0.2","","""event"",""trial"",""time""
""fullscreenenter"",""1"",""1232""
""blur"",""49"",""464647""
""focus"",""49"",""466378""
""blur"",""73"",""604186""
""focus"",""73"",""605902""
","""event"",""trial"",""time""
""blur"",""49"",""464647""
""blur"",""73"",""604186""
","""event"",""trial"",""time""
""focus"",""49"",""466378""
""focus"",""73"",""605902""
","""event"",""trial"",""time""
""fullscreenenter"",""1"",""1232""
","
","","","784.5","","","25","10843","4942","&#9752;","elianto","#f73b6a7A"," "," ","1","0","[1635.5999999940395]","1","1","","","10843","3","3","3","lose","go","0"
"pit-trial","121","921223","0.0-7.0","battery-v0.2","","""event"",""trial"",""time""
""fullscreenenter"",""1"",""1232""
""blur"",""49"",""464647""
""focus"",""49"",""466378""
""blur"",""73"",""604186""
""focus"",""73"",""605902""
","""event"",""trial"",""time""
""blur"",""49"",""464647""
""blur"",""73"",""604186""
","""event"",""trial"",""time""
""focus"",""49"",""466378""
""focus"",""73"",""605902""
","""event"",""trial"",""time""
""fullscreenenter"",""1"",""1232""
","
","","","748.7000000029802","","","25","10843","4942","&#9728;","elianto","#f73b6a7A","-1"," ","0","-10","[1599.0999999940395]","1","1","","","10843","4","0","4","lose","no-go","0"
"pit-trial","122","925167","0.0-8.0","battery-v0.2","","""event"",""trial"",""time""
""fullscreenenter"",""1"",""1232""
""blur"",""49"",""464647""
""focus"",""49"",""466378""
""blur"",""73"",""604186""
""focus"",""73"",""605902""
","""event"",""trial"",""time""
""blur"",""49"",""464647""
""blur"",""73"",""604186""
","""event"",""trial"",""time""
""focus"",""49"",""466378""
""focus"",""73"",""605902""
","""event"",""trial"",""time""
""fullscreenenter"",""1"",""1232""
","
","","","1075.3999999910593","","","25","10843","4942","&#9733;","elianto","#3366ff99","-1"," ","0","0","[1929.4000000059605]","1","1","","","10843","5","2","2","win","no-go","0"
"pit-trial","123","928769","0.0-9.0","battery-v0.2","","""event"",""trial"",""time""
""fullscreenenter"",""1"",""1232""
""blur"",""49"",""464647""
""focus"",""49"",""466378""
""blur"",""73"",""604186""
""focus"",""73"",""605902""
","""event"",""trial"",""time""
""blur"",""49"",""464647""
""blur"",""73"",""604186""
","""event"",""trial"",""time""
""focus"",""49"",""466378""
""focus"",""73"",""605902""
","""event"",""trial"",""time""
""fullscreenenter"",""1"",""1232""
","
","","","735.1000000089407","","","25","10843","4942","&#9752;","elianto","#f73b6a7A"," "," ","1","-10","[1586.2000000029802]","1","1","","","10843","6","3","3","lose","go","1"
"pit-trial","124","932236","0.0-10.0","battery-v0.2","","""event"",""trial"",""time""
""fullscreenenter"",""1"",""1232""
""blur"",""49"",""464647""
""focus"",""49"",""466378""
""blur"",""73"",""604186""
""focus"",""73"",""605902""
","""event"",""trial"",""time""
""blur"",""49"",""464647""
""blur"",""73"",""604186""
","""event"",""trial"",""time""
""focus"",""49"",""466378""
""focus"",""73"",""605902""
","""event"",""trial"",""time""
""fullscreenenter"",""1"",""1232""
","
","","","597.1000000089407","","","25","10843","4942","&#9730;","elianto","#3366ff99"," "," ","1","+10","[1451.1000000089407]","1","1","","","10843","7","1","1","win","go","0"
"pit-trial","125","937097","0.0-11.0","battery-v0.2","","""event"",""trial"",""time""
""fullscreenenter"",""1"",""1232""
""blur"",""49"",""464647""
""focus"",""49"",""466378""
""blur"",""73"",""604186""
""focus"",""73"",""605902""
","""event"",""trial"",""time""
""blur"",""49"",""464647""
""blur"",""73"",""604186""
","""event"",""trial"",""time""
""focus"",""49"",""466378""
""focus"",""73"",""605902""
","""event"",""trial"",""time""
""fullscreenenter"",""1"",""1232""
","
","","","-1","","","25","10843","4942","&#9728;","elianto","#f73b6a7A","-1","-1","1","-10","[]","0","1","","","10843","8","0","4","lose","no-go","1"
"pit-trial","126","940530","0.0-12.0","battery-v0.2","","""event"",""trial"",""time""
""fullscreenenter"",""1"",""1232""
""blur"",""49"",""464647""
""focus"",""49"",""466378""
""blur"",""73"",""604186""
""focus"",""73"",""605902""
","""event"",""trial"",""time""
""blur"",""49"",""464647""
""blur"",""73"",""604186""
","""event"",""trial"",""time""
""focus"",""49"",""466378""
""focus"",""73"",""605902""
","""event"",""trial"",""time""
""fullscreenenter"",""1"",""1232""
","
","","","578.8000000119209","","","25","10843","4942","&#9730;","elianto","#3366ff99"," "," ","1","+10","[1430.2000000029802]","1","1","","","10843","9","1","1","win","go","0"
"pit-trial","127","944255","0.0-13.0","battery-v0.2","","""event"",""trial"",""time""
""fullscreenenter"",""1"",""1232""
""blur"",""49"",""464647""
""focus"",""49"",""466378""
""blur"",""73"",""604186""
""focus"",""73"",""605902""
","""event"",""trial"",""time""
""blur"",""49"",""464647""
""blur"",""73"",""604186""
","""event"",""trial"",""time""
""focus"",""49"",""466378""
""focus"",""73"",""605902""
","""event"",""trial"",""time""
""fullscreenenter"",""1"",""1232""
","
","","","871","","","25","10843","4942","&#9752;","elianto","#f73b6a7A"," "," ","1","0","[1722.4000000059605]","1","1","","","10843","10","3","3","lose","go","0"
"pit-trial","128","949110","0.0-14.0","battery-v0.2","","""event"",""trial"",""time""
""fullscreenenter"",""1"",""1232""
""blur"",""49"",""464647""
""focus"",""49"",""466378""
""blur"",""73"",""604186""
""focus"",""73"",""605902""
","""event"",""trial"",""time""
""blur"",""49"",""464647""
""blur"",""73"",""604186""
","""event"",""trial"",""time""
""focus"",""49"",""466378""
""focus"",""73"",""605902""
","""event"",""trial"",""time""
""fullscreenenter"",""1"",""1232""
","
","","","-1","","","25","10843","4942","&#9728;","elianto","#f73b6a7A","-1","-1","1","0","[]","0","1","","","10843","11","0","4","lose","no-go","0"
"pit-trial","129","953964","0.0-15.0","battery-v0.2","","""event"",""trial"",""time""
""fullscreenenter"",""1"",""1232""
""blur"",""49"",""464647""
""focus"",""49"",""466378""
""blur"",""73"",""604186""
""focus"",""73"",""605902""
","""event"",""trial"",""time""
""blur"",""49"",""464647""
""blur"",""73"",""604186""
","""event"",""trial"",""time""
""focus"",""49"",""466378""
""focus"",""73"",""605902""
","""event"",""trial"",""time""
""fullscreenenter"",""1"",""1232""
","
","","","-1","","","25","10843","4942","&#9733;","elianto","#3366ff99","-1","-1","1","+10","[]","0","1","","","10843","12","2","2","win","no-go","0"
"pit-trial","130","958816","0.0-16.0","battery-v0.2","","""event"",""trial"",""time""
""fullscreenenter"",""1"",""1232""
""blur"",""49"",""464647""
""focus"",""49"",""466378""
""blur"",""73"",""604186""
""focus"",""73"",""605902""
","""event"",""trial"",""time""
""blur"",""49"",""464647""
""blur"",""73"",""604186""
","""event"",""trial"",""time""
""focus"",""49"",""466378""
""focus"",""73"",""605902""
","""event"",""trial"",""time""
""fullscreenenter"",""1"",""1232""
","
","","","-1","","","25","10843","4942","&#9733;","elianto","#3366ff99","-1","-1","1","0","[]","0","1","","","10843","13","2","2","win","no-go","1"
"pit-trial","131","962387","0.0-17.0","battery-v0.2","","""event"",""trial"",""time""
""fullscreenenter"",""1"",""1232""
""blur"",""49"",""464647""
""focus"",""49"",""466378""
""blur"",""73"",""604186""
""focus"",""73"",""605902""
","""event"",""trial"",""time""
""blur"",""49"",""464647""
""blur"",""73"",""604186""
","""event"",""trial"",""time""
""focus"",""49"",""466378""
""focus"",""73"",""605902""
","""event"",""trial"",""time""
""fullscreenenter"",""1"",""1232""
","
","","","718.4000000059605","","","25","10843","4942","&#9752;","elianto","#f73b6a7A"," "," ","1","0","[1568.7000000029802]","1","1","","","10843","14","3","3","lose","go","0"
"pit-trial","132","967241","0.0-18.0","battery-v0.2","","""event"",""trial"",""time""
""fullscreenenter"",""1"",""1232""
""blur"",""49"",""464647""
""focus"",""49"",""466378""
""blur"",""73"",""604186""
""focus"",""73"",""605902""
","""event"",""trial"",""time""
""blur"",""49"",""464647""
""blur"",""73"",""604186""
","""event"",""trial"",""time""
""focus"",""49"",""466378""
""focus"",""73"",""605902""
","""event"",""trial"",""time""
""fullscreenenter"",""1"",""1232""
","
","","","-1","","","25","10843","4942","&#9728;","elianto","#f73b6a7A","-1","-1","1","0","[]","0","1","","","10843","15","0","4","lose","no-go","0"
"pit-trial","133","970838","0.0-19.0","battery-v0.2","","""event"",""trial"",""time""
""fullscreenenter"",""1"",""1232""
""blur"",""49"",""464647""
""focus"",""49"",""466378""
""blur"",""73"",""604186""
""focus"",""73"",""605902""
","""event"",""trial"",""time""
""blur"",""49"",""464647""
""blur"",""73"",""604186""
","""event"",""trial"",""time""
""focus"",""49"",""466378""
""focus"",""73"",""605902""
","""event"",""trial"",""time""
""fullscreenenter"",""1"",""1232""
","
","","","744","","","25","10843","4942","&#9730;","elianto","#3366ff99"," "," ","1","+10","[1595.4000000059605]","1","1","","","10843","16","1","1","win","go","0"
"pit-trial","134","975692","0.0-20.0","battery-v0.2","","""event"",""trial"",""time""
""fullscreenenter"",""1"",""1232""
""blur"",""49"",""464647""
""focus"",""49"",""466378""
""blur"",""73"",""604186""
""focus"",""73"",""605902""
","""event"",""trial"",""time""
""blur"",""49"",""464647""
""blur"",""73"",""604186""
","""event"",""trial"",""time""
""focus"",""49"",""466378""
""focus"",""73"",""605902""
","""event"",""trial"",""time""
""fullscreenenter"",""1"",""1232""
","
","","","-1","","","25","10843","4942","&#9733;","elianto","#3366ff99","-1","-1","1","+10","[]","0","1","","","10843","17","2","2","win","no-go","0"
"pit-trial","135","979384","0.0-21.0","battery-v0.2","","""event"",""trial"",""time""
""fullscreenenter"",""1"",""1232""
""blur"",""49"",""464647""
""focus"",""49"",""466378""
""blur"",""73"",""604186""
""focus"",""73"",""605902""
","""event"",""trial"",""time""
""blur"",""49"",""464647""
""blur"",""73"",""604186""
","""event"",""trial"",""time""
""focus"",""49"",""466378""
""focus"",""73"",""605902""
","""event"",""trial"",""time""
""fullscreenenter"",""1"",""1232""
","
","","","837","","","25","10843","4942","&#9752;","elianto","#f73b6a7A"," "," ","1","0","[1688.6000000089407]","1","1","","","10843","18","3","3","lose","go","0"
"pit-trial","136","983110","0.0-22.0","battery-v0.2","","""event"",""trial"",""time""
""fullscreenenter"",""1"",""1232""
""blur"",""49"",""464647""
""focus"",""49"",""466378""
""blur"",""73"",""604186""
""focus"",""73"",""605902""
","""event"",""trial"",""time""
""blur"",""49"",""464647""
""blur"",""73"",""604186""
","""event"",""trial"",""time""
""focus"",""49"",""466378""
""focus"",""73"",""605902""
","""event"",""trial"",""time""
""fullscreenenter"",""1"",""1232""
","
","","","872.4000000059605","","","25","10843","4942","&#9730;","elianto","#3366ff99"," "," ","1","0","[1723.4000000059605]","1","1","","","10843","19","1","1","win","go","1"
"pit-trial","137","987964","0.0-23.0","battery-v0.2","","""event"",""trial"",""time""
""fullscreenenter"",""1"",""1232""
""blur"",""49"",""464647""
""focus"",""49"",""466378""
""blur"",""73"",""604186""
""focus"",""73"",""605902""
","""event"",""trial"",""time""
""blur"",""49"",""464647""
""blur"",""73"",""604186""
","""event"",""trial"",""time""
""focus"",""49"",""466378""
""focus"",""73"",""605902""
","""event"",""trial"",""time""
""fullscreenenter"",""1"",""1232""
","
","","","-1","","","25","10843","4942","&#9728;","elianto","#f73b6a7A","-1","-1","1","0","[]","0","1","","","10843","20","0","4","lose","no-go","0"
"pit-instructions","138","1001636","0.0-24.0","battery-v0.2","","""event"",""trial"",""time""
""fullscreenenter"",""1"",""1232""
""blur"",""49"",""464647""
""focus"",""49"",""466378""
""blur"",""73"",""604186""
""focus"",""73"",""605902""
","""event"",""trial"",""time""
""blur"",""49"",""464647""
""blur"",""73"",""604186""
","""event"",""trial"",""time""
""focus"",""49"",""466378""
""focus"",""73"",""605902""
","""event"",""trial"",""time""
""fullscreenenter"",""1"",""1232""
","
","","[{""page_index"":0,""viewing_time"":6563.100000008941},{""page_index"":1,""viewing_time"":7107.699999988079}]","13670.90000000596","","","","","","","","","","","","","","","","","","","","","","","",""
"pit-trial","139","1005542","0.0-25.0","battery-v0.2","","""event"",""trial"",""time""
""fullscreenenter"",""1"",""1232""
""blur"",""49"",""464647""
""focus"",""49"",""466378""
""blur"",""73"",""604186""
""focus"",""73"",""605902""
","""event"",""trial"",""time""
""blur"",""49"",""464647""
""blur"",""73"",""604186""
","""event"",""trial"",""time""
""focus"",""49"",""466378""
""focus"",""73"",""605902""
","""event"",""trial"",""time""
""fullscreenenter"",""1"",""1232""
","
","","","1041.5999999940395","","","25","10843","4942","t","elianto","#f73b6a7A","-1"," ","0","-10","[1892.5999999940395]","1","2","","","10843","21","2","4","lose","no-go","0"
"pit-trial","140","1009179","0.0-26.0","battery-v0.2","","""event"",""trial"",""time""
""fullscreenenter"",""1"",""1232""
""blur"",""49"",""464647""
""focus"",""49"",""466378""
""blur"",""73"",""604186""
""focus"",""73"",""605902""
","""event"",""trial"",""time""
""blur"",""49"",""464647""
""blur"",""73"",""604186""
","""event"",""trial"",""time""
""focus"",""49"",""466378""
""focus"",""73"",""605902""
","""event"",""trial"",""time""
""fullscreenenter"",""1"",""1232""
","
","","","777.7000000029802","","","25","10843","4942","f","elianto","#3366ff99"," "," ","1","+10","[1628.5999999940395]","1","2","","","10843","22","1","1","win","go","0"
"pit-trial","141","1013060","0.0-27.0","battery-v0.2","","""event"",""trial"",""time""
""fullscreenenter"",""1"",""1232""
""blur"",""49"",""464647""
""focus"",""49"",""466378""
""blur"",""73"",""604186""
""focus"",""73"",""605902""
","""event"",""trial"",""time""
""blur"",""49"",""464647""
""blur"",""73"",""604186""
","""event"",""trial"",""time""
""focus"",""49"",""466378""
""focus"",""73"",""605902""
","""event"",""trial"",""time""
""fullscreenenter"",""1"",""1232""
","
","","","1016.7999999970198","","","25","10843","4942","n","elianto","#f73b6a7A","-1"," ","0","0","[1869.5]","1","2","","","10843","23","0","4","lose","no-go","1"
"pit-trial","142","1017165","0.0-28.0","battery-v0.2","","""event"",""trial"",""time""
""fullscreenenter"",""1"",""1232""
""blur"",""49"",""464647""
""focus"",""49"",""466378""
""blur"",""73"",""604186""
""focus"",""73"",""605902""
","""event"",""trial"",""time""
""blur"",""49"",""464647""
""blur"",""73"",""604186""
","""event"",""trial"",""time""
""focus"",""49"",""466378""
""focus"",""73"",""605902""
","""event"",""trial"",""time""
""fullscreenenter"",""1"",""1232""
","
","","","1252.4000000059605","","","25","10843","4942","b","elianto","#f73b6a7A"," "," ","1","0","[2103.2999999970198]","1","2","","","10843","24","3","3","lose","go","0"
"pit-trial","143","1020969","0.0-29.0","battery-v0.2","","""event"",""trial"",""time""
""fullscreenenter"",""1"",""1232""
""blur"",""49"",""464647""
""focus"",""49"",""466378""
""blur"",""73"",""604186""
""focus"",""73"",""605902""
","""event"",""trial"",""time""
""blur"",""49"",""464647""
""blur"",""73"",""604186""
","""event"",""trial"",""time""
""focus"",""49"",""466378""
""focus"",""73"",""605902""
","""event"",""trial"",""time""
""fullscreenenter"",""1"",""1232""
","
","","","946.5","","","25","10843","4942","n","elianto","#f73b6a7A","-1"," ","0","-10","[1799.1000000089407]","1","2","","","10843","25","0","4","lose","no-go","0"
"pit-trial","144","1025835","0.0-30.0","battery-v0.2","","""event"",""trial"",""time""
""fullscreenenter"",""1"",""1232""
""blur"",""49"",""464647""
""focus"",""49"",""466378""
""blur"",""73"",""604186""
""focus"",""73"",""605902""
","""event"",""trial"",""time""
""blur"",""49"",""464647""
""blur"",""73"",""604186""
","""event"",""trial"",""time""
""focus"",""49"",""466378""
""focus"",""73"",""605902""
","""event"",""trial"",""time""
""fullscreenenter"",""1"",""1232""
","
","","","-1","","","25","10843","4942","t","elianto","#f73b6a7A","-1","-1","1","0","[]","0","2","","","10843","26","2","4","lose","no-go","0"
"pit-trial","145","1029335","0.0-31.0","battery-v0.2","","""event"",""trial"",""time""
""fullscreenenter"",""1"",""1232""
""blur"",""49"",""464647""
""focus"",""49"",""466378""
""blur"",""73"",""604186""
""focus"",""73"",""605902""
","""event"",""trial"",""time""
""blur"",""49"",""464647""
""blur"",""73"",""604186""
","""event"",""trial"",""time""
""focus"",""49"",""466378""
""focus"",""73"",""605902""
","""event"",""trial"",""time""
""fullscreenenter"",""1"",""1232""
","
","","","635","","","25","10843","4942","f","elianto","#3366ff99"," "," ","1","+10","[1486.3999999910593]","1","2","","","10843","27","1","1","win","go","0"
"pit-trial","146","1033609","0.0-32.0","battery-v0.2","","""event"",""trial"",""time""
""fullscreenenter"",""1"",""1232""
""blur"",""49"",""464647""
""focus"",""49"",""466378""
""blur"",""73"",""604186""
""focus"",""73"",""605902""
","""event"",""trial"",""time""
""blur"",""49"",""464647""
""blur"",""73"",""604186""
","""event"",""trial"",""time""
""focus"",""49"",""466378""
""focus"",""73"",""605902""
","""event"",""trial"",""time""
""fullscreenenter"",""1"",""1232""
","
","","","1418.5","","","25","10843","4942","b","elianto","#f73b6a7A"," "," ","1","0","[2269.3999999910593]","1","2","","","10843","28","3","3","lose","go","0"
"pit-trial","147","1037324","0.0-33.0","battery-v0.2","","""event"",""trial"",""time""
""fullscreenenter"",""1"",""1232""
""blur"",""49"",""464647""
""focus"",""49"",""466378""
""blur"",""73"",""604186""
""focus"",""73"",""605902""
","""event"",""trial"",""time""
""blur"",""49"",""464647""
""blur"",""73"",""604186""
","""event"",""trial"",""time""
""focus"",""49"",""466378""
""focus"",""73"",""605902""
","""event"",""trial"",""time""
""fullscreenenter"",""1"",""1232""
","
","","","862.3000000119209","","","25","10843","4942","f","elianto","#3366ff99"," "," ","1","+10","[1713.2999999970198]","1","2","","","10843","29","1","1","win","go","0"
"pit-trial","148","1041273","0.0-34.0","battery-v0.2","","""event"",""trial"",""time""
""fullscreenenter"",""1"",""1232""
""blur"",""49"",""464647""
""focus"",""49"",""466378""
""blur"",""73"",""604186""
""focus"",""73"",""605902""
","""event"",""trial"",""time""
""blur"",""49"",""464647""
""blur"",""73"",""604186""
","""event"",""trial"",""time""
""focus"",""49"",""466378""
""focus"",""73"",""605902""
","""event"",""trial"",""time""
""fullscreenenter"",""1"",""1232""
","
","","","1093.6000000089407","","","25","10843","4942","b","elianto","#f73b6a7A"," "," ","1","0","[1944.6000000089407]","1","2","","","10843","30","3","3","lose","go","0"
"pit-trial","149","1046126","0.0-35.0","battery-v0.2","","""event"",""trial"",""time""
""fullscreenenter"",""1"",""1232""
""blur"",""49"",""464647""
""focus"",""49"",""466378""
""blur"",""73"",""604186""
""focus"",""73"",""605902""
","""event"",""trial"",""time""
""blur"",""49"",""464647""
""blur"",""73"",""604186""
","""event"",""trial"",""time""
""focus"",""49"",""466378""
""focus"",""73"",""605902""
","""event"",""trial"",""time""
""fullscreenenter"",""1"",""1232""
","
","","","-1","","","25","10843","4942","t","elianto","#f73b6a7A","-1","-1","1","-10","[]","0","2","","","10843","31","2","4","lose","no-go","1"
"pit-trial","150","1050978","0.0-36.0","battery-v0.2","","""event"",""trial"",""time""
""fullscreenenter"",""1"",""1232""
""blur"",""49"",""464647""
""focus"",""49"",""466378""
""blur"",""73"",""604186""
""focus"",""73"",""605902""
","""event"",""trial"",""time""
""blur"",""49"",""464647""
""blur"",""73"",""604186""
","""event"",""trial"",""time""
""focus"",""49"",""466378""
""focus"",""73"",""605902""
","""event"",""trial"",""time""
""fullscreenenter"",""1"",""1232""
","
","","","-1","","","25","10843","4942","n","elianto","#f73b6a7A","-1","-1","1","0","[]","0","2","","","10843","32","0","4","lose","no-go","0"
"pit-trial","151","1054607","0.0-37.0","battery-v0.2","","""event"",""trial"",""time""
""fullscreenenter"",""1"",""1232""
""blur"",""49"",""464647""
""focus"",""49"",""466378""
""blur"",""73"",""604186""
""focus"",""73"",""605902""
","""event"",""trial"",""time""
""blur"",""49"",""464647""
""blur"",""73"",""604186""
","""event"",""trial"",""time""
""focus"",""49"",""466378""
""focus"",""73"",""605902""
","""event"",""trial"",""time""
""fullscreenenter"",""1"",""1232""
","
","","","774","","","25","10843","4942","f","elianto","#3366ff99"," "," ","1","+10","[1624.2000000029802]","1","2","","","10843","33","1","1","win","go","0"
"pit-trial","152","1059462","0.0-38.0","battery-v0.2","","""event"",""trial"",""time""
""fullscreenenter"",""1"",""1232""
""blur"",""49"",""464647""
""focus"",""49"",""466378""
""blur"",""73"",""604186""
""focus"",""73"",""605902""
","""event"",""trial"",""time""
""blur"",""49"",""464647""
""blur"",""73"",""604186""
","""event"",""trial"",""time""
""focus"",""49"",""466378""
""focus"",""73"",""605902""
","""event"",""trial"",""time""
""fullscreenenter"",""1"",""1232""
","
","","","-1","","","25","10843","4942","t","elianto","#f73b6a7A","-1","-1","1","0","[]","0","2","","","10843","34","2","4","lose","no-go","0"
"pit-trial","153","1063594","0.0-39.0","battery-v0.2","","""event"",""trial"",""time""
""fullscreenenter"",""1"",""1232""
""blur"",""49"",""464647""
""focus"",""49"",""466378""
""blur"",""73"",""604186""
""focus"",""73"",""605902""
","""event"",""trial"",""time""
""blur"",""49"",""464647""
""blur"",""73"",""604186""
","""event"",""trial"",""time""
""focus"",""49"",""466378""
""focus"",""73"",""605902""
","""event"",""trial"",""time""
""fullscreenenter"",""1"",""1232""
","
","","","1276.7999999970198","","","25","10843","4942","b","elianto","#f73b6a7A"," "," ","1","0","[2128.2999999970198]","1","2","","","10843","35","3","3","lose","go","0"
"pit-trial","154","1068448","0.0-40.0","battery-v0.2","","""event"",""trial"",""time""
""fullscreenenter"",""1"",""1232""
""blur"",""49"",""464647""
""focus"",""49"",""466378""
""blur"",""73"",""604186""
""focus"",""73"",""605902""
","""event"",""trial"",""time""
""blur"",""49"",""464647""
""blur"",""73"",""604186""
","""event"",""trial"",""time""
""focus"",""49"",""466378""
""focus"",""73"",""605902""
","""event"",""trial"",""time""
""fullscreenenter"",""1"",""1232""
","
","","","-1","","","25","10843","4942","n","elianto","#f73b6a7A","-1","-1","1","0","[]","0","2","","","10843","36","0","4","lose","no-go","0"
"pit-trial","155","1072071","0.0-41.0","battery-v0.2","","""event"",""trial"",""time""
""fullscreenenter"",""1"",""1232""
""blur"",""49"",""464647""
""focus"",""49"",""466378""
""blur"",""73"",""604186""
""focus"",""73"",""605902""
","""event"",""trial"",""time""
""blur"",""49"",""464647""
""blur"",""73"",""604186""
","""event"",""trial"",""time""
""focus"",""49"",""466378""
""focus"",""73"",""605902""
","""event"",""trial"",""time""
""fullscreenenter"",""1"",""1232""
","
","","","770.6000000089407","","","25","10843","4942","f","elianto","#3366ff99"," "," ","1","+10","[1620.9000000059605]","1","2","","","10843","37","1","1","win","go","0"
"pit-trial","156","1076924","0.0-42.0","battery-v0.2","","""event"",""trial"",""time""
""fullscreenenter"",""1"",""1232""
""blur"",""49"",""464647""
""focus"",""49"",""466378""
""blur"",""73"",""604186""
""focus"",""73"",""605902""
","""event"",""trial"",""time""
""blur"",""49"",""464647""
""blur"",""73"",""604186""
","""event"",""trial"",""time""
""focus"",""49"",""466378""
""focus"",""73"",""605902""
","""event"",""trial"",""time""
""fullscreenenter"",""1"",""1232""
","
","","","-1","","","25","10843","4942","n","elianto","#f73b6a7A","-1","-1","1","0","[]","0","2","","","10843","38","0","4","lose","no-go","0"
"pit-trial","157","1081778","0.0-43.0","battery-v0.2","","""event"",""trial"",""time""
""fullscreenenter"",""1"",""1232""
""blur"",""49"",""464647""
""focus"",""49"",""466378""
""blur"",""73"",""604186""
""focus"",""73"",""605902""
","""event"",""trial"",""time""
""blur"",""49"",""464647""
""blur"",""73"",""604186""
","""event"",""trial"",""time""
""focus"",""49"",""466378""
""focus"",""73"",""605902""
","""event"",""trial"",""time""
""fullscreenenter"",""1"",""1232""
","
","","","-1","","","25","10843","4942","t","elianto","#f73b6a7A","-1","-1","1","0","[]","0","2","","","10843","39","2","4","lose","no-go","0"
"pit-trial","158","1085613","0.0-44.0","battery-v0.2","","""event"",""trial"",""time""
""fullscreenenter"",""1"",""1232""
""blur"",""49"",""464647""
""focus"",""49"",""466378""
""blur"",""73"",""604186""
""focus"",""73"",""605902""
","""event"",""trial"",""time""
""blur"",""49"",""464647""
""blur"",""73"",""604186""
","""event"",""trial"",""time""
""focus"",""49"",""466378""
""focus"",""73"",""605902""
","""event"",""trial"",""time""
""fullscreenenter"",""1"",""1232""
","
","","","981.7999999970198","","","25","10843","4942","b","elianto","#f73b6a7A"," "," ","1","0","[1832.4000000059605]","1","2","","","10843","40","3","3","lose","go","0"
"pit-trial","159","1089591","0.0-45.0","battery-v0.2","","""event"",""trial"",""time""
""fullscreenenter"",""1"",""1232""
""blur"",""49"",""464647""
""focus"",""49"",""466378""
""blur"",""73"",""604186""
""focus"",""73"",""605902""
","""event"",""trial"",""time""
""blur"",""49"",""464647""
""blur"",""73"",""604186""
","""event"",""trial"",""time""
""focus"",""49"",""466378""
""focus"",""73"",""605902""
","""event"",""trial"",""time""
""fullscreenenter"",""1"",""1232""
","
","","","1118.1000000089407","","","25","10843","4942","b","elianto","#f73b6a7A"," "," ","1","0","[1969.7000000029802]","1","2","","","10843","41","3","3","lose","go","0"
"pit-trial","160","1094446","0.0-46.0","battery-v0.2","","""event"",""trial"",""time""
""fullscreenenter"",""1"",""1232""
""blur"",""49"",""464647""
""focus"",""49"",""466378""
""blur"",""73"",""604186""
""focus"",""73"",""605902""
","""event"",""trial"",""time""
""blur"",""49"",""464647""
""blur"",""73"",""604186""
","""event"",""trial"",""time""
""focus"",""49"",""466378""
""focus"",""73"",""605902""
","""event"",""trial"",""time""
""fullscreenenter"",""1"",""1232""
","
","","","-1","","","25","10843","4942","n","elianto","#f73b6a7A","-1","-1","1","0","[]","0","2","","","10843","42","0","4","lose","no-go","0"
"pit-trial","161","1098129","0.0-47.0","battery-v0.2","","""event"",""trial"",""time""
""fullscreenenter"",""1"",""1232""
""blur"",""49"",""464647""
""focus"",""49"",""466378""
""blur"",""73"",""604186""
""focus"",""73"",""605902""
","""event"",""trial"",""time""
""blur"",""49"",""464647""
""blur"",""73"",""604186""
","""event"",""trial"",""time""
""focus"",""49"",""466378""
""focus"",""73"",""605902""
","""event"",""trial"",""time""
""fullscreenenter"",""1"",""1232""
","
","","","828","","","25","10843","4942","f","elianto","#3366ff99"," "," ","1","+10","[1679.7000000029802]","1","2","","","10843","43","1","1","win","go","0"
"pit-trial","162","1102990","0.0-48.0","battery-v0.2","","""event"",""trial"",""time""
""fullscreenenter"",""1"",""1232""
""blur"",""49"",""464647""
""focus"",""49"",""466378""
""blur"",""73"",""604186""
""focus"",""73"",""605902""
","""event"",""trial"",""time""
""blur"",""49"",""464647""
""blur"",""73"",""604186""
","""event"",""trial"",""time""
""focus"",""49"",""466378""
""focus"",""73"",""605902""
","""event"",""trial"",""time""
""fullscreenenter"",""1"",""1232""
","
","","","-1","","","25","10843","4942","t","elianto","#f73b6a7A","-1","-1","1","0","[]","0","2","","","10843","44","2","4","lose","no-go","0"
"pit-trial","163","1107269","0.0-49.0","battery-v0.2","","""event"",""trial"",""time""
""fullscreenenter"",""1"",""1232""
""blur"",""49"",""464647""
""focus"",""49"",""466378""
""blur"",""73"",""604186""
""focus"",""73"",""605902""
","""event"",""trial"",""time""
""blur"",""49"",""464647""
""blur"",""73"",""604186""
","""event"",""trial"",""time""
""focus"",""49"",""466378""
""focus"",""73"",""605902""
","""event"",""trial"",""time""
""fullscreenenter"",""1"",""1232""
","
","","","1424.5","","","25","10843","4942","c","elianto","#3366ff99","-1"," ","0","0","[2275.7000000029802]","1","2","","","10843","45","4","2","win","no-go","0"
"pit-trial","164","1112122","0.0-50.0","battery-v0.2","","""event"",""trial"",""time""
""fullscreenenter"",""1"",""1232""
""blur"",""49"",""464647""
""focus"",""49"",""466378""
""blur"",""73"",""604186""
""focus"",""73"",""605902""
","""event"",""trial"",""time""
""blur"",""49"",""464647""
""blur"",""73"",""604186""
","""event"",""trial"",""time""
""focus"",""49"",""466378""
""focus"",""73"",""605902""
","""event"",""trial"",""time""
""fullscreenenter"",""1"",""1232""
","
","","","-1","","","25","10843","4942","n","elianto","#f73b6a7A","-1","-1","1","0","[]","0","2","","","10843","46","0","4","lose","no-go","0"
"pit-trial","165","1116977","0.0-51.0","battery-v0.2","","""event"",""trial"",""time""
""fullscreenenter"",""1"",""1232""
""blur"",""49"",""464647""
""focus"",""49"",""466378""
""blur"",""73"",""604186""
""focus"",""73"",""605902""
","""event"",""trial"",""time""
""blur"",""49"",""464647""
""blur"",""73"",""604186""
","""event"",""trial"",""time""
""focus"",""49"",""466378""
""focus"",""73"",""605902""
","""event"",""trial"",""time""
""fullscreenenter"",""1"",""1232""
","
","","","-1","","","25","10843","4942","t","elianto","#f73b6a7A","-1","-1","1","-10","[]","0","2","","","10843","47","2","4","lose","no-go","1"
"pit-trial","166","1120902","0.0-52.0","battery-v0.2","","""event"",""trial"",""time""
""fullscreenenter"",""1"",""1232""
""blur"",""49"",""464647""
""focus"",""49"",""466378""
""blur"",""73"",""604186""
""focus"",""73"",""605902""
","""event"",""trial"",""time""
""blur"",""49"",""464647""
""blur"",""73"",""604186""
","""event"",""trial"",""time""
""focus"",""49"",""466378""
""focus"",""73"",""605902""
","""event"",""trial"",""time""
""fullscreenenter"",""1"",""1232""
","
","","","1072.8999999910593","","","25","10843","4942","b","elianto","#f73b6a7A"," "," ","1","0","[1923.7000000029802]","1","2","","","10843","48","3","3","lose","go","0"
"pit-trial","167","1125756","0.0-53.0","battery-v0.2","","""event"",""trial"",""time""
""fullscreenenter"",""1"",""1232""
""blur"",""49"",""464647""
""focus"",""49"",""466378""
""blur"",""73"",""604186""
""focus"",""73"",""605902""
","""event"",""trial"",""time""
""blur"",""49"",""464647""
""blur"",""73"",""604186""
","""event"",""trial"",""time""
""focus"",""49"",""466378""
""focus"",""73"",""605902""
","""event"",""trial"",""time""
""fullscreenenter"",""1"",""1232""
","
","","","-1","","","25","10843","4942","n","elianto","#f73b6a7A","-1","-1","1","0","[]","0","2","","","10843","49","0","4","lose","no-go","0"
"pit-trial","168","1130608","0.0-54.0","battery-v0.2","","""event"",""trial"",""time""
""fullscreenenter"",""1"",""1232""
""blur"",""49"",""464647""
""focus"",""49"",""466378""
""blur"",""73"",""604186""
""focus"",""73"",""605902""
","""event"",""trial"",""time""
""blur"",""49"",""464647""
""blur"",""73"",""604186""
","""event"",""trial"",""time""
""focus"",""49"",""466378""
""focus"",""73"",""605902""
","""event"",""trial"",""time""
""fullscreenenter"",""1"",""1232""
","
","","","-1","","","25","10843","4942","c","elianto","#3366ff99","-1","-1","1","+10","[]","0","2","","","10843","50","4","2","win","no-go","0"
"pit-trial","169","1134535","0.0-55.0","battery-v0.2","","""event"",""trial"",""time""
""fullscreenenter"",""1"",""1232""
""blur"",""49"",""464647""
""focus"",""49"",""466378""
""blur"",""73"",""604186""
""focus"",""73"",""605902""
","""event"",""trial"",""time""
""blur"",""49"",""464647""
""blur"",""73"",""604186""
","""event"",""trial"",""time""
""focus"",""49"",""466378""
""focus"",""73"",""605902""
","""event"",""trial"",""time""
""fullscreenenter"",""1"",""1232""
","
","","","1073.8999999910593","","","25","10843","4942","b","elianto","#f73b6a7A"," "," ","1","-10","[1924.2000000029802]","1","2","","","10843","51","3","3","lose","go","1"
"pit-trial","170","1138144","0.0-56.0","battery-v0.2","","""event"",""trial"",""time""
""fullscreenenter"",""1"",""1232""
""blur"",""49"",""464647""
""focus"",""49"",""466378""
""blur"",""73"",""604186""
""focus"",""73"",""605902""
","""event"",""trial"",""time""
""blur"",""49"",""464647""
""blur"",""73"",""604186""
","""event"",""trial"",""time""
""focus"",""49"",""466378""
""focus"",""73"",""605902""
","""event"",""trial"",""time""
""fullscreenenter"",""1"",""1232""
","
","","","756","","","25","10843","4942","f","elianto","#3366ff99"," "," ","1","0","[1606.5999999940395]","1","2","","","10843","52","1","1","win","go","1"
"pit-trial","171","1142864","0.0-57.0","battery-v0.2","","""event"",""trial"",""time""
""fullscreenenter"",""1"",""1232""
""blur"",""49"",""464647""
""focus"",""49"",""466378""
""blur"",""73"",""604186""
""focus"",""73"",""605902""
","""event"",""trial"",""time""
""blur"",""49"",""464647""
""blur"",""73"",""604186""
","""event"",""trial"",""time""
""focus"",""49"",""466378""
""focus"",""73"",""605902""
","""event"",""trial"",""time""
""fullscreenenter"",""1"",""1232""
","
","","","1865.300000011921","","","25","10843","4942","c","elianto","#3366ff99","-1"," ","0","0","[2716.5]","1","2","","","10843","53","4","2","win","no-go","0"
"pit-trial","172","1146430","0.0-58.0","battery-v0.2","","""event"",""trial"",""time""
""fullscreenenter"",""1"",""1232""
""blur"",""49"",""464647""
""focus"",""49"",""466378""
""blur"",""73"",""604186""
""focus"",""73"",""605902""
","""event"",""trial"",""time""
""blur"",""49"",""464647""
""blur"",""73"",""604186""
","""event"",""trial"",""time""
""focus"",""49"",""466378""
""focus"",""73"",""605902""
","""event"",""trial"",""time""
""fullscreenenter"",""1"",""1232""
","
","","","712.5","","","25","10843","4942","f","elianto","#3366ff99"," "," ","1","0","[1563.0999999940395]","1","2","","","10843","54","1","1","win","go","1"
"pit-trial","173","1151282","0.0-59.0","battery-v0.2","","""event"",""trial"",""time""
""fullscreenenter"",""1"",""1232""
""blur"",""49"",""464647""
""focus"",""49"",""466378""
""blur"",""73"",""604186""
""focus"",""73"",""605902""
","""event"",""trial"",""time""
""blur"",""49"",""464647""
""blur"",""73"",""604186""
","""event"",""trial"",""time""
""focus"",""49"",""466378""
""focus"",""73"",""605902""
","""event"",""trial"",""time""
""fullscreenenter"",""1"",""1232""
","
","","","-1","","","25","10843","4942","n","elianto","#f73b6a7A","-1","-1","1","0","[]","0","2","","","10843","55","0","4","lose","no-go","0"
"pit-trial","174","1156137","0.0-60.0","battery-v0.2","","""event"",""trial"",""time""
""fullscreenenter"",""1"",""1232""
""blur"",""49"",""464647""
""focus"",""49"",""466378""
""blur"",""73"",""604186""
""focus"",""73"",""605902""
","""event"",""trial"",""time""
""blur"",""49"",""464647""
""blur"",""73"",""604186""
","""event"",""trial"",""time""
""focus"",""49"",""466378""
""focus"",""73"",""605902""
","""event"",""trial"",""time""
""fullscreenenter"",""1"",""1232""
","
","","","-1","","","25","10843","4942","t","elianto","#f73b6a7A","-1","-1","1","0","[]","0","2","","","10843","56","2","4","lose","no-go","0"
"pit-trial","175","1160138","0.0-61.0","battery-v0.2","","""event"",""trial"",""time""
""fullscreenenter"",""1"",""1232""
""blur"",""49"",""464647""
""focus"",""49"",""466378""
""blur"",""73"",""604186""
""focus"",""73"",""605902""
","""event"",""trial"",""time""
""blur"",""49"",""464647""
""blur"",""73"",""604186""
","""event"",""trial"",""time""
""focus"",""49"",""466378""
""focus"",""73"",""605902""
