"trial_type","trial_index","time_elapsed","internal_node_id","task_version","subject_id","interactions","blur_events","focus_events","fullscreenenter_events","fullscreenexit_events","success","view_history","rt","responses","num_errors","age","subject","participantId","rune","rune_set","hex","correct","choice","accuracy","outcome","keys","total_keys","block","practice","value","sub","trial","stimulus","robot","valence","action","sham"
"pavlovia","0","9","0.0-0.0","battery-v0.2","","""event"",""trial"",""time""
""fullscreenenter"",""1"",""3579""
","
","
","""event"",""trial"",""time""
""fullscreenenter"",""1"",""3579""
","
","","","","","","","","","","","","","","","","","","","","","","","","","","",""
"fullscreen","1","4572","0.0-1.0","battery-v0.2","","""event"",""trial"",""time""
""fullscreenenter"",""1"",""3579""
","
","
","""event"",""trial"",""time""
""fullscreenenter"",""1"",""3579""
","
","true","","","","","","","","","","","","","","","","","","","","","","","","","",""
"pit-instructions","2","8932","0.0-2.0-0.0","battery-v0.2","","""event"",""trial"",""time""
""fullscreenenter"",""1"",""3579""
","
","
","""event"",""trial"",""time""
""fullscreenenter"",""1"",""3579""
","
","","[{""page_index"":0,""viewing_time"":4354.10000000149}]","4354.800000000745","","","","","","","","","","","","","","","","","","","","","","","",""
"pit-comprehension","3","11518","0.0-2.0-1.0-0.0","battery-v0.2","","""event"",""trial"",""time""
""fullscreenenter"",""1"",""3579""
","
","
","""event"",""trial"",""time""
""fullscreenenter"",""1"",""3579""
","
","","","2580.10000000149","[""shark""]","0","20","10834","4997","","","","","","","","","","","","","","","","","","",""
"pit-instructions","4","15133","0.0-2.0-1.0-1.0","battery-v0.2","","""event"",""trial"",""time""
""fullscreenenter"",""1"",""3579""
","
","
","""event"",""trial"",""time""
""fullscreenenter"",""1"",""3579""
","
","","[{""page_index"":0,""viewing_time"":3603.800000000745}]","3604.300000000745","","","","","","","","","","","","","","","","","","","","","","","",""
"pit-comprehension","5","17582","0.0-2.0-2.0-0.0","battery-v0.2","","""event"",""trial"",""time""
""fullscreenenter"",""1"",""3579""
","
","
","""event"",""trial"",""time""
""fullscreenenter"",""1"",""3579""
","
","","","2443.89999999851","[""tiger""]","0","20","10834","4997","","","","","","","","","","","","","","","","","","",""
"pit-instructions","6","18448","0.0-2.0-2.0-1.0","battery-v0.2","","""event"",""trial"",""time""
""fullscreenenter"",""1"",""3579""
","
","
","""event"",""trial"",""time""
""fullscreenenter"",""1"",""3579""
","
","","[{""page_index"":0,""viewing_time"":860.9000000022352}]","861.5","","","","","","","","","","","","","","","","","","","","","","","",""
"pit-instructions","7","120630","0.0-2.0-3.0","battery-v0.2","","""event"",""trial"",""time""
""fullscreenenter"",""1"",""3579""
","
","
","""event"",""trial"",""time""
""fullscreenenter"",""1"",""3579""
","
","","[{""page_index"":0,""viewing_time"":8895.400000002235},{""page_index"":1,""viewing_time"":6049.800000000745},{""page_index"":2,""viewing_time"":7852.199999999255},{""page_index"":3,""viewing_time"":5564.89999999851},{""page_index"":4,""viewing_time"":5683.900000002235},{""page_index"":5,""viewing_time"":6083.39999999851},{""page_index"":6,""viewing_time"":6384.800000000745},{""page_index"":7,""viewing_time"":6516.300000000745},{""page_index"":8,""viewing_time"":7365.199999999255},{""page_index"":9,""viewing_time"":8134.800000000745},{""page_index"":10,""viewing_time"":12083.89999999851},{""page_index"":11,""viewing_time"":8183.10000000149},{""page_index"":12,""viewing_time"":7657.5},{""page_index"":13,""viewing_time"":5725.79999999702}]","102181.60000000149","","","","","","","","","","","","","","","","","","","","","","","",""
"pit-trial","8","124546","0.0-2.0-4.0-0.0","battery-v0.2","","""event"",""trial"",""time""
""fullscreenenter"",""1"",""3579""
","
","
","""event"",""trial"",""time""
""fullscreenenter"",""1"",""3579""
","
","","","1057.3999999985099","","","20","10834","4997","&#9784;","elianto","#FFFFF080"," "," ","1","&#10004","[1909.5]","1","0","0","","","","","","","",""
"pit-trial","9","128351","0.0-2.0-4.1-0.1","battery-v0.2","","""event"",""trial"",""time""
""fullscreenenter"",""1"",""3579""
","
","
","""event"",""trial"",""time""
""fullscreenenter"",""1"",""3579""
","
","","","943.1999999992549","","","20","10834","4997","&#9784;","elianto","#FFFFF080"," "," ","1","&#10004","[1793.800000000745]","1","0","0","","","","","","","",""
"pit-trial","10","132444","0.0-2.0-4.2-0.2","battery-v0.2","","""event"",""trial"",""time""
""fullscreenenter"",""1"",""3579""
","
","
","""event"",""trial"",""time""
""fullscreenenter"",""1"",""3579""
","
","","","1233.4000000022352","","","20","10834","4997","&#9784;","elianto","#FFFFF080"," "," ","1","&#10004","[2084.099999997765]","1","0","0","","","","","","","",""
"pit-trial","11","136229","0.0-2.0-4.3-0.3","battery-v0.2","","""event"",""trial"",""time""
""fullscreenenter"",""1"",""3579""
","
","
","""event"",""trial"",""time""
""fullscreenenter"",""1"",""3579""
","
","","","926","","","20","10834","4997","&#9784;","elianto","#FFFFF080"," "," ","1","&#10004","[1778]","1","0","0","","","","","","","",""
"pit-trial","12","140123","0.0-2.0-4.4-0.4","battery-v0.2","","""event"",""trial"",""time""
""fullscreenenter"",""1"",""3579""
","
","
","""event"",""trial"",""time""
""fullscreenenter"",""1"",""3579""
","
","","","1032.699999999255","","","20","10834","4997","&#9784;","elianto","#FFFFF080"," "," ","1","&#10004","[1883.5]","1","0","0","","","","","","","",""
"pit-instructions","13","163348","0.0-2.0-5.0","battery-v0.2","","""event"",""trial"",""time""
""fullscreenenter"",""1"",""3579""
","
","
","""event"",""trial"",""time""
""fullscreenenter"",""1"",""3579""
","
","","[{""page_index"":0,""viewing_time"":5403.199999999255},{""page_index"":1,""viewing_time"":6068.099999997765},{""page_index"":2,""viewing_time"":6332.10000000149},{""page_index"":3,""viewing_time"":5417.10000000149}]","23221.099999997765","","","","","","","","","","","","","","","","","","","","","","","",""
"pit-trial","14","168207","0.0-2.0-6.0-0.0","battery-v0.2","","""event"",""trial"",""time""
""fullscreenenter"",""1"",""3579""
","
","
","""event"",""trial"",""time""
""fullscreenenter"",""1"",""3579""
","
","","","-1","","","20","10834","4997","&#9854;","elianto","#FFFFF080","-1","-1","1","&#10004","[]","0","0","1","","","","","","","",""
"pit-trial","15","173074","0.0-2.0-6.1-0.1","battery-v0.2","","""event"",""trial"",""time""
""fullscreenenter"",""1"",""3579""
","
","
","""event"",""trial"",""time""
""fullscreenenter"",""1"",""3579""
","
","","","-1","","","20","10834","4997","&#9854;","elianto","#FFFFF080","-1","-1","1","&#10004","[]","0","0","1","","","","","","","",""
"pit-trial","16","177938","0.0-2.0-6.2-0.2","battery-v0.2","","""event"",""trial"",""time""
""fullscreenenter"",""1"",""3579""
","
","
","""event"",""trial"",""time""
""fullscreenenter"",""1"",""3579""
","
","","","-1","","","20","10834","4997","&#9854;","elianto","#FFFFF080","-1","-1","1","&#10004","[]","0","0","1","","","","","","","",""
"pit-trial","17","182796","0.0-2.0-6.3-0.3","battery-v0.2","","""event"",""trial"",""time""
""fullscreenenter"",""1"",""3579""
","
","
","""event"",""trial"",""time""
""fullscreenenter"",""1"",""3579""
","
","","","-1","","","20","10834","4997","&#9854;","elianto","#FFFFF080","-1","-1","1","&#10004","[]","0","0","1","","","","","","","",""
"pit-trial","18","187661","0.0-2.0-6.4-0.4","battery-v0.2","","""event"",""trial"",""time""
""fullscreenenter"",""1"",""3579""
","
","
","""event"",""trial"",""time""
""fullscreenenter"",""1"",""3579""
","
","","","-1","","","20","10834","4997","&#9854;","elianto","#FFFFF080","-1","-1","1","&#10004","[]","0","0","1","","","","","","","",""
"pit-instructions","19","298663","0.0-2.0-7.0","battery-v0.2","","""event"",""trial"",""time""
""fullscreenenter"",""1"",""3579""
","
","
","""event"",""trial"",""time""
""fullscreenenter"",""1"",""3579""
","
","","[{""page_index"":0,""viewing_time"":5629.300000000745},{""page_index"":1,""viewing_time"":6850.60000000149},{""page_index"":2,""viewing_time"":5616.39999999851},{""page_index"":3,""viewing_time"":6067.300000000745},{""page_index"":4,""viewing_time"":5484.099999997765},{""page_index"":5,""viewing_time"":5332.300000000745},{""page_index"":6,""viewing_time"":4533.60000000149},{""page_index"":7,""viewing_time"":7416.39999999851},{""page_index"":8,""viewing_time"":6617.300000000745},{""page_index"":9,""viewing_time"":5750.699999999255},{""page_index"":10,""viewing_time"":6049.400000002235},{""page_index"":11,""viewing_time"":4116.89999999851},{""page_index"":12,""viewing_time"":6717.5},{""page_index"":13,""viewing_time"":6883.10000000149},{""page_index"":14,""viewing_time"":6568.599999997765},{""page_index"":15,""viewing_time"":7085.10000000149},{""page_index"":16,""viewing_time"":6646.89999999851},{""page_index"":17,""viewing_time"":7633.300000000745}]","110999.5","","","","","","","","","","","","","","","","","","","","","","","",""
"pit-trial","20","302368","0.0-2.0-8.0-0.0","battery-v0.2","","""event"",""trial"",""time""
""fullscreenenter"",""1"",""3579""
","
","
","""event"",""trial"",""time""
""fullscreenenter"",""1"",""3579""
","
","","","845.3000000007451","","","20","10834","4997","&#9776;","elianto","#3366ff99"," "," ","1","+10","[1696]","1","0","1","","","","","","","",""
"pit-trial","21","305788","0.0-2.0-8.0-1.0","battery-v0.2","","""event"",""trial"",""time""
""fullscreenenter"",""1"",""3579""
","
","
","""event"",""trial"",""time""
""fullscreenenter"",""1"",""3579""
","
","","","562.8000000007451","","","20","10834","4997","&#9776;","elianto","#3366ff99"," "," ","1","+10","[1413.300000000745]","1","0","1","","","","","","","",""
"pit-trial","22","309383","0.0-2.0-8.0-2.0","battery-v0.2","","""event"",""trial"",""time""
""fullscreenenter"",""1"",""3579""
","
","
","""event"",""trial"",""time""
""fullscreenenter"",""1"",""3579""
","
","","","735.9000000022352","","","20","10834","4997","&#9776;","elianto","#3366ff99"," "," ","1","+10","[1587.1000000014901]","1","0","1","","","","","","","",""
"pit-trial","23","312766","0.0-2.0-8.0-3.0","battery-v0.2","","""event"",""trial"",""time""
""fullscreenenter"",""1"",""3579""
","
","
","""event"",""trial"",""time""
""fullscreenenter"",""1"",""3579""
","
","","","525","","","20","10834","4997","&#9776;","elianto","#3366ff99"," "," ","1","0","[1376.1000000014901]","1","0","1","","","","","","","",""
"pit-trial","24","316138","0.0-2.0-8.0-4.0","battery-v0.2","","""event"",""trial"",""time""
""fullscreenenter"",""1"",""3579""
","
","
","""event"",""trial"",""time""
""fullscreenenter"",""1"",""3579""
","
","","","511.6000000014901","","","20","10834","4997","&#9776;","elianto","#3366ff99"," "," ","1","+10","[1363]","1","0","1","","","","","","","",""
"pit-trial","25","319507","0.0-2.0-8.1-0.1","battery-v0.2","","""event"",""trial"",""time""
""fullscreenenter"",""1"",""3579""
","
","
","""event"",""trial"",""time""
""fullscreenenter"",""1"",""3579""
","
","","","508.69999999925494","","","20","10834","4997","&#9776;","elianto","#3366ff99"," "," ","1","+10","[1359.699999999255]","1","0","1","","","","","","","",""
"pit-trial","26","323129","0.0-2.0-8.1-1.1","battery-v0.2","","""event"",""trial"",""time""
""fullscreenenter"",""1"",""3579""
","
","
","""event"",""trial"",""time""
""fullscreenenter"",""1"",""3579""
","
","","","762.3000000007451","","","20","10834","4997","&#9776;","elianto","#3366ff99"," "," ","1","+10","[1612.6000000014901]","1","0","1","","","","","","","",""
"pit-trial","27","326666","0.0-2.0-8.1-2.1","battery-v0.2","","""event"",""trial"",""time""
""fullscreenenter"",""1"",""3579""
","
","
","""event"",""trial"",""time""
""fullscreenenter"",""1"",""3579""
","
","","","677.3000000007451","","","20","10834","4997","&#9776;","elianto","#3366ff99"," "," ","1","+10","[1528.800000000745]","1","0","1","","","","","","","",""
"pit-trial","28","330154","0.0-2.0-8.1-3.1","battery-v0.2","","""event"",""trial"",""time""
""fullscreenenter"",""1"",""3579""
","
","
","""event"",""trial"",""time""
""fullscreenenter"",""1"",""3579""
","
","","","629","","","20","10834","4997","&#9776;","elianto","#3366ff99"," "," ","1","0","[1479.8999999985099]","1","0","1","","","","","","","",""
"pit-trial","29","333569","0.0-2.0-8.1-4.1","battery-v0.2","","""event"",""trial"",""time""
""fullscreenenter"",""1"",""3579""
","
","
","""event"",""trial"",""time""
""fullscreenenter"",""1"",""3579""
","
","","","554","","","20","10834","4997","&#9776;","elianto","#3366ff99"," "," ","1","+10","[1405.5999999977648]","1","0","1","","","","","","","",""
"pit-trial","30","337094","0.0-2.0-8.2-0.2","battery-v0.2","","""event"",""trial"",""time""
""fullscreenenter"",""1"",""3579""
","
","
","""event"",""trial"",""time""
""fullscreenenter"",""1"",""3579""
","
","","","664.6000000014901","","","20","10834","4997","&#9776;","elianto","#3366ff99"," "," ","1","+10","[1515.300000000745]","1","0","1","","","","","","","",""
"pit-trial","31","340576","0.0-2.0-8.2-1.2","battery-v0.2","","""event"",""trial"",""time""
""fullscreenenter"",""1"",""3579""
","
","
","""event"",""trial"",""time""
""fullscreenenter"",""1"",""3579""
","
","","","622.1999999992549","","","20","10834","4997","&#9776;","elianto","#3366ff99"," "," ","1","+10","[1473.800000000745]","1","0","1","","","","","","","",""
"pit-trial","32","344184","0.0-2.0-8.2-2.2","battery-v0.2","","""event"",""trial"",""time""
""fullscreenenter"",""1"",""3579""
","
","
","""event"",""trial"",""time""
""fullscreenenter"",""1"",""3579""
","
","","","746.3000000007451","","","20","10834","4997","&#9776;","elianto","#3366ff99"," "," ","1","+10","[1598.699999999255]","1","0","1","","","","","","","",""
"pit-trial","33","347917","0.0-2.0-8.2-3.2","battery-v0.2","","""event"",""trial"",""time""
""fullscreenenter"",""1"",""3579""
","
","
","""event"",""trial"",""time""
""fullscreenenter"",""1"",""3579""
","
","","","870","","","20","10834","4997","&#9776;","elianto","#3366ff99"," "," ","1","0","[1724.8999999985099]","1","0","1","","","","","","","",""
"pit-trial","34","351426","0.0-2.0-8.2-4.2","battery-v0.2","","""event"",""trial"",""time""
""fullscreenenter"",""1"",""3579""
","
","
","""event"",""trial"",""time""
""fullscreenenter"",""1"",""3579""
","
","","","649.3999999985099","","","20","10834","4997","&#9776;","elianto","#3366ff99"," "," ","1","+10","[1499.9000000022352]","1","0","1","","","","","","","",""
"call-function","35","351430","0.0-2.0-9.0","battery-v0.2","","""event"",""trial"",""time""
""fullscreenenter"",""1"",""3579""
","
","
","""event"",""trial"",""time""
""fullscreenenter"",""1"",""3579""
","
","","","","","","","","","","","","","","","","","","","","","","","","","","",""
"pit-instructions","36","389480","0.0-2.0-10.0","battery-v0.2","","""event"",""trial"",""time""
""fullscreenenter"",""1"",""3579""
","
","
","""event"",""trial"",""time""
""fullscreenenter"",""1"",""3579""
","
","","[{""page_index"":0,""viewing_time"":5782},{""page_index"":1,""viewing_time"":6583.199999999255},{""page_index"":2,""viewing_time"":9450.300000000745},{""page_index"":3,""viewing_time"":8900.099999997765},{""page_index"":4,""viewing_time"":7334.800000000745}]","38050.699999999255","","","","","","","","","","","","","","","","","","","","","","","",""
"pit-trial","37","393046","0.0-2.0-11.0-0.0","battery-v0.2","","""event"",""trial"",""time""
""fullscreenenter"",""1"",""3579""
","
","
","""event"",""trial"",""time""
""fullscreenenter"",""1"",""3579""
","
","","","705.2000000029802","","","20","10834","4997","&#9761;","elianto","#3366ff99","-1"," ","0","0","[1558.6000000014901]","1","0","2","","","","","","","",""
"pit-trial","38","396537","0.0-2.0-11.0-1.0","battery-v0.2","","""event"",""trial"",""time""
""fullscreenenter"",""1"",""3579""
","
","
","""event"",""trial"",""time""
""fullscreenenter"",""1"",""3579""
","
","","","630.0999999977648","","","20","10834","4997","&#9761;","elianto","#3366ff99","-1"," ","0","0","[1482.4000000022352]","1","0","2","","","","","","","",""
"pit-trial","39","401400","0.0-2.0-11.0-2.0","battery-v0.2","","""event"",""trial"",""time""
""fullscreenenter"",""1"",""3579""
","
","
","""event"",""trial"",""time""
""fullscreenenter"",""1"",""3579""
","
","","","-1","","","20","10834","4997","&#9761;","elianto","#3366ff99","-1","-1","1","+10","[]","0","0","2","","","","","","","",""
"pit-trial","40","406261","0.0-2.0-11.0-3.0","battery-v0.2","","""event"",""trial"",""time""
""fullscreenenter"",""1"",""3579""
","
","
","""event"",""trial"",""time""
""fullscreenenter"",""1"",""3579""
","
","","","-1","","","20","10834","4997","&#9761;","elianto","#3366ff99","-1","-1","1","0","[]","0","0","2","","","","","","","",""
"pit-trial","41","411120","0.0-2.0-11.0-4.0","battery-v0.2","","""event"",""trial"",""time""
""fullscreenenter"",""1"",""3579""
","
","
","""event"",""trial"",""time""
""fullscreenenter"",""1"",""3579""
","
","","","-1","","","20","10834","4997","&#9761;","elianto","#3366ff99","-1","-1","1","+10","[]","0","0","2","","","","","","","",""
"pit-trial","42","415980","0.0-2.0-11.1-0.1","battery-v0.2","","""event"",""trial"",""time""
""fullscreenenter"",""1"",""3579""
","
","
","""event"",""trial"",""time""
""fullscreenenter"",""1"",""3579""
","
","","","-1","","","20","10834","4997","&#9761;","elianto","#3366ff99","-1","-1","1","+10","[]","0","0","2","","","","","","","",""
"pit-trial","43","420839","0.0-2.0-11.1-1.1","battery-v0.2","","""event"",""trial"",""time""
""fullscreenenter"",""1"",""3579""
","
","
","""event"",""trial"",""time""
""fullscreenenter"",""1"",""3579""
","
","","","-1","","","20","10834","4997","&#9761;","elianto","#3366ff99","-1","-1","1","+10","[]","0","0","2","","","","","","","",""
"pit-trial","44","424661","0.0-2.0-11.1-2.1","battery-v0.2","","""event"",""trial"",""time""
""fullscreenenter"",""1"",""3579""
","
","
","""event"",""trial"",""time""
""fullscreenenter"",""1"",""3579""
","
","","","961.6999999992549","","","20","10834","4997","&#9761;","elianto","#3366ff99","-1"," ","0","0","[1813.199999999255]","1","0","2","","","","","","","",""
"pit-trial","45","429523","0.0-2.0-11.1-3.1","battery-v0.2","","""event"",""trial"",""time""
""fullscreenenter"",""1"",""3579""
","
","
","""event"",""trial"",""time""
""fullscreenenter"",""1"",""3579""
","
","","","-1","","","20","10834","4997","&#9761;","elianto","#3366ff99","-1","-1","1","0","[]","0","0","2","","","","","","","",""
"pit-trial","46","434388","0.0-2.0-11.1-4.1","battery-v0.2","","""event"",""trial"",""time""
""fullscreenenter"",""1"",""3579""
","
","
","""event"",""trial"",""time""
""fullscreenenter"",""1"",""3579""
","
","","","-1","","","20","10834","4997","&#9761;","elianto","#3366ff99","-1","-1","1","+10","[]","0","0","2","","","","","","","",""
"pit-trial","47","439252","0.0-2.0-11.2-0.2","battery-v0.2","","""event"",""trial"",""time""
""fullscreenenter"",""1"",""3579""
","
","
","""event"",""trial"",""time""
""fullscreenenter"",""1"",""3579""
","
","","","-1","","","20","10834","4997","&#9761;","elianto","#3366ff99","-1","-1","1","+10","[3490.10000000149]","1","0","2","","","","","","","",""
"pit-trial","48","442900","0.0-2.0-11.2-1.2","battery-v0.2","","""event"",""trial"",""time""
""fullscreenenter"",""1"",""3579""
","
","
","""event"",""trial"",""time""
""fullscreenenter"",""1"",""3579""
","
","","","790.4000000022352","","","20","10834","4997","&#9761;","elianto","#3366ff99","-1"," ","0","0","[1640.9000000022352]","1","0","2","","","","","","","",""
"pit-trial","49","447760","0.0-2.0-11.2-2.2","battery-v0.2","","""event"",""trial"",""time""
""fullscreenenter"",""1"",""3579""
","
","
","""event"",""trial"",""time""
""fullscreenenter"",""1"",""3579""
","
","","","-1","","","20","10834","4997","&#9761;","elianto","#3366ff99","-1","-1","1","+10","[]","0","0","2","","","","","","","",""
"pit-trial","50","451518","0.0-2.0-11.2-3.2","battery-v0.2","","""event"",""trial"",""time""
""fullscreenenter"",""1"",""3579""
","
","
","""event"",""trial"",""time""
""fullscreenenter"",""1"",""3579""
","
","","","895.9000000022352","","","20","10834","4997","&#9761;","elianto","#3366ff99","-1"," ","0","+10","[1748.800000000745]","1","0","2","","","","","","","",""
"pit-trial","51","456383","0.0-2.0-11.2-4.2","battery-v0.2","","""event"",""trial"",""time""
""fullscreenenter"",""1"",""3579""
","
","
","""event"",""trial"",""time""
""fullscreenenter"",""1"",""3579""
","
","","","-1","","","20","10834","4997","&#9761;","elianto","#3366ff99","-1","-1","1","+10","[]","0","0","2","","","","","","","",""
"pit-trial","52","460448","0.0-2.0-11.3-0.3","battery-v0.2","","""event"",""trial"",""time""
""fullscreenenter"",""1"",""3579""
","
","
","""event"",""trial"",""time""
""fullscreenenter"",""1"",""3579""
","
","","","1206.0999999977648","","","20","10834","4997","&#9761;","elianto","#3366ff99","-1"," ","0","0","[2056.800000000745]","1","0","2","","","","","","","",""
"pit-trial","53","464728","0.0-2.0-11.3-1.3","battery-v0.2","","""event"",""trial"",""time""
""fullscreenenter"",""1"",""3579""
","
","
","""event"",""trial"",""time""
""fullscreenenter"",""1"",""3579""
","
","","","1418.0999999977648","","","20","10834","4997","&#9761;","elianto","#3366ff99","-1"," ","0","0","[2271.7000000029802]","1","0","2","","","","","","","",""
"pit-trial","54","469587","0.0-2.0-11.3-2.3","battery-v0.2","","""event"",""trial"",""time""
""fullscreenenter"",""1"",""3579""
","
","
","""event"",""trial"",""time""
""fullscreenenter"",""1"",""3579""
","
","","","-1","","","20","10834","4997","&#9761;","elianto","#3366ff99","-1","-1","1","+10","[3291.199999999255]","1","0","2","","","","","","","",""
"pit-trial","55","474452","0.0-2.0-11.3-3.3","battery-v0.2","","""event"",""trial"",""time""
""fullscreenenter"",""1"",""3579""
","
","
","""event"",""trial"",""time""
""fullscreenenter"",""1"",""3579""
","
","","","-1","","","20","10834","4997","&#9761;","elianto","#3366ff99","-1","-1","1","0","[]","0","0","2","","","","","","","",""
"pit-trial","56","479315","0.0-2.0-11.3-4.3","battery-v0.2","","""event"",""trial"",""time""
""fullscreenenter"",""1"",""3579""
","
","
","""event"",""trial"",""time""
""fullscreenenter"",""1"",""3579""
","
","","","-1","","","20","10834","4997","&#9761;","elianto","#3366ff99","-1","-1","1","+10","[]","0","0","2","","","","","","","",""
"call-function","57","479318","0.0-2.0-12.0","battery-v0.2","","""event"",""trial"",""time""
""fullscreenenter"",""1"",""3579""
","
","
","""event"",""trial"",""time""
""fullscreenenter"",""1"",""3579""
","
","","","","","","","","","","","","","","","","","","","","","","","","","","",""
"pit-instructions","58","514166","0.0-2.0-13.0","battery-v0.2","","""event"",""trial"",""time""
""fullscreenenter"",""1"",""3579""
","
","
","""event"",""trial"",""time""
""fullscreenenter"",""1"",""3579""
","
","","[{""page_index"":0,""viewing_time"":7226.400000002235},{""page_index"":1,""viewing_time"":8369.39999999851},{""page_index"":2,""viewing_time"":3897.60000000149},{""page_index"":3,""viewing_time"":10300.699999999255},{""page_index"":4,""viewing_time"":5053.699999999255}]","34848.10000000149","","","","","","","","","","","","","","","","","","","","","","","",""
"pit-trial","59","517839","0.0-2.0-14.0-0.0","battery-v0.2","","""event"",""trial"",""time""
""fullscreenenter"",""1"",""3579""
","
","
","""event"",""trial"",""time""
""fullscreenenter"",""1"",""3579""
","
","","","811.8000000007451","","","20","10834","4997","&#9826;","elianto","#f73b6a7A","-1"," ","0","-10","[1665.699999999255]","1","0","3","","","","","","","",""
"pit-trial","60","521498","0.0-2.0-14.0-1.0","battery-v0.2","","""event"",""trial"",""time""
""fullscreenenter"",""1"",""3579""
","
","
","""event"",""trial"",""time""
""fullscreenenter"",""1"",""3579""
","
","","","802.6000000014901","","","20","10834","4997","&#9826;","elianto","#f73b6a7A","-1"," ","0","-10","[1652.5999999977648]","1","0","3","","","","","","","",""
"pit-trial","61","525190","0.0-2.0-14.0-2.0","battery-v0.2","","""event"",""trial"",""time""
""fullscreenenter"",""1"",""3579""
","
","
","""event"",""trial"",""time""
""fullscreenenter"",""1"",""3579""
","
","","","831.5999999977648","","","20","10834","4997","&#9826;","elianto","#f73b6a7A","-1"," ","0","-10","[1683.5]","1","0","3","","","","","","","",""
"pit-trial","62","530053","0.0-2.0-14.0-3.0","battery-v0.2","","""event"",""trial"",""time""
""fullscreenenter"",""1"",""3579""
","
","
","""event"",""trial"",""time""
""fullscreenenter"",""1"",""3579""
","
","","","-1","","","20","10834","4997","&#9826;","elianto","#f73b6a7A","-1","-1","1","-10","[]","0","0","3","","","","","","","",""
"pit-trial","63","534913","0.0-2.0-14.0-4.0","battery-v0.2","","""event"",""trial"",""time""
""fullscreenenter"",""1"",""3579""
","
","
","""event"",""trial"",""time""
""fullscreenenter"",""1"",""3579""
","
","","","-1","","","20","10834","4997","&#9826;","elianto","#f73b6a7A","-1","-1","1","0","[]","0","0","3","","","","","","","",""
"pit-trial","64","539776","0.0-2.0-14.1-0.1","battery-v0.2","","""event"",""trial"",""time""
""fullscreenenter"",""1"",""3579""
","
","
","""event"",""trial"",""time""
""fullscreenenter"",""1"",""3579""
","
","","","-1","","","20","10834","4997","&#9826;","elianto","#f73b6a7A","-1","-1","1","0","[]","0","0","3","","","","","","","",""
"pit-trial","65","544640","0.0-2.0-14.1-1.1","battery-v0.2","","""event"",""trial"",""time""
""fullscreenenter"",""1"",""3579""
","
","
","""event"",""trial"",""time""
""fullscreenenter"",""1"",""3579""
","
","","","-1","","","20","10834","4997","&#9826;","elianto","#f73b6a7A","-1","-1","1","0","[]","0","0","3","","","","","","","",""
"pit-trial","66","549500","0.0-2.0-14.1-2.1","battery-v0.2","","""event"",""trial"",""time""
""fullscreenenter"",""1"",""3579""
","
","
","""event"",""trial"",""time""
""fullscreenenter"",""1"",""3579""
","
","","","-1","","","20","10834","4997","&#9826;","elianto","#f73b6a7A","-1","-1","1","0","[]","0","0","3","","","","","","","",""
"pit-trial","67","554364","0.0-2.0-14.1-3.1","battery-v0.2","","""event"",""trial"",""time""
""fullscreenenter"",""1"",""3579""
","
","
","""event"",""trial"",""time""
""fullscreenenter"",""1"",""3579""
","
","","","-1","","","20","10834","4997","&#9826;","elianto","#f73b6a7A","-1","-1","1","-10","[]","0","0","3","","","","","","","",""
"pit-trial","68","559226","0.0-2.0-14.1-4.1","battery-v0.2","","""event"",""trial"",""time""
""fullscreenenter"",""1"",""3579""
","
","
","""event"",""trial"",""time""
""fullscreenenter"",""1"",""3579""
","
","","","-1","","","20","10834","4997","&#9826;","elianto","#f73b6a7A","-1","-1","1","0","[]","0","0","3","","","","","","","",""
"pit-trial","69","564088","0.0-2.0-14.2-0.2","battery-v0.2","","""event"",""trial"",""time""
""fullscreenenter"",""1"",""3579""
","
","
","""event"",""trial"",""time""
""fullscreenenter"",""1"",""3579""
","
","","","-1","","","20","10834","4997","&#9826;","elianto","#f73b6a7A","-1","-1","1","0","[]","0","0","3","","","","","","","",""
"pit-trial","70","568950","0.0-2.0-14.2-1.2","battery-v0.2","","""event"",""trial"",""time""
""fullscreenenter"",""1"",""3579""
","
","
","""event"",""trial"",""time""
""fullscreenenter"",""1"",""3579""
","
","","","-1","","","20","10834","4997","&#9826;","elianto","#f73b6a7A","-1","-1","1","0","[]","0","0","3","","","","","","","",""
"pit-trial","71","573815","0.0-2.0-14.2-2.2","battery-v0.2","","""event"",""trial"",""time""
""fullscreenenter"",""1"",""3579""
","
","
","""event"",""trial"",""time""
""fullscreenenter"",""1"",""3579""
","
","","","-1","","","20","10834","4997","&#9826;","elianto","#f73b6a7A","-1","-1","1","0","[]","0","0","3","","","","","","","",""
"pit-trial","72","578678","0.0-2.0-14.2-3.2","battery-v0.2","","""event"",""trial"",""time""
""fullscreenenter"",""1"",""3579""
","
","
","""event"",""trial"",""time""
""fullscreenenter"",""1"",""3579""
","
","","","-1","","","20","10834","4997","&#9826;","elianto","#f73b6a7A","-1","-1","1","-10","[]","0","0","3","","","","","","","",""
"pit-trial","73","583543","0.0-2.0-14.2-4.2","battery-v0.2","","""event"",""trial"",""time""
""fullscreenenter"",""1"",""3579""
","
","
","""event"",""trial"",""time""
""fullscreenenter"",""1"",""3579""
","
","","","-1","","","20","10834","4997","&#9826;","elianto","#f73b6a7A","-1","-1","1","0","[]","0","0","3","","","","","","","",""
"pit-trial","74","588409","0.0-2.0-14.3-0.3","battery-v0.2","","""event"",""trial"",""time""
""fullscreenenter"",""1"",""3579""
","
","
","""event"",""trial"",""time""
""fullscreenenter"",""1"",""3579""
","
","","","-1","","","20","10834","4997","&#9826;","elianto","#f73b6a7A","-1","-1","1","0","[]","0","0","3","","","","","","","",""
"pit-trial","75","593269","0.0-2.0-14.3-1.3","battery-v0.2","","""event"",""trial"",""time""
""fullscreenenter"",""1"",""3579""
","
","
","""event"",""trial"",""time""
""fullscreenenter"",""1"",""3579""
","
","","","-1","","","20","10834","4997","&#9826;","elianto","#f73b6a7A","-1","-1","1","0","[]","0","0","3","","","","","","","",""
"pit-trial","76","598134","0.0-2.0-14.3-2.3","battery-v0.2","","""event"",""trial"",""time""
""fullscreenenter"",""1"",""3579""
","
","
","""event"",""trial"",""time""
""fullscreenenter"",""1"",""3579""
","
","","","-1","","","20","10834","4997","&#9826;","elianto","#f73b6a7A","-1","-1","1","0","[]","0","0","3","","","","","","","",""
"pit-trial","77","602996","0.0-2.0-14.3-3.3","battery-v0.2","","""event"",""trial"",""time""
""fullscreenenter"",""1"",""3579""
","
","
","""event"",""trial"",""time""
""fullscreenenter"",""1"",""3579""
","
","","","-1","","","20","10834","4997","&#9826;","elianto","#f73b6a7A","-1","-1","1","-10","[]","0","0","3","","","","","","","",""
"pit-trial","78","607857","0.0-2.0-14.3-4.3","battery-v0.2","","""event"",""trial"",""time""
""fullscreenenter"",""1"",""3579""
","
","
","""event"",""trial"",""time""
""fullscreenenter"",""1"",""3579""
","
","","","-1","","","20","10834","4997","&#9826;","elianto","#f73b6a7A","-1","-1","1","0","[]","0","0","3","","","","","","","",""
"call-function","79","607860","0.0-2.0-15.0","battery-v0.2","","""event"",""trial"",""time""
""fullscreenenter"",""1"",""3579""
","
","
","""event"",""trial"",""time""
""fullscreenenter"",""1"",""3579""
","
","","","","","","","","","","","","","","","","","","","","","","","","","","",""
"pit-instructions","80","651729","0.0-2.0-16.0","battery-v0.2","","""event"",""trial"",""time""
""fullscreenenter"",""1"",""3579""
","
","
","""event"",""trial"",""time""
""fullscreenenter"",""1"",""3579""
","
","","[{""page_index"":0,""viewing_time"":25000.599999997765},{""page_index"":1,""viewing_time"":8568.5},{""page_index"":2,""viewing_time"":5115.199999999255},{""page_index"":3,""viewing_time"":5183.70000000298}]","43868.599999997765","","","","","","","","","","","","","","","","","","","","","","","",""
"pit-trial","81","655147","0.0-2.0-17.0-0.0","battery-v0.2","","""event"",""trial"",""time""
""fullscreenenter"",""1"",""3579""
","
","
","""event"",""trial"",""time""
""fullscreenenter"",""1"",""3579""
","
","","","560.5999999977648","","","20","10834","4997","&#9789;","elianto","#f73b6a7A"," "," ","1","0","[1411]","1","0","4","","","","","","","",""
"pit-trial","82","658554","0.0-2.0-17.0-1.0","battery-v0.2","","""event"",""trial"",""time""
""fullscreenenter"",""1"",""3579""
","
","
","""event"",""trial"",""time""
""fullscreenenter"",""1"",""3579""
","
","","","548.5","","","20","10834","4997","&#9789;","elianto","#f73b6a7A"," "," ","1","0","[1400.1000000014901]","1","0","4","","","","","","","",""
"pit-trial","83","661926","0.0-2.0-17.0-2.0","battery-v0.2","","""event"",""trial"",""time""
""fullscreenenter"",""1"",""3579""
","
","
","""event"",""trial"",""time""
""fullscreenenter"",""1"",""3579""
","
","","","512.7999999970198","","","20","10834","4997","&#9789;","elianto","#f73b6a7A"," "," ","1","0","[1363.6000000014901]","1","0","4","","","","","","","",""
"pit-trial","84","665332","0.0-2.0-17.0-3.0","battery-v0.2","","""event"",""trial"",""time""
""fullscreenenter"",""1"",""3579""
","
","
","""event"",""trial"",""time""
""fullscreenenter"",""1"",""3579""
","
","","","544.3000000007451","","","20","10834","4997","&#9789;","elianto","#f73b6a7A"," "," ","1","-10","[1396.199999999255]","1","0","4","","","","","","","",""
"pit-trial","85","668617","0.0-2.0-17.0-4.0","battery-v0.2","","""event"",""trial"",""time""
""fullscreenenter"",""1"",""3579""
","
","
","""event"",""trial"",""time""
""fullscreenenter"",""1"",""3579""
","
","","","428.5","","","20","10834","4997","&#9789;","elianto","#f73b6a7A"," "," ","1","0","[1279.7000000029802]","1","0","4","","","","","","","",""
"pit-trial","86","671866","0.0-2.0-17.1-0.1","battery-v0.2","","""event"",""trial"",""time""
""fullscreenenter"",""1"",""3579""
","
","
","""event"",""trial"",""time""
""fullscreenenter"",""1"",""3579""
","
","","","385.19999999925494","","","20","10834","4997","&#9789;","elianto","#f73b6a7A"," "," ","1","0","[1238]","1","0","4","","","","","","","",""
"pit-trial","87","675014","0.0-2.0-17.1-1.1","battery-v0.2","","""event"",""trial"",""time""
""fullscreenenter"",""1"",""3579""
","
","
","""event"",""trial"",""time""
""fullscreenenter"",""1"",""3579""
","
","","","289.30000000074506","","","20","10834","4997","&#9789;","elianto","#f73b6a7A"," "," ","1","0","[1140.5]","1","0","4","","","","","","","",""
"pit-trial","88","678256","0.0-2.0-17.1-2.1","battery-v0.2","","""event"",""trial"",""time""
""fullscreenenter"",""1"",""3579""
","
","
","""event"",""trial"",""time""
""fullscreenenter"",""1"",""3579""
","
","","","384.1000000014901","","","20","10834","4997","&#9789;","elianto","#f73b6a7A"," "," ","1","0","[1236.4000000022352]","1","0","4","","","","","","","",""
"pit-trial","89","681460","0.0-2.0-17.1-3.1","battery-v0.2","","""event"",""trial"",""time""
""fullscreenenter"",""1"",""3579""
","
","
","""event"",""trial"",""time""
""fullscreenenter"",""1"",""3579""
","
","","","350.5999999977648","","","20","10834","4997","&#9789;","elianto","#f73b6a7A"," "," ","1","-10","[1201.0999999977648]","1","0","4","","","","","","","",""
"pit-trial","90","684777","0.0-2.0-17.1-4.1","battery-v0.2","","""event"",""trial"",""time""
""fullscreenenter"",""1"",""3579""
","
","
","""event"",""trial"",""time""
""fullscreenenter"",""1"",""3579""
","
","","","456.70000000298023","","","20","10834","4997","&#9789;","elianto","#f73b6a7A"," "," ","1","0","[1308.300000000745]","1","0","4","","","","","","","",""
"pit-trial","91","688028","0.0-2.0-17.2-0.2","battery-v0.2","","""event"",""trial"",""time""
""fullscreenenter"",""1"",""3579""
","
","
","""event"",""trial"",""time""
""fullscreenenter"",""1"",""3579""
","
","","","392.69999999925494","","","20","10834","4997","&#9789;","elianto","#f73b6a7A"," "," ","1","0","[1245.0999999977648]","1","0","4","","","","","","","",""
"pit-trial","92","691227","0.0-2.0-17.2-1.2","battery-v0.2","","""event"",""trial"",""time""
""fullscreenenter"",""1"",""3579""
","
","
","""event"",""trial"",""time""
""fullscreenenter"",""1"",""3579""
","
","","","337.5","","","20","10834","4997","&#9789;","elianto","#f73b6a7A"," "," ","1","0","[1189.800000000745]","1","0","4","","","","","","","",""
"pit-trial","93","694415","0.0-2.0-17.2-2.2","battery-v0.2","","""event"",""trial"",""time""
""fullscreenenter"",""1"",""3579""
","
","
","""event"",""trial"",""time""
""fullscreenenter"",""1"",""3579""
","
","","","330.70000000298023","","","20","10834","4997","&#9789;","elianto","#f73b6a7A"," "," ","1","0","[1182.300000000745]","1","0","4","","","","","","","",""
"pit-trial","94","697709","0.0-2.0-17.2-3.2","battery-v0.2","","""event"",""trial"",""time""
""fullscreenenter"",""1"",""3579""
","
","
","""event"",""trial"",""time""
""fullscreenenter"",""1"",""3579""
","
","","","435.80000000074506","","","20","10834","4997","&#9789;","elianto","#f73b6a7A"," "," ","1","-10","[1288.5999999977648]","1","0","4","","","","","","","",""
"pit-trial","95","700908","0.0-2.0-17.2-4.2","battery-v0.2","","""event"",""trial"",""time""
""fullscreenenter"",""1"",""3579""
","
","
","""event"",""trial"",""time""
""fullscreenenter"",""1"",""3579""
","
","","","339.19999999925494","","","20","10834","4997","&#9789;","elianto","#f73b6a7A"," "," ","1","0","[1190]","1","0","4","","","","","","","",""
"pit-trial","96","704190","0.0-2.0-17.3-0.3","battery-v0.2","","""event"",""trial"",""time""
""fullscreenenter"",""1"",""3579""
","
","
","""event"",""trial"",""time""
""fullscreenenter"",""1"",""3579""
","
","","","421.5999999977648","","","20","10834","4997","&#9789;","elianto","#f73b6a7A"," "," ","1","0","[1272.9000000022352]","1","0","4","","","","","","","",""
"pit-trial","97","707644","0.0-2.0-17.3-1.3","battery-v0.2","","""event"",""trial"",""time""
""fullscreenenter"",""1"",""3579""
","
","
","""event"",""trial"",""time""
""fullscreenenter"",""1"",""3579""
","
","","","596.0999999977648","","","20","10834","4997","&#9789;","elianto","#f73b6a7A"," "," ","1","0","[1446.6000000014901]","1","0","4","","","","","","","",""
"pit-trial","98","711137","0.0-2.0-17.3-2.3","battery-v0.2","","""event"",""trial"",""time""
""fullscreenenter"",""1"",""3579""
","
","
","""event"",""trial"",""time""
""fullscreenenter"",""1"",""3579""
","
","","","635","","","20","10834","4997","&#9789;","elianto","#f73b6a7A"," "," ","1","0","[1485.8999999985099]","1","0","4","","","","","","","",""
"pit-trial","99","714525","0.0-2.0-17.3-3.3","battery-v0.2","","""event"",""trial"",""time""
""fullscreenenter"",""1"",""3579""
","
","
","""event"",""trial"",""time""
""fullscreenenter"",""1"",""3579""
","
","","","531.4000000022352","","","20","10834","4997","&#9789;","elianto","#f73b6a7A"," "," ","1","-10","[1381.5999999977648]","1","0","4","","","","","","","",""
"pit-trial","100","717901","0.0-2.0-17.3-4.3","battery-v0.2","","""event"",""trial"",""time""
""fullscreenenter"",""1"",""3579""
","
","
","""event"",""trial"",""time""
""fullscreenenter"",""1"",""3579""
","
","","","516.3000000007451","","","20","10834","4997","&#9789;","elianto","#f73b6a7A"," "," ","1","0","[1367.699999999255]","1","0","4","","","","","","","",""
"call-function","101","717905","0.0-2.0-18.0","battery-v0.2","","""event"",""trial"",""time""
""fullscreenenter"",""1"",""3579""
","
","
","""event"",""trial"",""time""
""fullscreenenter"",""1"",""3579""
","
","","","","","","","","","","","","","","","","","","","","","","","","","","",""
"pit-instructions","102","789446","0.0-2.0-19.0","battery-v0.2","","""event"",""trial"",""time""
""fullscreenenter"",""1"",""3579""
","
","
","""event"",""trial"",""time""
""fullscreenenter"",""1"",""3579""
","
","","[{""page_index"":0,""viewing_time"":6905.20000000298},{""page_index"":1,""viewing_time"":5999.89999999851},{""page_index"":2,""viewing_time"":12682.89999999851},{""page_index"":3,""viewing_time"":8500.70000000298},{""page_index"":4,""viewing_time"":8250.699999999255},{""page_index"":5,""viewing_time"":9783.300000000745},{""page_index"":6,""viewing_time"":8966.599999997765},{""page_index"":7,""viewing_time"":6367.400000002235},{""page_index"":8,""viewing_time"":4084.599999997765}]","71542.10000000149","","","","","","","","","","","","","","","","","","","","","","","",""
"pit-comprehension","103","794063","0.0-2.0-20.0-0.0","battery-v0.2","","""event"",""trial"",""time""
""fullscreenenter"",""1"",""3579""
","
","
","""event"",""trial"",""time""
""fullscreenenter"",""1"",""3579""
","
","","","4610","[""SPACE""]","0","20","10834","4997","","","","","","","","","","","","","","","","","","",""
"pit-instructions","104","797162","0.0-2.0-20.0-1.0","battery-v0.2","","""event"",""trial"",""time""
""fullscreenenter"",""1"",""3579""
","
","
","""event"",""trial"",""time""
""fullscreenenter"",""1"",""3579""
","
","","[{""page_index"":0,""viewing_time"":3070.2999999970198}]","3071","","","","","","","","","","","","","","","","","","","","","","","",""
"pit-comprehension","105","802011","0.0-2.0-21.0-0.0","battery-v0.2","","""event"",""trial"",""time""
""fullscreenenter"",""1"",""3579""
","
","
","""event"",""trial"",""time""
""fullscreenenter"",""1"",""3579""
","
","","","4844.099999997765","[""10""]","0","20","10834","4997","","","","","","","","","","","","","","","","","","",""
"pit-instructions","106","807778","0.0-2.0-21.0-1.0","battery-v0.2","","""event"",""trial"",""time""
""fullscreenenter"",""1"",""3579""
","
","
","""event"",""trial"",""time""
""fullscreenenter"",""1"",""3579""
","
","","[{""page_index"":0,""viewing_time"":5738.29999999702}]","5738.79999999702","","","","","","","","","","","","","","","","","","","","","","","",""
"pit-comprehension","107","814496","0.0-2.0-22.0-0.0","battery-v0.2","","""event"",""trial"",""time""
""fullscreenenter"",""1"",""3579""
","
","
","""event"",""trial"",""time""
""fullscreenenter"",""1"",""3579""
","
","","","6713.199999999255","[""0""]","0","20","10834","4997","","","","","","","","","","","","","","","","","","",""
"pit-instructions","108","817578","0.0-2.0-22.0-1.0","battery-v0.2","","""event"",""trial"",""time""
""fullscreenenter"",""1"",""3579""
","
","
","""event"",""trial"",""time""
""fullscreenenter"",""1"",""3579""
","
","","[{""page_index"":0,""viewing_time"":3054.300000000745}]","3054.900000002235","","","","","","","","","","","","","","","","","","","","","","","",""
"pit-comprehension","109","826129","0.0-2.0-23.0-0.0","battery-v0.2","","""event"",""trial"",""time""
""fullscreenenter"",""1"",""3579""
","
","
","""event"",""trial"",""time""
""fullscreenenter"",""1"",""3579""
","
","","","8546","[""True""]","0","20","10834","4997","","","","","","","","","","","","","","","","","","",""
"pit-instructions","110","830294","0.0-2.0-23.0-1.0","battery-v0.2","","""event"",""trial"",""time""
""fullscreenenter"",""1"",""3579""
","
","
","""event"",""trial"",""time""
""fullscreenenter"",""1"",""3579""
","
","","[{""page_index"":0,""viewing_time"":4139.400000002235}]","4139.900000002235","","","","","","","","","","","","","","","","","","","","","","","",""
"pit-comprehension","111","837896","0.0-2.0-24.0-0.0","battery-v0.2","","""event"",""trial"",""time""
""fullscreenenter"",""1"",""3579""
","
","
","""event"",""trial"",""time""
""fullscreenenter"",""1"",""3579""
","
","","","7597.20000000298","[""True""]","0","20","10834","4997","","","","","","","","","","","","","","","","","","",""
"pit-instructions","112","839894","0.0-2.0-24.0-1.0","battery-v0.2","","""event"",""trial"",""time""
""fullscreenenter"",""1"",""3579""
","
","
","""event"",""trial"",""time""
""fullscreenenter"",""1"",""3579""
","
","","[{""page_index"":0,""viewing_time"":1970.0999999977648}]","1970.7999999970198","","","","","","","","","","","","","","","","","","","","","","","",""
"pit-comprehension","113","846796","0.0-2.0-25.0-0.0","battery-v0.2","","""event"",""trial"",""time""
""fullscreenenter"",""1"",""3579""
","
","
","""event"",""trial"",""time""
""fullscreenenter"",""1"",""3579""
","
","","","6896.79999999702","[""True""]","0","20","10834","4997","","","","","","","","","","","","","","","","","","",""
"pit-instructions","114","849043","0.0-2.0-25.0-1.0","battery-v0.2","","""event"",""trial"",""time""
""fullscreenenter"",""1"",""3579""
","
","
","""event"",""trial"",""time""
""fullscreenenter"",""1"",""3579""
","
","","[{""page_index"":0,""viewing_time"":2219.800000000745}]","2220.400000002235","","","","","","","","","","","","","","","","","","","","","","","",""
"pit-comprehension","115","853811","0.0-2.0-26.0-0.0","battery-v0.2","","""event"",""trial"",""time""
""fullscreenenter"",""1"",""3579""
","
","
","""event"",""trial"",""time""
""fullscreenenter"",""1"",""3579""
","
","","","4763.10000000149","[""False""]","0","20","10834","4997","","","","","","","","","","","","","","","","","","",""
"pit-instructions","116","855961","0.0-2.0-26.0-1.0","battery-v0.2","","""event"",""trial"",""time""
""fullscreenenter"",""1"",""3579""
","
","
","""event"",""trial"",""time""
""fullscreenenter"",""1"",""3579""
","
","","[{""page_index"":0,""viewing_time"":2122.10000000149}]","2122.699999999255","","","","","","","","","","","","","","","","","","","","","","","",""
"pit-instructions","117","872547","0.0-3.0","battery-v0.2","","""event"",""trial"",""time""
""fullscreenenter"",""1"",""3579""
","
","
","""event"",""trial"",""time""
""fullscreenenter"",""1"",""3579""
","
","","[{""page_index"":0,""viewing_time"":3778.39999999851},{""page_index"":1,""viewing_time"":5234.10000000149},{""page_index"":2,""viewing_time"":7570.199999999255}]","16583.199999999255","","","","","","","","","","","","","","","","","","","","","","","",""
"pit-trial","118","876467","0.0-4.0","battery-v0.2","","""event"",""trial"",""time""
""fullscreenenter"",""1"",""3579""
","
","
","""event"",""trial"",""time""
""fullscreenenter"",""1"",""3579""
","
","","","1054.4000000022352","","","20","10834","4997","&#9733;","elianto","#3366ff99","-1"," ","0","0","[1908.300000000745]","1","1","","","10834","1","2","2","win","no-go","0"
"pit-trial","119","880335","0.0-5.0","battery-v0.2","","""event"",""trial"",""time""
""fullscreenenter"",""1"",""3579""
","
","
","""event"",""trial"",""time""
""fullscreenenter"",""1"",""3579""
","
","","","1007.1000000014901","","","20","10834","4997","&#9752;","elianto","#f73b6a7A"," "," ","1","-10","[1858.300000000745]","1","1","","","10834","2","3","3","lose","go","1"
"pit-trial","120","884319","0.0-6.0","battery-v0.2","","""event"",""trial"",""time""
""fullscreenenter"",""1"",""3579""
","
","
","""event"",""trial"",""time""
""fullscreenenter"",""1"",""3579""
","
","","","1128.8999999985099","","","20","10834","4997","&#9730;","elianto","#3366ff99"," "," ","1","+10","[1979.2999999970198]","1","1","","","10834","3","1","1","win","go","0"
"pit-trial","121","888549","0.0-7.0","battery-v0.2","","""event"",""trial"",""time""
""fullscreenenter"",""1"",""3579""
","
","
","""event"",""trial"",""time""
""fullscreenenter"",""1"",""3579""
","
","","","1375.5","","","20","10834","4997","&#9728;","elianto","#f73b6a7A","-1"," ","0","-10","[2225.89999999851]","1","1","","","10834","4","0","4","lose","no-go","0"
"pit-trial","122","893414","0.0-8.0","battery-v0.2","","""event"",""trial"",""time""
""fullscreenenter"",""1"",""3579""
","
","
","""event"",""trial"",""time""
""fullscreenenter"",""1"",""3579""
","
","","","-1","","","20","10834","4997","&#9752;","elianto","#f73b6a7A"," ","-1","0","-10","[]","0","1","","","10834","5","3","3","lose","go","0"
"pit-trial","123","897725","0.0-9.0","battery-v0.2","","""event"",""trial"",""time""
""fullscreenenter"",""1"",""3579""
","
","
","""event"",""trial"",""time""
""fullscreenenter"",""1"",""3579""
","
","","","1450.199999999255","","","20","10834","4997","&#9730;","elianto","#3366ff99"," "," ","1","+10","[2301.89999999851]","1","1","","","10834","6","1","1","win","go","0"
"pit-trial","124","902587","0.0-10.0","battery-v0.2","","""event"",""trial"",""time""
""fullscreenenter"",""1"",""3579""
","
","
","""event"",""trial"",""time""
""fullscreenenter"",""1"",""3579""
","
","","","-1","","","20","10834","4997","&#9728;","elianto","#f73b6a7A","-1","-1","1","0","[]","0","1","","","10834","7","0","4","lose","no-go","0"
"pit-trial","125","906852","0.0-11.0","battery-v0.2","","""event"",""trial"",""time""
""fullscreenenter"",""1"",""3579""
","
","
","""event"",""trial"",""time""
""fullscreenenter"",""1"",""3579""
","
","","","1409","","","20","10834","4997","&#9733;","elianto","#3366ff99","-1"," ","0","0","[2259.89999999851]","1","1","","","10834","8","2","2","win","no-go","0"
"pit-trial","126","911715","0.0-12.0","battery-v0.2","","""event"",""trial"",""time""
""fullscreenenter"",""1"",""3579""
","
","
","""event"",""trial"",""time""
""fullscreenenter"",""1"",""3579""
","
","","","-1","","","20","10834","4997","&#9733;","elianto","#3366ff99","-1","-1","1","+10","[]","0","1","","","10834","9","2","2","win","no-go","0"
"pit-trial","127","915868","0.0-13.0","battery-v0.2","","""event"",""trial"",""time""
""fullscreenenter"",""1"",""3579""
","
","
","""event"",""trial"",""time""
""fullscreenenter"",""1"",""3579""
","
","","","1291","","","20","10834","4997","&#9752;","elianto","#f73b6a7A"," "," ","1","0","[2144.7000000029802]","1","1","","","10834","10","3","3","lose","go","0"
"pit-trial","128","920723","0.0-14.0","battery-v0.2","","""event"",""trial"",""time""
""fullscreenenter"",""1"",""3579""
","
","
","""event"",""trial"",""time""
""fullscreenenter"",""1"",""3579""
","
","","","-1","","","20","10834","4997","&#9728;","elianto","#f73b6a7A","-1","-1","1","-10","[]","0","1","","","10834","11","0","4","lose","no-go","1"
"pit-trial","129","924925","0.0-15.0","battery-v0.2","","""event"",""trial"",""time""
""fullscreenenter"",""1"",""3579""
","
","
","""event"",""trial"",""time""
""fullscreenenter"",""1"",""3579""
","
","","","1345.5999999977648","","","20","10834","4997","&#9730;","elianto","#3366ff99"," "," ","1","+10","[2197.300000000745]","1","1","","","10834","12","1","1","win","go","0"
"pit-trial","130","929439","0.0-16.0","battery-v0.2","","""event"",""trial"",""time""
""fullscreenenter"",""1"",""3579""
","
","
","""event"",""trial"",""time""
""fullscreenenter"",""1"",""3579""
","
","","","1653.800000000745","","","20","10834","4997","&#9733;","elianto","#3366ff99","-1"," ","0","0","[2504.300000000745]","1","1","","","10834","13","2","2","win","no-go","0"
"pit-trial","131","933256","0.0-17.0","battery-v0.2","","""event"",""trial"",""time""
""fullscreenenter"",""1"",""3579""
","
","
","""event"",""trial"",""time""
""fullscreenenter"",""1"",""3579""
","
","","","956.1999999992549","","","20","10834","4997","&#9730;","elianto","#3366ff99"," "," ","1","+10","[1808.300000000745]","1","1","","","10834","14","1","1","win","go","0"
"pit-trial","132","936900","0.0-18.0","battery-v0.2","","""event"",""trial"",""time""
""fullscreenenter"",""1"",""3579""
","
","
","""event"",""trial"",""time""
""fullscreenenter"",""1"",""3579""
","
","","","786.5","","","20","10834","4997","&#9752;","elianto","#f73b6a7A"," "," ","1","0","[1638]","1","1","","","10834","15","3","3","lose","go","0"
"pit-trial","133","941764","0.0-19.0","battery-v0.2","","""event"",""trial"",""time""
""fullscreenenter"",""1"",""3579""
","
","
","""event"",""trial"",""time""
""fullscreenenter"",""1"",""3579""
","
","","","-1","","","20","10834","4997","&#9728;","elianto","#f73b6a7A","-1","-1","1","0","[2983.300000000745]","1","1","","","10834","16","0","4","lose","no-go","0"
"pit-trial","134","945714","0.0-20.0","battery-v0.2","","""event"",""trial"",""time""
""fullscreenenter"",""1"",""3579""
","
","
","""event"",""trial"",""time""
""fullscreenenter"",""1"",""3579""
","
","","","1090.5","","","20","10834","4997","&#9752;","elianto","#f73b6a7A"," "," ","1","0","[1941.0999999977648]","1","1","","","10834","17","3","3","lose","go","0"
"pit-trial","135","949303","0.0-21.0","battery-v0.2","","""event"",""trial"",""time""
""fullscreenenter"",""1"",""3579""
","
","
","""event"",""trial"",""time""
""fullscreenenter"",""1"",""3579""
","
","","","726.9000000022352","","","20","10834","4997","&#9730;","elianto","#3366ff99"," "," ","1","0","[1580.5]","1","1","","","10834","18","1","1","win","go","1"
"pit-trial","136","954161","0.0-22.0","battery-v0.2","","""event"",""trial"",""time""
""fullscreenenter"",""1"",""3579""
","
","
","""event"",""trial"",""time""
""fullscreenenter"",""1"",""3579""
","
","","","-1","","","20","10834","4997","&#9733;","elianto","#3366ff99","-1","-1","1","+10","[]","0","1","","","10834","19","2","2","win","no-go","0"
"pit-trial","137","959021","0.0-23.0","battery-v0.2","","""event"",""trial"",""time""
""fullscreenenter"",""1"",""3579""
","
","
","""event"",""trial"",""time""
""fullscreenenter"",""1"",""3579""
","
","","","-1","","","20","10834","4997","&#9728;","elianto","#f73b6a7A","-1","-1","1","-10","[]","0","1","","","10834","20","0","4","lose","no-go","1"
"pit-instructions","138","972212","0.0-24.0","battery-v0.2","","""event"",""trial"",""time""
""fullscreenenter"",""1"",""3579""
","
","
","""event"",""trial"",""time""
""fullscreenenter"",""1"",""3579""
","
","","[{""page_index"":0,""viewing_time"":6154.89999999851},{""page_index"":1,""viewing_time"":7033.900000002235}]","13189.599999997765","","","","","","","","","","","","","","","","","","","","","","","",""
"pit-trial","139","975935","0.0-25.0","battery-v0.2","","""event"",""trial"",""time""
""fullscreenenter"",""1"",""3579""
","
","
","""event"",""trial"",""time""
""fullscreenenter"",""1"",""3579""
","
","","","863.5","","","20","10834","4997","f","elianto","#3366ff99","-1"," ","0","0","[1713.5]","1","2","","","10834","21","1","2","win","no-go","0"
"pit-trial","140","980796","0.0-26.0","battery-v0.2","","""event"",""trial"",""time""
""fullscreenenter"",""1"",""3579""
","
","
","""event"",""trial"",""time""
""fullscreenenter"",""1"",""3579""
","
","","","-1","","","20","10834","4997","t","elianto","#f73b6a7A"," ","-1","0","-10","[]","0","2","","","10834","22","2","3","lose","go","0"
"pit-trial","141","984790","0.0-27.0","battery-v0.2","","""event"",""trial"",""time""
""fullscreenenter"",""1"",""3579""
","
","
","""event"",""trial"",""time""
""fullscreenenter"",""1"",""3579""
","
","","","1134.7000000029802","","","20","10834","4997","b","elianto","#f73b6a7A","-1"," ","0","-10","[1986.2999999970198]","1","2","","","10834","23","3","4","lose","no-go","0"
"pit-trial","142","988798","0.0-28.0","battery-v0.2","","""event"",""trial"",""time""
""fullscreenenter"",""1"",""3579""
","
","
","""event"",""trial"",""time""
""fullscreenenter"",""1"",""3579""
","
","","","1151.4000000022352","","","20","10834","4997","n","elianto","#f73b6a7A"," "," ","1","0","[2002.7000000029802]","1","2","","","10834","24","0","3","lose","go","0"
"pit-trial","143","993356","0.0-29.0","battery-v0.2","","""event"",""trial"",""time""
""fullscreenenter"",""1"",""3579""
","
","
","""event"",""trial"",""time""
""fullscreenenter"",""1"",""3579""
","
","","","1696.4000000022352","","","20","10834","4997","f","elianto","#3366ff99","-1"," ","0","0","[2549.5]","1","2","","","10834","25","1","2","win","no-go","0"
"pit-trial","144","998219","0.0-30.0","battery-v0.2","","""event"",""trial"",""time""
""fullscreenenter"",""1"",""3579""
","
","
","""event"",""trial"",""time""
""fullscreenenter"",""1"",""3579""
","
","","","-1","","","20","10834","4997","t","elianto","#f73b6a7A"," ","-1","0","0","[]","0","2","","","10834","26","2","3","lose","go","1"
"pit-trial","145","1002397","0.0-31.0","battery-v0.2","","""event"",""trial"",""time""
""fullscreenenter"",""1"",""3579""
","
","
","""event"",""trial"",""time""
""fullscreenenter"",""1"",""3579""
","
","","","1319.2999999970198","","","20","10834","4997","b","elianto","#f73b6a7A","-1"," ","0","-10","[2170.199999999255]","1","2","","","10834","27","3","4","lose","no-go","0"
"pit-trial","146","1007260","0.0-32.0","battery-v0.2","","""event"",""trial"",""time""
""fullscreenenter"",""1"",""3579""
","
","
","""event"",""trial"",""time""
""fullscreenenter"",""1"",""3579""
","
","","","-1","","","20","10834","4997","n","elianto","#f73b6a7A"," ","-1","0","0","[]","0","2","","","10834","28","0","3","lose","go","1"
"pit-trial","147","1012123","0.0-33.0","battery-v0.2","","""event"",""trial"",""time""
""fullscreenenter"",""1"",""3579""
","
","
","""event"",""trial"",""time""
""fullscreenenter"",""1"",""3579""
","
","","","-1","","","20","10834","4997","b","elianto","#f73b6a7A","-1","-1","1","0","[]","0","2","","","10834","29","3","4","lose","no-go","0"
"pit-trial","148","1016983","0.0-34.0","battery-v0.2","","""event"",""trial"",""time""
""fullscreenenter"",""1"",""3579""
","
","
","""event"",""trial"",""time""
""fullscreenenter"",""1"",""3579""
","
","","","-1","","","20","10834","4997","n","elianto","#f73b6a7A"," ","-1","0","-10","[]","0","2","","","10834","30","0","3","lose","go","0"
"pit-trial","149","1020685","0.0-35.0","battery-v0.2","","""event"",""trial"",""time""
""fullscreenenter"",""1"",""3579""
","
","
","""event"",""trial"",""time""
""fullscreenenter"",""1"",""3579""
","
","","","839","","","20","10834","4997","f","elianto","#3366ff99","-1"," ","0","+10","[1693]","1","2","","","10834","31","1","2","win","no-go","1"
"pit-trial","150","1025549","0.0-36.0","battery-v0.2","","""event"",""trial"",""time""
""fullscreenenter"",""1"",""3579""
","
","
","""event"",""trial"",""time""
""fullscreenenter"",""1"",""3579""
","
","","","-1","","","20","10834","4997","t","elianto","#f73b6a7A"," ","-1","0","-10","[]","0","2","","","10834","32","2","3","lose","go","0"
"pit-trial","151","1029992","0.0-37.0","battery-v0.2","","""event"",""trial"",""time""
""fullscreenenter"",""1"",""3579""
","
","
","""event"",""trial"",""time""
""fullscreenenter"",""1"",""3579""
","
","","","1582.0999999977648","","","20","10834","4997","f","elianto","#3366ff99","-1"," ","0","+10","[2434.199999999255]","1","2","","","10834","33","1","2","win","no-go","1"
"pit-trial","152","1034440","0.0-38.0","battery-v0.2","","""event"",""trial"",""time""
""fullscreenenter"",""1"",""3579""
","
","
","""event"",""trial"",""time""
""fullscreenenter"",""1"",""3579""
","
","","","1590.0999999977648","","","20","10834","4997","b","elianto","#f73b6a7A","-1"," ","0","-10","[2443.89999999851]","1","2","","","10834","34","3","4","lose","no-go","0"
"pit-trial","153","1038758","0.0-39.0","battery-v0.2","","""event"",""trial"",""time""
""fullscreenenter"",""1"",""3579""
","
","
","""event"",""trial"",""time""
""fullscreenenter"",""1"",""3579""
","
","","","1458.800000000745","","","20","10834","4997","n","elianto","#f73b6a7A"," "," ","1","0","[2310]","1","2","","","10834","35","0","3","lose","go","0"
"pit-trial","154","1043619","0.0-40.0","battery-v0.2","","""event"",""trial"",""time""
""fullscreenenter"",""1"",""3579""
","
","
","""event"",""trial"",""time""
""fullscreenenter"",""1"",""3579""
","
","","","-1","","","20","10834","4997","t","elianto","#f73b6a7A"," ","-1","0","-10","[]","0","2","","","10834","36","2","3","lose","go","0"
"pit-trial","155","1047315","0.0-41.0","battery-v0.2","","""event"",""trial"",""time""
""fullscreenenter"",""1"",""3579""
","
","
","""event"",""trial"",""time""
""fullscreenenter"",""1"",""3579""
","
","","","839.3999999985099","","","20","10834","4997","f","elianto","#3366ff99","-1"," ","0","0","[1690.8999999985099]","1","2","","","10834","37","1","2","win","no-go","0"
"pit-trial","156","1052179","0.0-42.0","battery-v0.2","","""event"",""trial"",""time""
""fullscreenenter"",""1"",""3579""
","
","
","""event"",""trial"",""time""
""fullscreenenter"",""1"",""3579""
","
","","","-1","","","20","10834","4997","b","elianto","#f73b6a7A","-1","-1","1","0","[]","0","2","","","10834","38","3","4","lose","no-go","0"
"pit-trial","157","1056154","0.0-43.0","battery-v0.2","","""event"",""trial"",""time""
""fullscreenenter"",""1"",""3579""
","
","
","""event"",""trial"",""time""
""fullscreenenter"",""1"",""3579""
","
","","","1113.199999999255","","","20","10834","4997","t","elianto","#f73b6a7A"," "," ","1","-10","[1965.8999999985099]","1","2","","","10834","39","2","3","lose","go","1"
"pit-trial","158","1060652","0.0-44.0","battery-v0.2","","""event"",""trial"",""time""
""fullscreenenter"",""1"",""3579""
","
","
","""event"",""trial"",""time""
""fullscreenenter"",""1"",""3579""
","
","","","1642.6000000014901","","","20","10834","4997","n","elianto","#f73b6a7A"," "," ","1","0","[2493.800000000745]","1","2","","","10834","40","0","3","lose","go","0"
"pit-trial","159","1065514","0.0-45.0","battery-v0.2","","""event"",""trial"",""time""
""fullscreenenter"",""1"",""3579""
","
","
","""event"",""trial"",""time""
""fullscreenenter"",""1"",""3579""
","
","","","-1","","","20","10834","4997","n","elianto","#f73b6a7A"," ","-1","0","-10","[]","0","2","","","10834","41","0","3","lose","go","0"
"pit-trial","160","1069197","0.0-46.0","battery-v0.2","","""event"",""trial"",""time""
""fullscreenenter"",""1"",""3579""
","
","
","""event"",""trial"",""time""
""fullscreenenter"",""1"",""3579""
","
","","","826.1000000014901","","","20","10834","4997","f","elianto","#3366ff99","-1"," ","0","0","[1677.5999999977648]","1","2","","","10834","42","1","2","win","no-go","0"
"pit-trial","161","1073139","0.0-47.0","battery-v0.2","","""event"",""trial"",""time""
""fullscreenenter"",""1"",""3579""
","
","
","""event"",""trial"",""time""
""fullscreenenter"",""1"",""3579""
","
","","","1079.9000000022352","","","20","10834","4997","t","elianto","#f73b6a7A"," "," ","1","-10","[1932.3999999985099]","1","2","","","10834","43","2","3","lose","go","1"
"pit-trial","162","1077320","0.0-48.0","battery-v0.2","","""event"",""trial"",""time""
""fullscreenenter"",""1"",""3579""
","
","
","""event"",""trial"",""time""
""fullscreenenter"",""1"",""3579""
","
","","","1320.8999999985099","","","20","10834","4997","b","elianto","#f73b6a7A","-1"," ","0","-10","[2172.5]","1","2","","","10834","44","3","4","lose","no-go","0"
"pit-trial","163","1081459","0.0-49.0","battery-v0.2","","""event"",""trial"",""time""
""fullscreenenter"",""1"",""3579""
","
","
","""event"",""trial"",""time""
""fullscreenenter"",""1"",""3579""
","
","","","1282.7000000029802","","","20","10834","4997","n","elianto","#f73b6a7A"," "," ","1","-10","[2135.2000000029802]","1","2","","","10834","45","0","3","lose","go","1"
"pit-trial","164","1086323","0.0-50.0","battery-v0.2","","""event"",""trial"",""time""
""fullscreenenter"",""1"",""3579""
","
","
","""event"",""trial"",""time""
""fullscreenenter"",""1"",""3579""
","
","","","-1","","","20","10834","4997","t","elianto","#f73b6a7A"," ","-1","0","-10","[]","0","2","","","10834","46","2","3","lose","go","0"
"pit-trial","165","1091186","0.0-51.0","battery-v0.2","","""event"",""trial"",""time""
""fullscreenenter"",""1"",""3579""
","
","
","""event"",""trial"",""time""
""fullscreenenter"",""1"",""3579""
","
","","","-1","","","20","10834","4997","b","elianto","#f73b6a7A","-1","-1","1","0","[]","0","2","","","10834","47","3","4","lose","no-go","0"
"pit-trial","166","1094893","0.0-52.0","battery-v0.2","","""event"",""trial"",""time""
""fullscreenenter"",""1"",""3579""
","
","
","""event"",""trial"",""time""
""fullscreenenter"",""1"",""3579""
","
","","","847.7999999970198","","","20","10834","4997","f","elianto","#3366ff99","-1"," ","0","+10","[1698.2999999970198]","1","2","","","10834","48","1","2","win","no-go","1"
"pit-trial","167","1099237","0.0-53.0","battery-v0.2","","""event"",""trial"",""time""
""fullscreenenter"",""1"",""3579""
","
","
","""event"",""trial"",""time""
""fullscreenenter"",""1"",""3579""
","
","","","1483.699999999255","","","20","10834","4997","b","elianto","#f73b6a7A","-1"," ","0","-10","[2336.60000000149]","1","2","","","10834","49","3","4","lose","no-go","0"
"pit-trial","168","1103072","0.0-54.0","battery-v0.2","","""event"",""trial"",""time""
""fullscreenenter"",""1"",""3579""
","
","
","""event"",""trial"",""time""
""fullscreenenter"",""1"",""3579""
","
","","","976.1999999992549","","","20","10834","4997","n","elianto","#f73b6a7A"," "," ","1","-10","[1827.8999999985099]","1","2","","","10834","50","0","3","lose","go","1"
"pit-trial","169","1106639","0.0-55.0","battery-v0.2","","""event"",""trial"",""time""
""fullscreenenter"",""1"",""3579""
","
","
","""event"",""trial"",""time""
""fullscreenenter"",""1"",""3579""
","
","","","706.4000000022352","","","20","10834","4997","f","elianto","#3366ff99","-1"," ","0","0","[1557.9000000022352]","1","2","","","10834","51","1","2","win","no-go","0"
"pit-trial","170","1111503","0.0-56.0","battery-v0.2","","""event"",""trial"",""time""
""fullscreenenter"",""1"",""3579""
","
","
","""event"",""trial"",""time""
""fullscreenenter"",""1"",""3579""
","
","","","-1","","","20","10834","4997","t","elianto","#f73b6a7A"," ","-1","0","-10","[]","0","2","","","10834","52","2","3","lose","go","0"
"pit-trial","171","1115786","0.0-57.0","battery-v0.2","","""event"",""trial"",""time""
""fullscreenenter"",""1"",""3579""
","
","
","""event"",""trial"",""time""
""fullscreenenter"",""1"",""3579""
","
","","","1422.8999999985099","","","20","10834","4997","t","elianto","#f73b6a7A"," "," ","1","0","[2273.800000000745]","1","2","","","10834","53","2","3","lose","go","0"
"pit-trial","172","1119408","0.0-58.0","battery-v0.2","","""event"",""trial"",""time""
""fullscreenenter"",""1"",""3579""
","
","
","""event"",""trial"",""time""
""fullscreenenter"",""1"",""3579""
","
","","","765.5","","","20","10834","4997","f","elianto","#3366ff99","-1"," ","0","0","[1616.2000000029802]","1","2","","","10834","54","1","2","win","no-go","0"
"pit-trial","173","1124272","0.0-59.0","battery-v0.2","","""event"",""trial"",""time""
""fullscreenenter"",""1"",""3579""
","
","
","""event"",""trial"",""time""
""fullscreenenter"",""1"",""3579""
","
","","","-1","","","20","10834","4997","b","elianto","#f73b6a7A","-1","-1","1","0","[]","0","2","","","10834","55","3","4","lose","no-go","0"
"pit-trial","174","1129137","0.0-60.0","battery-v0.2","","""event"",""trial"",""time""
""fullscreenenter"",""1"",""3579""
","
","
","""event"",""trial"",""time""
""fullscreenenter"",""1"",""3579""
","
","","","-1","","","20","10834","4997","n","elianto","#f73b6a7A"," ","-1","0","-10","[2939]","1","2","","","10834","56","0","3","lose","go","0"
"pit-trial","175","1133317","0.0-61.0","battery-v0.2","","""event"",""trial"",""time""
""fullscreenenter"",""1"",""3579""
","
","
","""event"",""trial"",""time""
""fullscreenenter"",""1"",""3579""
","
","","","1321.300000000745","","","20","10834","4997","c","elianto","#3366ff99"," "," ","1","0","[2171.900000002235]","1","2","","","10834","57","4","1","win","go","1"
"pit-trial","176","1137992","0.0-62.0","battery-v0.2","","""event"",""trial"",""time""
""fullscreenenter"",""1"",""3579""
","
","
","""event"",""trial"",""time""
""fullscreenenter"",""1"",""3579""
","
","","","1816.300000000745","","","20","10834","4997","n","elianto","#f73b6a7A"," "," ","1","0","[2667.7000000029802]","1","2","","","10834","58","0","3","lose","go","0"
"pit-trial","177","1142856","0.0-63.0","battery-v0.2","","""event"",""trial"",""time""
""fullscreenenter"",""1"",""3579""
","
","
","""event"",""trial"",""time""
""fullscreenenter"",""1"",""3579""
","
","","","-1","","","20","10834","4997","b","elianto","#f73b6a7A","-1","-1","1","0","[]","0","2","","","10834","59","3","4","lose","no-go","0"
"pit-trial","178","1147407","0.0-64.0","battery-v0.2","","""event"",""trial"",""time""
""fullscreenenter"",""1"",""3579""
","
","
","""event"",""trial"",""time""
""fullscreenenter"",""1"",""3579""
","
","","","1692.0999999977648","","","20","10834","4997","t","elianto","#f73b6a7A"," "," ","1","-10","[2543.099999997765]","1","2","","","10834","60","2","3","lose","go","1"
"pit-trial","179","1151128","0.0-65.0","battery-v0.2","","""event"",""trial"",""time""
""fullscreenenter"",""1"",""3579""
","
","
","""event"",""trial"",""time""
""fullscreenenter"",""1"",""3579""
","
","","","863.6000000014901","","","20","10834","4997","f","elianto","#3366ff99","-1"," ","0","0","[1714.199999999255]","1","2","","","10834","61","1","2","win","no-go","0"
"pit-trial","180","1155738","0.0-66.0","battery-v0.2","","""event"",""trial"",""time""
""fullscreenenter"",""1"",""3579""
","
","
","""event"",""trial"",""time""
""fullscreenenter"",""1"",""3579""
","
","","","1748.0999999977648","","","20","10834","4997","b","elianto","#f73b6a7A","-1"," ","0","-10","[2600.800000000745]","1","2","","","10834","62","3","4","lose","no-go","0"
"pit-trial","181","1160603","0.0-67.0","battery-v0.2","","""event"",""trial"",""time""
""fullscreenenter"",""1"",""3579""
","
","
","""event"",""trial"",""time""
""fullscreenenter"",""1"",""3579""
","
","","","-1","","","20","10834","4997","t","elianto","#f73b6a7A"," ","-1","0","-10","[]","0","2","","","10834","63","2","3","lose","go","0"
"pit-trial","182","1164828","0.0-68.0","battery-v0.2","","""event"",""trial"",""time""
""fullscreenenter"",""1"",""3579""
","
","
","""event"",""trial"",""time""
""fullscreenenter"",""1"",""3579""
","
","","","1368.9000000022352","","","20","10834","4997","c","elianto","#3366ff99"," "," ","1","+10","[2219.699999999255]","1","2","","","10834","64","4","1","win","go","0"
"pit-trial","183","1169693","0.0-69.0","battery-v0.2","","""event"",""trial"",""time""
""fullscreenenter"",""1"",""3579""
","
","
","""event"",""trial"",""time""
""fullscreenenter"",""1"",""3579""
","
","","","-1","","","20","10834","4997","b","elianto","#f73b6a7A","-1","-1","1","0","[]","0","2","","","10834","65","3","4","lose","no-go","0"
"pit-trial","184","1173706","0.0-70.0","battery-v0.2","","""event"",""trial"",""time""
""fullscreenenter"",""1"",""3579""
","
","
","""event"",""trial"",""time""
""fullscreenenter"",""1"",""3579""
","
","","","1154","","","20","10834","4997","c","elianto","#3366ff99"," "," ","1","+10","[2006.5]","1","2","","","10834","66","4","1","win","go","0"
"pit-trial","185","1177277","0.0-71.0","battery-v0.2","","""event"",""trial"",""time""
""fullscreenenter"",""1"",""3579""
","
","
","""event"",""trial"",""time""
""fullscreenenter"",""1"",""3579""
","
","","","712.3999999985099","","","20","10834","4997","f","elianto","#3366ff99","-1"," ","0","0","[1563.300000000745]","1","2","","","10834","67","1","2","win","no-go","0"
"pit-trial","186","1181919","0.0-72.0","battery-v0.2","","""event"",""trial"",""time""
""fullscreenenter"",""1"",""3579""
","
","
","""event"",""trial"",""time""
""fullscreenenter"",""1"",""3579""
","
","","","1782.2000000029802","","","20","10834","4997","z","elianto","#3366ff99","-1"," ","0","0","[2632.89999999851]","1","2","","","10834","68","5","2","win","no-go","0"
"pit-trial","187","1185902","0.0-73.0","battery-v0.2","","""event"",""trial"",""time""
""fullscreenenter"",""1"",""3579""
","
","
","""event"",""trial"",""time""
""fullscreenenter"",""1"",""3579""
","
","","","1126.5","","","20","10834","4997","f","elianto","#3366ff99","-1"," ","0","0","[1977.0999999977648]","1","2","","","10834","69","1","2","win","no-go","0"
"pit-trial","188","1190764","0.0-74.0","battery-v0.2","","""event"",""trial"",""time""
""fullscreenenter"",""1"",""3579""
","
","
","""event"",""trial"",""time""
""fullscreenenter"",""1"",""3579""
","
","","","-1","","","20","10834","4997","z","elianto","#3366ff99","-1","-1","1","+10","[]","0","2","","","10834","70","5","2","win","no-go","0"
"pit-trial","189","1195272","0.0-75.0","battery-v0.2","","""event"",""trial"",""time""
""fullscreenenter"",""1"",""3579""
","
","
","""event"",""trial"",""time""
""fullscreenenter"",""1"",""3579""
","
","","","1652.699999999255","","","20","10834","4997","c","elianto","#3366ff99"," "," ","1","+10","[2503.60000000149]","1","2","","","10834","71","4","1","win","go","0"
"pit-trial","190","1200136","0.0-76.0","battery-v0.2","","""event"",""trial"",""time""
""fullscreenenter"",""1"",""3579""
","
","
","""event"",""trial"",""time""
""fullscreenenter"",""1"",""3579""
","
","","","-1","","","20","10834","4997","t","elianto","#f73b6a7A"," ","-1","0","-10","[]","0","2","","","10834","72","2","3","lose","go","0"
"pit-trial","191","1204995","0.0-77.0","battery-v0.2","","""event"",""trial"",""time""
""fullscreenenter"",""1"",""3579""
","
","
","""event"",""trial"",""time""
""fullscreenenter"",""1"",""3579""
","
","","","-1","","","20","10834","4997","f","elianto","#3366ff99","-1","-1","1","+10","[]","0","2","","","10834","73","1","2","win","no-go","0"
"pit-trial","192","1209249","0.0-78.0","battery-v0.2","","""event"",""trial"",""time""
""fullscreenenter"",""1"",""3579""
","
","
","""event"",""trial"",""time""
""fullscreenenter"",""1"",""3579""
","
","","","1393.5","","","20","10834","4997","b","elianto","#f73b6a7A","-1"," ","0","-10","[2246.7000000029802]","1","2","","","10834","74","3","4","lose","no-go","0"
"pit-trial","193","1213092","0.0-79.0","battery-v0.2","","""event"",""trial"",""time""
""fullscreenenter"",""1"",""3579""
","
","
","""event"",""trial"",""time""
""fullscreenenter"",""1"",""3579""
","
","","","985","","","20","10834","4997","z","elianto","#3366ff99","-1"," ","0","0","[1836.0999999977648]","1","2","","","10834","75","5","2","win","no-go","0"
"pit-trial","194","1217724","0.0-80.0","battery-v0.2","","""event"",""trial"",""time""
""fullscreenenter"",""1"",""3579""
","
","
","""event"",""trial"",""time""
""fullscreenenter"",""1"",""3579""
","
","","","1770.3999999985099","","","20","10834","4997","c","elianto","#3366ff99"," "," ","1","+10","[2622.300000000745]","1","2","","","10834","76","4","1","win","go","0"
"pit-trial","195","1222486","0.0-81.0","battery-v0.2","","""event"",""trial"",""time""
""fullscreenenter"",""1"",""3579""
","
","
","""event"",""trial"",""time""
""fullscreenenter"",""1"",""3579""
","
","","","1901.4000000022352","","","20","10834","4997","z","elianto","#3366ff99","-1"," ","0","0","[2753.60000000149]","1","2","","","10834","77","5","2","win","no-go","0"
"pit-trial","196","1227343","0.0-82.0","battery-v0.2","","""event"",""trial"",""time""
""fullscreenenter"",""1"",""3579""
","
","
","""event"",""trial"",""time""
""fullscreenenter"",""1"",""3579""
","
","","","-1","","","20","10834","4997","c","elianto","#3366ff99"," ","-1","0","0","[]","0","2","","","10834","78","4","1","win","go","0"
"pit-trial","197","1231244","0.0-83.0","battery-v0.2","","""event"",""trial"",""time""
""fullscreenenter"",""1"",""3579""
","
","
","""event"",""trial"",""time""
""fullscreenenter"",""1"",""3579""
","
","","","1040.1000000014901","","","20","10834","4997","c","elianto","#3366ff99"," "," ","1","0","[1892.5]","1","2","","","10834","79","4","1","win","go","1"
"pit-trial","198","1236109","0.0-84.0","battery-v0.2","","""event"",""trial"",""time""
""fullscreenenter"",""1"",""3579""
","
","
","""event"",""trial"",""time""
""fullscreenenter"",""1"",""3579""
","
","","","-1","","","20","10834","4997","b","elianto","#f73b6a7A","-1","-1","1","0","[]","0","2","","","10834","80","3","4","lose","no-go","0"
"pit-trial","199","1240160","0.0-85.0","battery-v0.2","","""event"",""trial"",""time""
""fullscreenenter"",""1"",""3579""
","
","
","""event"",""trial"",""time""
""fullscreenenter"",""1"",""3579""
","
","","","1189.2000000029802","","","20","10834","4997","y","elianto","#f73b6a7A","-1"," ","0","-10","[2042.2000000029802]","1","2","","","10834","81","7","4","lose","no-go","0"
"pit-trial","200","1245025","0.0-86.0","battery-v0.2","","""event"",""trial"",""time""
""fullscreenenter"",""1"",""3579""
","
","
","""event"",""trial"",""time""
""fullscreenenter"",""1"",""3579""
","
","","","-1","","","20","10834","4997","z","elianto","#3366ff99","-1","-1","1","+10","[]","0","2","","","10834","82","5","2","win","no-go","0"
"pit-trial","201","1249890","0.0-87.0","battery-v0.2","","""event"",""trial"",""time""
""fullscreenenter"",""1"",""3579""
","
","
","""event"",""trial"",""time""
""fullscreenenter"",""1"",""3579""
","
","","","-1","","","20","10834","4997","c","elianto","#3366ff99"," ","-1","0","0","[]","0","2","","","10834","83","4","1","win","go","0"
"pit-trial","202","1254751","0.0-88.0","battery-v0.2","","""event"",""trial"",""time""
""fullscreenenter"",""1"",""3579""
","
","
","""event"",""trial"",""time""
""fullscreenenter"",""1"",""3579""
","
","","","-1","","","20","10834","4997","b","elianto","#f73b6a7A","-1","-1","1","0","[]","0","2","","","10834","84","3","4","lose","no-go","0"
"pit-trial","203","1259018","0.0-89.0","battery-v0.2","","""event"",""trial"",""time""
""fullscreenenter"",""1"",""3579""
","
","
","""event"",""trial"",""time""
""fullscreenenter"",""1"",""3579""
","
","","","1409","","","20","10834","4997","h","elianto","#f73b6a7A"," "," ","1","0","[2260]","1","2","","","10834","85","6","3","lose","go","0"
"pit-trial","204","1263629","0.0-90.0","battery-v0.2","","""event"",""trial"",""time""
""fullscreenenter"",""1"",""3579""
","
","
","""event"",""trial"",""time""
""fullscreenenter"",""1"",""3579""
","
","","","1752.300000000745","","","20","10834","4997","z","elianto","#3366ff99","-1"," ","0","0","[2602.5]","1","2","","","10834","86","5","2","win","no-go","0"
"pit-trial","205","1267572","0.0-91.0","battery-v0.2","","""event"",""trial"",""time""
""fullscreenenter"",""1"",""3579""
","
","
","""event"",""trial"",""time""
""fullscreenenter"",""1"",""3579""
","
","","","1082.9000000022352","","","20","10834","4997","c","elianto","#3366ff99"," "," ","1","+10","[1935.800000000745]","1","2","","","10834","87","4","1","win","go","0"
"pit-trial","206","1271850","0.0-92.0","battery-v0.2","","""event"",""trial"",""time""
""fullscreenenter"",""1"",""3579""
","
","
","""event"",""trial"",""time""
""fullscreenenter"",""1"",""3579""
","
","","","1416","","","20","10834","4997","y","elianto","#f73b6a7A","-1"," ","0","0","[2268.599999997765]","1","2","","","10834","88","7","4","lose","no-go","1"
"pit-trial","207","1276080","0.0-93.0","battery-v0.2","","""event"",""trial"",""time""
""fullscreenenter"",""1"",""3579""
","
","
","""event"",""trial"",""time""
""fullscreenenter"",""1"",""3579""
","
","","","1375.7999999970198","","","20","10834","4997","z","elianto","#3366ff99","-1"," ","0","0","[2226.199999999255]","1","2","","","10834","89","5","2","win","no-go","0"
"pit-trial","208","1280151","0.0-94.0","battery-v0.2","","""event"",""trial"",""time""
""fullscreenenter"",""1"",""3579""
","
","
","""event"",""trial"",""time""
""fullscreenenter"",""1"",""3579""
","
","","","1211","","","20","10834","4997","y","elianto","#f73b6a7A","-1"," ","0","-10","[2063.199999999255]","1","2","","","10834","90","7","4","lose","no-go","0"
"pit-trial","209","1284665","0.0-95.0","battery-v0.2","","""event"",""trial"",""time""
""fullscreenenter"",""1"",""3579""
","
","
","""event"",""trial"",""time""
""fullscreenenter"",""1"",""3579""
","
","","","1654.5","","","20","10834","4997","c","elianto","#3366ff99"," "," ","1","+10","[2505.300000000745]","1","2","","","10834","91","4","1","win","go","0"
"pit-trial","210","1289530","0.0-96.0","battery-v0.2","","""event"",""trial"",""time""
""fullscreenenter"",""1"",""3579""
","
","
","""event"",""trial"",""time""
""fullscreenenter"",""1"",""3579""
","
","","","-1","","","20","10834","4997","h","elianto","#f73b6a7A"," ","-1","0","-10","[]","0","2","","","10834","92","6","3","lose","go","0"
"pit-trial","211","1294269","0.0-97.0","battery-v0.2","","""event"",""trial"",""time""
""fullscreenenter"",""1"",""3579""
","
","
","""event"",""trial"",""time""
""fullscreenenter"",""1"",""3579""
","
","","","1880","","","20","10834","4997","y","elianto","#f73b6a7A","-1"," ","0","-10","[2732]","1","2","","","10834","93","7","4","lose","no-go","0"
"pit-trial","212","1299134","0.0-98.0","battery-v0.2","","""event"",""trial"",""time""
""fullscreenenter"",""1"",""3579""
","
","
","""event"",""trial"",""time""
""fullscreenenter"",""1"",""3579""
","
","","","-1","","","20","10834","4997","z","elianto","#3366ff99","-1","-1","1","+10","[]","0","2","","","10834","94","5","2","win","no-go","0"
"pit-trial","213","1303994","0.0-99.0","battery-v0.2","","""event"",""trial"",""time""
""fullscreenenter"",""1"",""3579""
","
","
","""event"",""trial"",""time""
""fullscreenenter"",""1"",""3579""
","
","","","-1","","","20","10834","4997","h","elianto","#f73b6a7A"," ","-1","0","-10","[]","0","2","","","10834","95","6","3","lose","go","0"
"pit-trial","214","1308146","0.0-100.0","battery-v0.2","","""event"",""trial"",""time""
""fullscreenenter"",""1"",""3579""
","
","
","""event"",""trial"",""time""
""fullscreenenter"",""1"",""3579""
","
","","","1294","","","20","10834","4997","r","elianto","#3366ff99"," "," ","1","0","[2144.89999999851]","1","2","","","10834","96","8","1","win","go","1"
"pit-trial","215","1313006","0.0-101.0","battery-v0.2","","""event"",""trial"",""time""
""fullscreenenter"",""1"",""3579""
","
","
","""event"",""trial"",""time""
""fullscreenenter"",""1"",""3579""
","
","","","-1","","","20","10834","4997","y","elianto","#f73b6a7A","-1","-1","1","-10","[]","0","2","","","10834","97","7","4","lose","no-go","1"
"pit-trial","216","1317868","0.0-102.0","battery-v0.2","","""event"",""trial"",""time""
""fullscreenenter"",""1"",""3579""
","
","
","""event"",""trial"",""time""
""fullscreenenter"",""1"",""3579""
","
","","","-1","","","20","10834","4997","h","elianto","#f73b6a7A"," ","-1","0","-10","[]","0","2","","","10834","98","6","3","lose","go","0"
"pit-trial","217","1322277","0.0-103.0","battery-v0.2","","""event"",""trial"",""time""
""fullscreenenter"",""1"",""3579""
","
","
","""event"",""trial"",""time""
""fullscreenenter"",""1"",""3579""
","
","","","1549","","","20","10834","4997","r","elianto","#3366ff99"," "," ","1","+10","[2400.39999999851]","1","2","","","10834","99","8","1","win","go","0"
"pit-trial","218","1327133","0.0-104.0","battery-v0.2","","""event"",""trial"",""time""
""fullscreenenter"",""1"",""3579""
","
","
","""event"",""trial"",""time""
""fullscreenenter"",""1"",""3579""
","
","","","-1","","","20","10834","4997","z","elianto","#3366ff99","-1","-1","1","0","[]","0","2","","","10834","100","5","2","win","no-go","1"
"pit-trial","219","1331320","0.0-105.0","battery-v0.2","","""event"",""trial"",""time""
""fullscreenenter"",""1"",""3579""
","
","
","""event"",""trial"",""time""
""fullscreenenter"",""1"",""3579""
","
","","","1326","","","20","10834","4997","r","elianto","#3366ff99"," "," ","1","+10","[2177.599999997765]","1","2","","","10834","101","8","1","win","go","0"
"pit-trial","220","1336177","0.0-106.0","battery-v0.2","","""event"",""trial"",""time""
""fullscreenenter"",""1"",""3579""
","
","
","""event"",""trial"",""time""
""fullscreenenter"",""1"",""3579""
","
","","","-1","","","20","10834","4997","z","elianto","#3366ff99","-1","-1","1","+10","[]","0","2","","","10834","102","5","2","win","no-go","0"
"pit-trial","221","1341040","0.0-107.0","battery-v0.2","","""event"",""trial"",""time""
""fullscreenenter"",""1"",""3579""
","
","
","""event"",""trial"",""time""
""fullscreenenter"",""1"",""3579""
","
","","","-1","","","20","10834","4997","y","elianto","#f73b6a7A","-1","-1","1","0","[]","0","2","","","10834","103","7","4","lose","no-go","0"
"pit-trial","222","1345163","0.0-108.0","battery-v0.2","","""event"",""trial"",""time""
""fullscreenenter"",""1"",""3579""
","
","
","""event"",""trial"",""time""
""fullscreenenter"",""1"",""3579""
","
","","","1265.1000000014901","","","20","10834","4997","m","elianto","#3366ff99"," "," ","1","0","[2117.10000000149]","1","2","","","10834","104","9","1","win","go","1"
"pit-trial","223","1350027","0.0-109.0","battery-v0.2","","""event"",""trial"",""time""
""fullscreenenter"",""1"",""3579""
","
","
","""event"",""trial"",""time""
""fullscreenenter"",""1"",""3579""
","
","","","-1","","","20","10834","4997","m","elianto","#3366ff99"," ","-1","0","0","[]","0","2","","","10834","105","9","1","win","go","0"
"pit-trial","224","1354892","0.0-110.0","battery-v0.2","","""event"",""trial"",""time""
""fullscreenenter"",""1"",""3579""
","
","
","""event"",""trial"",""time""
""fullscreenenter"",""1"",""3579""
","
","","","-1","","","20","10834","4997","h","elianto","#f73b6a7A"," ","-1","0","0","[]","0","2","","","10834","106","6","3","lose","go","1"
"pit-trial","225","1359370","0.0-111.0","battery-v0.2","","""event"",""trial"",""time""
""fullscreenenter"",""1"",""3579""
","
","
","""event"",""trial"",""time""
""fullscreenenter"",""1"",""3579""
","
","","","1617.699999999255","","","20","10834","4997","r","elianto","#3366ff99"," "," ","1","+10","[2469.10000000149]","1","2","","","10834","107","8","1","win","go","0"
"pit-trial","226","1363442","0.0-112.0","battery-v0.2","","""event"",""trial"",""time""
""fullscreenenter"",""1"",""3579""
","
","
","""event"",""trial"",""time""
""fullscreenenter"",""1"",""3579""
","
","","","1214.6000000014901","","","20","10834","4997","c","elianto","#3366ff99"," "," ","1","+10","[2066.10000000149]","1","2","","","10834","108","4","1","win","go","0"
"pit-trial","227","1368303","0.0-113.0","battery-v0.2","","""event"",""trial"",""time""
""fullscreenenter"",""1"",""3579""
","
","
","""event"",""trial"",""time""
""fullscreenenter"",""1"",""3579""
","
","","","-1","","","20","10834","4997","h","elianto","#f73b6a7A"," ","-1","0","-10","[]","0","2","","","10834","109","6","3","lose","go","0"
"pit-trial","228","1372662","0.0-114.0","battery-v0.2","","""event"",""trial"",""time""
""fullscreenenter"",""1"",""3579""
","
","
","""event"",""trial"",""time""
""fullscreenenter"",""1"",""3579""
","
","","","1497.7000000029802","","","20","10834","4997","r","elianto","#3366ff99"," "," ","1","0","[2349.800000000745]","1","2","","","10834","110","8","1","win","go","1"
"pit-trial","229","1376801","0.0-115.0","battery-v0.2","","""event"",""trial"",""time""
""fullscreenenter"",""1"",""3579""
","
","
","""event"",""trial"",""time""
""fullscreenenter"",""1"",""3579""
","
","","","1279.199999999255","","","20","10834","4997","z","elianto","#3366ff99","-1"," ","0","0","[2129.699999999255]","1","2","","","10834","111","5","2","win","no-go","0"
"pit-trial","230","1380954","0.0-116.0","battery-v0.2","","""event"",""trial"",""time""
""fullscreenenter"",""1"",""3579""
","
","
","""event"",""trial"",""time""
""fullscreenenter"",""1"",""3579""
","
","","","1294.5","","","20","10834","4997","m","elianto","#3366ff99"," "," ","1","+10","[2145.2000000029802]","1","2","","","10834","112","9","1","win","go","0"
"pit-trial","231","1385173","0.0-117.0","battery-v0.2","","""event"",""trial"",""time""
""fullscreenenter"",""1"",""3579""
","
","
","""event"",""trial"",""time""
""fullscreenenter"",""1"",""3579""
","
","","","1358.6000000014901","","","20","10834","4997","r","elianto","#3366ff99"," "," ","1","+10","[2209.60000000149]","1","2","","","10834","113","8","1","win","go","0"
"pit-trial","232","1389331","0.0-118.0","battery-v0.2","","""event"",""trial"",""time""
""fullscreenenter"",""1"",""3579""
","
","
","""event"",""trial"",""time""
""fullscreenenter"",""1"",""3579""
","
","","","1296.0999999977648","","","20","10834","4997","h","elianto","#f73b6a7A"," "," ","1","0","[2149.699999999255]","1","2","","","10834","114","6","3","lose","go","0"
"pit-trial","233","1393035","0.0-119.0","battery-v0.2","","""event"",""trial"",""time""
""fullscreenenter"",""1"",""3579""
","
","
","""event"",""trial"",""time""
""fullscreenenter"",""1"",""3579""
","
","","","841.6999999992549","","","20","10834","4997","m","elianto","#3366ff99"," "," ","1","+10","[1694.7999999970198]","1","2","","","10834","115","9","1","win","go","0"
"pit-trial","234","1397900","0.0-120.0","battery-v0.2","","""event"",""trial"",""time""
""fullscreenenter"",""1"",""3579""
","
","
","""event"",""trial"",""time""
""fullscreenenter"",""1"",""3579""
","
","","","-1","","","20","10834","4997","z","elianto","#3366ff99","-1","-1","1","+10","[]","0","2","","","10834","116","5","2","win","no-go","0"
"pit-trial","235","1401553","0.0-121.0","battery-v0.2","","""event"",""trial"",""time""
""fullscreenenter"",""1"",""3579""
","
","
","""event"",""trial"",""time""
""fullscreenenter"",""1"",""3579""
","
","","","792.2000000029802","","","20","10834","4997","m","elianto","#3366ff99"," "," ","1","+10","[1643.199999999255]","1","2","","","10834","117","9","1","win","go","0"
"pit-trial","236","1406416","0.0-122.0","battery-v0.2","","""event"",""trial"",""time""
""fullscreenenter"",""1"",""3579""
","
","
","""event"",""trial"",""time""
""fullscreenenter"",""1"",""3579""
","
","","","-1","","","20","10834","4997","z","elianto","#3366ff99","-1","-1","1","+10","[]","0","2","","","10834","118","5","2","win","no-go","0"
"pit-trial","237","1410234","0.0-123.0","battery-v0.2","","""event"",""trial"",""time""
""fullscreenenter"",""1"",""3579""
","
","
","""event"",""trial"",""time""
""fullscreenenter"",""1"",""3579""
","
","","","960.6999999992549","","","20","10834","4997","r","elianto","#3366ff99"," "," ","1","+10","[1811.199999999255]","1","2","","","10834","119","8","1","win","go","0"
"pit-trial","238","1414606","0.0-124.0","battery-v0.2","","""event"",""trial"",""time""
""fullscreenenter"",""1"",""3579""
","
","
","""event"",""trial"",""time""
""fullscreenenter"",""1"",""3579""
","
","","","1511.8999999985099","","","20","10834","4997","h","elianto","#f73b6a7A"," "," ","1","-10","[2363]","1","2","","","10834","120","6","3","lose","go","1"
"pit-trial","239","1419467","0.0-125.0","battery-v0.2","","""event"",""trial"",""time""
""fullscreenenter"",""1"",""3579""
","
","
","""event"",""trial"",""time""
""fullscreenenter"",""1"",""3579""
","
","","","-1","","","20","10834","4997","h","elianto","#f73b6a7A"," ","-1","0","-10","[]","0","2","","","10834","121","6","3","lose","go","0"
"pit-trial","240","1423035","0.0-126.0","battery-v0.2","","""event"",""trial"",""time""
""fullscreenenter"",""1"",""3579""
","
","
","""event"",""trial"",""time""
""fullscreenenter"",""1"",""3579""
","
","","","706.7000000029802","","","20","10834","4997","r","elianto","#3366ff99"," "," ","1","0","[1558.8999999985099]","1","2","","","10834","122","8","1","win","go","1"
"pit-trial","241","1426472","0.0-127.0","battery-v0.2","","""event"",""trial"",""time""
""fullscreenenter"",""1"",""3579""
","
","
","""event"",""trial"",""time""
""fullscreenenter"",""1"",""3579""
","
","","","581.1000000014901","","","20","10834","4997","m","elianto","#3366ff99"," "," ","1","+10","[1431.3999999985099]","1","2","","","10834","123","9","1","win","go","0"
"pit-trial","242","1430696","0.0-128.0","battery-v0.2","","""event"",""trial"",""time""
""fullscreenenter"",""1"",""3579""
","
","
","""event"",""trial"",""time""
""fullscreenenter"",""1"",""3579""
","
","","","1366.7000000029802","","","20","10834","4997","y","elianto","#f73b6a7A","-1"," ","0","0","[2218.5]","1","2","","","10834","124","7","4","lose","no-go","1"
"pit-trial","243","1434567","0.0-129.0","battery-v0.2","","""event"",""trial"",""time""
""fullscreenenter"",""1"",""3579""
","
","
","""event"",""trial"",""time""
""fullscreenenter"",""1"",""3579""
","
","","","1012.2000000029802","","","20","10834","4997","h","elianto","#f73b6a7A"," "," ","1","0","[1862.5]","1","2","","","10834","125","6","3","lose","go","0"
"pit-trial","244","1438239","0.0-130.0","battery-v0.2","","""event"",""trial"",""time""
""fullscreenenter"",""1"",""3579""
","
","
","""event"",""trial"",""time""
""fullscreenenter"",""1"",""3579""
","
","","","811.2000000029802","","","20","10834","4997","y","elianto","#f73b6a7A","-1"," ","0","-10","[1663.3999999985099]","1","2","","","10834","126","7","4","lose","no-go","0"
"pit-trial","245","1441814","0.0-131.0","battery-v0.2","","""event"",""trial"",""time""
""fullscreenenter"",""1"",""3579""
","
","
","""event"",""trial"",""time""
""fullscreenenter"",""1"",""3579""
","
","","","713.8999999985099","","","20","10834","4997","m","elianto","#3366ff99"," "," ","1","0","[1566.300000000745]","1","2","","","10834","127","9","1","win","go","1"
"pit-trial","246","1445403","0.0-132.0","battery-v0.2","","""event"",""trial"",""time""
""fullscreenenter"",""1"",""3579""
","
","
","""event"",""trial"",""time""
""fullscreenenter"",""1"",""3579""
","
","","","729.1999999992549","","","20","10834","4997","r","elianto","#3366ff99"," "," ","1","0","[1580.199999999255]","1","2","","","10834","128","8","1","win","go","1"
"pit-trial","247","1449254","0.0-133.0","battery-v0.2","","""event"",""trial"",""time""
""fullscreenenter"",""1"",""3579""
","
","
","""event"",""trial"",""time""
""fullscreenenter"",""1"",""3579""
","
","","","992.0999999977648","","","20","10834","4997","y","elianto","#f73b6a7A","-1"," ","0","-10","[1843.699999999255]","1","2","","","10834","129","7","4","lose","no-go","0"
"pit-trial","248","1452789","0.0-134.0","battery-v0.2","","""event"",""trial"",""time""
""fullscreenenter"",""1"",""3579""
","
","
","""event"",""trial"",""time""
""fullscreenenter"",""1"",""3579""
","
","","","679.3999999985099","","","20","10834","4997","m","elianto","#3366ff99"," "," ","1","0","[1530.5]","1","2","","","10834","130","9","1","win","go","1"
"pit-trial","249","1456552","0.0-135.0","battery-v0.2","","""event"",""trial"",""time""
""fullscreenenter"",""1"",""3579""
","
","
","""event"",""trial"",""time""
""fullscreenenter"",""1"",""3579""
","
","","","903.1999999992549","","","20","10834","4997","r","elianto","#3366ff99"," "," ","1","+10","[1755.800000000745]","1","2","","","10834","131","8","1","win","go","0"
"pit-trial","250","1461469","0.0-136.0","battery-v0.2","","""event"",""trial"",""time""
""fullscreenenter"",""1"",""3579""
","
","
","""event"",""trial"",""time""
""fullscreenenter"",""1"",""3579""
","
","","","-1","","","20","10834","4997","h","elianto","#f73b6a7A"," ","-1","0","0","[]","0","2","","","10834","132","6","3","lose","go","1"
"pit-trial","251","1466331","0.0-137.0","battery-v0.2","","""event"",""trial"",""time""
""fullscreenenter"",""1"",""3579""
","
","
","""event"",""trial"",""time""
""fullscreenenter"",""1"",""3579""
","
","","","-1","","","20","10834","4997","h","elianto","#f73b6a7A"," ","-1","0","-10","[]","0","2","","","10834","133","6","3","lose","go","0"
"pit-trial","252","1471195","0.0-138.0","battery-v0.2","","""event"",""trial"",""time""
""fullscreenenter"",""1"",""3579""
","
","
","""event"",""trial"",""time""
""fullscreenenter"",""1"",""3579""
","
","","","-1","","","20","10834","4997","y","elianto","#f73b6a7A","-1","-1","1","0","[]","0","2","","","10834","134","7","4","lose","no-go","0"
"pit-trial","253","1474827","0.0-139.0","battery-v0.2","","""event"",""trial"",""time""
""fullscreenenter"",""1"",""3579""
","
","
","""event"",""trial"",""time""
""fullscreenenter"",""1"",""3579""
","
","","","769.1999999992549","","","20","10834","4997","r","elianto","#3366ff99"," "," ","1","+10","[1623.2000000029802]","1","2","","","10834","135","8","1","win","go","0"
"pit-trial","254","1478434","0.0-140.0","battery-v0.2","","""event"",""trial"",""time""
""fullscreenenter"",""1"",""3579""
","
","
","""event"",""trial"",""time""
""fullscreenenter"",""1"",""3579""
","
","","","747.5","","","20","10834","4997","m","elianto","#3366ff99"," "," ","1","0","[1599.9000000022352]","1","2","","","10834","136","9","1","win","go","1"
"pit-trial","255","1483294","0.0-141.0","battery-v0.2","","""event"",""trial"",""time""
""fullscreenenter"",""1"",""3579""
","
","
","""event"",""trial"",""time""
""fullscreenenter"",""1"",""3579""
","
","","","-1","","","20","10834","4997","y","elianto","#f73b6a7A","-1","-1","1","0","[]","0","2","","","10834","137","7","4","lose","no-go","0"
"pit-trial","256","1486982","0.0-142.0","battery-v0.2","","""event"",""trial"",""time""
""fullscreenenter"",""1"",""3579""
","
","
","""event"",""trial"",""time""
""fullscreenenter"",""1"",""3579""
","
","","","828.6000000014901","","","20","10834","4997","m","elianto","#3366ff99"," "," ","1","+10","[1682.2000000029802]","1","2","","","10834","138","9","1","win","go","0"
"pit-trial","257","1491844","0.0-143.0","battery-v0.2","","""event"",""trial"",""time""
""fullscreenenter"",""1"",""3579""
","
","
","""event"",""trial"",""time""
""fullscreenenter"",""1"",""3579""
","
","","","-1","","","20","10834","4997","h","elianto","#f73b6a7A"," ","-1","0","-10","[]","0","2","","","10834","139","6","3","lose","go","0"
"pit-trial","258","1495523","0.0-144.0","battery-v0.2","","""event"",""trial"",""time""
""fullscreenenter"",""1"",""3579""
","
","
","""event"",""trial"",""time""
""fullscreenenter"",""1"",""3579""
","
","","","820.5","","","20","10834","4997","r","elianto","#3366ff99"," "," ","1","+10","[1672.5999999977648]","1","2","","","10834","140","8","1","win","go","0"
"pit-instructions","259","1639960","0.0-145.0","battery-v0.2","","""event"",""trial"",""time""
""fullscreenenter"",""1"",""3579""
","
","
","""event"",""trial"",""time""
""fullscreenenter"",""1"",""3579""
","
","","[{""page_index"":0,""viewing_time"":135301.70000000298},{""page_index"":1,""viewing_time"":9134.099999997765}]","144436.5","","","","","","","","","","","","","","","","","","","","","","","",""
"pit-trial","260","1643797","0.0-146.0","battery-v0.2","","""event"",""trial"",""time""
""fullscreenenter"",""1"",""3579""
","
","
","""event"",""trial"",""time""
""fullscreenenter"",""1"",""3579""
","
","","","970","","","20","10834","4997","u","elianto","#f73b6a7A","-1"," ","0","-10","[1823.1000000014901]","1","3","","","10834","141","0","4","lose","no-go","0"
"pit-trial","261","1647406","0.0-147.0","battery-v0.2","","""event"",""trial"",""time""
""fullscreenenter"",""1"",""3579""
","
","
","""event"",""trial"",""time""
""fullscreenenter"",""1"",""3579""
","
","","","748.3000000007451","","","20","10834","4997","g","elianto","#f73b6a7A"," "," ","1","-10","[1600.199999999255]","1","3","","","10834","142","3","3","lose","go","1"
"pit-trial","262","1651165","0.0-148.0","battery-v0.2","","""event"",""trial"",""time""
""fullscreenenter"",""1"",""3579""
","
","
","""event"",""trial"",""time""
""fullscreenenter"",""1"",""3579""
","
","","","898.1000000014901","","","20","10834","4997","a","elianto","#f73b6a7A","-1"," ","0","-10","[1749.0999999977648]","1","3","","","10834","143","2","4","lose","no-go","0"
"pit-trial","263","1654694","0.0-149.0","battery-v0.2","","""event"",""trial"",""time""
""fullscreenenter"",""1"",""3579""
","
","
","""event"",""trial"",""time""
""fullscreenenter"",""1"",""3579""
","
","","","671.5999999977648","","","20","10834","4997","l","elianto","#3366ff99"," "," ","1","+10","[1522.9000000022352]","1","3","","","10834","144","1","1","win","go","0"
"pit-trial","264","1659557","0.0-150.0","battery-v0.2","","""event"",""trial"",""time""
""fullscreenenter"",""1"",""3579""
","
","
","""event"",""trial"",""time""
""fullscreenenter"",""1"",""3579""
","
","","","-1","","","20","10834","4997","g","elianto","#f73b6a7A"," ","-1","0","-10","[]","0","3","","","10834","145","3","3","lose","go","0"
"pit-trial","265","1663121","0.0-151.0","battery-v0.2","","""event"",""trial"",""time""
""fullscreenenter"",""1"",""3579""
","
","
","""event"",""trial"",""time""
""fullscreenenter"",""1"",""3579""
","
