"trial_type","trial_index","time_elapsed","internal_node_id","task_version","subject_id","interactions","blur_events","focus_events","fullscreenenter_events","fullscreenexit_events","success","view_history","rt","responses","num_errors","age","subject","participantId","rune","rune_set","hex","correct","choice","accuracy","outcome","keys","total_keys","block","practice","value","sub","trial","stimulus","robot","valence","action","sham"
"pavlovia","0","23","0.0-0.0","battery-v0.2","","""event"",""trial"",""time""
""fullscreenenter"",""1"",""1064""
","
","
","""event"",""trial"",""time""
""fullscreenenter"",""1"",""1064""
","
","","","","","","","","","","","","","","","","","","","","","","","","","","",""
"fullscreen","1","2056","0.0-1.0","battery-v0.2","","""event"",""trial"",""time""
""fullscreenenter"",""1"",""1064""
","
","
","""event"",""trial"",""time""
""fullscreenenter"",""1"",""1064""
","
","true","","","","","","","","","","","","","","","","","","","","","","","","","",""
"pit-instructions","2","5503","0.0-2.0-0.0","battery-v0.2","","""event"",""trial"",""time""
""fullscreenenter"",""1"",""1064""
","
","
","""event"",""trial"",""time""
""fullscreenenter"",""1"",""1064""
","
","","[{""page_index"":0,""viewing_time"":3441.2000000029802}]","3441.7000000029802","","","","","","","","","","","","","","","","","","","","","","","",""
"pit-comprehension","3","8245","0.0-2.0-1.0-0.0","battery-v0.2","","""event"",""trial"",""time""
""fullscreenenter"",""1"",""1064""
","
","
","""event"",""trial"",""time""
""fullscreenenter"",""1"",""1064""
","
","","","2737","[""shark""]","0","20","12368","2218","","","","","","","","","","","","","","","","","","",""
"pit-instructions","4","9303","0.0-2.0-1.0-1.0","battery-v0.2","","""event"",""trial"",""time""
""fullscreenenter"",""1"",""1064""
","
","
","""event"",""trial"",""time""
""fullscreenenter"",""1"",""1064""
","
","","[{""page_index"":0,""viewing_time"":1049.5}]","1049.8999999985099","","","","","","","","","","","","","","","","","","","","","","","",""
"pit-comprehension","5","11346","0.0-2.0-2.0-0.0","battery-v0.2","","""event"",""trial"",""time""
""fullscreenenter"",""1"",""1064""
","
","
","""event"",""trial"",""time""
""fullscreenenter"",""1"",""1064""
","
","","","2037.699999999255","[""tiger""]","0","20","12368","2218","","","","","","","","","","","","","","","","","","",""
"pit-instructions","6","12195","0.0-2.0-2.0-1.0","battery-v0.2","","""event"",""trial"",""time""
""fullscreenenter"",""1"",""1064""
""blur"",""7"",""20771""
""focus"",""7"",""24045""
","""event"",""trial"",""time""
""blur"",""7"",""20771""
","""event"",""trial"",""time""
""focus"",""7"",""24045""
","""event"",""trial"",""time""
""fullscreenenter"",""1"",""1064""
","
","","[{""page_index"":0,""viewing_time"":843.8000000007451}]","844.1999999992549","","","","","","","","","","","","","","","","","","","","","","","",""
"pit-instructions","7","111905","0.0-2.0-3.0","battery-v0.2","","""event"",""trial"",""time""
""fullscreenenter"",""1"",""1064""
""blur"",""7"",""20771""
""focus"",""7"",""24045""
","""event"",""trial"",""time""
""blur"",""7"",""20771""
","""event"",""trial"",""time""
""focus"",""7"",""24045""
","""event"",""trial"",""time""
""fullscreenenter"",""1"",""1064""
","
","","[{""page_index"":0,""viewing_time"":13223.099999997765},{""page_index"":1,""viewing_time"":6375.20000000298},{""page_index"":2,""viewing_time"":7082.699999999255},{""page_index"":3,""viewing_time"":6643.599999997765},{""page_index"":4,""viewing_time"":6609.800000000745},{""page_index"":5,""viewing_time"":5770.10000000149},{""page_index"":6,""viewing_time"":7415.199999999255},{""page_index"":7,""viewing_time"":7201.89999999851},{""page_index"":8,""viewing_time"":6974.300000000745},{""page_index"":9,""viewing_time"":7268.900000002235},{""page_index"":10,""viewing_time"":7628.699999999255},{""page_index"":11,""viewing_time"":6210.199999999255},{""page_index"":12,""viewing_time"":6008.5},{""page_index"":13,""viewing_time"":5292.300000000745}]","99705","","","","","","","","","","","","","","","","","","","","","","","",""
"pit-trial","8","115427","0.0-2.0-4.0-0.0","battery-v0.2","","""event"",""trial"",""time""
""fullscreenenter"",""1"",""1064""
""blur"",""7"",""20771""
""focus"",""7"",""24045""
","""event"",""trial"",""time""
""blur"",""7"",""20771""
","""event"",""trial"",""time""
""focus"",""7"",""24045""
","""event"",""trial"",""time""
""fullscreenenter"",""1"",""1064""
","
","","","660.8000000007451","","","20","12368","2218","&#9784;","elianto","#FFFFF080"," "," ","1","&#10004","[1516]","1","0","0","","","","","","","",""
"pit-trial","9","118896","0.0-2.0-4.1-0.1","battery-v0.2","","""event"",""trial"",""time""
""fullscreenenter"",""1"",""1064""
""blur"",""7"",""20771""
""focus"",""7"",""24045""
","""event"",""trial"",""time""
""blur"",""7"",""20771""
","""event"",""trial"",""time""
""focus"",""7"",""24045""
","""event"",""trial"",""time""
""fullscreenenter"",""1"",""1064""
","
","","","612.0999999977648","","","20","12368","2218","&#9784;","elianto","#FFFFF080"," "," ","1","&#10004","[1462.9000000022352]","1","0","0","","","","","","","",""
"pit-trial","10","122293","0.0-2.0-4.2-0.2","battery-v0.2","","""event"",""trial"",""time""
""fullscreenenter"",""1"",""1064""
""blur"",""7"",""20771""
""focus"",""7"",""24045""
","""event"",""trial"",""time""
""blur"",""7"",""20771""
","""event"",""trial"",""time""
""focus"",""7"",""24045""
","""event"",""trial"",""time""
""fullscreenenter"",""1"",""1064""
","
","","","541.6999999992549","","","20","12368","2218","&#9784;","elianto","#FFFFF080"," "," ","1","&#10004","[1392]","1","0","0","","","","","","","",""
"pit-trial","11","125736","0.0-2.0-4.3-0.3","battery-v0.2","","""event"",""trial"",""time""
""fullscreenenter"",""1"",""1064""
""blur"",""7"",""20771""
""focus"",""7"",""24045""
","""event"",""trial"",""time""
""blur"",""7"",""20771""
","""event"",""trial"",""time""
""focus"",""7"",""24045""
","""event"",""trial"",""time""
""fullscreenenter"",""1"",""1064""
","
","","","586.7000000029802","","","20","12368","2218","&#9784;","elianto","#FFFFF080"," "," ","1","&#10004","[1437.800000000745]","1","0","0","","","","","","","",""
"pit-trial","12","129080","0.0-2.0-4.4-0.4","battery-v0.2","","""event"",""trial"",""time""
""fullscreenenter"",""1"",""1064""
""blur"",""7"",""20771""
""focus"",""7"",""24045""
","""event"",""trial"",""time""
""blur"",""7"",""20771""
","""event"",""trial"",""time""
""focus"",""7"",""24045""
","""event"",""trial"",""time""
""fullscreenenter"",""1"",""1064""
","
","","","488.69999999925494","","","20","12368","2218","&#9784;","elianto","#FFFFF080"," "," ","1","&#10004","[1338.800000000745]","1","0","0","","","","","","","",""
"pit-instructions","13","150724","0.0-2.0-5.0","battery-v0.2","","""event"",""trial"",""time""
""fullscreenenter"",""1"",""1064""
""blur"",""7"",""20771""
""focus"",""7"",""24045""
","""event"",""trial"",""time""
""blur"",""7"",""20771""
","""event"",""trial"",""time""
""focus"",""7"",""24045""
","""event"",""trial"",""time""
""fullscreenenter"",""1"",""1064""
","
","","[{""page_index"":0,""viewing_time"":6029.300000000745},{""page_index"":1,""viewing_time"":5695.5},{""page_index"":2,""viewing_time"":4507.29999999702},{""page_index"":3,""viewing_time"":5407.800000000745}]","21640.300000000745","","","","","","","","","","","","","","","","","","","","","","","",""
"pit-trial","14","155579","0.0-2.0-6.0-0.0","battery-v0.2","","""event"",""trial"",""time""
""fullscreenenter"",""1"",""1064""
""blur"",""7"",""20771""
""focus"",""7"",""24045""
","""event"",""trial"",""time""
""blur"",""7"",""20771""
","""event"",""trial"",""time""
""focus"",""7"",""24045""
","""event"",""trial"",""time""
""fullscreenenter"",""1"",""1064""
","
","","","-1","","","20","12368","2218","&#9854;","elianto","#FFFFF080","-1","-1","1","&#10004","[]","0","0","1","","","","","","","",""
"pit-trial","15","160436","0.0-2.0-6.1-0.1","battery-v0.2","","""event"",""trial"",""time""
""fullscreenenter"",""1"",""1064""
""blur"",""7"",""20771""
""focus"",""7"",""24045""
","""event"",""trial"",""time""
""blur"",""7"",""20771""
","""event"",""trial"",""time""
""focus"",""7"",""24045""
","""event"",""trial"",""time""
""fullscreenenter"",""1"",""1064""
","
","","","-1","","","20","12368","2218","&#9854;","elianto","#FFFFF080","-1","-1","1","&#10004","[]","0","0","1","","","","","","","",""
"pit-trial","16","165301","0.0-2.0-6.2-0.2","battery-v0.2","","""event"",""trial"",""time""
""fullscreenenter"",""1"",""1064""
""blur"",""7"",""20771""
""focus"",""7"",""24045""
","""event"",""trial"",""time""
""blur"",""7"",""20771""
","""event"",""trial"",""time""
""focus"",""7"",""24045""
","""event"",""trial"",""time""
""fullscreenenter"",""1"",""1064""
","
","","","-1","","","20","12368","2218","&#9854;","elianto","#FFFFF080","-1","-1","1","&#10004","[]","0","0","1","","","","","","","",""
"pit-trial","17","170156","0.0-2.0-6.3-0.3","battery-v0.2","","""event"",""trial"",""time""
""fullscreenenter"",""1"",""1064""
""blur"",""7"",""20771""
""focus"",""7"",""24045""
","""event"",""trial"",""time""
""blur"",""7"",""20771""
","""event"",""trial"",""time""
""focus"",""7"",""24045""
","""event"",""trial"",""time""
""fullscreenenter"",""1"",""1064""
","
","","","-1","","","20","12368","2218","&#9854;","elianto","#FFFFF080","-1","-1","1","&#10004","[]","0","0","1","","","","","","","",""
"pit-trial","18","175010","0.0-2.0-6.4-0.4","battery-v0.2","","""event"",""trial"",""time""
""fullscreenenter"",""1"",""1064""
""blur"",""7"",""20771""
""focus"",""7"",""24045""
","""event"",""trial"",""time""
""blur"",""7"",""20771""
","""event"",""trial"",""time""
""focus"",""7"",""24045""
","""event"",""trial"",""time""
""fullscreenenter"",""1"",""1064""
","
","","","-1","","","20","12368","2218","&#9854;","elianto","#FFFFF080","-1","-1","1","&#10004","[]","0","0","1","","","","","","","",""
"pit-instructions","19","378911","0.0-2.0-7.0","battery-v0.2","","""event"",""trial"",""time""
""fullscreenenter"",""1"",""1064""
""blur"",""7"",""20771""
""focus"",""7"",""24045""
","""event"",""trial"",""time""
""blur"",""7"",""20771""
","""event"",""trial"",""time""
""focus"",""7"",""24045""
","""event"",""trial"",""time""
""fullscreenenter"",""1"",""1064""
","
","","[{""page_index"":0,""viewing_time"":6896.5},{""page_index"":1,""viewing_time"":6225.5},{""page_index"":2,""viewing_time"":6592.10000000149},{""page_index"":3,""viewing_time"":7565.89999999851},{""page_index"":4,""viewing_time"":7628.10000000149},{""page_index"":5,""viewing_time"":13601.699999999255},{""page_index"":6,""viewing_time"":9865},{""page_index"":7,""viewing_time"":7611.60000000149},{""page_index"":8,""viewing_time"":6820.39999999851},{""page_index"":9,""viewing_time"":5905.199999999255},{""page_index"":10,""viewing_time"":6825.60000000149},{""page_index"":11,""viewing_time"":4511},{""page_index"":12,""viewing_time"":13251.199999999255},{""page_index"":13,""viewing_time"":23785.300000000745},{""page_index"":14,""viewing_time"":43382.699999999255},{""page_index"":15,""viewing_time"":7414.10000000149},{""page_index"":16,""viewing_time"":14283.699999999255},{""page_index"":17,""viewing_time"":11730.5}]","203896.6000000015","","","","","","","","","","","","","","","","","","","","","","","",""
"pit-trial","20","383092","0.0-2.0-8.0-0.0","battery-v0.2","","""event"",""trial"",""time""
""fullscreenenter"",""1"",""1064""
""blur"",""7"",""20771""
""focus"",""7"",""24045""
","""event"",""trial"",""time""
""blur"",""7"",""20771""
","""event"",""trial"",""time""
""focus"",""7"",""24045""
","""event"",""trial"",""time""
""fullscreenenter"",""1"",""1064""
","
","","","1326.2000000029802","","","20","12368","2218","&#9776;","elianto","#3366ff99"," "," ","1","+10","[2177.60000000149]","1","0","1","","","","","","","",""
"pit-trial","21","386766","0.0-2.0-8.0-1.0","battery-v0.2","","""event"",""trial"",""time""
""fullscreenenter"",""1"",""1064""
""blur"",""7"",""20771""
""focus"",""7"",""24045""
","""event"",""trial"",""time""
""blur"",""7"",""20771""
","""event"",""trial"",""time""
""focus"",""7"",""24045""
","""event"",""trial"",""time""
""fullscreenenter"",""1"",""1064""
","
","","","818.6000000014901","","","20","12368","2218","&#9776;","elianto","#3366ff99"," "," ","1","+10","[1669.300000000745]","1","0","1","","","","","","","",""
"pit-trial","22","390164","0.0-2.0-8.0-2.0","battery-v0.2","","""event"",""trial"",""time""
""fullscreenenter"",""1"",""1064""
""blur"",""7"",""20771""
""focus"",""7"",""24045""
","""event"",""trial"",""time""
""blur"",""7"",""20771""
","""event"",""trial"",""time""
""focus"",""7"",""24045""
","""event"",""trial"",""time""
""fullscreenenter"",""1"",""1064""
","
","","","543.8000000007451","","","20","12368","2218","&#9776;","elianto","#3366ff99"," "," ","1","+10","[1394.7000000029802]","1","0","1","","","","","","","",""
"pit-trial","23","393593","0.0-2.0-8.0-3.0","battery-v0.2","","""event"",""trial"",""time""
""fullscreenenter"",""1"",""1064""
""blur"",""7"",""20771""
""focus"",""7"",""24045""
","""event"",""trial"",""time""
""blur"",""7"",""20771""
","""event"",""trial"",""time""
""focus"",""7"",""24045""
","""event"",""trial"",""time""
""fullscreenenter"",""1"",""1064""
","
","","","573.6000000014901","","","20","12368","2218","&#9776;","elianto","#3366ff99"," "," ","1","0","[1424.5]","1","0","1","","","","","","","",""
"pit-trial","24","396882","0.0-2.0-8.0-4.0","battery-v0.2","","""event"",""trial"",""time""
""fullscreenenter"",""1"",""1064""
""blur"",""7"",""20771""
""focus"",""7"",""24045""
","""event"",""trial"",""time""
""blur"",""7"",""20771""
","""event"",""trial"",""time""
""focus"",""7"",""24045""
","""event"",""trial"",""time""
""fullscreenenter"",""1"",""1064""
","
","","","433.69999999925494","","","20","12368","2218","&#9776;","elianto","#3366ff99"," "," ","1","+10","[1284.8999999985099]","1","0","1","","","","","","","",""
"pit-trial","25","400282","0.0-2.0-8.1-0.1","battery-v0.2","","""event"",""trial"",""time""
""fullscreenenter"",""1"",""1064""
""blur"",""7"",""20771""
""focus"",""7"",""24045""
","""event"",""trial"",""time""
""blur"",""7"",""20771""
","""event"",""trial"",""time""
""focus"",""7"",""24045""
","""event"",""trial"",""time""
""fullscreenenter"",""1"",""1064""
","
","","","543.5","","","20","12368","2218","&#9776;","elianto","#3366ff99"," "," ","1","+10","[1395.3999999985099]","1","0","1","","","","","","","",""
"pit-trial","26","403685","0.0-2.0-8.1-1.1","battery-v0.2","","""event"",""trial"",""time""
""fullscreenenter"",""1"",""1064""
""blur"",""7"",""20771""
""focus"",""7"",""24045""
","""event"",""trial"",""time""
""blur"",""7"",""20771""
","""event"",""trial"",""time""
""focus"",""7"",""24045""
","""event"",""trial"",""time""
""fullscreenenter"",""1"",""1064""
","
","","","548.2999999970198","","","20","12368","2218","&#9776;","elianto","#3366ff99"," "," ","1","+10","[1399.4000000022352]","1","0","1","","","","","","","",""
"pit-trial","27","408541","0.0-2.0-8.1-2.1","battery-v0.2","","""event"",""trial"",""time""
""fullscreenenter"",""1"",""1064""
""blur"",""7"",""20771""
""focus"",""7"",""24045""
","""event"",""trial"",""time""
""blur"",""7"",""20771""
","""event"",""trial"",""time""
""focus"",""7"",""24045""
","""event"",""trial"",""time""
""fullscreenenter"",""1"",""1064""
","
","","","-1","","","20","12368","2218","&#9776;","elianto","#3366ff99"," ","-1","0","0","[2993.60000000149]","1","0","1","","","","","","","",""
"pit-trial","28","411885","0.0-2.0-8.1-3.1","battery-v0.2","","""event"",""trial"",""time""
""fullscreenenter"",""1"",""1064""
""blur"",""7"",""20771""
""focus"",""7"",""24045""
","""event"",""trial"",""time""
""blur"",""7"",""20771""
","""event"",""trial"",""time""
""focus"",""7"",""24045""
","""event"",""trial"",""time""
""fullscreenenter"",""1"",""1064""
","
","","","488.30000000074506","","","20","12368","2218","&#9776;","elianto","#3366ff99"," "," ","1","0","[1340.8999999985099]","1","0","1","","","","","","","",""
"pit-trial","29","414964","0.0-2.0-8.1-4.1","battery-v0.2","","""event"",""trial"",""time""
""fullscreenenter"",""1"",""1064""
""blur"",""7"",""20771""
""focus"",""7"",""24045""
","""event"",""trial"",""time""
""blur"",""7"",""20771""
","""event"",""trial"",""time""
""focus"",""7"",""24045""
","""event"",""trial"",""time""
""fullscreenenter"",""1"",""1064""
","
","","","224.30000000074506","","","20","12368","2218","&#9776;","elianto","#3366ff99"," "," ","1","+10","[1075.5999999977648]","1","0","1","","","","","","","",""
"pit-trial","30","417835","0.0-2.0-8.2-0.2","battery-v0.2","","""event"",""trial"",""time""
""fullscreenenter"",""1"",""1064""
""blur"",""7"",""20771""
""focus"",""7"",""24045""
","""event"",""trial"",""time""
""blur"",""7"",""20771""
","""event"",""trial"",""time""
""focus"",""7"",""24045""
","""event"",""trial"",""time""
""fullscreenenter"",""1"",""1064""
","
","","","16.300000000745058","","","20","12368","2218","&#9776;","elianto","#3366ff99"," "," ","1","+10","[867.8000000007451]","1","0","1","","","","","","","",""
"pit-trial","31","420754","0.0-2.0-8.2-1.2","battery-v0.2","","""event"",""trial"",""time""
""fullscreenenter"",""1"",""1064""
""blur"",""7"",""20771""
""focus"",""7"",""24045""
","""event"",""trial"",""time""
""blur"",""7"",""20771""
","""event"",""trial"",""time""
""focus"",""7"",""24045""
","""event"",""trial"",""time""
""fullscreenenter"",""1"",""1064""
","
","","","62.900000002235174","","","20","12368","2218","&#9776;","elianto","#3366ff99"," "," ","1","+10","[913.8000000007451,1206.300000000745]","2","0","1","","","","","","","",""
"pit-trial","32","423783","0.0-2.0-8.2-2.2","battery-v0.2","","""event"",""trial"",""time""
""fullscreenenter"",""1"",""1064""
""blur"",""7"",""20771""
""focus"",""7"",""24045""
","""event"",""trial"",""time""
""blur"",""7"",""20771""
","""event"",""trial"",""time""
""focus"",""7"",""24045""
","""event"",""trial"",""time""
""fullscreenenter"",""1"",""1064""
","
","","","175","","","20","12368","2218","&#9776;","elianto","#3366ff99"," "," ","1","+10","[1026]","1","0","1","","","","","","","",""
"pit-trial","33","426838","0.0-2.0-8.2-3.2","battery-v0.2","","""event"",""trial"",""time""
""fullscreenenter"",""1"",""1064""
""blur"",""7"",""20771""
""focus"",""7"",""24045""
","""event"",""trial"",""time""
""blur"",""7"",""20771""
","""event"",""trial"",""time""
""focus"",""7"",""24045""
","""event"",""trial"",""time""
""fullscreenenter"",""1"",""1064""
","
","","","201.89999999850988","","","20","12368","2218","&#9776;","elianto","#3366ff99"," "," ","1","0","[1052.199999999255]","1","0","1","","","","","","","",""
"pit-trial","34","431693","0.0-2.0-8.2-4.2","battery-v0.2","","""event"",""trial"",""time""
""fullscreenenter"",""1"",""1064""
""blur"",""7"",""20771""
""focus"",""7"",""24045""
","""event"",""trial"",""time""
""blur"",""7"",""20771""
","""event"",""trial"",""time""
""focus"",""7"",""24045""
","""event"",""trial"",""time""
""fullscreenenter"",""1"",""1064""
","
","","","-1","","","20","12368","2218","&#9776;","elianto","#3366ff99"," ","-1","0","0","[]","0","0","1","","","","","","","",""
"call-function","35","431695","0.0-2.0-9.0","battery-v0.2","","""event"",""trial"",""time""
""fullscreenenter"",""1"",""1064""
""blur"",""7"",""20771""
""focus"",""7"",""24045""
","""event"",""trial"",""time""
""blur"",""7"",""20771""
","""event"",""trial"",""time""
""focus"",""7"",""24045""
","""event"",""trial"",""time""
""fullscreenenter"",""1"",""1064""
","
","","","","","","","","","","","","","","","","","","","","","","","","","","",""
"pit-instructions","36","482935","0.0-2.0-10.0","battery-v0.2","","""event"",""trial"",""time""
""fullscreenenter"",""1"",""1064""
""blur"",""7"",""20771""
""focus"",""7"",""24045""
","""event"",""trial"",""time""
""blur"",""7"",""20771""
","""event"",""trial"",""time""
""focus"",""7"",""24045""
","""event"",""trial"",""time""
""fullscreenenter"",""1"",""1064""
","
","","[{""page_index"":0,""viewing_time"":6022.800000000745},{""page_index"":1,""viewing_time"":6433.400000002235},{""page_index"":2,""viewing_time"":13147.099999997765},{""page_index"":3,""viewing_time"":16056.60000000149},{""page_index"":4,""viewing_time"":9577.800000000745}]","51238.10000000149","","","","","","","","","","","","","","","","","","","","","","","",""
"pit-trial","37","486891","0.0-2.0-11.0-0.0","battery-v0.2","","""event"",""trial"",""time""
""fullscreenenter"",""1"",""1064""
""blur"",""7"",""20771""
""focus"",""7"",""24045""
","""event"",""trial"",""time""
""blur"",""7"",""20771""
","""event"",""trial"",""time""
""focus"",""7"",""24045""
","""event"",""trial"",""time""
""fullscreenenter"",""1"",""1064""
","
","","","1099.699999999255","","","20","12368","2218","&#9761;","elianto","#3366ff99","-1"," ","0","0","[1951.800000000745]","1","0","2","","","","","","","",""
"pit-trial","38","490231","0.0-2.0-11.0-1.0","battery-v0.2","","""event"",""trial"",""time""
""fullscreenenter"",""1"",""1064""
""blur"",""7"",""20771""
""focus"",""7"",""24045""
","""event"",""trial"",""time""
""blur"",""7"",""20771""
","""event"",""trial"",""time""
""focus"",""7"",""24045""
","""event"",""trial"",""time""
""fullscreenenter"",""1"",""1064""
","
","","","486","","","20","12368","2218","&#9761;","elianto","#3366ff99","-1"," ","0","0","[1336.5999999977648]","1","0","2","","","","","","","",""
"pit-trial","39","495086","0.0-2.0-11.0-2.0","battery-v0.2","","""event"",""trial"",""time""
""fullscreenenter"",""1"",""1064""
""blur"",""7"",""20771""
""focus"",""7"",""24045""
","""event"",""trial"",""time""
""blur"",""7"",""20771""
","""event"",""trial"",""time""
""focus"",""7"",""24045""
","""event"",""trial"",""time""
""fullscreenenter"",""1"",""1064""
","
","","","-1","","","20","12368","2218","&#9761;","elianto","#3366ff99","-1","-1","1","+10","[]","0","0","2","","","","","","","",""
"pit-trial","40","499941","0.0-2.0-11.0-3.0","battery-v0.2","","""event"",""trial"",""time""
""fullscreenenter"",""1"",""1064""
""blur"",""7"",""20771""
""focus"",""7"",""24045""
","""event"",""trial"",""time""
""blur"",""7"",""20771""
","""event"",""trial"",""time""
""focus"",""7"",""24045""
","""event"",""trial"",""time""
""fullscreenenter"",""1"",""1064""
","
","","","-1","","","20","12368","2218","&#9761;","elianto","#3366ff99","-1","-1","1","0","[]","0","0","2","","","","","","","",""
"pit-trial","41","504796","0.0-2.0-11.0-4.0","battery-v0.2","","""event"",""trial"",""time""
""fullscreenenter"",""1"",""1064""
""blur"",""7"",""20771""
""focus"",""7"",""24045""
","""event"",""trial"",""time""
""blur"",""7"",""20771""
","""event"",""trial"",""time""
""focus"",""7"",""24045""
","""event"",""trial"",""time""
""fullscreenenter"",""1"",""1064""
","
","","","-1","","","20","12368","2218","&#9761;","elianto","#3366ff99","-1","-1","1","+10","[]","0","0","2","","","","","","","",""
"pit-trial","42","509651","0.0-2.0-11.1-0.1","battery-v0.2","","""event"",""trial"",""time""
""fullscreenenter"",""1"",""1064""
""blur"",""7"",""20771""
""focus"",""7"",""24045""
","""event"",""trial"",""time""
""blur"",""7"",""20771""
","""event"",""trial"",""time""
""focus"",""7"",""24045""
","""event"",""trial"",""time""
""fullscreenenter"",""1"",""1064""
","
","","","-1","","","20","12368","2218","&#9761;","elianto","#3366ff99","-1","-1","1","+10","[]","0","0","2","","","","","","","",""
"pit-trial","43","514506","0.0-2.0-11.1-1.1","battery-v0.2","","""event"",""trial"",""time""
""fullscreenenter"",""1"",""1064""
""blur"",""7"",""20771""
""focus"",""7"",""24045""
","""event"",""trial"",""time""
""blur"",""7"",""20771""
","""event"",""trial"",""time""
""focus"",""7"",""24045""
","""event"",""trial"",""time""
""fullscreenenter"",""1"",""1064""
","
","","","-1","","","20","12368","2218","&#9761;","elianto","#3366ff99","-1","-1","1","+10","[]","0","0","2","","","","","","","",""
"pit-trial","44","519361","0.0-2.0-11.1-2.1","battery-v0.2","","""event"",""trial"",""time""
""fullscreenenter"",""1"",""1064""
""blur"",""7"",""20771""
""focus"",""7"",""24045""
","""event"",""trial"",""time""
""blur"",""7"",""20771""
","""event"",""trial"",""time""
""focus"",""7"",""24045""
","""event"",""trial"",""time""
""fullscreenenter"",""1"",""1064""
","
","","","-1","","","20","12368","2218","&#9761;","elianto","#3366ff99","-1","-1","1","+10","[]","0","0","2","","","","","","","",""
"pit-trial","45","524216","0.0-2.0-11.1-3.1","battery-v0.2","","""event"",""trial"",""time""
""fullscreenenter"",""1"",""1064""
""blur"",""7"",""20771""
""focus"",""7"",""24045""
","""event"",""trial"",""time""
""blur"",""7"",""20771""
","""event"",""trial"",""time""
""focus"",""7"",""24045""
","""event"",""trial"",""time""
""fullscreenenter"",""1"",""1064""
","
","","","-1","","","20","12368","2218","&#9761;","elianto","#3366ff99","-1","-1","1","0","[]","0","0","2","","","","","","","",""
"pit-trial","46","529071","0.0-2.0-11.1-4.1","battery-v0.2","","""event"",""trial"",""time""
""fullscreenenter"",""1"",""1064""
""blur"",""7"",""20771""
""focus"",""7"",""24045""
","""event"",""trial"",""time""
""blur"",""7"",""20771""
","""event"",""trial"",""time""
""focus"",""7"",""24045""
","""event"",""trial"",""time""
""fullscreenenter"",""1"",""1064""
","
","","","-1","","","20","12368","2218","&#9761;","elianto","#3366ff99","-1","-1","1","+10","[]","0","0","2","","","","","","","",""
"pit-trial","47","533927","0.0-2.0-11.2-0.2","battery-v0.2","","""event"",""trial"",""time""
""fullscreenenter"",""1"",""1064""
""blur"",""7"",""20771""
""focus"",""7"",""24045""
","""event"",""trial"",""time""
""blur"",""7"",""20771""
","""event"",""trial"",""time""
""focus"",""7"",""24045""
","""event"",""trial"",""time""
""fullscreenenter"",""1"",""1064""
","
","","","-1","","","20","12368","2218","&#9761;","elianto","#3366ff99","-1","-1","1","+10","[]","0","0","2","","","","","","","",""
"pit-trial","48","538782","0.0-2.0-11.2-1.2","battery-v0.2","","""event"",""trial"",""time""
""fullscreenenter"",""1"",""1064""
""blur"",""7"",""20771""
""focus"",""7"",""24045""
","""event"",""trial"",""time""
""blur"",""7"",""20771""
","""event"",""trial"",""time""
""focus"",""7"",""24045""
","""event"",""trial"",""time""
""fullscreenenter"",""1"",""1064""
","
","","","-1","","","20","12368","2218","&#9761;","elianto","#3366ff99","-1","-1","1","+10","[]","0","0","2","","","","","","","",""
"pit-trial","49","543636","0.0-2.0-11.2-2.2","battery-v0.2","","""event"",""trial"",""time""
""fullscreenenter"",""1"",""1064""
""blur"",""7"",""20771""
""focus"",""7"",""24045""
","""event"",""trial"",""time""
""blur"",""7"",""20771""
","""event"",""trial"",""time""
""focus"",""7"",""24045""
","""event"",""trial"",""time""
""fullscreenenter"",""1"",""1064""
","
","","","-1","","","20","12368","2218","&#9761;","elianto","#3366ff99","-1","-1","1","+10","[]","0","0","2","","","","","","","",""
"pit-trial","50","548491","0.0-2.0-11.2-3.2","battery-v0.2","","""event"",""trial"",""time""
""fullscreenenter"",""1"",""1064""
""blur"",""7"",""20771""
""focus"",""7"",""24045""
","""event"",""trial"",""time""
""blur"",""7"",""20771""
","""event"",""trial"",""time""
""focus"",""7"",""24045""
","""event"",""trial"",""time""
""fullscreenenter"",""1"",""1064""
","
","","","-1","","","20","12368","2218","&#9761;","elianto","#3366ff99","-1","-1","1","0","[]","0","0","2","","","","","","","",""
"pit-trial","51","553346","0.0-2.0-11.2-4.2","battery-v0.2","","""event"",""trial"",""time""
""fullscreenenter"",""1"",""1064""
""blur"",""7"",""20771""
""focus"",""7"",""24045""
","""event"",""trial"",""time""
""blur"",""7"",""20771""
","""event"",""trial"",""time""
""focus"",""7"",""24045""
","""event"",""trial"",""time""
""fullscreenenter"",""1"",""1064""
","
","","","-1","","","20","12368","2218","&#9761;","elianto","#3366ff99","-1","-1","1","+10","[]","0","0","2","","","","","","","",""
"pit-trial","52","558202","0.0-2.0-11.3-0.3","battery-v0.2","","""event"",""trial"",""time""
""fullscreenenter"",""1"",""1064""
""blur"",""7"",""20771""
""focus"",""7"",""24045""
","""event"",""trial"",""time""
""blur"",""7"",""20771""
","""event"",""trial"",""time""
""focus"",""7"",""24045""
","""event"",""trial"",""time""
""fullscreenenter"",""1"",""1064""
","
","","","-1","","","20","12368","2218","&#9761;","elianto","#3366ff99","-1","-1","1","+10","[]","0","0","2","","","","","","","",""
"pit-trial","53","563056","0.0-2.0-11.3-1.3","battery-v0.2","","""event"",""trial"",""time""
""fullscreenenter"",""1"",""1064""
""blur"",""7"",""20771""
""focus"",""7"",""24045""
","""event"",""trial"",""time""
""blur"",""7"",""20771""
","""event"",""trial"",""time""
""focus"",""7"",""24045""
","""event"",""trial"",""time""
""fullscreenenter"",""1"",""1064""
","
","","","-1","","","20","12368","2218","&#9761;","elianto","#3366ff99","-1","-1","1","+10","[]","0","0","2","","","","","","","",""
"pit-trial","54","567910","0.0-2.0-11.3-2.3","battery-v0.2","","""event"",""trial"",""time""
""fullscreenenter"",""1"",""1064""
""blur"",""7"",""20771""
""focus"",""7"",""24045""
","""event"",""trial"",""time""
""blur"",""7"",""20771""
","""event"",""trial"",""time""
""focus"",""7"",""24045""
","""event"",""trial"",""time""
""fullscreenenter"",""1"",""1064""
","
","","","-1","","","20","12368","2218","&#9761;","elianto","#3366ff99","-1","-1","1","+10","[]","0","0","2","","","","","","","",""
"pit-trial","55","572766","0.0-2.0-11.3-3.3","battery-v0.2","","""event"",""trial"",""time""
""fullscreenenter"",""1"",""1064""
""blur"",""7"",""20771""
""focus"",""7"",""24045""
","""event"",""trial"",""time""
""blur"",""7"",""20771""
","""event"",""trial"",""time""
""focus"",""7"",""24045""
","""event"",""trial"",""time""
""fullscreenenter"",""1"",""1064""
","
","","","-1","","","20","12368","2218","&#9761;","elianto","#3366ff99","-1","-1","1","0","[]","0","0","2","","","","","","","",""
"pit-trial","56","577623","0.0-2.0-11.3-4.3","battery-v0.2","","""event"",""trial"",""time""
""fullscreenenter"",""1"",""1064""
""blur"",""7"",""20771""
""focus"",""7"",""24045""
","""event"",""trial"",""time""
""blur"",""7"",""20771""
","""event"",""trial"",""time""
""focus"",""7"",""24045""
","""event"",""trial"",""time""
""fullscreenenter"",""1"",""1064""
","
","","","-1","","","20","12368","2218","&#9761;","elianto","#3366ff99","-1","-1","1","+10","[]","0","0","2","","","","","","","",""
"call-function","57","577625","0.0-2.0-12.0","battery-v0.2","","""event"",""trial"",""time""
""fullscreenenter"",""1"",""1064""
""blur"",""7"",""20771""
""focus"",""7"",""24045""
","""event"",""trial"",""time""
""blur"",""7"",""20771""
","""event"",""trial"",""time""
""focus"",""7"",""24045""
","""event"",""trial"",""time""
""fullscreenenter"",""1"",""1064""
","
","","","","","","","","","","","","","","","","","","","","","","","","","","",""
"pit-instructions","58","659300","0.0-2.0-13.0","battery-v0.2","","""event"",""trial"",""time""
""fullscreenenter"",""1"",""1064""
""blur"",""7"",""20771""
""focus"",""7"",""24045""
","""event"",""trial"",""time""
""blur"",""7"",""20771""
","""event"",""trial"",""time""
""focus"",""7"",""24045""
","""event"",""trial"",""time""
""fullscreenenter"",""1"",""1064""
","
","","[{""page_index"":0,""viewing_time"":38564.10000000149},{""page_index"":1,""viewing_time"":12965.89999999851},{""page_index"":2,""viewing_time"":11080.5},{""page_index"":3,""viewing_time"":12983.60000000149},{""page_index"":4,""viewing_time"":6079}]","81673.60000000149","","","","","","","","","","","","","","","","","","","","","","","",""
"pit-trial","59","662845","0.0-2.0-14.0-0.0","battery-v0.2","","""event"",""trial"",""time""
""fullscreenenter"",""1"",""1064""
""blur"",""7"",""20771""
""focus"",""7"",""24045""
","""event"",""trial"",""time""
""blur"",""7"",""20771""
","""event"",""trial"",""time""
""focus"",""7"",""24045""
","""event"",""trial"",""time""
""fullscreenenter"",""1"",""1064""
","
","","","691.5","","","20","12368","2218","&#9826;","elianto","#f73b6a7A","-1"," ","0","-10","[1542.3999999985099]","1","0","3","","","","","","","",""
"pit-trial","60","665889","0.0-2.0-14.0-1.0","battery-v0.2","","""event"",""trial"",""time""
""fullscreenenter"",""1"",""1064""
""blur"",""7"",""20771""
""focus"",""7"",""24045""
","""event"",""trial"",""time""
""blur"",""7"",""20771""
","""event"",""trial"",""time""
""focus"",""7"",""24045""
","""event"",""trial"",""time""
""fullscreenenter"",""1"",""1064""
","
","","","188.89999999850988","","","20","12368","2218","&#9826;","elianto","#f73b6a7A","-1"," ","0","-10","[1039.199999999255]","1","0","3","","","","","","","",""
"pit-trial","61","669146","0.0-2.0-14.0-2.0","battery-v0.2","","""event"",""trial"",""time""
""fullscreenenter"",""1"",""1064""
""blur"",""7"",""20771""
""focus"",""7"",""24045""
","""event"",""trial"",""time""
""blur"",""7"",""20771""
","""event"",""trial"",""time""
""focus"",""7"",""24045""
","""event"",""trial"",""time""
""fullscreenenter"",""1"",""1064""
","
","","","402.5","","","20","12368","2218","&#9826;","elianto","#f73b6a7A","-1"," ","0","-10","[1253.199999999255]","1","0","3","","","","","","","",""
"pit-trial","62","674002","0.0-2.0-14.0-3.0","battery-v0.2","","""event"",""trial"",""time""
""fullscreenenter"",""1"",""1064""
""blur"",""7"",""20771""
""focus"",""7"",""24045""
","""event"",""trial"",""time""
""blur"",""7"",""20771""
","""event"",""trial"",""time""
""focus"",""7"",""24045""
","""event"",""trial"",""time""
""fullscreenenter"",""1"",""1064""
","
","","","-1","","","20","12368","2218","&#9826;","elianto","#f73b6a7A","-1","-1","1","-10","[]","0","0","3","","","","","","","",""
"pit-trial","63","678857","0.0-2.0-14.0-4.0","battery-v0.2","","""event"",""trial"",""time""
""fullscreenenter"",""1"",""1064""
""blur"",""7"",""20771""
""focus"",""7"",""24045""
","""event"",""trial"",""time""
""blur"",""7"",""20771""
","""event"",""trial"",""time""
""focus"",""7"",""24045""
","""event"",""trial"",""time""
""fullscreenenter"",""1"",""1064""
","
","","","-1","","","20","12368","2218","&#9826;","elianto","#f73b6a7A","-1","-1","1","0","[]","0","0","3","","","","","","","",""
"pit-trial","64","683713","0.0-2.0-14.1-0.1","battery-v0.2","","""event"",""trial"",""time""
""fullscreenenter"",""1"",""1064""
""blur"",""7"",""20771""
""focus"",""7"",""24045""
","""event"",""trial"",""time""
""blur"",""7"",""20771""
","""event"",""trial"",""time""
""focus"",""7"",""24045""
","""event"",""trial"",""time""
""fullscreenenter"",""1"",""1064""
","
","","","-1","","","20","12368","2218","&#9826;","elianto","#f73b6a7A","-1","-1","1","0","[]","0","0","3","","","","","","","",""
"pit-trial","65","688568","0.0-2.0-14.1-1.1","battery-v0.2","","""event"",""trial"",""time""
""fullscreenenter"",""1"",""1064""
""blur"",""7"",""20771""
""focus"",""7"",""24045""
","""event"",""trial"",""time""
""blur"",""7"",""20771""
","""event"",""trial"",""time""
""focus"",""7"",""24045""
","""event"",""trial"",""time""
""fullscreenenter"",""1"",""1064""
","
","","","-1","","","20","12368","2218","&#9826;","elianto","#f73b6a7A","-1","-1","1","0","[]","0","0","3","","","","","","","",""
"pit-trial","66","693424","0.0-2.0-14.1-2.1","battery-v0.2","","""event"",""trial"",""time""
""fullscreenenter"",""1"",""1064""
""blur"",""7"",""20771""
""focus"",""7"",""24045""
","""event"",""trial"",""time""
""blur"",""7"",""20771""
","""event"",""trial"",""time""
""focus"",""7"",""24045""
","""event"",""trial"",""time""
""fullscreenenter"",""1"",""1064""
","
","","","-1","","","20","12368","2218","&#9826;","elianto","#f73b6a7A","-1","-1","1","0","[]","0","0","3","","","","","","","",""
"pit-trial","67","698280","0.0-2.0-14.1-3.1","battery-v0.2","","""event"",""trial"",""time""
""fullscreenenter"",""1"",""1064""
""blur"",""7"",""20771""
""focus"",""7"",""24045""
","""event"",""trial"",""time""
""blur"",""7"",""20771""
","""event"",""trial"",""time""
""focus"",""7"",""24045""
","""event"",""trial"",""time""
""fullscreenenter"",""1"",""1064""
","
","","","-1","","","20","12368","2218","&#9826;","elianto","#f73b6a7A","-1","-1","1","-10","[]","0","0","3","","","","","","","",""
"pit-trial","68","703136","0.0-2.0-14.1-4.1","battery-v0.2","","""event"",""trial"",""time""
""fullscreenenter"",""1"",""1064""
""blur"",""7"",""20771""
""focus"",""7"",""24045""
","""event"",""trial"",""time""
""blur"",""7"",""20771""
","""event"",""trial"",""time""
""focus"",""7"",""24045""
","""event"",""trial"",""time""
""fullscreenenter"",""1"",""1064""
","
","","","-1","","","20","12368","2218","&#9826;","elianto","#f73b6a7A","-1","-1","1","0","[]","0","0","3","","","","","","","",""
"pit-trial","69","707991","0.0-2.0-14.2-0.2","battery-v0.2","","""event"",""trial"",""time""
""fullscreenenter"",""1"",""1064""
""blur"",""7"",""20771""
""focus"",""7"",""24045""
","""event"",""trial"",""time""
""blur"",""7"",""20771""
","""event"",""trial"",""time""
""focus"",""7"",""24045""
","""event"",""trial"",""time""
""fullscreenenter"",""1"",""1064""
","
","","","-1","","","20","12368","2218","&#9826;","elianto","#f73b6a7A","-1","-1","1","0","[]","0","0","3","","","","","","","",""
"pit-trial","70","712845","0.0-2.0-14.2-1.2","battery-v0.2","","""event"",""trial"",""time""
""fullscreenenter"",""1"",""1064""
""blur"",""7"",""20771""
""focus"",""7"",""24045""
","""event"",""trial"",""time""
""blur"",""7"",""20771""
","""event"",""trial"",""time""
""focus"",""7"",""24045""
","""event"",""trial"",""time""
""fullscreenenter"",""1"",""1064""
","
","","","-1","","","20","12368","2218","&#9826;","elianto","#f73b6a7A","-1","-1","1","0","[]","0","0","3","","","","","","","",""
"pit-trial","71","717700","0.0-2.0-14.2-2.2","battery-v0.2","","""event"",""trial"",""time""
""fullscreenenter"",""1"",""1064""
""blur"",""7"",""20771""
""focus"",""7"",""24045""
","""event"",""trial"",""time""
""blur"",""7"",""20771""
","""event"",""trial"",""time""
""focus"",""7"",""24045""
","""event"",""trial"",""time""
""fullscreenenter"",""1"",""1064""
","
","","","-1","","","20","12368","2218","&#9826;","elianto","#f73b6a7A","-1","-1","1","0","[]","0","0","3","","","","","","","",""
"pit-trial","72","722555","0.0-2.0-14.2-3.2","battery-v0.2","","""event"",""trial"",""time""
""fullscreenenter"",""1"",""1064""
""blur"",""7"",""20771""
""focus"",""7"",""24045""
","""event"",""trial"",""time""
""blur"",""7"",""20771""
","""event"",""trial"",""time""
""focus"",""7"",""24045""
","""event"",""trial"",""time""
""fullscreenenter"",""1"",""1064""
","
","","","-1","","","20","12368","2218","&#9826;","elianto","#f73b6a7A","-1","-1","1","-10","[]","0","0","3","","","","","","","",""
"pit-trial","73","727410","0.0-2.0-14.2-4.2","battery-v0.2","","""event"",""trial"",""time""
""fullscreenenter"",""1"",""1064""
""blur"",""7"",""20771""
""focus"",""7"",""24045""
","""event"",""trial"",""time""
""blur"",""7"",""20771""
","""event"",""trial"",""time""
""focus"",""7"",""24045""
","""event"",""trial"",""time""
""fullscreenenter"",""1"",""1064""
","
","","","-1","","","20","12368","2218","&#9826;","elianto","#f73b6a7A","-1","-1","1","0","[]","0","0","3","","","","","","","",""
"pit-trial","74","732170","0.0-2.0-14.3-0.3","battery-v0.2","","""event"",""trial"",""time""
""fullscreenenter"",""1"",""1064""
""blur"",""7"",""20771""
""focus"",""7"",""24045""
","""event"",""trial"",""time""
""blur"",""7"",""20771""
","""event"",""trial"",""time""
""focus"",""7"",""24045""
","""event"",""trial"",""time""
""fullscreenenter"",""1"",""1064""
","
","","","-1","","","20","12368","2218","&#9826;","elianto","#f73b6a7A","-1","-1","1","0","[]","0","0","3","","","","","","","",""
"pit-trial","75","737024","0.0-2.0-14.3-1.3","battery-v0.2","","""event"",""trial"",""time""
""fullscreenenter"",""1"",""1064""
""blur"",""7"",""20771""
""focus"",""7"",""24045""
","""event"",""trial"",""time""
""blur"",""7"",""20771""
","""event"",""trial"",""time""
""focus"",""7"",""24045""
","""event"",""trial"",""time""
""fullscreenenter"",""1"",""1064""
","
","","","-1","","","20","12368","2218","&#9826;","elianto","#f73b6a7A","-1","-1","1","0","[]","0","0","3","","","","","","","",""
"pit-trial","76","741880","0.0-2.0-14.3-2.3","battery-v0.2","","""event"",""trial"",""time""
""fullscreenenter"",""1"",""1064""
""blur"",""7"",""20771""
""focus"",""7"",""24045""
","""event"",""trial"",""time""
""blur"",""7"",""20771""
","""event"",""trial"",""time""
""focus"",""7"",""24045""
","""event"",""trial"",""time""
""fullscreenenter"",""1"",""1064""
","
","","","-1","","","20","12368","2218","&#9826;","elianto","#f73b6a7A","-1","-1","1","0","[]","0","0","3","","","","","","","",""
"pit-trial","77","746736","0.0-2.0-14.3-3.3","battery-v0.2","","""event"",""trial"",""time""
""fullscreenenter"",""1"",""1064""
""blur"",""7"",""20771""
""focus"",""7"",""24045""
","""event"",""trial"",""time""
""blur"",""7"",""20771""
","""event"",""trial"",""time""
""focus"",""7"",""24045""
","""event"",""trial"",""time""
""fullscreenenter"",""1"",""1064""
","
","","","-1","","","20","12368","2218","&#9826;","elianto","#f73b6a7A","-1","-1","1","-10","[]","0","0","3","","","","","","","",""
"pit-trial","78","751591","0.0-2.0-14.3-4.3","battery-v0.2","","""event"",""trial"",""time""
""fullscreenenter"",""1"",""1064""
""blur"",""7"",""20771""
""focus"",""7"",""24045""
","""event"",""trial"",""time""
""blur"",""7"",""20771""
","""event"",""trial"",""time""
""focus"",""7"",""24045""
","""event"",""trial"",""time""
""fullscreenenter"",""1"",""1064""
","
","","","-1","","","20","12368","2218","&#9826;","elianto","#f73b6a7A","-1","-1","1","0","[]","0","0","3","","","","","","","",""
"call-function","79","751593","0.0-2.0-15.0","battery-v0.2","","""event"",""trial"",""time""
""fullscreenenter"",""1"",""1064""
""blur"",""7"",""20771""
""focus"",""7"",""24045""
","""event"",""trial"",""time""
""blur"",""7"",""20771""
","""event"",""trial"",""time""
""focus"",""7"",""24045""
","""event"",""trial"",""time""
""fullscreenenter"",""1"",""1064""
","
","","","","","","","","","","","","","","","","","","","","","","","","","","",""
"pit-instructions","80","784572","0.0-2.0-16.0","battery-v0.2","","""event"",""trial"",""time""
""fullscreenenter"",""1"",""1064""
""blur"",""7"",""20771""
""focus"",""7"",""24045""
","""event"",""trial"",""time""
""blur"",""7"",""20771""
","""event"",""trial"",""time""
""focus"",""7"",""24045""
","""event"",""trial"",""time""
""fullscreenenter"",""1"",""1064""
","
","","[{""page_index"":0,""viewing_time"":7208},{""page_index"":1,""viewing_time"":10279.400000002235},{""page_index"":2,""viewing_time"":9113.29999999702},{""page_index"":3,""viewing_time"":6378.20000000298}]","32979.300000000745","","","","","","","","","","","","","","","","","","","","","","","",""
"pit-trial","81","788317","0.0-2.0-17.0-0.0","battery-v0.2","","""event"",""trial"",""time""
""fullscreenenter"",""1"",""1064""
""blur"",""7"",""20771""
""focus"",""7"",""24045""
","""event"",""trial"",""time""
""blur"",""7"",""20771""
","""event"",""trial"",""time""
""focus"",""7"",""24045""
","""event"",""trial"",""time""
""fullscreenenter"",""1"",""1064""
","
","","","890.3000000007451","","","20","12368","2218","&#9789;","elianto","#f73b6a7A"," "," ","1","0","[1741.5]","1","0","4","","","","","","","",""
"pit-trial","82","791298","0.0-2.0-17.0-1.0","battery-v0.2","","""event"",""trial"",""time""
""fullscreenenter"",""1"",""1064""
""blur"",""7"",""20771""
""focus"",""7"",""24045""
","""event"",""trial"",""time""
""blur"",""7"",""20771""
","""event"",""trial"",""time""
""focus"",""7"",""24045""
","""event"",""trial"",""time""
""fullscreenenter"",""1"",""1064""
","
","","","125.19999999925494","","","20","12368","2218","&#9789;","elianto","#f73b6a7A"," "," ","1","0","[977.3000000007451]","1","0","4","","","","","","","",""
"pit-trial","83","794546","0.0-2.0-17.0-2.0","battery-v0.2","","""event"",""trial"",""time""
""fullscreenenter"",""1"",""1064""
""blur"",""7"",""20771""
""focus"",""7"",""24045""
","""event"",""trial"",""time""
""blur"",""7"",""20771""
","""event"",""trial"",""time""
""focus"",""7"",""24045""
","""event"",""trial"",""time""
""fullscreenenter"",""1"",""1064""
","
","","","394.70000000298023","","","20","12368","2218","&#9789;","elianto","#f73b6a7A"," "," ","1","0","[1245.6000000014901]","1","0","4","","","","","","","",""
"pit-trial","84","797583","0.0-2.0-17.0-3.0","battery-v0.2","","""event"",""trial"",""time""
""fullscreenenter"",""1"",""1064""
""blur"",""7"",""20771""
""focus"",""7"",""24045""
","""event"",""trial"",""time""
""blur"",""7"",""20771""
","""event"",""trial"",""time""
""focus"",""7"",""24045""
","""event"",""trial"",""time""
""fullscreenenter"",""1"",""1064""
","
","","","181.5","","","20","12368","2218","&#9789;","elianto","#f73b6a7A"," "," ","1","-10","[1032.7999999970198]","1","0","4","","","","","","","",""
"pit-trial","85","800579","0.0-2.0-17.0-4.0","battery-v0.2","","""event"",""trial"",""time""
""fullscreenenter"",""1"",""1064""
""blur"",""7"",""20771""
""focus"",""7"",""24045""
","""event"",""trial"",""time""
""blur"",""7"",""20771""
","""event"",""trial"",""time""
""focus"",""7"",""24045""
","""event"",""trial"",""time""
""fullscreenenter"",""1"",""1064""
","
","","","141.40000000223517","","","20","12368","2218","&#9789;","elianto","#f73b6a7A"," "," ","1","0","[991.7999999970198]","1","0","4","","","","","","","",""
"pit-trial","86","803650","0.0-2.0-17.1-0.1","battery-v0.2","","""event"",""trial"",""time""
""fullscreenenter"",""1"",""1064""
""blur"",""7"",""20771""
""focus"",""7"",""24045""
","""event"",""trial"",""time""
""blur"",""7"",""20771""
","""event"",""trial"",""time""
""focus"",""7"",""24045""
","""event"",""trial"",""time""
""fullscreenenter"",""1"",""1064""
","
","","","215","","","20","12368","2218","&#9789;","elianto","#f73b6a7A"," "," ","1","0","[1066]","1","0","4","","","","","","","",""
"pit-trial","87","806665","0.0-2.0-17.1-1.1","battery-v0.2","","""event"",""trial"",""time""
""fullscreenenter"",""1"",""1064""
""blur"",""7"",""20771""
""focus"",""7"",""24045""
","""event"",""trial"",""time""
""blur"",""7"",""20771""
","""event"",""trial"",""time""
""focus"",""7"",""24045""
","""event"",""trial"",""time""
""fullscreenenter"",""1"",""1064""
","
","","","162","","","20","12368","2218","&#9789;","elianto","#f73b6a7A"," "," ","1","0","[1012.1000000014901]","1","0","4","","","","","","","",""
"pit-trial","88","809697","0.0-2.0-17.1-2.1","battery-v0.2","","""event"",""trial"",""time""
""fullscreenenter"",""1"",""1064""
""blur"",""7"",""20771""
""focus"",""7"",""24045""
","""event"",""trial"",""time""
""blur"",""7"",""20771""
","""event"",""trial"",""time""
""focus"",""7"",""24045""
","""event"",""trial"",""time""
""fullscreenenter"",""1"",""1064""
","
","","","175.39999999850988","","","20","12368","2218","&#9789;","elianto","#f73b6a7A"," "," ","1","0","[1026.8999999985099]","1","0","4","","","","","","","",""
"pit-trial","89","813242","0.0-2.0-17.1-3.1","battery-v0.2","","""event"",""trial"",""time""
""fullscreenenter"",""1"",""1064""
""blur"",""7"",""20771""
""focus"",""7"",""24045""
","""event"",""trial"",""time""
""blur"",""7"",""20771""
","""event"",""trial"",""time""
""focus"",""7"",""24045""
","""event"",""trial"",""time""
""fullscreenenter"",""1"",""1064""
","
","","","690.5","","","20","12368","2218","&#9789;","elianto","#f73b6a7A"," "," ","1","-10","[1541.2999999970198]","1","0","4","","","","","","","",""
"pit-trial","90","816681","0.0-2.0-17.1-4.1","battery-v0.2","","""event"",""trial"",""time""
""fullscreenenter"",""1"",""1064""
""blur"",""7"",""20771""
""focus"",""7"",""24045""
","""event"",""trial"",""time""
""blur"",""7"",""20771""
","""event"",""trial"",""time""
""focus"",""7"",""24045""
","""event"",""trial"",""time""
""fullscreenenter"",""1"",""1064""
","
","","","584.4000000022352","","","20","12368","2218","&#9789;","elianto","#f73b6a7A"," "," ","1","0","[1435.199999999255]","1","0","4","","","","","","","",""
"pit-trial","91","820032","0.0-2.0-17.2-0.2","battery-v0.2","","""event"",""trial"",""time""
""fullscreenenter"",""1"",""1064""
""blur"",""7"",""20771""
""focus"",""7"",""24045""
","""event"",""trial"",""time""
""blur"",""7"",""20771""
","""event"",""trial"",""time""
""focus"",""7"",""24045""
","""event"",""trial"",""time""
""fullscreenenter"",""1"",""1064""
","
","","","495.70000000298023","","","20","12368","2218","&#9789;","elianto","#f73b6a7A"," "," ","1","0","[1346.6000000014901]","1","0","4","","","","","","","",""
"pit-trial","92","823799","0.0-2.0-17.2-1.2","battery-v0.2","","""event"",""trial"",""time""
""fullscreenenter"",""1"",""1064""
""blur"",""7"",""20771""
""focus"",""7"",""24045""
","""event"",""trial"",""time""
""blur"",""7"",""20771""
","""event"",""trial"",""time""
""focus"",""7"",""24045""
","""event"",""trial"",""time""
""fullscreenenter"",""1"",""1064""
","
","","","911","","","20","12368","2218","&#9789;","elianto","#f73b6a7A"," "," ","1","0","[1762.699999999255]","1","0","4","","","","","","","",""
"pit-trial","93","827413","0.0-2.0-17.2-2.2","battery-v0.2","","""event"",""trial"",""time""
""fullscreenenter"",""1"",""1064""
""blur"",""7"",""20771""
""focus"",""7"",""24045""
","""event"",""trial"",""time""
""blur"",""7"",""20771""
","""event"",""trial"",""time""
""focus"",""7"",""24045""
","""event"",""trial"",""time""
""fullscreenenter"",""1"",""1064""
","
","","","759.4000000022352","","","20","12368","2218","&#9789;","elianto","#f73b6a7A"," "," ","1","0","[1610.199999999255]","1","0","4","","","","","","","",""
"pit-trial","94","830327","0.0-2.0-17.2-3.2","battery-v0.2","","""event"",""trial"",""time""
""fullscreenenter"",""1"",""1064""
""blur"",""7"",""20771""
""focus"",""7"",""24045""
","""event"",""trial"",""time""
""blur"",""7"",""20771""
","""event"",""trial"",""time""
""focus"",""7"",""24045""
","""event"",""trial"",""time""
""fullscreenenter"",""1"",""1064""
","
","","","59.5","","","20","12368","2218","&#9789;","elianto","#f73b6a7A"," "," ","1","-10","[910.1999999992549]","1","0","4","","","","","","","",""
"pit-trial","95","834922","0.0-2.0-17.2-4.2","battery-v0.2","","""event"",""trial"",""time""
""fullscreenenter"",""1"",""1064""
""blur"",""7"",""20771""
""focus"",""7"",""24045""
","""event"",""trial"",""time""
""blur"",""7"",""20771""
","""event"",""trial"",""time""
""focus"",""7"",""24045""
","""event"",""trial"",""time""
""fullscreenenter"",""1"",""1064""
","
","","","1742.1000000014901","","","20","12368","2218","&#9789;","elianto","#f73b6a7A"," "," ","1","0","[2592.89999999851]","1","0","4","","","","","","","",""
"pit-trial","96","838010","0.0-2.0-17.3-0.3","battery-v0.2","","""event"",""trial"",""time""
""fullscreenenter"",""1"",""1064""
""blur"",""7"",""20771""
""focus"",""7"",""24045""
","""event"",""trial"",""time""
""blur"",""7"",""20771""
","""event"",""trial"",""time""
""focus"",""7"",""24045""
","""event"",""trial"",""time""
""fullscreenenter"",""1"",""1064""
","
","","","232.90000000223517","","","20","12368","2218","&#9789;","elianto","#f73b6a7A"," "," ","1","0","[1083.199999999255]","1","0","4","","","","","","","",""
"pit-trial","97","840884","0.0-2.0-17.3-1.3","battery-v0.2","","""event"",""trial"",""time""
""fullscreenenter"",""1"",""1064""
""blur"",""7"",""20771""
""focus"",""7"",""24045""
","""event"",""trial"",""time""
""blur"",""7"",""20771""
","""event"",""trial"",""time""
""focus"",""7"",""24045""
","""event"",""trial"",""time""
""fullscreenenter"",""1"",""1064""
","
","","","19.599999997764826","","","20","12368","2218","&#9789;","elianto","#f73b6a7A"," "," ","1","0","[870.5]","1","0","4","","","","","","","",""
"pit-trial","98","844460","0.0-2.0-17.3-2.3","battery-v0.2","","""event"",""trial"",""time""
""fullscreenenter"",""1"",""1064""
""blur"",""7"",""20771""
""focus"",""7"",""24045""
","""event"",""trial"",""time""
""blur"",""7"",""20771""
","""event"",""trial"",""time""
""focus"",""7"",""24045""
","""event"",""trial"",""time""
""fullscreenenter"",""1"",""1064""
","
","","","722.3000000007451","","","20","12368","2218","&#9789;","elianto","#f73b6a7A"," "," ","1","0","[1573.0999999977648]","1","0","4","","","","","","","",""
"pit-trial","99","849316","0.0-2.0-17.3-3.3","battery-v0.2","","""event"",""trial"",""time""
""fullscreenenter"",""1"",""1064""
""blur"",""7"",""20771""
""focus"",""7"",""24045""
","""event"",""trial"",""time""
""blur"",""7"",""20771""
","""event"",""trial"",""time""
""focus"",""7"",""24045""
","""event"",""trial"",""time""
""fullscreenenter"",""1"",""1064""
","
","","","-1","","","20","12368","2218","&#9789;","elianto","#f73b6a7A"," ","-1","0","0","[]","0","0","4","","","","","","","",""
"pit-trial","100","853871","0.0-2.0-17.3-4.3","battery-v0.2","","""event"",""trial"",""time""
""fullscreenenter"",""1"",""1064""
""blur"",""7"",""20771""
""focus"",""7"",""24045""
","""event"",""trial"",""time""
""blur"",""7"",""20771""
","""event"",""trial"",""time""
""focus"",""7"",""24045""
","""event"",""trial"",""time""
""fullscreenenter"",""1"",""1064""
","
","","","1701","","","20","12368","2218","&#9789;","elianto","#f73b6a7A"," "," ","1","0","[2551.800000000745]","1","0","4","","","","","","","",""
"call-function","101","853873","0.0-2.0-18.0","battery-v0.2","","""event"",""trial"",""time""
""fullscreenenter"",""1"",""1064""
""blur"",""7"",""20771""
""focus"",""7"",""24045""
","""event"",""trial"",""time""
""blur"",""7"",""20771""
","""event"",""trial"",""time""
""focus"",""7"",""24045""
","""event"",""trial"",""time""
""fullscreenenter"",""1"",""1064""
","
","","","","","","","","","","","","","","","","","","","","","","","","","","",""
"pit-instructions","102","1162213","0.0-2.0-19.0","battery-v0.2","","""event"",""trial"",""time""
""fullscreenenter"",""1"",""1064""
""blur"",""7"",""20771""
""focus"",""7"",""24045""
","""event"",""trial"",""time""
""blur"",""7"",""20771""
","""event"",""trial"",""time""
""focus"",""7"",""24045""
","""event"",""trial"",""time""
""fullscreenenter"",""1"",""1064""
","
","","[{""page_index"":0,""viewing_time"":170403.6000000015},{""page_index"":1,""viewing_time"":13052.29999999702},{""page_index"":2,""viewing_time"":17185},{""page_index"":3,""viewing_time"":11380.900000002235},{""page_index"":4,""viewing_time"":19618.89999999851},{""page_index"":5,""viewing_time"":10228.5},{""page_index"":6,""viewing_time"":33531.199999999255},{""page_index"":7,""viewing_time"":27343.70000000298},{""page_index"":8,""viewing_time"":5606.5}]","308350.8999999985","","","","","","","","","","","","","","","","","","","","","","","",""
"pit-comprehension","103","1167983","0.0-2.0-20.0-0.0","battery-v0.2","","""event"",""trial"",""time""
""fullscreenenter"",""1"",""1064""
""blur"",""7"",""20771""
""focus"",""7"",""24045""
","""event"",""trial"",""time""
""blur"",""7"",""20771""
","""event"",""trial"",""time""
""focus"",""7"",""24045""
","""event"",""trial"",""time""
""fullscreenenter"",""1"",""1064""
","
","","","5766.39999999851","[""SPACE""]","0","20","12368","2218","","","","","","","","","","","","","","","","","","",""
"pit-instructions","104","1183590","0.0-2.0-20.0-1.0","battery-v0.2","","""event"",""trial"",""time""
""fullscreenenter"",""1"",""1064""
""blur"",""7"",""20771""
""focus"",""7"",""24045""
","""event"",""trial"",""time""
""blur"",""7"",""20771""
","""event"",""trial"",""time""
""focus"",""7"",""24045""
","""event"",""trial"",""time""
""fullscreenenter"",""1"",""1064""
","
","","[{""page_index"":0,""viewing_time"":15567}]","15567.300000000745","","","","","","","","","","","","","","","","","","","","","","","",""
"pit-comprehension","105","1188570","0.0-2.0-21.0-0.0","battery-v0.2","","""event"",""trial"",""time""
""fullscreenenter"",""1"",""1064""
""blur"",""7"",""20771""
""focus"",""7"",""24045""
","""event"",""trial"",""time""
""blur"",""7"",""20771""
","""event"",""trial"",""time""
""focus"",""7"",""24045""
","""event"",""trial"",""time""
""fullscreenenter"",""1"",""1064""
","
","","","4975.29999999702","[""10""]","0","20","12368","2218","","","","","","","","","","","","","","","","","","",""
"pit-instructions","106","1213762","0.0-2.0-21.0-1.0","battery-v0.2","","""event"",""trial"",""time""
""fullscreenenter"",""1"",""1064""
""blur"",""7"",""20771""
""focus"",""7"",""24045""
","""event"",""trial"",""time""
""blur"",""7"",""20771""
","""event"",""trial"",""time""
""focus"",""7"",""24045""
","""event"",""trial"",""time""
""fullscreenenter"",""1"",""1064""
","
","","[{""page_index"":0,""viewing_time"":25151.199999999255}]","25151.599999997765","","","","","","","","","","","","","","","","","","","","","","","",""
"pit-comprehension","107","1220524","0.0-2.0-22.0-0.0","battery-v0.2","","""event"",""trial"",""time""
""fullscreenenter"",""1"",""1064""
""blur"",""7"",""20771""
""focus"",""7"",""24045""
","""event"",""trial"",""time""
""blur"",""7"",""20771""
","""event"",""trial"",""time""
""focus"",""7"",""24045""
","""event"",""trial"",""time""
""fullscreenenter"",""1"",""1064""
","
","","","6755.89999999851","[""0""]","0","20","12368","2218","","","","","","","","","","","","","","","","","","",""
"pit-instructions","108","1233771","0.0-2.0-22.0-1.0","battery-v0.2","","""event"",""trial"",""time""
""fullscreenenter"",""1"",""1064""
""blur"",""7"",""20771""
""focus"",""7"",""24045""
","""event"",""trial"",""time""
""blur"",""7"",""20771""
","""event"",""trial"",""time""
""focus"",""7"",""24045""
","""event"",""trial"",""time""
""fullscreenenter"",""1"",""1064""
","
","","[{""page_index"":0,""viewing_time"":13206.60000000149}]","13206.900000002235","","","","","","","","","","","","","","","","","","","","","","","",""
"pit-comprehension","109","1241948","0.0-2.0-23.0-0.0","battery-v0.2","","""event"",""trial"",""time""
""fullscreenenter"",""1"",""1064""
""blur"",""7"",""20771""
""focus"",""7"",""24045""
","""event"",""trial"",""time""
""blur"",""7"",""20771""
","""event"",""trial"",""time""
""focus"",""7"",""24045""
","""event"",""trial"",""time""
""fullscreenenter"",""1"",""1064""
","
","","","8171.89999999851","[""True""]","0","20","12368","2218","","","","","","","","","","","","","","","","","","",""
"pit-instructions","110","1243054","0.0-2.0-23.0-1.0","battery-v0.2","","""event"",""trial"",""time""
""fullscreenenter"",""1"",""1064""
""blur"",""7"",""20771""
""focus"",""7"",""24045""
","""event"",""trial"",""time""
""blur"",""7"",""20771""
","""event"",""trial"",""time""
""focus"",""7"",""24045""
","""event"",""trial"",""time""
""fullscreenenter"",""1"",""1064""
","
","","[{""page_index"":0,""viewing_time"":1063.3999999985099}]","1063.5999999977648","","","","","","","","","","","","","","","","","","","","","","","",""
"pit-comprehension","111","1257091","0.0-2.0-24.0-0.0","battery-v0.2","","""event"",""trial"",""time""
""fullscreenenter"",""1"",""1064""
""blur"",""7"",""20771""
""focus"",""7"",""24045""
","""event"",""trial"",""time""
""blur"",""7"",""20771""
","""event"",""trial"",""time""
""focus"",""7"",""24045""
","""event"",""trial"",""time""
""fullscreenenter"",""1"",""1064""
","
","","","14033.60000000149","[""True""]","0","20","12368","2218","","","","","","","","","","","","","","","","","","",""
"pit-instructions","112","1267195","0.0-2.0-24.0-1.0","battery-v0.2","","""event"",""trial"",""time""
""fullscreenenter"",""1"",""1064""
""blur"",""7"",""20771""
""focus"",""7"",""24045""
","""event"",""trial"",""time""
""blur"",""7"",""20771""
","""event"",""trial"",""time""
""focus"",""7"",""24045""
","""event"",""trial"",""time""
""fullscreenenter"",""1"",""1064""
","
","","[{""page_index"":0,""viewing_time"":10060.39999999851}]","10060.699999999255","","","","","","","","","","","","","","","","","","","","","","","",""
"pit-comprehension","113","1290815","0.0-2.0-25.0-0.0","battery-v0.2","","""event"",""trial"",""time""
""fullscreenenter"",""1"",""1064""
""blur"",""7"",""20771""
""focus"",""7"",""24045""
","""event"",""trial"",""time""
""blur"",""7"",""20771""
","""event"",""trial"",""time""
""focus"",""7"",""24045""
","""event"",""trial"",""time""
""fullscreenenter"",""1"",""1064""
","
","","","23618.800000000745","[""True""]","0","20","12368","2218","","","","","","","","","","","","","","","","","","",""
"pit-instructions","114","1297125","0.0-2.0-25.0-1.0","battery-v0.2","","""event"",""trial"",""time""
""fullscreenenter"",""1"",""1064""
""blur"",""7"",""20771""
""focus"",""7"",""24045""
","""event"",""trial"",""time""
""blur"",""7"",""20771""
","""event"",""trial"",""time""
""focus"",""7"",""24045""
","""event"",""trial"",""time""
""fullscreenenter"",""1"",""1064""
","
","","[{""page_index"":0,""viewing_time"":6270.300000000745}]","6270.70000000298","","","","","","","","","","","","","","","","","","","","","","","",""
"pit-comprehension","115","1303560","0.0-2.0-26.0-0.0","battery-v0.2","","""event"",""trial"",""time""
""fullscreenenter"",""1"",""1064""
""blur"",""7"",""20771""
""focus"",""7"",""24045""
","""event"",""trial"",""time""
""blur"",""7"",""20771""
","""event"",""trial"",""time""
""focus"",""7"",""24045""
","""event"",""trial"",""time""
""fullscreenenter"",""1"",""1064""
","
","","","6429.89999999851","[""False""]","0","20","12368","2218","","","","","","","","","","","","","","","","","","",""
"pit-instructions","116","1309887","0.0-2.0-26.0-1.0","battery-v0.2","","""event"",""trial"",""time""
""fullscreenenter"",""1"",""1064""
""blur"",""7"",""20771""
""focus"",""7"",""24045""
","""event"",""trial"",""time""
""blur"",""7"",""20771""
","""event"",""trial"",""time""
""focus"",""7"",""24045""
","""event"",""trial"",""time""
""fullscreenenter"",""1"",""1064""
","
","","[{""page_index"":0,""viewing_time"":6283.60000000149}]","6283.89999999851","","","","","","","","","","","","","","","","","","","","","","","",""
"pit-instructions","117","1358521","0.0-3.0","battery-v0.2","","""event"",""trial"",""time""
""fullscreenenter"",""1"",""1064""
""blur"",""7"",""20771""
""focus"",""7"",""24045""
","""event"",""trial"",""time""
""blur"",""7"",""20771""
","""event"",""trial"",""time""
""focus"",""7"",""24045""
","""event"",""trial"",""time""
""fullscreenenter"",""1"",""1064""
","
","","[{""page_index"":0,""viewing_time"":8991.10000000149},{""page_index"":1,""viewing_time"":31629.300000000745},{""page_index"":2,""viewing_time"":8012.39999999851}]","48633.199999999255","","","","","","","","","","","","","","","","","","","","","","","",""
"pit-trial","118","1362704","0.0-4.0","battery-v0.2","","""event"",""trial"",""time""
""fullscreenenter"",""1"",""1064""
""blur"",""7"",""20771""
""focus"",""7"",""24045""
","""event"",""trial"",""time""
""blur"",""7"",""20771""
","""event"",""trial"",""time""
""focus"",""7"",""24045""
","""event"",""trial"",""time""
""fullscreenenter"",""1"",""1064""
","
","","","1321.800000000745","","","20","12368","2218","&#9733;","elianto","#3366ff99","-1"," ","0","0","[2172.699999999255]","1","1","","","12368","1","2","2","win","no-go","0"
"pit-trial","119","1367560","0.0-5.0","battery-v0.2","","""event"",""trial"",""time""
""fullscreenenter"",""1"",""1064""
""blur"",""7"",""20771""
""focus"",""7"",""24045""
","""event"",""trial"",""time""
""blur"",""7"",""20771""
","""event"",""trial"",""time""
""focus"",""7"",""24045""
","""event"",""trial"",""time""
""fullscreenenter"",""1"",""1064""
","
","","","-1","","","20","12368","2218","&#9728;","elianto","#f73b6a7A","-1","-1","1","0","[]","0","1","","","12368","2","0","4","lose","no-go","0"
"pit-trial","120","1372415","0.0-6.0","battery-v0.2","","""event"",""trial"",""time""
""fullscreenenter"",""1"",""1064""
""blur"",""7"",""20771""
""focus"",""7"",""24045""
","""event"",""trial"",""time""
""blur"",""7"",""20771""
","""event"",""trial"",""time""
""focus"",""7"",""24045""
","""event"",""trial"",""time""
""fullscreenenter"",""1"",""1064""
","
","","","-1","","","20","12368","2218","&#9752;","elianto","#f73b6a7A"," ","-1","0","-10","[]","0","1","","","12368","3","3","3","lose","go","0"
"pit-trial","121","1376203","0.0-7.0","battery-v0.2","","""event"",""trial"",""time""
""fullscreenenter"",""1"",""1064""
""blur"",""7"",""20771""
""focus"",""7"",""24045""
","""event"",""trial"",""time""
""blur"",""7"",""20771""
","""event"",""trial"",""time""
""focus"",""7"",""24045""
","""event"",""trial"",""time""
""fullscreenenter"",""1"",""1064""
","
","","","932.5","","","20","12368","2218","&#9730;","elianto","#3366ff99"," "," ","1","0","[1783.8999999985099]","1","1","","","12368","4","1","1","win","go","1"
"pit-trial","122","1381058","0.0-8.0","battery-v0.2","","""event"",""trial"",""time""
""fullscreenenter"",""1"",""1064""
""blur"",""7"",""20771""
""focus"",""7"",""24045""
","""event"",""trial"",""time""
""blur"",""7"",""20771""
","""event"",""trial"",""time""
""focus"",""7"",""24045""
","""event"",""trial"",""time""
""fullscreenenter"",""1"",""1064""
","
","","","-1","","","20","12368","2218","&#9752;","elianto","#f73b6a7A"," ","-1","0","-10","[]","0","1","","","12368","5","3","3","lose","go","0"
"pit-trial","123","1384676","0.0-9.0","battery-v0.2","","""event"",""trial"",""time""
""fullscreenenter"",""1"",""1064""
""blur"",""7"",""20771""
""focus"",""7"",""24045""
","""event"",""trial"",""time""
""blur"",""7"",""20771""
","""event"",""trial"",""time""
""focus"",""7"",""24045""
","""event"",""trial"",""time""
""fullscreenenter"",""1"",""1064""
","
","","","764.1999999992549","","","20","12368","2218","&#9733;","elianto","#3366ff99","-1"," ","0","0","[1614.5]","1","1","","","12368","6","2","2","win","no-go","0"
"pit-trial","124","1389531","0.0-10.0","battery-v0.2","","""event"",""trial"",""time""
""fullscreenenter"",""1"",""1064""
""blur"",""7"",""20771""
""focus"",""7"",""24045""
","""event"",""trial"",""time""
""blur"",""7"",""20771""
","""event"",""trial"",""time""
""focus"",""7"",""24045""
","""event"",""trial"",""time""
""fullscreenenter"",""1"",""1064""
","
","","","-1","","","20","12368","2218","&#9730;","elianto","#3366ff99"," ","-1","0","0","[]","0","1","","","12368","7","1","1","win","go","0"
"pit-trial","125","1393573","0.0-11.0","battery-v0.2","","""event"",""trial"",""time""
""fullscreenenter"",""1"",""1064""
""blur"",""7"",""20771""
""focus"",""7"",""24045""
","""event"",""trial"",""time""
""blur"",""7"",""20771""
","""event"",""trial"",""time""
""focus"",""7"",""24045""
","""event"",""trial"",""time""
""fullscreenenter"",""1"",""1064""
","
","","","1188.800000000745","","","20","12368","2218","&#9728;","elianto","#f73b6a7A","-1"," ","0","0","[2039.199999999255]","1","1","","","12368","8","0","4","lose","no-go","1"
"pit-trial","126","1398429","0.0-12.0","battery-v0.2","","""event"",""trial"",""time""
""fullscreenenter"",""1"",""1064""
""blur"",""7"",""20771""
""focus"",""7"",""24045""
","""event"",""trial"",""time""
""blur"",""7"",""20771""
","""event"",""trial"",""time""
""focus"",""7"",""24045""
","""event"",""trial"",""time""
""fullscreenenter"",""1"",""1064""
","
","","","-1","","","20","12368","2218","&#9733;","elianto","#3366ff99","-1","-1","1","+10","[]","0","1","","","12368","9","2","2","win","no-go","0"
"pit-trial","127","1402314","0.0-13.0","battery-v0.2","","""event"",""trial"",""time""
""fullscreenenter"",""1"",""1064""
""blur"",""7"",""20771""
""focus"",""7"",""24045""
","""event"",""trial"",""time""
""blur"",""7"",""20771""
","""event"",""trial"",""time""
""focus"",""7"",""24045""
","""event"",""trial"",""time""
""fullscreenenter"",""1"",""1064""
","
","","","1031.9000000022352","","","20","12368","2218","&#9752;","elianto","#f73b6a7A"," "," ","1","0","[1882.8999999985099]","1","1","","","12368","10","3","3","lose","go","0"
"pit-trial","128","1407168","0.0-14.0","battery-v0.2","","""event"",""trial"",""time""
""fullscreenenter"",""1"",""1064""
""blur"",""7"",""20771""
""focus"",""7"",""24045""
","""event"",""trial"",""time""
""blur"",""7"",""20771""
","""event"",""trial"",""time""
""focus"",""7"",""24045""
","""event"",""trial"",""time""
""fullscreenenter"",""1"",""1064""
","
","","","-1","","","20","12368","2218","&#9728;","elianto","#f73b6a7A","-1","-1","1","0","[]","0","1","","","12368","11","0","4","lose","no-go","0"
"pit-trial","129","1411502","0.0-15.0","battery-v0.2","","""event"",""trial"",""time""
""fullscreenenter"",""1"",""1064""
""blur"",""7"",""20771""
""focus"",""7"",""24045""
","""event"",""trial"",""time""
""blur"",""7"",""20771""
","""event"",""trial"",""time""
""focus"",""7"",""24045""
","""event"",""trial"",""time""
""fullscreenenter"",""1"",""1064""
","
","","","1481","","","20","12368","2218","&#9730;","elianto","#3366ff99"," "," ","1","+10","[2331.60000000149]","1","1","","","12368","12","1","1","win","go","0"
"pit-trial","130","1416357","0.0-16.0","battery-v0.2","","""event"",""trial"",""time""
""fullscreenenter"",""1"",""1064""
""blur"",""7"",""20771""
""focus"",""7"",""24045""
","""event"",""trial"",""time""
""blur"",""7"",""20771""
","""event"",""trial"",""time""
""focus"",""7"",""24045""
","""event"",""trial"",""time""
""fullscreenenter"",""1"",""1064""
","
","","","-1","","","20","12368","2218","&#9752;","elianto","#f73b6a7A"," ","-1","0","-10","[]","0","1","","","12368","13","3","3","lose","go","0"
"pit-trial","131","1420536","0.0-17.0","battery-v0.2","","""event"",""trial"",""time""
""fullscreenenter"",""1"",""1064""
""blur"",""7"",""20771""
""focus"",""7"",""24045""
","""event"",""trial"",""time""
""blur"",""7"",""20771""
","""event"",""trial"",""time""
""focus"",""7"",""24045""
","""event"",""trial"",""time""
""fullscreenenter"",""1"",""1064""
","
","","","1323.7999999970198","","","20","12368","2218","&#9730;","elianto","#3366ff99"," "," ","1","+10","[2174.5]","1","1","","","12368","14","1","1","win","go","0"
"pit-trial","132","1424631","0.0-18.0","battery-v0.2","","""event"",""trial"",""time""
""fullscreenenter"",""1"",""1064""
""blur"",""7"",""20771""
""focus"",""7"",""24045""
","""event"",""trial"",""time""
""blur"",""7"",""20771""
","""event"",""trial"",""time""
""focus"",""7"",""24045""
","""event"",""trial"",""time""
""fullscreenenter"",""1"",""1064""
","
","","","1241.3999999985099","","","20","12368","2218","&#9728;","elianto","#f73b6a7A","-1"," ","0","-10","[2092.199999999255]","1","1","","","12368","15","0","4","lose","no-go","0"
"pit-trial","133","1429485","0.0-19.0","battery-v0.2","","""event"",""trial"",""time""
""fullscreenenter"",""1"",""1064""
""blur"",""7"",""20771""
""focus"",""7"",""24045""
","""event"",""trial"",""time""
""blur"",""7"",""20771""
","""event"",""trial"",""time""
""focus"",""7"",""24045""
","""event"",""trial"",""time""
""fullscreenenter"",""1"",""1064""
","
","","","-1","","","20","12368","2218","&#9733;","elianto","#3366ff99","-1","-1","1","+10","[]","0","1","","","12368","16","2","2","win","no-go","0"
"pit-trial","134","1433772","0.0-20.0","battery-v0.2","","""event"",""trial"",""time""
""fullscreenenter"",""1"",""1064""
""blur"",""7"",""20771""
""focus"",""7"",""24045""
","""event"",""trial"",""time""
""blur"",""7"",""20771""
","""event"",""trial"",""time""
""focus"",""7"",""24045""
","""event"",""trial"",""time""
""fullscreenenter"",""1"",""1064""
","
","","","1433.199999999255","","","20","12368","2218","&#9752;","elianto","#f73b6a7A"," "," ","1","0","[2284.60000000149]","1","1","","","12368","17","3","3","lose","go","0"
"pit-trial","135","1437575","0.0-21.0","battery-v0.2","","""event"",""trial"",""time""
""fullscreenenter"",""1"",""1064""
""blur"",""7"",""20771""
""focus"",""7"",""24045""
","""event"",""trial"",""time""
""blur"",""7"",""20771""
","""event"",""trial"",""time""
""focus"",""7"",""24045""
","""event"",""trial"",""time""
""fullscreenenter"",""1"",""1064""
","
","","","948.2999999970198","","","20","12368","2218","&#9728;","elianto","#f73b6a7A","-1"," ","0","0","[1799.5999999977648]","1","1","","","12368","18","0","4","lose","no-go","1"
"pit-trial","136","1441501","0.0-22.0","battery-v0.2","","""event"",""trial"",""time""
""fullscreenenter"",""1"",""1064""
""blur"",""7"",""20771""
""focus"",""7"",""24045""
","""event"",""trial"",""time""
""blur"",""7"",""20771""
","""event"",""trial"",""time""
""focus"",""7"",""24045""
","""event"",""trial"",""time""
""fullscreenenter"",""1"",""1064""
","
","","","1071.699999999255","","","20","12368","2218","&#9730;","elianto","#3366ff99"," "," ","1","+10","[1922.8999999985099]","1","1","","","12368","19","1","1","win","go","0"
"pit-trial","137","1446356","0.0-23.0","battery-v0.2","","""event"",""trial"",""time""
""fullscreenenter"",""1"",""1064""
""blur"",""7"",""20771""
""focus"",""7"",""24045""
","""event"",""trial"",""time""
""blur"",""7"",""20771""
","""event"",""trial"",""time""
""focus"",""7"",""24045""
","""event"",""trial"",""time""
""fullscreenenter"",""1"",""1064""
","
","","","-1","","","20","12368","2218","&#9733;","elianto","#3366ff99","-1","-1","1","+10","[]","0","1","","","12368","20","2","2","win","no-go","0"
"pit-instructions","138","1459816","0.0-24.0","battery-v0.2","","""event"",""trial"",""time""
""fullscreenenter"",""1"",""1064""
""blur"",""7"",""20771""
""focus"",""7"",""24045""
","""event"",""trial"",""time""
""blur"",""7"",""20771""
","""event"",""trial"",""time""
""focus"",""7"",""24045""
","""event"",""trial"",""time""
""fullscreenenter"",""1"",""1064""
","
","","[{""page_index"":0,""viewing_time"":6880.5},{""page_index"":1,""viewing_time"":6577.800000000745}]","13458.60000000149","","","","","","","","","","","","","","","","","","","","","","","",""
"pit-trial","139","1463384","0.0-25.0","battery-v0.2","","""event"",""trial"",""time""
""fullscreenenter"",""1"",""1064""
""blur"",""7"",""20771""
""focus"",""7"",""24045""
","""event"",""trial"",""time""
""blur"",""7"",""20771""
","""event"",""trial"",""time""
""focus"",""7"",""24045""
","""event"",""trial"",""time""
""fullscreenenter"",""1"",""1064""
","
","","","709.6000000014901","","","20","12368","2218","f","elianto","#3366ff99"," "," ","1","+10","[1562.5]","1","2","","","12368","21","1","1","win","go","0"
"pit-trial","140","1467551","0.0-26.0","battery-v0.2","","""event"",""trial"",""time""
""fullscreenenter"",""1"",""1064""
""blur"",""7"",""20771""
""focus"",""7"",""24045""
","""event"",""trial"",""time""
""blur"",""7"",""20771""
","""event"",""trial"",""time""
""focus"",""7"",""24045""
","""event"",""trial"",""time""
""fullscreenenter"",""1"",""1064""
","
","","","1312.0999999977648","","","20","12368","2218","t","elianto","#f73b6a7A","-1"," ","0","-10","[2163.5]","1","2","","","12368","22","2","4","lose","no-go","0"
"pit-trial","141","1471241","0.0-27.0","battery-v0.2","","""event"",""trial"",""time""
""fullscreenenter"",""1"",""1064""
""blur"",""7"",""20771""
""focus"",""7"",""24045""
","""event"",""trial"",""time""
""blur"",""7"",""20771""
","""event"",""trial"",""time""
""focus"",""7"",""24045""
","""event"",""trial"",""time""
""fullscreenenter"",""1"",""1064""
","
","","","834.8000000007451","","","20","12368","2218","n","elianto","#f73b6a7A","-1"," ","0","0","[1685.800000000745]","1","2","","","12368","23","0","4","lose","no-go","1"
"pit-trial","142","1475264","0.0-28.0","battery-v0.2","","""event"",""trial"",""time""
""fullscreenenter"",""1"",""1064""
""blur"",""7"",""20771""
""focus"",""7"",""24045""
","""event"",""trial"",""time""
""blur"",""7"",""20771""
","""event"",""trial"",""time""
""focus"",""7"",""24045""
","""event"",""trial"",""time""
""fullscreenenter"",""1"",""1064""
","
","","","1169.699999999255","","","20","12368","2218","b","elianto","#f73b6a7A"," "," ","1","0","[2020.199999999255]","1","2","","","12368","24","3","3","lose","go","0"
"pit-trial","143","1480046","0.0-29.0","battery-v0.2","","""event"",""trial"",""time""
""fullscreenenter"",""1"",""1064""
""blur"",""7"",""20771""
""focus"",""7"",""24045""
","""event"",""trial"",""time""
""blur"",""7"",""20771""
","""event"",""trial"",""time""
""focus"",""7"",""24045""
","""event"",""trial"",""time""
""fullscreenenter"",""1"",""1064""
","
","","","1926.699999999255","","","20","12368","2218","n","elianto","#f73b6a7A","-1"," ","0","-10","[2778.39999999851]","1","2","","","12368","25","0","4","lose","no-go","0"
"pit-trial","144","1483683","0.0-30.0","battery-v0.2","","""event"",""trial"",""time""
""fullscreenenter"",""1"",""1064""
""blur"",""7"",""20771""
""focus"",""7"",""24045""
","""event"",""trial"",""time""
""blur"",""7"",""20771""
","""event"",""trial"",""time""
""focus"",""7"",""24045""
","""event"",""trial"",""time""
""fullscreenenter"",""1"",""1064""
","
","","","782.5","","","20","12368","2218","f","elianto","#3366ff99"," "," ","1","+10","[1632.9000000022352]","1","2","","","12368","26","1","1","win","go","0"
"pit-trial","145","1488536","0.0-31.0","battery-v0.2","","""event"",""trial"",""time""
""fullscreenenter"",""1"",""1064""
""blur"",""7"",""20771""
""focus"",""7"",""24045""
","""event"",""trial"",""time""
""blur"",""7"",""20771""
","""event"",""trial"",""time""
""focus"",""7"",""24045""
","""event"",""trial"",""time""
""fullscreenenter"",""1"",""1064""
","
","","","-1","","","20","12368","2218","t","elianto","#f73b6a7A","-1","-1","1","0","[]","0","2","","","12368","27","2","4","lose","no-go","0"
"pit-trial","146","1493392","0.0-32.0","battery-v0.2","","""event"",""trial"",""time""
""fullscreenenter"",""1"",""1064""
""blur"",""7"",""20771""
""focus"",""7"",""24045""
","""event"",""trial"",""time""
""blur"",""7"",""20771""
","""event"",""trial"",""time""
""focus"",""7"",""24045""
","""event"",""trial"",""time""
""fullscreenenter"",""1"",""1064""
","
","","","-1","","","20","12368","2218","b","elianto","#f73b6a7A"," ","-1","0","-10","[]","0","2","","","12368","28","3","3","lose","go","0"
"pit-trial","147","1498248","0.0-33.0","battery-v0.2","","""event"",""trial"",""time""
""fullscreenenter"",""1"",""1064""
""blur"",""7"",""20771""
""focus"",""7"",""24045""
","""event"",""trial"",""time""
""blur"",""7"",""20771""
","""event"",""trial"",""time""
""focus"",""7"",""24045""
","""event"",""trial"",""time""
""fullscreenenter"",""1"",""1064""
","
","","","-1","","","20","12368","2218","t","elianto","#f73b6a7A","-1","-1","1","0","[]","0","2","","","12368","29","2","4","lose","no-go","0"
"pit-trial","148","1501654","0.0-34.0","battery-v0.2","","""event"",""trial"",""time""
""fullscreenenter"",""1"",""1064""
""blur"",""7"",""20771""
""focus"",""7"",""24045""
","""event"",""trial"",""time""
""blur"",""7"",""20771""
","""event"",""trial"",""time""
""focus"",""7"",""24045""
","""event"",""trial"",""time""
""fullscreenenter"",""1"",""1064""
","
","","","551.3000000007451","","","20","12368","2218","f","elianto","#3366ff99"," "," ","1","0","[1402.2000000029802]","1","2","","","12368","30","1","1","win","go","1"
"pit-trial","149","1505562","0.0-35.0","battery-v0.2","","""event"",""trial"",""time""
""fullscreenenter"",""1"",""1064""
""blur"",""7"",""20771""
""focus"",""7"",""24045""
","""event"",""trial"",""time""
""blur"",""7"",""20771""
","""event"",""trial"",""time""
""focus"",""7"",""24045""
","""event"",""trial"",""time""
""fullscreenenter"",""1"",""1064""
","
","","","1052.3999999985099","","","20","12368","2218","b","elianto","#f73b6a7A"," "," ","1","0","[1903.5]","1","2","","","12368","31","3","3","lose","go","0"
"pit-trial","150","1510417","0.0-36.0","battery-v0.2","","""event"",""trial"",""time""
""fullscreenenter"",""1"",""1064""
""blur"",""7"",""20771""
""focus"",""7"",""24045""
","""event"",""trial"",""time""
""blur"",""7"",""20771""
","""event"",""trial"",""time""
""focus"",""7"",""24045""
","""event"",""trial"",""time""
""fullscreenenter"",""1"",""1064""
","
","","","-1","","","20","12368","2218","n","elianto","#f73b6a7A","-1","-1","1","0","[]","0","2","","","12368","32","0","4","lose","no-go","0"
"pit-trial","151","1515273","0.0-37.0","battery-v0.2","","""event"",""trial"",""time""
""fullscreenenter"",""1"",""1064""
""blur"",""7"",""20771""
""focus"",""7"",""24045""
","""event"",""trial"",""time""
""blur"",""7"",""20771""
","""event"",""trial"",""time""
""focus"",""7"",""24045""
","""event"",""trial"",""time""
""fullscreenenter"",""1"",""1064""
","
","","","-1","","","20","12368","2218","n","elianto","#f73b6a7A","-1","-1","1","0","[]","0","2","","","12368","33","0","4","lose","no-go","0"
"pit-trial","152","1520129","0.0-38.0","battery-v0.2","","""event"",""trial"",""time""
""fullscreenenter"",""1"",""1064""
""blur"",""7"",""20771""
""focus"",""7"",""24045""
","""event"",""trial"",""time""
""blur"",""7"",""20771""
","""event"",""trial"",""time""
""focus"",""7"",""24045""
","""event"",""trial"",""time""
""fullscreenenter"",""1"",""1064""
","
","","","-1","","","20","12368","2218","t","elianto","#f73b6a7A","-1","-1","1","0","[]","0","2","","","12368","34","2","4","lose","no-go","0"
"pit-trial","153","1524192","0.0-39.0","battery-v0.2","","""event"",""trial"",""time""
""fullscreenenter"",""1"",""1064""
""blur"",""7"",""20771""
""focus"",""7"",""24045""
","""event"",""trial"",""time""
""blur"",""7"",""20771""
","""event"",""trial"",""time""
""focus"",""7"",""24045""
","""event"",""trial"",""time""
""fullscreenenter"",""1"",""1064""
","
","","","1208.6000000014901","","","20","12368","2218","b","elianto","#f73b6a7A"," "," ","1","-10","[2059.60000000149]","1","2","","","12368","35","3","3","lose","go","1"
"pit-trial","154","1527525","0.0-40.0","battery-v0.2","","""event"",""trial"",""time""
""fullscreenenter"",""1"",""1064""
""blur"",""7"",""20771""
""focus"",""7"",""24045""
","""event"",""trial"",""time""
""blur"",""7"",""20771""
","""event"",""trial"",""time""
""focus"",""7"",""24045""
","""event"",""trial"",""time""
""fullscreenenter"",""1"",""1064""
","
","","","479","","","20","12368","2218","f","elianto","#3366ff99"," "," ","1","0","[1330]","1","2","","","12368","36","1","1","win","go","1"
"pit-trial","155","1530975","0.0-41.0","battery-v0.2","","""event"",""trial"",""time""
""fullscreenenter"",""1"",""1064""
""blur"",""7"",""20771""
""focus"",""7"",""24045""
","""event"",""trial"",""time""
""blur"",""7"",""20771""
","""event"",""trial"",""time""
""focus"",""7"",""24045""
","""event"",""trial"",""time""
""fullscreenenter"",""1"",""1064""
","
","","","595.8000000007451","","","20","12368","2218","t","elianto","#f73b6a7A","-1"," ","0","-10","[1446.1000000014901]","1","2","","","12368","37","2","4","lose","no-go","0"
"pit-trial","156","1534587","0.0-42.0","battery-v0.2","","""event"",""trial"",""time""
""fullscreenenter"",""1"",""1064""
""blur"",""7"",""20771""
""focus"",""7"",""24045""
","""event"",""trial"",""time""
""blur"",""7"",""20771""
","""event"",""trial"",""time""
""focus"",""7"",""24045""
","""event"",""trial"",""time""
""fullscreenenter"",""1"",""1064""
","
","","","757.8000000007451","","","20","12368","2218","f","elianto","#3366ff99"," "," ","1","+10","[1609]","1","2","","","12368","38","1","1","win","go","0"
"pit-trial","157","1538249","0.0-43.0","battery-v0.2","","""event"",""trial"",""time""
""fullscreenenter"",""1"",""1064""
""blur"",""7"",""20771""
""focus"",""7"",""24045""
","""event"",""trial"",""time""
""blur"",""7"",""20771""
","""event"",""trial"",""time""
""focus"",""7"",""24045""
","""event"",""trial"",""time""
""fullscreenenter"",""1"",""1064""
","
","","","807.3999999985099","","","20","12368","2218","b","elianto","#f73b6a7A"," "," ","1","0","[1659.5999999977648]","1","2","","","12368","39","3","3","lose","go","0"
"pit-trial","158","1543103","0.0-44.0","battery-v0.2","","""event"",""trial"",""time""
""fullscreenenter"",""1"",""1064""
""blur"",""7"",""20771""
""focus"",""7"",""24045""
","""event"",""trial"",""time""
""blur"",""7"",""20771""
","""event"",""trial"",""time""
""focus"",""7"",""24045""
","""event"",""trial"",""time""
""fullscreenenter"",""1"",""1064""
","
","","","-1","","","20","12368","2218","n","elianto","#f73b6a7A","-1","-1","1","0","[]","0","2","","","12368","40","0","4","lose","no-go","0"
"pit-trial","159","1547958","0.0-45.0","battery-v0.2","","""event"",""trial"",""time""
""fullscreenenter"",""1"",""1064""
""blur"",""7"",""20771""
""focus"",""7"",""24045""
","""event"",""trial"",""time""
""blur"",""7"",""20771""
","""event"",""trial"",""time""
""focus"",""7"",""24045""
","""event"",""trial"",""time""
""fullscreenenter"",""1"",""1064""
","
","","","-1","","","20","12368","2218","t","elianto","#f73b6a7A","-1","-1","1","0","[]","0","2","","","12368","41","2","4","lose","no-go","0"
"pit-trial","160","1552813","0.0-46.0","battery-v0.2","","""event"",""trial"",""time""
""fullscreenenter"",""1"",""1064""
""blur"",""7"",""20771""
""focus"",""7"",""24045""
","""event"",""trial"",""time""
""blur"",""7"",""20771""
","""event"",""trial"",""time""
""focus"",""7"",""24045""
","""event"",""trial"",""time""
""fullscreenenter"",""1"",""1064""
","
","","","-1","","","20","12368","2218","n","elianto","#f73b6a7A","-1","-1","1","0","[]","0","2","","","12368","42","0","4","lose","no-go","0"
"pit-trial","161","1556385","0.0-47.0","battery-v0.2","","""event"",""trial"",""time""
""fullscreenenter"",""1"",""1064""
""blur"",""7"",""20771""
""focus"",""7"",""24045""
","""event"",""trial"",""time""
""blur"",""7"",""20771""
","""event"",""trial"",""time""
""focus"",""7"",""24045""
","""event"",""trial"",""time""
""fullscreenenter"",""1"",""1064""
","
","","","718","","","20","12368","2218","f","elianto","#3366ff99"," "," ","1","+10","[1568.800000000745]","1","2","","","12368","43","1","1","win","go","0"
"pit-trial","162","1560143","0.0-48.0","battery-v0.2","","""event"",""trial"",""time""
""fullscreenenter"",""1"",""1064""
""blur"",""7"",""20771""
""focus"",""7"",""24045""
","""event"",""trial"",""time""
""blur"",""7"",""20771""
","""event"",""trial"",""time""
""focus"",""7"",""24045""
","""event"",""trial"",""time""
""fullscreenenter"",""1"",""1064""
","
","","","904.4000000022352","","","20","12368","2218","b","elianto","#f73b6a7A"," "," ","1","0","[1755]","1","2","","","12368","44","3","3","lose","go","0"
"pit-trial","163","1563888","0.0-49.0","battery-v0.2","","""event"",""trial"",""time""
""fullscreenenter"",""1"",""1064""
""blur"",""7"",""20771""
""focus"",""7"",""24045""
","""event"",""trial"",""time""
""blur"",""7"",""20771""
","""event"",""trial"",""time""
""focus"",""7"",""24045""
","""event"",""trial"",""time""
""fullscreenenter"",""1"",""1064""
","
","","","891.1000000014901","","","20","12368","2218","b","elianto","#f73b6a7A"," "," ","1","-10","[1742.199999999255]","1","2","","","12368","45","3","3","lose","go","1"
"pit-trial","164","1568743","0.0-50.0","battery-v0.2","","""event"",""trial"",""time""
""fullscreenenter"",""1"",""1064""
""blur"",""7"",""20771""
""focus"",""7"",""24045""
","""event"",""trial"",""time""
""blur"",""7"",""20771""
","""event"",""trial"",""time""
""focus"",""7"",""24045""
","""event"",""trial"",""time""
""fullscreenenter"",""1"",""1064""
","
","","","-1","","","20","12368","2218","t","elianto","#f73b6a7A","-1","-1","1","0","[]","0","2","","","12368","46","2","4","lose","no-go","0"
"pit-trial","165","1573597","0.0-51.0","battery-v0.2","","""event"",""trial"",""time""
""fullscreenenter"",""1"",""1064""
""blur"",""7"",""20771""
""focus"",""7"",""24045""
","""event"",""trial"",""time""
""blur"",""7"",""20771""
","""event"",""trial"",""time""
""focus"",""7"",""24045""
","""event"",""trial"",""time""
""fullscreenenter"",""1"",""1064""
","
","","","-1","","","20","12368","2218","c","elianto","#3366ff99","-1","-1","1","+10","[]","0","2","","","12368","47","4","2","win","no-go","0"
"pit-trial","166","1578453","0.0-52.0","battery-v0.2","","""event"",""trial"",""time""
""fullscreenenter"",""1"",""1064""
""blur"",""7"",""20771""
""focus"",""7"",""24045""
","""event"",""trial"",""time""
""blur"",""7"",""20771""
","""event"",""trial"",""time""
""focus"",""7"",""24045""
","""event"",""trial"",""time""
""fullscreenenter"",""1"",""1064""
","
","","","-1","","","20","12368","2218","n","elianto","#f73b6a7A","-1","-1","1","-10","[]","0","2","","","12368","48","0","4","lose","no-go","1"
"pit-trial","167","1582010","0.0-53.0","battery-v0.2","","""event"",""trial"",""time""
""fullscreenenter"",""1"",""1064""
""blur"",""7"",""20771""
""focus"",""7"",""24045""
","""event"",""trial"",""time""
""blur"",""7"",""20771""
","""event"",""trial"",""time""
""focus"",""7"",""24045""
","""event"",""trial"",""time""
""fullscreenenter"",""1"",""1064""
","
","","","702.7999999970198","","","20","12368","2218","f","elianto","#3366ff99"," "," ","1","+10","[1554.0999999977648]","1","2","","","12368","49","1","1","win","go","0"
"pit-trial","168","1585735","0.0-54.0","battery-v0.2","","""event"",""trial"",""time""
""fullscreenenter"",""1"",""1064""
""blur"",""7"",""20771""
""focus"",""7"",""24045""
","""event"",""trial"",""time""
""blur"",""7"",""20771""
","""event"",""trial"",""time""
""focus"",""7"",""24045""
","""event"",""trial"",""time""
""fullscreenenter"",""1"",""1064""
","
","","","870.1999999992549","","","20","12368","2218","b","elianto","#f73b6a7A"," "," ","1","0","[1721.8999999985099]","1","2","","","12368","50","3","3","lose","go","0"
"pit-trial","169","1590591","0.0-55.0","battery-v0.2","","""event"",""trial"",""time""
""fullscreenenter"",""1"",""1064""
""blur"",""7"",""20771""
""focus"",""7"",""24045""
","""event"",""trial"",""time""
""blur"",""7"",""20771""
","""event"",""trial"",""time""
""focus"",""7"",""24045""
","""event"",""trial"",""time""
""fullscreenenter"",""1"",""1064""
","
","","","-1","","","20","12368","2218","n","elianto","#f73b6a7A","-1","-1","1","0","[]","0","2","","","12368","51","0","4","lose","no-go","0"
"pit-trial","170","1595447","0.0-56.0","battery-v0.2","","""event"",""trial"",""time""
""fullscreenenter"",""1"",""1064""
""blur"",""7"",""20771""
""focus"",""7"",""24045""
","""event"",""trial"",""time""
""blur"",""7"",""20771""
","""event"",""trial"",""time""
""focus"",""7"",""24045""
","""event"",""trial"",""time""
""fullscreenenter"",""1"",""1064""
","
","","","-1","","","20","12368","2218","c","elianto","#3366ff99","-1","-1","1","+10","[]","0","2","","","12368","52","4","2","win","no-go","0"
"pit-trial","171","1600302","0.0-57.0","battery-v0.2","","""event"",""trial"",""time""
""fullscreenenter"",""1"",""1064""
""blur"",""7"",""20771""
""focus"",""7"",""24045""
","""event"",""trial"",""time""
""blur"",""7"",""20771""
","""event"",""trial"",""time""
""focus"",""7"",""24045""
","""event"",""trial"",""time""
""fullscreenenter"",""1"",""1064""
","
","","","-1","","","20","12368","2218","t","elianto","#f73b6a7A","-1","-1","1","0","[]","0","2","","","12368","53","2","4","lose","no-go","0"
"pit-trial","172","1604441","0.0-58.0","battery-v0.2","","""event"",""trial"",""time""
""fullscreenenter"",""1"",""1064""
""blur"",""7"",""20771""
""focus"",""7"",""24045""
","""event"",""trial"",""time""
""blur"",""7"",""20771""
","""event"",""trial"",""time""
""focus"",""7"",""24045""
","""event"",""trial"",""time""
""fullscreenenter"",""1"",""1064""
","
","","","1285.7000000029802","","","20","12368","2218","f","elianto","#3366ff99"," "," ","1","+10","[2135.900000002235]","1","2","","","12368","54","1","1","win","go","0"
"pit-trial","173","1609296","0.0-59.0","battery-v0.2","","""event"",""trial"",""time""
""fullscreenenter"",""1"",""1064""
""blur"",""7"",""20771""
""focus"",""7"",""24045""
","""event"",""trial"",""time""
""blur"",""7"",""20771""
","""event"",""trial"",""time""
""focus"",""7"",""24045""
","""event"",""trial"",""time""
""fullscreenenter"",""1"",""1064""
","
","","","-1","","","20","12368","2218","c","elianto","#3366ff99","-1","-1","1","+10","[]","0","2","","","12368","55","4","2","win","no-go","0"
"pit-trial","174","1614150","0.0-60.0","battery-v0.2","","""event"",""trial"",""time""
""fullscreenenter"",""1"",""1064""
""blur"",""7"",""20771""
""focus"",""7"",""24045""
","""event"",""trial"",""time""
""blur"",""7"",""20771""
","""event"",""trial"",""time""
""focus"",""7"",""24045""
","""event"",""trial"",""time""
""fullscreenenter"",""1"",""1064""
","
","","","-1","","","20","12368","2218","n","elianto","#f73b6a7A","-1","-1","1","0","[]","0","2","","","12368","56","0","4","lose","no-go","0"
"pit-trial","175","1617925","0.0-61.0","battery-v0.2","","""event"",""trial"",""time""
""fullscreenenter"",""1"",""1064""
""blur"",""7"",""20771""
""focus"",""7"",""24045""
","""event"",""trial"",""time""
""blur"",""7"",""20771""
","""event"",""trial"",""time""
""focus"",""7"",""24045""
","""event"",""trial"",""time""
""fullscreenenter"",""1"",""1064""
","
","","","920.6000000014901","","","20","12368","2218","b","elianto","#f73b6a7A"," "," ","1","0","[1771.6000000014901]","1","2","","","12368","57","3","3","lose","go","0"
"pit-trial","176","1622780","0.0-62.0","battery-v0.2","","""event"",""trial"",""time""
""fullscreenenter"",""1"",""1064""
""blur"",""7"",""20771""
""focus"",""7"",""24045""
","""event"",""trial"",""time""
""blur"",""7"",""20771""
","""event"",""trial"",""time""
""focus"",""7"",""24045""
","""event"",""trial"",""time""
""fullscreenenter"",""1"",""1064""
","
","","","-1","","","20","12368","2218","c","elianto","#3366ff99","-1","-1","1","+10","[]","0","2","","","12368","58","4","2","win","no-go","0"
"pit-trial","177","1627635","0.0-63.0","battery-v0.2","","""event"",""trial"",""time""
""fullscreenenter"",""1"",""1064""
""blur"",""7"",""20771""
""focus"",""7"",""24045""
","""event"",""trial"",""time""
""blur"",""7"",""20771""
","""event"",""trial"",""time""
""focus"",""7"",""24045""
","""event"",""trial"",""time""
""fullscreenenter"",""1"",""1064""
","
","","","-1","","","20","12368","2218","n","elianto","#f73b6a7A","-1","-1","1","0","[]","0","2","","","12368","59","0","4","lose","no-go","0"
"pit-trial","178","1631561","0.0-64.0","battery-v0.2","","""event"",""trial"",""time""
""fullscreenenter"",""1"",""1064""
""blur"",""7"",""20771""
""focus"",""7"",""24045""
","""event"",""trial"",""time""
""blur"",""7"",""20771""
","""event"",""trial"",""time""
""focus"",""7"",""24045""
","""event"",""trial"",""time""
""fullscreenenter"",""1"",""1064""
","
","","","1072.199999999255","","","20","12368","2218","f","elianto","#3366ff99"," "," ","1","+10","[1923.300000000745]","1","2","","","12368","60","1","1","win","go","0"
"pit-trial","179","1636417","0.0-65.0","battery-v0.2","","""event"",""trial"",""time""
""fullscreenenter"",""1"",""1064""
""blur"",""7"",""20771""
""focus"",""7"",""24045""
","""event"",""trial"",""time""
""blur"",""7"",""20771""
","""event"",""trial"",""time""
""focus"",""7"",""24045""
","""event"",""trial"",""time""
""fullscreenenter"",""1"",""1064""
","
","","","-1","","","20","12368","2218","c","elianto","#3366ff99","-1","-1","1","+10","[]","0","2","","","12368","61","4","2","win","no-go","0"
"pit-trial","180","1640506","0.0-66.0","battery-v0.2","","""event"",""trial"",""time""
""fullscreenenter"",""1"",""1064""
""blur"",""7"",""20771""
""focus"",""7"",""24045""
","""event"",""trial"",""time""
""blur"",""7"",""20771""
","""event"",""trial"",""time""
""focus"",""7"",""24045""
","""event"",""trial"",""time""
""fullscreenenter"",""1"",""1064""
","
","","","1235.9000000022352","","","20","12368","2218","b","elianto","#f73b6a7A"," "," ","1","0","[2086.300000000745]","1","2","","","12368","62","3","3","lose","go","0"
"pit-trial","181","1643901","0.0-67.0","battery-v0.2","","""event"",""trial"",""time""
""fullscreenenter"",""1"",""1064""
""blur"",""7"",""20771""
""focus"",""7"",""24045""
","""event"",""trial"",""time""
""blur"",""7"",""20771""
","""event"",""trial"",""time""
""focus"",""7"",""24045""
","""event"",""trial"",""time""
""fullscreenenter"",""1"",""1064""
","
","","","541.3000000007451","","","20","12368","2218","f","elianto","#3366ff99"," "," ","1","+10","[1392.1000000014901]","1","2","","","12368","63","1","1","win","go","0"
"pit-trial","182","1648755","0.0-68.0","battery-v0.2","","""event"",""trial"",""time""
""fullscreenenter"",""1"",""1064""
""blur"",""7"",""20771""
""focus"",""7"",""24045""
","""event"",""trial"",""time""
""blur"",""7"",""20771""
","""event"",""trial"",""time""
""focus"",""7"",""24045""
","""event"",""trial"",""time""
""fullscreenenter"",""1"",""1064""
","
","","","-1","","","20","12368","2218","t","elianto","#f73b6a7A","-1","-1","1","0","[]","0","2","","","12368","64","2","4","lose","no-go","0"
"pit-trial","183","1652124","0.0-69.0","battery-v0.2","","""event"",""trial"",""time""
""fullscreenenter"",""1"",""1064""
""blur"",""7"",""20771""
""focus"",""7"",""24045""
","""event"",""trial"",""time""
""blur"",""7"",""20771""
","""event"",""trial"",""time""
""focus"",""7"",""24045""
","""event"",""trial"",""time""
""fullscreenenter"",""1"",""1064""
","
","","","516","","","20","12368","2218","f","elianto","#3366ff99"," "," ","1","0","[1366.300000000745]","1","2","","","12368","65","1","1","win","go","1"
"pit-trial","184","1656979","0.0-70.0","battery-v0.2","","""event"",""trial"",""time""
""fullscreenenter"",""1"",""1064""
""blur"",""7"",""20771""
""focus"",""7"",""24045""
","""event"",""trial"",""time""
""blur"",""7"",""20771""
","""event"",""trial"",""time""
""focus"",""7"",""24045""
","""event"",""trial"",""time""
""fullscreenenter"",""1"",""1064""
","
","","","-1","","","20","12368","2218","c","elianto","#3366ff99","-1","-1","1","+10","[]","0","2","","","12368","66","4","2","win","no-go","0"
"pit-trial","185","1661067","0.0-71.0","battery-v0.2","","""event"",""trial"",""time""
""fullscreenenter"",""1"",""1064""
""blur"",""7"",""20771""
""focus"",""7"",""24045""
","""event"",""trial"",""time""
""blur"",""7"",""20771""
","""event"",""trial"",""time""
""focus"",""7"",""24045""
","""event"",""trial"",""time""
""fullscreenenter"",""1"",""1064""
","
","","","1233.699999999255","","","20","12368","2218","b","elianto","#f73b6a7A"," "," ","1","0","[2084.699999999255]","1","2","","","12368","67","3","3","lose","go","0"
"pit-trial","186","1665922","0.0-72.0","battery-v0.2","","""event"",""trial"",""time""
""fullscreenenter"",""1"",""1064""
""blur"",""7"",""20771""
""focus"",""7"",""24045""
","""event"",""trial"",""time""
""blur"",""7"",""20771""
","""event"",""trial"",""time""
""focus"",""7"",""24045""
","""event"",""trial"",""time""
""fullscreenenter"",""1"",""1064""
","
","","","-1","","","20","12368","2218","t","elianto","#f73b6a7A","-1","-1","1","0","[]","0","2","","","12368","68","2","4","lose","no-go","0"
"pit-trial","187","1670063","0.0-73.0","battery-v0.2","","""event"",""trial"",""time""
