"trial_type","trial_index","time_elapsed","internal_node_id","task_version","subject_id","interactions","blur_events","focus_events","fullscreenenter_events","fullscreenexit_events","success","view_history","rt","responses","num_errors","age","subject","participantId","rune","rune_set","hex","correct","choice","accuracy","outcome","keys","total_keys","block","practice","value","sub","trial","stimulus","robot","valence","action","sham"
"pavlovia","0","9","0.0-0.0","battery-v0.2","","""event"",""trial"",""time""
""fullscreenenter"",""1"",""3482""
","
","
","""event"",""trial"",""time""
""fullscreenenter"",""1"",""3482""
","
","","","","","","","","","","","","","","","","","","","","","","","","","","",""
"fullscreen","1","4467","0.0-1.0","battery-v0.2","","""event"",""trial"",""time""
""fullscreenenter"",""1"",""3482""
","
","
","""event"",""trial"",""time""
""fullscreenenter"",""1"",""3482""
","
","true","","","","","","","","","","","","","","","","","","","","","","","","","",""
"pit-instructions","2","8791","0.0-2.0-0.0","battery-v0.2","","""event"",""trial"",""time""
""fullscreenenter"",""1"",""3482""
","
","
","""event"",""trial"",""time""
""fullscreenenter"",""1"",""3482""
","
","","[{""page_index"":0,""viewing_time"":4318.5}]","4318.9000000059605","","","","","","","","","","","","","","","","","","","","","","","",""
"pit-comprehension","3","13760","0.0-2.0-1.0-0.0","battery-v0.2","","""event"",""trial"",""time""
""fullscreenenter"",""1"",""3482""
","
","
","""event"",""trial"",""time""
""fullscreenenter"",""1"",""3482""
","
","","","4965.5999999940395","[""shark""]","0","11","10581","4927","","","","","","","","","","","","","","","","","","",""
"pit-instructions","4","15463","0.0-2.0-1.0-1.0","battery-v0.2","","""event"",""trial"",""time""
""fullscreenenter"",""1"",""3482""
","
","
","""event"",""trial"",""time""
""fullscreenenter"",""1"",""3482""
","
","","[{""page_index"":0,""viewing_time"":1689.0999999940395}]","1689.300000011921","","","","","","","","","","","","","","","","","","","","","","","",""
"pit-comprehension","5","18592","0.0-2.0-2.0-0.0","battery-v0.2","","""event"",""trial"",""time""
""fullscreenenter"",""1"",""3482""
","
","
","""event"",""trial"",""time""
""fullscreenenter"",""1"",""3482""
","
","","","3126.199999988079","[""tiger""]","0","11","10581","4927","","","","","","","","","","","","","","","","","","",""
"pit-instructions","6","20472","0.0-2.0-2.0-1.0","battery-v0.2","","""event"",""trial"",""time""
""fullscreenenter"",""1"",""3482""
","
","
","""event"",""trial"",""time""
""fullscreenenter"",""1"",""3482""
","
","","[{""page_index"":0,""viewing_time"":1875.9000000059605}]","1876.2999999821186","","","","","","","","","","","","","","","","","","","","","","","",""
"pit-instructions","7","125441","0.0-2.0-3.0","battery-v0.2","","""event"",""trial"",""time""
""fullscreenenter"",""1"",""3482""
","
","
","""event"",""trial"",""time""
""fullscreenenter"",""1"",""3482""
","
","","[{""page_index"":0,""viewing_time"":12755.899999976158},{""page_index"":1,""viewing_time"":6663.9000000059605},{""page_index"":2,""viewing_time"":6112.300000011921},{""page_index"":3,""viewing_time"":5671.5999999940395},{""page_index"":4,""viewing_time"":5400.199999988079},{""page_index"":5,""viewing_time"":5071.9000000059605},{""page_index"":6,""viewing_time"":7104.0999999940395},{""page_index"":7,""viewing_time"":7048.100000023842},{""page_index"":8,""viewing_time"":7256.199999988079},{""page_index"":9,""viewing_time"":9455.59999999404},{""page_index"":10,""viewing_time"":8107.4000000059605},{""page_index"":11,""viewing_time"":8884.699999988079},{""page_index"":12,""viewing_time"":8632.100000023842},{""page_index"":13,""viewing_time"":6802.299999982119}]","104966.89999997616","","","","","","","","","","","","","","","","","","","","","","","",""
"pit-trial","8","128527","0.0-2.0-4.0-0.0","battery-v0.2","","""event"",""trial"",""time""
""fullscreenenter"",""1"",""3482""
","
","
","""event"",""trial"",""time""
""fullscreenenter"",""1"",""3482""
","
","","","211","","","11","10581","4927","&#9784;","elianto","#FFFFF080"," "," ","1","&#10004","[1068.4000000059605]","1","0","0","","","","","","","",""
"pit-trial","9","132402","0.0-2.0-4.1-0.1","battery-v0.2","","""event"",""trial"",""time""
""fullscreenenter"",""1"",""3482""
","
","
","""event"",""trial"",""time""
""fullscreenenter"",""1"",""3482""
","
","","","1008.1999999880791","","","11","10581","4927","&#9784;","elianto","#FFFFF080"," "," ","1","&#10004","[775,1862]","2","0","0","","","","","","","",""
"pit-trial","10","135997","0.0-2.0-4.2-0.2","battery-v0.2","","""event"",""trial"",""time""
""fullscreenenter"",""1"",""3482""
","
","
","""event"",""trial"",""time""
""fullscreenenter"",""1"",""3482""
","
","","","724.9000000059605","","","11","10581","4927","&#9784;","elianto","#FFFFF080"," "," ","1","&#10004","[847.6999999880791,1587.4000000059605,2831.2999999821186]","3","0","0","","","","","","","",""
"pit-trial","11","139109","0.0-2.0-4.3-0.3","battery-v0.2","","""event"",""trial"",""time""
""fullscreenenter"",""1"",""3482""
","
","
","""event"",""trial"",""time""
""fullscreenenter"",""1"",""3482""
","
","","","245","","","11","10581","4927","&#9784;","elianto","#FFFFF080"," "," ","1","&#10004","[1096.2999999821186]","1","0","0","","","","","","","",""
"pit-trial","12","141994","0.0-2.0-4.4-0.4","battery-v0.2","","""event"",""trial"",""time""
""fullscreenenter"",""1"",""3482""
","
","
","""event"",""trial"",""time""
""fullscreenenter"",""1"",""3482""
","
","","","13.600000023841858","","","11","10581","4927","&#9784;","elianto","#FFFFF080"," "," ","1","&#10004","[868.3999999761581,1631.199999988079,2290.0999999940395]","3","0","0","","","","","","","",""
"pit-instructions","13","163310","0.0-2.0-5.0","battery-v0.2","","""event"",""trial"",""time""
""fullscreenenter"",""1"",""3482""
","
","
","""event"",""trial"",""time""
""fullscreenenter"",""1"",""3482""
","
","","[{""page_index"":0,""viewing_time"":4927.4000000059605},{""page_index"":1,""viewing_time"":5520.299999982119},{""page_index"":2,""viewing_time"":5351.700000017881},{""page_index"":3,""viewing_time"":5511.899999976158}]","21311.79999998212","","","","","","","","","","","","","","","","","","","","","","","",""
"pit-trial","14","166903","0.0-2.0-6.0-0.0","battery-v0.2","","""event"",""trial"",""time""
""fullscreenenter"",""1"",""3482""
","
","
","""event"",""trial"",""time""
""fullscreenenter"",""1"",""3482""
","
","","","726.5999999940395","","","11","10581","4927","&#9854;","elianto","#FFFFF080","-1"," ","0","&#10060","[1581.699999988079]","1","0","1","","","","","","","",""
"pit-trial","15","171782","0.0-2.0-6.1-0.1","battery-v0.2","","""event"",""trial"",""time""
""fullscreenenter"",""1"",""3482""
","
","
","""event"",""trial"",""time""
""fullscreenenter"",""1"",""3482""
","
","","","-1","","","11","10581","4927","&#9854;","elianto","#FFFFF080","-1","-1","1","&#10004","[]","0","0","1","","","","","","","",""
"pit-trial","16","176643","0.0-2.0-6.2-0.2","battery-v0.2","","""event"",""trial"",""time""
""fullscreenenter"",""1"",""3482""
","
","
","""event"",""trial"",""time""
""fullscreenenter"",""1"",""3482""
","
","","","-1","","","11","10581","4927","&#9854;","elianto","#FFFFF080","-1","-1","1","&#10004","[]","0","0","1","","","","","","","",""
"pit-trial","17","181510","0.0-2.0-6.3-0.3","battery-v0.2","","""event"",""trial"",""time""
""fullscreenenter"",""1"",""3482""
","
","
","""event"",""trial"",""time""
""fullscreenenter"",""1"",""3482""
","
","","","-1","","","11","10581","4927","&#9854;","elianto","#FFFFF080","-1","-1","1","&#10004","[]","0","0","1","","","","","","","",""
"pit-trial","18","186374","0.0-2.0-6.4-0.4","battery-v0.2","","""event"",""trial"",""time""
""fullscreenenter"",""1"",""3482""
","
","
","""event"",""trial"",""time""
""fullscreenenter"",""1"",""3482""
","
","","","-1","","","11","10581","4927","&#9854;","elianto","#FFFFF080","-1","-1","1","&#10004","[]","0","0","1","","","","","","","",""
"pit-instructions","19","305582","0.0-2.0-7.0","battery-v0.2","","""event"",""trial"",""time""
""fullscreenenter"",""1"",""3482""
","
","
","""event"",""trial"",""time""
""fullscreenenter"",""1"",""3482""
","
","","[{""page_index"":0,""viewing_time"":6580.799999982119},{""page_index"":1,""viewing_time"":6768.5},{""page_index"":2,""viewing_time"":6151.4000000059605},{""page_index"":3,""viewing_time"":7160.5},{""page_index"":4,""viewing_time"":6679.9000000059605},{""page_index"":5,""viewing_time"":5831.199999988079},{""page_index"":6,""viewing_time"":5504.4000000059605},{""page_index"":7,""viewing_time"":7415.9000000059605},{""page_index"":8,""viewing_time"":7312.199999988079},{""page_index"":9,""viewing_time"":5576},{""page_index"":10,""viewing_time"":8151.800000011921},{""page_index"":11,""viewing_time"":4576.299999982119},{""page_index"":12,""viewing_time"":6295.800000011921},{""page_index"":13,""viewing_time"":6808},{""page_index"":14,""viewing_time"":7071.800000011921},{""page_index"":15,""viewing_time"":6408.199999988079},{""page_index"":16,""viewing_time"":8095.9000000059605},{""page_index"":17,""viewing_time"":6816.4000000059605}]","119205.39999997616","","","","","","","","","","","","","","","","","","","","","","","",""
"pit-trial","20","309075","0.0-2.0-8.0-0.0","battery-v0.2","","""event"",""trial"",""time""
""fullscreenenter"",""1"",""3482""
","
","
","""event"",""trial"",""time""
""fullscreenenter"",""1"",""3482""
","
","","","626.2999999821186","","","11","10581","4927","&#9776;","elianto","#3366ff99"," "," ","1","+10","[1478.2999999821186]","1","0","1","","","","","","","",""
"pit-trial","21","312729","0.0-2.0-8.0-1.0","battery-v0.2","","""event"",""trial"",""time""
""fullscreenenter"",""1"",""3482""
","
","
","""event"",""trial"",""time""
""fullscreenenter"",""1"",""3482""
","
","","","783.8999999761581","","","11","10581","4927","&#9776;","elianto","#3366ff99"," "," ","1","+10","[1642.7999999821186]","1","0","1","","","","","","","",""
"pit-trial","22","316382","0.0-2.0-8.0-2.0","battery-v0.2","","""event"",""trial"",""time""
""fullscreenenter"",""1"",""3482""
","
","
","""event"",""trial"",""time""
""fullscreenenter"",""1"",""3482""
","
","","","783","","","11","10581","4927","&#9776;","elianto","#3366ff99"," "," ","1","+10","[1641.0999999940395]","1","0","1","","","","","","","",""
"pit-trial","23","320499","0.0-2.0-8.0-3.0","battery-v0.2","","""event"",""trial"",""time""
""fullscreenenter"",""1"",""3482""
","
","
","""event"",""trial"",""time""
""fullscreenenter"",""1"",""3482""
","
","","","1255.300000011921","","","11","10581","4927","&#9776;","elianto","#3366ff99"," "," ","1","0","[2107.300000011921]","1","0","1","","","","","","","",""
"pit-trial","24","324288","0.0-2.0-8.0-4.0","battery-v0.2","","""event"",""trial"",""time""
""fullscreenenter"",""1"",""3482""
","
","
","""event"",""trial"",""time""
""fullscreenenter"",""1"",""3482""
","
","","","927.4000000059605","","","11","10581","4927","&#9776;","elianto","#3366ff99"," "," ","1","+10","[1778.199999988079]","1","0","1","","","","","","","",""
"pit-trial","25","328080","0.0-2.0-8.1-0.1","battery-v0.2","","""event"",""trial"",""time""
""fullscreenenter"",""1"",""3482""
","
","
","""event"",""trial"",""time""
""fullscreenenter"",""1"",""3482""
","
","","","912.4000000059605","","","11","10581","4927","&#9776;","elianto","#3366ff99"," "," ","1","+10","[1772.0999999940395,2533.4000000059605,2780.300000011921]","3","0","1","","","","","","","",""
"pit-trial","26","332942","0.0-2.0-8.1-1.1","battery-v0.2","","""event"",""trial"",""time""
""fullscreenenter"",""1"",""3482""
","
","
","""event"",""trial"",""time""
""fullscreenenter"",""1"",""3482""
","
","","","-1","","","11","10581","4927","&#9776;","elianto","#3366ff99"," ","-1","0","0","[3926.9000000059605,4523.9000000059605,4756.200000017881]","3","0","1","","","","","","","",""
"pit-trial","27","336041","0.0-2.0-8.1-2.1","battery-v0.2","","""event"",""trial"",""time""
""fullscreenenter"",""1"",""3482""
","
","
","""event"",""trial"",""time""
""fullscreenenter"",""1"",""3482""
","
","","","239","","","11","10581","4927","&#9776;","elianto","#3366ff99"," "," ","1","+10","[144.40000000596046,316.30000001192093,693.6999999880791,1095.5999999940395,1350,1589.9000000059605,1759.199999988079,1969.5999999940395,2185.5,2414.0999999940395,2646.800000011921,2861.699999988079,3081.199999988079]","13","0","1","","","","","","","",""
"pit-trial","28","338979","0.0-2.0-8.1-3.1","battery-v0.2","","""event"",""trial"",""time""
""fullscreenenter"",""1"",""3482""
","
","
","""event"",""trial"",""time""
""fullscreenenter"",""1"",""3482""
","
","","","84.59999999403954","","","11","10581","4927","&#9776;","elianto","#3366ff99"," "," ","1","0","[213.59999999403954,469.7999999821186,695.7999999821186,935.2999999821186,1161.0999999940395,1374.7999999821186,1619.4000000059605,2099.0999999940395,2684]","9","0","1","","","","","","","",""
"pit-trial","29","343834","0.0-2.0-8.1-4.1","battery-v0.2","","""event"",""trial"",""time""
""fullscreenenter"",""1"",""3482""
","
","
","""event"",""trial"",""time""
""fullscreenenter"",""1"",""3482""
","
","","","-1","","","11","10581","4927","&#9776;","elianto","#3366ff99"," ","-1","0","0","[175,639.9000000059605]","2","0","1","","","","","","","",""
"pit-trial","30","347751","0.0-2.0-8.2-0.2","battery-v0.2","","""event"",""trial"",""time""
""fullscreenenter"",""1"",""3482""
","
","
","""event"",""trial"",""time""
""fullscreenenter"",""1"",""3482""
","
","","","1063.5999999940395","","","11","10581","4927","&#9776;","elianto","#3366ff99"," "," ","1","+10","[1914.2999999821186]","1","0","1","","","","","","","",""
"pit-trial","31","350623","0.0-2.0-8.2-1.2","battery-v0.2","","""event"",""trial"",""time""
""fullscreenenter"",""1"",""3482""
","
","
","""event"",""trial"",""time""
""fullscreenenter"",""1"",""3482""
","
","","","17.69999998807907","","","11","10581","4927","&#9776;","elianto","#3366ff99"," "," ","1","+10","[868.9000000059605]","1","0","1","","","","","","","",""
"pit-trial","32","354115","0.0-2.0-8.2-2.2","battery-v0.2","","""event"",""trial"",""time""
""fullscreenenter"",""1"",""3482""
","
","
","""event"",""trial"",""time""
""fullscreenenter"",""1"",""3482""
","
","","","638.5999999940395","","","11","10581","4927","&#9776;","elianto","#3366ff99"," "," ","1","+10","[1489.7000000178814]","1","0","1","","","","","","","",""
"pit-trial","33","357510","0.0-2.0-8.2-3.2","battery-v0.2","","""event"",""trial"",""time""
""fullscreenenter"",""1"",""3482""
","
","
","""event"",""trial"",""time""
""fullscreenenter"",""1"",""3482""
","
","","","542","","","11","10581","4927","&#9776;","elianto","#3366ff99"," "," ","1","0","[1393.3999999761581]","1","0","1","","","","","","","",""
"pit-trial","34","362364","0.0-2.0-8.2-4.2","battery-v0.2","","""event"",""trial"",""time""
""fullscreenenter"",""1"",""3482""
","
","
","""event"",""trial"",""time""
""fullscreenenter"",""1"",""3482""
","
","","","-1","","","11","10581","4927","&#9776;","elianto","#3366ff99"," ","-1","0","0","[2900.800000011921]","1","0","1","","","","","","","",""
"call-function","35","362366","0.0-2.0-9.0","battery-v0.2","","""event"",""trial"",""time""
""fullscreenenter"",""1"",""3482""
","
","
","""event"",""trial"",""time""
""fullscreenenter"",""1"",""3482""
","
","","","","","","","","","","","","","","","","","","","","","","","","","","",""
"pit-instructions","36","404237","0.0-2.0-10.0","battery-v0.2","","""event"",""trial"",""time""
""fullscreenenter"",""1"",""3482""
","
","
","""event"",""trial"",""time""
""fullscreenenter"",""1"",""3482""
","
","","[{""page_index"":0,""viewing_time"":5502.100000023842},{""page_index"":1,""viewing_time"":7823.899999976158},{""page_index"":2,""viewing_time"":9288.300000011921},{""page_index"":3,""viewing_time"":8751.5},{""page_index"":4,""viewing_time"":10504.199999988079}]","41870.20000001788","","","","","","","","","","","","","","","","","","","","","","","",""
"pit-trial","37","409104","0.0-2.0-11.0-0.0","battery-v0.2","","""event"",""trial"",""time""
""fullscreenenter"",""1"",""3482""
","
","
","""event"",""trial"",""time""
""fullscreenenter"",""1"",""3482""
","
","","","-1","","","11","10581","4927","&#9761;","elianto","#3366ff99","-1","-1","1","+10","[]","0","0","2","","","","","","","",""
"pit-trial","38","413967","0.0-2.0-11.0-1.0","battery-v0.2","","""event"",""trial"",""time""
""fullscreenenter"",""1"",""3482""
","
","
","""event"",""trial"",""time""
""fullscreenenter"",""1"",""3482""
","
","","","-1","","","11","10581","4927","&#9761;","elianto","#3366ff99","-1","-1","1","+10","[]","0","0","2","","","","","","","",""
"pit-trial","39","418837","0.0-2.0-11.0-2.0","battery-v0.2","","""event"",""trial"",""time""
""fullscreenenter"",""1"",""3482""
","
","
","""event"",""trial"",""time""
""fullscreenenter"",""1"",""3482""
","
","","","-1","","","11","10581","4927","&#9761;","elianto","#3366ff99","-1","-1","1","+10","[]","0","0","2","","","","","","","",""
"pit-trial","40","423702","0.0-2.0-11.0-3.0","battery-v0.2","","""event"",""trial"",""time""
""fullscreenenter"",""1"",""3482""
","
","
","""event"",""trial"",""time""
""fullscreenenter"",""1"",""3482""
","
","","","-1","","","11","10581","4927","&#9761;","elianto","#3366ff99","-1","-1","1","0","[]","0","0","2","","","","","","","",""
"pit-trial","41","428576","0.0-2.0-11.0-4.0","battery-v0.2","","""event"",""trial"",""time""
""fullscreenenter"",""1"",""3482""
","
","
","""event"",""trial"",""time""
""fullscreenenter"",""1"",""3482""
","
","","","-1","","","11","10581","4927","&#9761;","elianto","#3366ff99","-1","-1","1","+10","[]","0","0","2","","","","","","","",""
"pit-trial","42","433430","0.0-2.0-11.1-0.1","battery-v0.2","","""event"",""trial"",""time""
""fullscreenenter"",""1"",""3482""
","
","
","""event"",""trial"",""time""
""fullscreenenter"",""1"",""3482""
","
","","","-1","","","11","10581","4927","&#9761;","elianto","#3366ff99","-1","-1","1","+10","[]","0","0","2","","","","","","","",""
"pit-trial","43","438283","0.0-2.0-11.1-1.1","battery-v0.2","","""event"",""trial"",""time""
""fullscreenenter"",""1"",""3482""
","
","
","""event"",""trial"",""time""
""fullscreenenter"",""1"",""3482""
","
","","","-1","","","11","10581","4927","&#9761;","elianto","#3366ff99","-1","-1","1","+10","[]","0","0","2","","","","","","","",""
"pit-trial","44","443136","0.0-2.0-11.1-2.1","battery-v0.2","","""event"",""trial"",""time""
""fullscreenenter"",""1"",""3482""
","
","
","""event"",""trial"",""time""
""fullscreenenter"",""1"",""3482""
","
","","","-1","","","11","10581","4927","&#9761;","elianto","#3366ff99","-1","-1","1","+10","[]","0","0","2","","","","","","","",""
"pit-trial","45","447989","0.0-2.0-11.1-3.1","battery-v0.2","","""event"",""trial"",""time""
""fullscreenenter"",""1"",""3482""
","
","
","""event"",""trial"",""time""
""fullscreenenter"",""1"",""3482""
","
","","","-1","","","11","10581","4927","&#9761;","elianto","#3366ff99","-1","-1","1","0","[]","0","0","2","","","","","","","",""
"pit-trial","46","452842","0.0-2.0-11.1-4.1","battery-v0.2","","""event"",""trial"",""time""
""fullscreenenter"",""1"",""3482""
","
","
","""event"",""trial"",""time""
""fullscreenenter"",""1"",""3482""
","
","","","-1","","","11","10581","4927","&#9761;","elianto","#3366ff99","-1","-1","1","+10","[]","0","0","2","","","","","","","",""
"pit-trial","47","457697","0.0-2.0-11.2-0.2","battery-v0.2","","""event"",""trial"",""time""
""fullscreenenter"",""1"",""3482""
","
","
","""event"",""trial"",""time""
""fullscreenenter"",""1"",""3482""
","
","","","-1","","","11","10581","4927","&#9761;","elianto","#3366ff99","-1","-1","1","+10","[]","0","0","2","","","","","","","",""
"pit-trial","48","462551","0.0-2.0-11.2-1.2","battery-v0.2","","""event"",""trial"",""time""
""fullscreenenter"",""1"",""3482""
","
","
","""event"",""trial"",""time""
""fullscreenenter"",""1"",""3482""
","
","","","-1","","","11","10581","4927","&#9761;","elianto","#3366ff99","-1","-1","1","+10","[]","0","0","2","","","","","","","",""
"pit-trial","49","467412","0.0-2.0-11.2-2.2","battery-v0.2","","""event"",""trial"",""time""
""fullscreenenter"",""1"",""3482""
","
","
","""event"",""trial"",""time""
""fullscreenenter"",""1"",""3482""
","
","","","-1","","","11","10581","4927","&#9761;","elianto","#3366ff99","-1","-1","1","+10","[]","0","0","2","","","","","","","",""
"pit-trial","50","472266","0.0-2.0-11.2-3.2","battery-v0.2","","""event"",""trial"",""time""
""fullscreenenter"",""1"",""3482""
","
","
","""event"",""trial"",""time""
""fullscreenenter"",""1"",""3482""
","
","","","-1","","","11","10581","4927","&#9761;","elianto","#3366ff99","-1","-1","1","0","[]","0","0","2","","","","","","","",""
"pit-trial","51","477119","0.0-2.0-11.2-4.2","battery-v0.2","","""event"",""trial"",""time""
""fullscreenenter"",""1"",""3482""
","
","
","""event"",""trial"",""time""
""fullscreenenter"",""1"",""3482""
","
","","","-1","","","11","10581","4927","&#9761;","elianto","#3366ff99","-1","-1","1","+10","[]","0","0","2","","","","","","","",""
"pit-trial","52","481973","0.0-2.0-11.3-0.3","battery-v0.2","","""event"",""trial"",""time""
""fullscreenenter"",""1"",""3482""
","
","
","""event"",""trial"",""time""
""fullscreenenter"",""1"",""3482""
","
","","","-1","","","11","10581","4927","&#9761;","elianto","#3366ff99","-1","-1","1","+10","[]","0","0","2","","","","","","","",""
"pit-trial","53","486826","0.0-2.0-11.3-1.3","battery-v0.2","","""event"",""trial"",""time""
""fullscreenenter"",""1"",""3482""
","
","
","""event"",""trial"",""time""
""fullscreenenter"",""1"",""3482""
","
","","","-1","","","11","10581","4927","&#9761;","elianto","#3366ff99","-1","-1","1","+10","[]","0","0","2","","","","","","","",""
"pit-trial","54","491679","0.0-2.0-11.3-2.3","battery-v0.2","","""event"",""trial"",""time""
""fullscreenenter"",""1"",""3482""
","
","
","""event"",""trial"",""time""
""fullscreenenter"",""1"",""3482""
","
","","","-1","","","11","10581","4927","&#9761;","elianto","#3366ff99","-1","-1","1","+10","[]","0","0","2","","","","","","","",""
"pit-trial","55","496532","0.0-2.0-11.3-3.3","battery-v0.2","","""event"",""trial"",""time""
""fullscreenenter"",""1"",""3482""
","
","
","""event"",""trial"",""time""
""fullscreenenter"",""1"",""3482""
","
","","","-1","","","11","10581","4927","&#9761;","elianto","#3366ff99","-1","-1","1","0","[]","0","0","2","","","","","","","",""
"pit-trial","56","501394","0.0-2.0-11.3-4.3","battery-v0.2","","""event"",""trial"",""time""
""fullscreenenter"",""1"",""3482""
","
","
","""event"",""trial"",""time""
""fullscreenenter"",""1"",""3482""
","
","","","-1","","","11","10581","4927","&#9761;","elianto","#3366ff99","-1","-1","1","+10","[]","0","0","2","","","","","","","",""
"call-function","57","501396","0.0-2.0-12.0","battery-v0.2","","""event"",""trial"",""time""
""fullscreenenter"",""1"",""3482""
","
","
","""event"",""trial"",""time""
""fullscreenenter"",""1"",""3482""
","
","","","","","","","","","","","","","","","","","","","","","","","","","","",""
"pit-instructions","58","537700","0.0-2.0-13.0","battery-v0.2","","""event"",""trial"",""time""
""fullscreenenter"",""1"",""3482""
","
","
","""event"",""trial"",""time""
""fullscreenenter"",""1"",""3482""
","
","","[{""page_index"":0,""viewing_time"":5968.100000023842},{""page_index"":1,""viewing_time"":6992.5},{""page_index"":2,""viewing_time"":4815.899999976158},{""page_index"":3,""viewing_time"":10808},{""page_index"":4,""viewing_time"":7719.200000017881}]","36304.10000002384","","","","","","","","","","","","","","","","","","","","","","","",""
"pit-trial","59","541144","0.0-2.0-14.0-0.0","battery-v0.2","","""event"",""trial"",""time""
""fullscreenenter"",""1"",""3482""
","
","
","""event"",""trial"",""time""
""fullscreenenter"",""1"",""3482""
","
","","","579.2000000178814","","","11","10581","4927","&#9826;","elianto","#f73b6a7A","-1"," ","0","-10","[1431.7999999821186]","1","0","3","","","","","","","",""
"pit-trial","60","546013","0.0-2.0-14.0-1.0","battery-v0.2","","""event"",""trial"",""time""
""fullscreenenter"",""1"",""3482""
","
","
","""event"",""trial"",""time""
""fullscreenenter"",""1"",""3482""
","
","","","-1","","","11","10581","4927","&#9826;","elianto","#f73b6a7A","-1","-1","1","0","[]","0","0","3","","","","","","","",""
"pit-trial","61","550866","0.0-2.0-14.0-2.0","battery-v0.2","","""event"",""trial"",""time""
""fullscreenenter"",""1"",""3482""
","
","
","""event"",""trial"",""time""
""fullscreenenter"",""1"",""3482""
","
","","","-1","","","11","10581","4927","&#9826;","elianto","#f73b6a7A","-1","-1","1","0","[]","0","0","3","","","","","","","",""
"pit-trial","62","555723","0.0-2.0-14.0-3.0","battery-v0.2","","""event"",""trial"",""time""
""fullscreenenter"",""1"",""3482""
","
","
","""event"",""trial"",""time""
""fullscreenenter"",""1"",""3482""
","
","","","-1","","","11","10581","4927","&#9826;","elianto","#f73b6a7A","-1","-1","1","-10","[]","0","0","3","","","","","","","",""
"pit-trial","63","560585","0.0-2.0-14.0-4.0","battery-v0.2","","""event"",""trial"",""time""
""fullscreenenter"",""1"",""3482""
","
","
","""event"",""trial"",""time""
""fullscreenenter"",""1"",""3482""
","
","","","-1","","","11","10581","4927","&#9826;","elianto","#f73b6a7A","-1","-1","1","0","[]","0","0","3","","","","","","","",""
"pit-trial","64","565438","0.0-2.0-14.1-0.1","battery-v0.2","","""event"",""trial"",""time""
""fullscreenenter"",""1"",""3482""
","
","
","""event"",""trial"",""time""
""fullscreenenter"",""1"",""3482""
","
","","","-1","","","11","10581","4927","&#9826;","elianto","#f73b6a7A","-1","-1","1","0","[]","0","0","3","","","","","","","",""
"pit-trial","65","570291","0.0-2.0-14.1-1.1","battery-v0.2","","""event"",""trial"",""time""
""fullscreenenter"",""1"",""3482""
","
","
","""event"",""trial"",""time""
""fullscreenenter"",""1"",""3482""
","
","","","-1","","","11","10581","4927","&#9826;","elianto","#f73b6a7A","-1","-1","1","0","[]","0","0","3","","","","","","","",""
"pit-trial","66","575143","0.0-2.0-14.1-2.1","battery-v0.2","","""event"",""trial"",""time""
""fullscreenenter"",""1"",""3482""
","
","
","""event"",""trial"",""time""
""fullscreenenter"",""1"",""3482""
","
","","","-1","","","11","10581","4927","&#9826;","elianto","#f73b6a7A","-1","-1","1","0","[]","0","0","3","","","","","","","",""
"pit-trial","67","579997","0.0-2.0-14.1-3.1","battery-v0.2","","""event"",""trial"",""time""
""fullscreenenter"",""1"",""3482""
","
","
","""event"",""trial"",""time""
""fullscreenenter"",""1"",""3482""
","
","","","-1","","","11","10581","4927","&#9826;","elianto","#f73b6a7A","-1","-1","1","-10","[]","0","0","3","","","","","","","",""
"pit-trial","68","584850","0.0-2.0-14.1-4.1","battery-v0.2","","""event"",""trial"",""time""
""fullscreenenter"",""1"",""3482""
","
","
","""event"",""trial"",""time""
""fullscreenenter"",""1"",""3482""
","
","","","-1","","","11","10581","4927","&#9826;","elianto","#f73b6a7A","-1","-1","1","0","[]","0","0","3","","","","","","","",""
"pit-trial","69","589705","0.0-2.0-14.2-0.2","battery-v0.2","","""event"",""trial"",""time""
""fullscreenenter"",""1"",""3482""
","
","
","""event"",""trial"",""time""
""fullscreenenter"",""1"",""3482""
","
","","","-1","","","11","10581","4927","&#9826;","elianto","#f73b6a7A","-1","-1","1","0","[]","0","0","3","","","","","","","",""
"pit-trial","70","594559","0.0-2.0-14.2-1.2","battery-v0.2","","""event"",""trial"",""time""
""fullscreenenter"",""1"",""3482""
","
","
","""event"",""trial"",""time""
""fullscreenenter"",""1"",""3482""
","
","","","-1","","","11","10581","4927","&#9826;","elianto","#f73b6a7A","-1","-1","1","0","[]","0","0","3","","","","","","","",""
"pit-trial","71","599412","0.0-2.0-14.2-2.2","battery-v0.2","","""event"",""trial"",""time""
""fullscreenenter"",""1"",""3482""
","
","
","""event"",""trial"",""time""
""fullscreenenter"",""1"",""3482""
","
","","","-1","","","11","10581","4927","&#9826;","elianto","#f73b6a7A","-1","-1","1","0","[]","0","0","3","","","","","","","",""
"pit-trial","72","604264","0.0-2.0-14.2-3.2","battery-v0.2","","""event"",""trial"",""time""
""fullscreenenter"",""1"",""3482""
","
","
","""event"",""trial"",""time""
""fullscreenenter"",""1"",""3482""
","
","","","-1","","","11","10581","4927","&#9826;","elianto","#f73b6a7A","-1","-1","1","-10","[]","0","0","3","","","","","","","",""
"pit-trial","73","609118","0.0-2.0-14.2-4.2","battery-v0.2","","""event"",""trial"",""time""
""fullscreenenter"",""1"",""3482""
","
","
","""event"",""trial"",""time""
""fullscreenenter"",""1"",""3482""
","
","","","-1","","","11","10581","4927","&#9826;","elianto","#f73b6a7A","-1","-1","1","0","[]","0","0","3","","","","","","","",""
"pit-trial","74","613971","0.0-2.0-14.3-0.3","battery-v0.2","","""event"",""trial"",""time""
""fullscreenenter"",""1"",""3482""
","
","
","""event"",""trial"",""time""
""fullscreenenter"",""1"",""3482""
","
","","","-1","","","11","10581","4927","&#9826;","elianto","#f73b6a7A","-1","-1","1","0","[]","0","0","3","","","","","","","",""
"pit-trial","75","618826","0.0-2.0-14.3-1.3","battery-v0.2","","""event"",""trial"",""time""
""fullscreenenter"",""1"",""3482""
","
","
","""event"",""trial"",""time""
""fullscreenenter"",""1"",""3482""
","
","","","-1","","","11","10581","4927","&#9826;","elianto","#f73b6a7A","-1","-1","1","0","[]","0","0","3","","","","","","","",""
"pit-trial","76","623678","0.0-2.0-14.3-2.3","battery-v0.2","","""event"",""trial"",""time""
""fullscreenenter"",""1"",""3482""
","
","
","""event"",""trial"",""time""
""fullscreenenter"",""1"",""3482""
","
","","","-1","","","11","10581","4927","&#9826;","elianto","#f73b6a7A","-1","-1","1","0","[]","0","0","3","","","","","","","",""
"pit-trial","77","628533","0.0-2.0-14.3-3.3","battery-v0.2","","""event"",""trial"",""time""
""fullscreenenter"",""1"",""3482""
","
","
","""event"",""trial"",""time""
""fullscreenenter"",""1"",""3482""
","
","","","-1","","","11","10581","4927","&#9826;","elianto","#f73b6a7A","-1","-1","1","-10","[]","0","0","3","","","","","","","",""
"pit-trial","78","633385","0.0-2.0-14.3-4.3","battery-v0.2","","""event"",""trial"",""time""
""fullscreenenter"",""1"",""3482""
","
","
","""event"",""trial"",""time""
""fullscreenenter"",""1"",""3482""
","
","","","-1","","","11","10581","4927","&#9826;","elianto","#f73b6a7A","-1","-1","1","0","[]","0","0","3","","","","","","","",""
"call-function","79","633386","0.0-2.0-15.0","battery-v0.2","","""event"",""trial"",""time""
""fullscreenenter"",""1"",""3482""
","
","
","""event"",""trial"",""time""
""fullscreenenter"",""1"",""3482""
","
","","","","","","","","","","","","","","","","","","","","","","","","","","",""
"pit-instructions","80","660620","0.0-2.0-16.0","battery-v0.2","","""event"",""trial"",""time""
""fullscreenenter"",""1"",""3482""
","
","
","""event"",""trial"",""time""
""fullscreenenter"",""1"",""3482""
","
","","[{""page_index"":0,""viewing_time"":6593.5},{""page_index"":1,""viewing_time"":10047.90000000596},{""page_index"":2,""viewing_time"":4880.0999999940395},{""page_index"":3,""viewing_time"":5711.800000011921}]","27233.5","","","","","","","","","","","","","","","","","","","","","","","",""
"pit-trial","81","665484","0.0-2.0-17.0-0.0","battery-v0.2","","""event"",""trial"",""time""
""fullscreenenter"",""1"",""3482""
","
","
","""event"",""trial"",""time""
""fullscreenenter"",""1"",""3482""
","
","","","-1","","","11","10581","4927","&#9789;","elianto","#f73b6a7A"," ","-1","0","-10","[3153.0999999940395]","1","0","4","","","","","","","",""
"pit-trial","82","668545","0.0-2.0-17.0-1.0","battery-v0.2","","""event"",""trial"",""time""
""fullscreenenter"",""1"",""3482""
","
","
","""event"",""trial"",""time""
""fullscreenenter"",""1"",""3482""
","
","","","189.90000000596046","","","11","10581","4927","&#9789;","elianto","#f73b6a7A"," "," ","1","0","[1044.2999999821186]","1","0","4","","","","","","","",""
"pit-trial","83","671445","0.0-2.0-17.0-2.0","battery-v0.2","","""event"",""trial"",""time""
""fullscreenenter"",""1"",""3482""
","
","
","""event"",""trial"",""time""
""fullscreenenter"",""1"",""3482""
","
","","","23","","","11","10581","4927","&#9789;","elianto","#f73b6a7A"," "," ","1","0","[884.4000000059605]","1","0","4","","","","","","","",""
"pit-trial","84","675183","0.0-2.0-17.0-3.0","battery-v0.2","","""event"",""trial"",""time""
""fullscreenenter"",""1"",""3482""
","
","
","""event"",""trial"",""time""
""fullscreenenter"",""1"",""3482""
","
","","","863.8000000119209","","","11","10581","4927","&#9789;","elianto","#f73b6a7A"," "," ","1","-10","[847,1728.0999999940395,1914.2000000178814,2121.800000011921,2292.2000000178814,2468.0999999940395,2740.7000000178814,2949,3124.2000000178814,3305.5999999940395,3485,3659.0999999940395]","12","0","4","","","","","","","",""
"pit-trial","85","678193","0.0-2.0-17.0-4.0","battery-v0.2","","""event"",""trial"",""time""
""fullscreenenter"",""1"",""3482""
","
","
","""event"",""trial"",""time""
""fullscreenenter"",""1"",""3482""
","
","","","136.90000000596046","","","11","10581","4927","&#9789;","elianto","#f73b6a7A"," "," ","1","0","[92.5,291.59999999403954,465.19999998807907,645.4000000059605,820.4000000059605,992.4000000059605,1173.0999999940395,1339.9000000059605,1513.4000000059605,1692.7999999821186,1864.7999999821186,2029.9000000059605,2202.4000000059605,2371.7999999821186,2778.7999999821186]","15","0","4","","","","","","","",""
"pit-trial","86","681173","0.0-2.0-17.1-0.1","battery-v0.2","","""event"",""trial"",""time""
""fullscreenenter"",""1"",""3482""
","
","
","""event"",""trial"",""time""
""fullscreenenter"",""1"",""3482""
","
","","","104.5","","","11","10581","4927","&#9789;","elianto","#f73b6a7A"," "," ","1","0","[99.2000000178814,461.40000000596046,774.8000000119209,967,1120.7000000178814,1310.5,1476,1655.4000000059605,1823.5999999940395,2475.4000000059605,2704.4000000059605,2844.300000011921,2957.5]","13","0","4","","","","","","","",""
"pit-trial","87","684064","0.0-2.0-17.1-1.1","battery-v0.2","","""event"",""trial"",""time""
""fullscreenenter"",""1"",""3482""
","
","
","""event"",""trial"",""time""
""fullscreenenter"",""1"",""3482""
","
","","","25","","","11","10581","4927","&#9789;","elianto","#f73b6a7A"," "," ","1","0","[120,225.80000001192093,379.5,619.1000000238419,875,978.3000000119209,1120.9000000059605,1367.4000000059605,1473.4000000059605,1651.2000000178814,1764.9000000059605,1896.6000000238419,2135.2000000178814,2344.5,2558.600000023842,2772.600000023842]","16","0","4","","","","","","","",""
"pit-trial","88","687075","0.0-2.0-17.1-2.1","battery-v0.2","","""event"",""trial"",""time""
""fullscreenenter"",""1"",""3482""
","
","
","""event"",""trial"",""time""
""fullscreenenter"",""1"",""3482""
","
","","","142.19999998807907","","","11","10581","4927","&#9789;","elianto","#f73b6a7A"," "," ","1","0","[133.59999999403954,379.39999997615814,599,817.2999999821186,1000.6999999880791,1201.7999999821186,1414.0999999940395,1636.5,1861.699999988079,2069.2999999821186,2289,2511.399999976158,2740.5999999940395,2944.0999999940395]","14","0","4","","","","","","","",""
"pit-trial","89","689954","0.0-2.0-17.1-3.1","battery-v0.2","","""event"",""trial"",""time""
""fullscreenenter"",""1"",""3482""
","
","
","""event"",""trial"",""time""
""fullscreenenter"",""1"",""3482""
","
","","","27.100000023841858","","","11","10581","4927","&#9789;","elianto","#f73b6a7A"," "," ","1","-10","[150.5,384.40000000596046,632.5,877.6000000238419,1129.7000000178814,1360.800000011921,1612.7000000178814,1831.6000000238419,2062,2306.2000000178814,2535.600000023842,2768.5]","12","0","4","","","","","","","",""
"pit-trial","90","694808","0.0-2.0-17.1-4.1","battery-v0.2","","""event"",""trial"",""time""
""fullscreenenter"",""1"",""3482""
","
","
","""event"",""trial"",""time""
""fullscreenenter"",""1"",""3482""
","
","","","-1","","","11","10581","4927","&#9789;","elianto","#f73b6a7A"," ","-1","0","-10","[405.2999999821186,4792.299999982119]","2","0","4","","","","","","","",""
"pit-trial","91","697858","0.0-2.0-17.2-0.2","battery-v0.2","","""event"",""trial"",""time""
""fullscreenenter"",""1"",""3482""
","
","
","""event"",""trial"",""time""
""fullscreenenter"",""1"",""3482""
","
","","","197.80000001192093","","","11","10581","4927","&#9789;","elianto","#f73b6a7A"," "," ","1","0","[174.89999997615814,387.89999997615814,618.2999999821186,835.3999999761581,1048,1442.2999999821186]","6","0","4","","","","","","","",""
"pit-trial","92","701530","0.0-2.0-17.2-1.2","battery-v0.2","","""event"",""trial"",""time""
""fullscreenenter"",""1"",""3482""
","
","
","""event"",""trial"",""time""
""fullscreenenter"",""1"",""3482""
","
","","","818.8000000119209","","","11","10581","4927","&#9789;","elianto","#f73b6a7A"," "," ","1","0","[825.5,1669.4000000059605]","2","0","4","","","","","","","",""
"pit-trial","93","704707","0.0-2.0-17.2-2.2","battery-v0.2","","""event"",""trial"",""time""
""fullscreenenter"",""1"",""3482""
","
","
","""event"",""trial"",""time""
""fullscreenenter"",""1"",""3482""
","
","","","323","","","11","10581","4927","&#9789;","elianto","#f73b6a7A"," "," ","1","0","[1174.5]","1","0","4","","","","","","","",""
"pit-trial","94","707679","0.0-2.0-17.2-3.2","battery-v0.2","","""event"",""trial"",""time""
""fullscreenenter"",""1"",""3482""
","
","
","""event"",""trial"",""time""
""fullscreenenter"",""1"",""3482""
","
","","","119.09999999403954","","","11","10581","4927","&#9789;","elianto","#f73b6a7A"," "," ","1","-10","[970.5999999940395]","1","0","4","","","","","","","",""
"pit-trial","95","712533","0.0-2.0-17.2-4.2","battery-v0.2","","""event"",""trial"",""time""
""fullscreenenter"",""1"",""3482""
","
","
","""event"",""trial"",""time""
""fullscreenenter"",""1"",""3482""
","
","","","-1","","","11","10581","4927","&#9789;","elianto","#f73b6a7A"," ","-1","0","-10","[751.3999999761581]","1","0","4","","","","","","","",""
"pit-trial","96","715504","0.0-2.0-17.3-0.3","battery-v0.2","","""event"",""trial"",""time""
""fullscreenenter"",""1"",""3482""
","
","
","""event"",""trial"",""time""
""fullscreenenter"",""1"",""3482""
","
","","","116.19999998807907","","","11","10581","4927","&#9789;","elianto","#f73b6a7A"," "," ","1","0","[966.9000000059605]","1","0","4","","","","","","","",""
"pit-trial","97","718580","0.0-2.0-17.3-1.3","battery-v0.2","","""event"",""trial"",""time""
""fullscreenenter"",""1"",""3482""
","
","
","""event"",""trial"",""time""
""fullscreenenter"",""1"",""3482""
","
","","","221.59999999403954","","","11","10581","4927","&#9789;","elianto","#f73b6a7A"," "," ","1","0","[1072.800000011921]","1","0","4","","","","","","","",""
"pit-trial","98","721901","0.0-2.0-17.3-2.3","battery-v0.2","","""event"",""trial"",""time""
""fullscreenenter"",""1"",""3482""
","
","
","""event"",""trial"",""time""
""fullscreenenter"",""1"",""3482""
","
","","","464.59999999403954","","","11","10581","4927","&#9789;","elianto","#f73b6a7A"," "," ","1","0","[720.4000000059605,1319.1000000238419,1560.9000000059605,1786.1000000238419,1989.9000000059605,2205.2000000178814,2452.2000000178814,2935.5]","8","0","4","","","","","","","",""
"pit-trial","99","725325","0.0-2.0-17.3-3.3","battery-v0.2","","""event"",""trial"",""time""
""fullscreenenter"",""1"",""3482""
","
","
","""event"",""trial"",""time""
""fullscreenenter"",""1"",""3482""
","
","","","569.2000000178814","","","11","10581","4927","&#9789;","elianto","#f73b6a7A"," "," ","1","-10","[1420.0999999940395,1644.800000011921,1874.9000000059605,2106.5999999940395,2338,2577.300000011921,3329.9000000059605]","7","0","4","","","","","","","",""
"pit-trial","100","728284","0.0-2.0-17.3-4.3","battery-v0.2","","""event"",""trial"",""time""
""fullscreenenter"",""1"",""3482""
","
","
","""event"",""trial"",""time""
""fullscreenenter"",""1"",""3482""
","
","","","106.2000000178814","","","11","10581","4927","&#9789;","elianto","#f73b6a7A"," "," ","1","0","[320,546.7999999821186,696.8999999761581,957,1107.0999999940395,1245.8999999761581,1391.7999999821186,1637.7999999821186,1766.8999999761581,1971.0999999940395,2206.0999999940395,2364.5,2582.899999976158,2834.5,2942.2999999821186]","15","0","4","","","","","","","",""
"call-function","101","728287","0.0-2.0-18.0","battery-v0.2","","""event"",""trial"",""time""
""fullscreenenter"",""1"",""3482""
","
","
","""event"",""trial"",""time""
""fullscreenenter"",""1"",""3482""
","
","","","","","","","","","","","","","","","","","","","","","","","","","","",""
"pit-instructions","102","787497","0.0-2.0-19.0","battery-v0.2","","""event"",""trial"",""time""
""fullscreenenter"",""1"",""3482""
","
","
","""event"",""trial"",""time""
""fullscreenenter"",""1"",""3482""
","
","","[{""page_index"":0,""viewing_time"":6604.5},{""page_index"":1,""viewing_time"":5464.4000000059605},{""page_index"":2,""viewing_time"":10480},{""page_index"":3,""viewing_time"":4471.800000011921},{""page_index"":4,""viewing_time"":6464.0999999940395},{""page_index"":5,""viewing_time"":9704},{""page_index"":6,""viewing_time"":8135.699999988079},{""page_index"":7,""viewing_time"":4040.4000000059605},{""page_index"":8,""viewing_time"":3847.800000011921}]","59213.20000001788","","","","","","","","","","","","","","","","","","","","","","","",""
"pit-comprehension","103","792610","0.0-2.0-20.0-0.0","battery-v0.2","","""event"",""trial"",""time""
""fullscreenenter"",""1"",""3482""
","
","
","""event"",""trial"",""time""
""fullscreenenter"",""1"",""3482""
","
","","","5108.799999982119","[""SPACE""]","0","11","10581","4927","","","","","","","","","","","","","","","","","","",""
"pit-instructions","104","794969","0.0-2.0-20.0-1.0","battery-v0.2","","""event"",""trial"",""time""
""fullscreenenter"",""1"",""3482""
","
","
","""event"",""trial"",""time""
""fullscreenenter"",""1"",""3482""
","
","","[{""page_index"":0,""viewing_time"":2315}]","2315.5","","","","","","","","","","","","","","","","","","","","","","","",""
"pit-comprehension","105","799812","0.0-2.0-21.0-0.0","battery-v0.2","","""event"",""trial"",""time""
""fullscreenenter"",""1"",""3482""
","
","
","""event"",""trial"",""time""
""fullscreenenter"",""1"",""3482""
","
","","","4836.9000000059605","[""10""]","0","11","10581","4927","","","","","","","","","","","","","","","","","","",""
"pit-instructions","106","800963","0.0-2.0-21.0-1.0","battery-v0.2","","""event"",""trial"",""time""
""fullscreenenter"",""1"",""3482""
","
","
","""event"",""trial"",""time""
""fullscreenenter"",""1"",""3482""
","
","","[{""page_index"":0,""viewing_time"":1105.0999999940395}]","1105.4000000059605","","","","","","","","","","","","","","","","","","","","","","","",""
"pit-comprehension","107","807324","0.0-2.0-22.0-0.0","battery-v0.2","","""event"",""trial"",""time""
""fullscreenenter"",""1"",""3482""
","
","
","""event"",""trial"",""time""
""fullscreenenter"",""1"",""3482""
","
","","","6356.800000011921","[""0""]","0","11","10581","4927","","","","","","","","","","","","","","","","","","",""
"pit-instructions","108","808827","0.0-2.0-22.0-1.0","battery-v0.2","","""event"",""trial"",""time""
""fullscreenenter"",""1"",""3482""
","
","
","""event"",""trial"",""time""
""fullscreenenter"",""1"",""3482""
","
","","[{""page_index"":0,""viewing_time"":1468.5}]","1468.7999999821186","","","","","","","","","","","","","","","","","","","","","","","",""
"pit-comprehension","109","819795","0.0-2.0-23.0-0.0","battery-v0.2","","""event"",""trial"",""time""
""fullscreenenter"",""1"",""3482""
","
","
","""event"",""trial"",""time""
""fullscreenenter"",""1"",""3482""
","
","","","10965.699999988079","[""True""]","0","11","10581","4927","","","","","","","","","","","","","","","","","","",""
"pit-instructions","110","820899","0.0-2.0-23.0-1.0","battery-v0.2","","""event"",""trial"",""time""
""fullscreenenter"",""1"",""3482""
","
","
","""event"",""trial"",""time""
""fullscreenenter"",""1"",""3482""
","
","","[{""page_index"":0,""viewing_time"":1053.199999988079}]","1053.300000011921","","","","","","","","","","","","","","","","","","","","","","","",""
"pit-comprehension","111","828324","0.0-2.0-24.0-0.0","battery-v0.2","","""event"",""trial"",""time""
""fullscreenenter"",""1"",""3482""
","
","
","""event"",""trial"",""time""
""fullscreenenter"",""1"",""3482""
","
","","","7421.200000017881","[""True""]","0","11","10581","4927","","","","","","","","","","","","","","","","","","",""
"pit-instructions","112","829514","0.0-2.0-24.0-1.0","battery-v0.2","","""event"",""trial"",""time""
""fullscreenenter"",""1"",""3482""
","
","
","""event"",""trial"",""time""
""fullscreenenter"",""1"",""3482""
","
","","[{""page_index"":0,""viewing_time"":1143}]","1143.199999988079","","","","","","","","","","","","","","","","","","","","","","","",""
"pit-comprehension","113","835691","0.0-2.0-25.0-0.0","battery-v0.2","","""event"",""trial"",""time""
""fullscreenenter"",""1"",""3482""
","
","
","""event"",""trial"",""time""
""fullscreenenter"",""1"",""3482""
","
","","","6174.699999988079","[""True""]","0","11","10581","4927","","","","","","","","","","","","","","","","","","",""
"pit-instructions","114","837219","0.0-2.0-25.0-1.0","battery-v0.2","","""event"",""trial"",""time""
""fullscreenenter"",""1"",""3482""
","
","
","""event"",""trial"",""time""
""fullscreenenter"",""1"",""3482""
","
","","[{""page_index"":0,""viewing_time"":1476.199999988079}]","1476.4000000059605","","","","","","","","","","","","","","","","","","","","","","","",""
"pit-comprehension","115","842012","0.0-2.0-26.0-0.0","battery-v0.2","","""event"",""trial"",""time""
""fullscreenenter"",""1"",""3482""
","
","
","""event"",""trial"",""time""
""fullscreenenter"",""1"",""3482""
","
","","","4789.600000023842","[""False""]","0","11","10581","4927","","","","","","","","","","","","","","","","","","",""
"pit-instructions","116","843675","0.0-2.0-26.0-1.0","battery-v0.2","","""event"",""trial"",""time""
""fullscreenenter"",""1"",""3482""
","
","
","""event"",""trial"",""time""
""fullscreenenter"",""1"",""3482""
","
","","[{""page_index"":0,""viewing_time"":1611.9000000059605}]","1612.2000000178814","","","","","","","","","","","","","","","","","","","","","","","",""
"pit-instructions","117","858900","0.0-3.0","battery-v0.2","","""event"",""trial"",""time""
""fullscreenenter"",""1"",""3482""
","
","
","""event"",""trial"",""time""
""fullscreenenter"",""1"",""3482""
","
","","[{""page_index"":0,""viewing_time"":3885.199999988079},{""page_index"":1,""viewing_time"":5120.200000017881},{""page_index"":2,""viewing_time"":6215.5999999940395}]","15221.299999982119","","","","","","","","","","","","","","","","","","","","","","","",""
"pit-trial","118","862569","0.0-4.0","battery-v0.2","","""event"",""trial"",""time""
""fullscreenenter"",""1"",""3482""
","
","
","""event"",""trial"",""time""
""fullscreenenter"",""1"",""3482""
","
","","","802.8000000119209","","","11","10581","4927","&#9733;","elianto","#3366ff99","-1"," ","0","0","[1658.4000000059605]","1","1","","","10581","1","2","2","win","no-go","0"
"pit-trial","119","865680","0.0-5.0","battery-v0.2","","""event"",""trial"",""time""
""fullscreenenter"",""1"",""3482""
","
","
","""event"",""trial"",""time""
""fullscreenenter"",""1"",""3482""
","
","","","249.7999999821186","","","11","10581","4927","&#9752;","elianto","#f73b6a7A"," "," ","1","0","[1104.699999988079]","1","1","","","10581","2","3","3","lose","go","0"
"pit-trial","120","868708","0.0-6.0","battery-v0.2","","""event"",""trial"",""time""
""fullscreenenter"",""1"",""3482""
","
","
","""event"",""trial"",""time""
""fullscreenenter"",""1"",""3482""
","
","","","149.7999999821186","","","11","10581","4927","&#9728;","elianto","#f73b6a7A","-1"," ","0","-10","[1010.7999999821186]","1","1","","","10581","3","0","4","lose","no-go","0"
"pit-trial","121","873580","0.0-7.0","battery-v0.2","","""event"",""trial"",""time""
""fullscreenenter"",""1"",""3482""
","
","
","""event"",""trial"",""time""
""fullscreenenter"",""1"",""3482""
","
","","","-1","","","11","10581","4927","&#9730;","elianto","#3366ff99"," ","-1","0","0","[]","0","1","","","10581","4","1","1","win","go","0"
"pit-trial","122","876630","0.0-8.0","battery-v0.2","","""event"",""trial"",""time""
""fullscreenenter"",""1"",""3482""
","
","
","""event"",""trial"",""time""
""fullscreenenter"",""1"",""3482""
","
","","","175","","","11","10581","4927","&#9733;","elianto","#3366ff99","-1"," ","0","0","[1035.9000000059605]","1","1","","","10581","5","2","2","win","no-go","0"
"pit-trial","123","879720","0.0-9.0","battery-v0.2","","""event"",""trial"",""time""
""fullscreenenter"",""1"",""3482""
","
","
","""event"",""trial"",""time""
""fullscreenenter"",""1"",""3482""
","
","","","221","","","11","10581","4927","&#9730;","elianto","#3366ff99"," "," ","1","+10","[1082.2999999821186]","1","1","","","10581","6","1","1","win","go","0"
"pit-trial","124","882740","0.0-10.0","battery-v0.2","","""event"",""trial"",""time""
""fullscreenenter"",""1"",""3482""
","
","
","""event"",""trial"",""time""
""fullscreenenter"",""1"",""3482""
","
","","","154.19999998807907","","","11","10581","4927","&#9752;","elianto","#f73b6a7A"," "," ","1","0","[1009.5,1860.4000000059605]","2","1","","","10581","7","3","3","lose","go","0"
"pit-trial","125","887609","0.0-11.0","battery-v0.2","","""event"",""trial"",""time""
""fullscreenenter"",""1"",""3482""
","
","
","""event"",""trial"",""time""
""fullscreenenter"",""1"",""3482""
","
","","","-1","","","11","10581","4927","&#9728;","elianto","#f73b6a7A","-1","-1","1","0","[]","0","1","","","10581","8","0","4","lose","no-go","0"
"pit-trial","126","891602","0.0-12.0","battery-v0.2","","""event"",""trial"",""time""
""fullscreenenter"",""1"",""3482""
","
","
","""event"",""trial"",""time""
""fullscreenenter"",""1"",""3482""
","
","","","1138.5","","","11","10581","4927","&#9752;","elianto","#f73b6a7A"," "," ","1","0","[1989.199999988079]","1","1","","","10581","9","3","3","lose","go","0"
"pit-trial","127","895045","0.0-13.0","battery-v0.2","","""event"",""trial"",""time""
""fullscreenenter"",""1"",""3482""
","
","
","""event"",""trial"",""time""
""fullscreenenter"",""1"",""3482""
","
","","","589.2000000178814","","","11","10581","4927","&#9728;","elianto","#f73b6a7A","-1"," ","0","0","[1440]","1","1","","","10581","10","0","4","lose","no-go","1"
"pit-trial","128","898379","0.0-14.0","battery-v0.2","","""event"",""trial"",""time""
""fullscreenenter"",""1"",""3482""
","
","
","""event"",""trial"",""time""
""fullscreenenter"",""1"",""3482""
","
","","","479.5","","","11","10581","4927","&#9730;","elianto","#3366ff99"," "," ","1","+10","[1330.5]","1","1","","","10581","11","1","1","win","go","0"
"pit-trial","129","901427","0.0-15.0","battery-v0.2","","""event"",""trial"",""time""
""fullscreenenter"",""1"",""3482""
","
","
","""event"",""trial"",""time""
""fullscreenenter"",""1"",""3482""
","
","","","193.40000000596046","","","11","10581","4927","&#9733;","elianto","#3366ff99","-1"," ","0","0","[1044.699999988079]","1","1","","","10581","12","2","2","win","no-go","0"
"pit-trial","130","904549","0.0-16.0","battery-v0.2","","""event"",""trial"",""time""
""fullscreenenter"",""1"",""3482""
","
","
","""event"",""trial"",""time""
""fullscreenenter"",""1"",""3482""
","
","","","266.2999999821186","","","11","10581","4927","&#9728;","elianto","#f73b6a7A","-1"," ","0","-10","[442,1118.699999988079,1882.4000000059605,2096]","4","1","","","10581","13","0","4","lose","no-go","0"
"pit-trial","131","907878","0.0-17.0","battery-v0.2","","""event"",""trial"",""time""
""fullscreenenter"",""1"",""3482""
","
","
","""event"",""trial"",""time""
""fullscreenenter"",""1"",""3482""
","
","","","475.5","","","11","10581","4927","&#9730;","elianto","#3366ff99"," "," ","1","+10","[1326]","1","1","","","10581","14","1","1","win","go","0"
"pit-trial","132","910851","0.0-18.0","battery-v0.2","","""event"",""trial"",""time""
""fullscreenenter"",""1"",""3482""
","
","
","""event"",""trial"",""time""
""fullscreenenter"",""1"",""3482""
","
","","","119.19999998807907","","","11","10581","4927","&#9733;","elianto","#3366ff99","-1"," ","0","0","[970.5]","1","1","","","10581","15","2","2","win","no-go","0"
"pit-trial","133","914226","0.0-19.0","battery-v0.2","","""event"",""trial"",""time""
""fullscreenenter"",""1"",""3482""
","
","
","""event"",""trial"",""time""
""fullscreenenter"",""1"",""3482""
","
","","","521.2000000178814","","","11","10581","4927","&#9752;","elianto","#f73b6a7A"," "," ","1","-10","[652.0999999940395,1371.8999999761581,1983.8999999761581,2209.5999999940395,2419.199999988079,2632.0999999940395,2867.5999999940395]","7","1","","","10581","16","3","3","lose","go","1"
"pit-trial","134","919090","0.0-20.0","battery-v0.2","","""event"",""trial"",""time""
""fullscreenenter"",""1"",""3482""
","
","
","""event"",""trial"",""time""
""fullscreenenter"",""1"",""3482""
","
","","","-1","","","11","10581","4927","&#9733;","elianto","#3366ff99","-1","-1","1","0","[]","0","1","","","10581","17","2","2","win","no-go","1"
"pit-trial","135","922247","0.0-21.0","battery-v0.2","","""event"",""trial"",""time""
""fullscreenenter"",""1"",""3482""
","
","
","""event"",""trial"",""time""
""fullscreenenter"",""1"",""3482""
","
","","","303.2999999821186","","","11","10581","4927","&#9730;","elianto","#3366ff99"," "," ","1","0","[1154.0999999940395]","1","1","","","10581","18","1","1","win","go","1"
"pit-trial","136","927102","0.0-22.0","battery-v0.2","","""event"",""trial"",""time""
""fullscreenenter"",""1"",""3482""
","
","
","""event"",""trial"",""time""
""fullscreenenter"",""1"",""3482""
","
","","","-1","","","11","10581","4927","&#9752;","elianto","#f73b6a7A"," ","-1","0","-10","[814.7000000178814]","1","1","","","10581","19","3","3","lose","go","0"
"pit-trial","137","930505","0.0-23.0","battery-v0.2","","""event"",""trial"",""time""
""fullscreenenter"",""1"",""3482""
","
","
","""event"",""trial"",""time""
""fullscreenenter"",""1"",""3482""
","
","","","548.5","","","11","10581","4927","&#9728;","elianto","#f73b6a7A","-1"," ","0","-10","[1399.5999999940395]","1","1","","","10581","20","0","4","lose","no-go","0"
"pit-instructions","138","943067","0.0-24.0","battery-v0.2","","""event"",""trial"",""time""
""fullscreenenter"",""1"",""3482""
","
","
","""event"",""trial"",""time""
""fullscreenenter"",""1"",""3482""
","
","","[{""page_index"":0,""viewing_time"":5856.199999988079},{""page_index"":1,""viewing_time"":6703.9000000059605}]","12560.399999976158","","","","","","","","","","","","","","","","","","","","","","","",""
"pit-trial","139","947004","0.0-25.0","battery-v0.2","","""event"",""trial"",""time""
""fullscreenenter"",""1"",""3482""
","
","
","""event"",""trial"",""time""
""fullscreenenter"",""1"",""3482""
","
","","","1059.4000000059605","","","11","10581","4927","a","elianto","#f73b6a7A"," "," ","1","0","[1916]","1","2","","","10581","21","2","3","lose","go","0"
"pit-trial","140","950694","0.0-26.0","battery-v0.2","","""event"",""trial"",""time""
""fullscreenenter"",""1"",""3482""
","
","
","""event"",""trial"",""time""
""fullscreenenter"",""1"",""3482""
","
","","","821.8000000119209","","","11","10581","4927","l","elianto","#3366ff99","-1"," ","0","0","[1676.2000000178814]","1","2","","","10581","22","1","2","win","no-go","0"
"pit-trial","141","955574","0.0-27.0","battery-v0.2","","""event"",""trial"",""time""
""fullscreenenter"",""1"",""3482""
","
","
","""event"",""trial"",""time""
""fullscreenenter"",""1"",""3482""
","
","","","-1","","","11","10581","4927","u","elianto","#f73b6a7A"," ","-1","0","-10","[]","0","2","","","10581","23","0","3","lose","go","0"
"pit-trial","142","959686","0.0-28.0","battery-v0.2","","""event"",""trial"",""time""
""fullscreenenter"",""1"",""3482""
","
","
","""event"",""trial"",""time""
""fullscreenenter"",""1"",""3482""
","
","","","1255.9000000059605","","","11","10581","4927","g","elianto","#f73b6a7A","-1"," ","0","-10","[2107.699999988079,2947.199999988079]","2","2","","","10581","24","3","4","lose","no-go","0"
"pit-trial","143","963410","0.0-29.0","battery-v0.2","","""event"",""trial"",""time""
""fullscreenenter"",""1"",""3482""
","
","
","""event"",""trial"",""time""
""fullscreenenter"",""1"",""3482""
","
","","","859.4000000059605","","","11","10581","4927","a","elianto","#f73b6a7A"," "," ","1","0","[1716.2999999821186]","1","2","","","10581","25","2","3","lose","go","0"
"pit-trial","144","967379","0.0-30.0","battery-v0.2","","""event"",""trial"",""time""
""fullscreenenter"",""1"",""3482""
","
","
","""event"",""trial"",""time""
""fullscreenenter"",""1"",""3482""
","
","","","1105.0999999940395","","","11","10581","4927","u","elianto","#f73b6a7A"," "," ","1","0","[1957.0999999940395]","1","2","","","10581","26","0","3","lose","go","0"
"pit-trial","145","972255","0.0-31.0","battery-v0.2","","""event"",""trial"",""time""
""fullscreenenter"",""1"",""3482""
","
","
","""event"",""trial"",""time""
""fullscreenenter"",""1"",""3482""
","
","","","-1","","","11","10581","4927","g","elianto","#f73b6a7A","-1","-1","1","0","[]","0","2","","","10581","27","3","4","lose","no-go","0"
"pit-trial","146","976042","0.0-32.0","battery-v0.2","","""event"",""trial"",""time""
""fullscreenenter"",""1"",""3482""
","
","
","""event"",""trial"",""time""
""fullscreenenter"",""1"",""3482""
","
","","","925.4000000059605","","","11","10581","4927","l","elianto","#3366ff99","-1"," ","0","0","[1781.6000000238419]","1","2","","","10581","28","1","2","win","no-go","0"
"pit-trial","147","979728","0.0-33.0","battery-v0.2","","""event"",""trial"",""time""
""fullscreenenter"",""1"",""3482""
","
","
","""event"",""trial"",""time""
""fullscreenenter"",""1"",""3482""
","
","","","830.1999999880791","","","11","10581","4927","u","elianto","#f73b6a7A"," "," ","1","0","[1682]","1","2","","","10581","29","0","3","lose","go","0"
"pit-trial","148","983461","0.0-34.0","battery-v0.2","","""event"",""trial"",""time""
""fullscreenenter"",""1"",""3482""
","
","
","""event"",""trial"",""time""
""fullscreenenter"",""1"",""3482""
","
","","","878.8000000119209","","","11","10581","4927","a","elianto","#f73b6a7A"," "," ","1","0","[1729.2000000178814]","1","2","","","10581","30","2","3","lose","go","0"
"pit-trial","149","987235","0.0-35.0","battery-v0.2","","""event"",""trial"",""time""
""fullscreenenter"",""1"",""3482""
","
","
","""event"",""trial"",""time""
""fullscreenenter"",""1"",""3482""
","
","","","920.2999999821186","","","11","10581","4927","g","elianto","#f73b6a7A","-1"," ","0","0","[1770.4000000059605]","1","2","","","10581","31","3","4","lose","no-go","1"
"pit-trial","150","991265","0.0-36.0","battery-v0.2","","""event"",""trial"",""time""
""fullscreenenter"",""1"",""3482""
","
","
","""event"",""trial"",""time""
""fullscreenenter"",""1"",""3482""
","
","","","1175.5999999940395","","","11","10581","4927","l","elianto","#3366ff99","-1"," ","0","0","[2027.5]","1","2","","","10581","32","1","2","win","no-go","0"
"pit-trial","151","994972","0.0-37.0","battery-v0.2","","""event"",""trial"",""time""
""fullscreenenter"",""1"",""3482""
","
","
","""event"",""trial"",""time""
""fullscreenenter"",""1"",""3482""
","
","","","852","","","11","10581","4927","g","elianto","#f73b6a7A","-1"," ","0","-10","[1702.9000000059605]","1","2","","","10581","33","3","4","lose","no-go","0"
"pit-trial","152","999827","0.0-38.0","battery-v0.2","","""event"",""trial"",""time""
""fullscreenenter"",""1"",""3482""
","
","
","""event"",""trial"",""time""
""fullscreenenter"",""1"",""3482""
","
","","","-1","","","11","10581","4927","l","elianto","#3366ff99","-1","-1","1","+10","[]","0","2","","","10581","34","1","2","win","no-go","0"
"pit-trial","153","1003354","0.0-39.0","battery-v0.2","","""event"",""trial"",""time""
""fullscreenenter"",""1"",""3482""
","
","
","""event"",""trial"",""time""
""fullscreenenter"",""1"",""3482""
","
","","","672.4000000059605","","","11","10581","4927","u","elianto","#f73b6a7A"," "," ","1","0","[1524]","1","2","","","10581","35","0","3","lose","go","0"
"pit-trial","154","1006705","0.0-40.0","battery-v0.2","","""event"",""trial"",""time""
""fullscreenenter"",""1"",""3482""
","
","
","""event"",""trial"",""time""
""fullscreenenter"",""1"",""3482""
","
","","","495.90000000596046","","","11","10581","4927","a","elianto","#f73b6a7A"," "," ","1","-10","[1346.2000000178814]","1","2","","","10581","36","2","3","lose","go","1"
"pit-trial","155","1010349","0.0-41.0","battery-v0.2","","""event"",""trial"",""time""
""fullscreenenter"",""1"",""3482""
","
","
","""event"",""trial"",""time""
""fullscreenenter"",""1"",""3482""
","
","","","790","","","11","10581","4927","u","elianto","#f73b6a7A"," "," ","1","0","[1640.199999988079]","1","2","","","10581","37","0","3","lose","go","0"
"pit-trial","156","1013791","0.0-42.0","battery-v0.2","","""event"",""trial"",""time""
""fullscreenenter"",""1"",""3482""
","
","
","""event"",""trial"",""time""
""fullscreenenter"",""1"",""3482""
","
","","","586.5","","","11","10581","4927","l","elianto","#3366ff99","-1"," ","0","0","[1437.5]","1","2","","","10581","38","1","2","win","no-go","0"
"pit-trial","157","1017347","0.0-43.0","battery-v0.2","","""event"",""trial"",""time""
""fullscreenenter"",""1"",""3482""
","
","
","""event"",""trial"",""time""
""fullscreenenter"",""1"",""3482""
","
","","","699.0999999940395","","","11","10581","4927","g","elianto","#f73b6a7A","-1"," ","0","-10","[1552.5999999940395,2411.699999988079,2750.4000000059605,3328.5]","4","2","","","10581","39","3","4","lose","no-go","0"
"pit-trial","158","1022200","0.0-44.0","battery-v0.2","","""event"",""trial"",""time""
""fullscreenenter"",""1"",""3482""
","
","
","""event"",""trial"",""time""
""fullscreenenter"",""1"",""3482""
","
","","","-1","","","11","10581","4927","a","elianto","#f73b6a7A"," ","-1","0","-10","[]","0","2","","","10581","40","2","3","lose","go","0"
"pit-trial","159","1025525","0.0-45.0","battery-v0.2","","""event"",""trial"",""time""
""fullscreenenter"",""1"",""3482""
","
","
","""event"",""trial"",""time""
""fullscreenenter"",""1"",""3482""
","
","","","471.09999999403954","","","11","10581","4927","g","elianto","#f73b6a7A","-1"," ","0","-10","[1321.4000000059605]","1","2","","","10581","41","3","4","lose","no-go","0"
"pit-trial","160","1029337","0.0-46.0","battery-v0.2","","""event"",""trial"",""time""
""fullscreenenter"",""1"",""3482""
","
","
","""event"",""trial"",""time""
""fullscreenenter"",""1"",""3482""
","
","","","960","","","11","10581","4927","a","elianto","#f73b6a7A"," "," ","1","0","[1810.4000000059605]","1","2","","","10581","42","2","3","lose","go","0"
"pit-trial","161","1033032","0.0-47.0","battery-v0.2","","""event"",""trial"",""time""
""fullscreenenter"",""1"",""3482""
","
","
","""event"",""trial"",""time""
""fullscreenenter"",""1"",""3482""
","
","","","841.8000000119209","","","11","10581","4927","u","elianto","#f73b6a7A"," "," ","1","0","[1691.800000011921]","1","2","","","10581","43","0","3","lose","go","0"
"pit-trial","162","1036660","0.0-48.0","battery-v0.2","","""event"",""trial"",""time""
""fullscreenenter"",""1"",""3482""
","
","
","""event"",""trial"",""time""
""fullscreenenter"",""1"",""3482""
","
","","","773.0999999940395","","","11","10581","4927","l","elianto","#3366ff99","-1"," ","0","0","[1623.800000011921]","1","2","","","10581","44","1","2","win","no-go","0"
"pit-trial","163","1040411","0.0-49.0","battery-v0.2","","""event"",""trial"",""time""
""fullscreenenter"",""1"",""3482""
","
","
","""event"",""trial"",""time""
""fullscreenenter"",""1"",""3482""
","
","","","884.6999999880791","","","11","10581","4927","g","elianto","#f73b6a7A","-1"," ","0","-10","[1738.300000011921]","1","2","","","10581","45","3","4","lose","no-go","0"
"pit-trial","164","1044066","0.0-50.0","battery-v0.2","","""event"",""trial"",""time""
""fullscreenenter"",""1"",""3482""
","
","
","""event"",""trial"",""time""
""fullscreenenter"",""1"",""3482""
","
","","","800.8000000119209","","","11","10581","4927","a","elianto","#f73b6a7A"," "," ","1","0","[1651.2000000178814]","1","2","","","10581","46","2","3","lose","go","0"
"pit-trial","165","1047022","0.0-51.0","battery-v0.2","","""event"",""trial"",""time""
""fullscreenenter"",""1"",""3482""
","
","
","""event"",""trial"",""time""
""fullscreenenter"",""1"",""3482""
","
","","","104.2999999821186","","","11","10581","4927","u","elianto","#f73b6a7A"," "," ","1","-10","[954.4000000059605]","1","2","","","10581","47","0","3","lose","go","1"
"pit-trial","166","1051877","0.0-52.0","battery-v0.2","","""event"",""trial"",""time""
""fullscreenenter"",""1"",""3482""
","
","
","""event"",""trial"",""time""
""fullscreenenter"",""1"",""3482""
","
","","","-1","","","11","10581","4927","l","elianto","#3366ff99","-1","-1","1","+10","[]","0","2","","","10581","48","1","2","win","no-go","0"
"pit-trial","167","1055687","0.0-53.0","battery-v0.2","","""event"",""trial"",""time""
""fullscreenenter"",""1"",""3482""
","
","
","""event"",""trial"",""time""
""fullscreenenter"",""1"",""3482""
","
","","","955.1000000238419","","","11","10581","4927","u","elianto","#f73b6a7A"," "," ","1","0","[1805.800000011921]","1","2","","","10581","49","0","3","lose","go","0"
"pit-trial","168","1059379","0.0-54.0","battery-v0.2","","""event"",""trial"",""time""
""fullscreenenter"",""1"",""3482""
","
","
","""event"",""trial"",""time""
""fullscreenenter"",""1"",""3482""
","
","","","839.1999999880791","","","11","10581","4927","g","elianto","#f73b6a7A","-1"," ","0","-10","[1689.4000000059605]","1","2","","","10581","50","3","4","lose","no-go","0"
"pit-trial","169","1063312","0.0-55.0","battery-v0.2","","""event"",""trial"",""time""
""fullscreenenter"",""1"",""3482""
","
","
","""event"",""trial"",""time""
""fullscreenenter"",""1"",""3482""
","
","","","1079.7000000178814","","","11","10581","4927","a","elianto","#f73b6a7A"," "," ","1","0","[1930.9000000059605]","1","2","","","10581","51","2","3","lose","go","0"
"pit-trial","170","1066860","0.0-56.0","battery-v0.2","","""event"",""trial"",""time""
""fullscreenenter"",""1"",""3482""
","
","
","""event"",""trial"",""time""
""fullscreenenter"",""1"",""3482""
","
","","","693.7999999821186","","","11","10581","4927","l","elianto","#3366ff99","-1"," ","0","+10","[1544.5]","1","2","","","10581","52","1","2","win","no-go","1"
"pit-trial","171","1070461","0.0-57.0","battery-v0.2","","""event"",""trial"",""time""
""fullscreenenter"",""1"",""3482""
","
","
","""event"",""trial"",""time""
""fullscreenenter"",""1"",""3482""
","
","","","746.7000000178814","","","11","10581","4927","a","elianto","#f73b6a7A"," "," ","1","0","[1597.0999999940395]","1","2","","","10581","53","2","3","lose","go","0"
"pit-trial","172","1074317","0.0-58.0","battery-v0.2","","""event"",""trial"",""time""
""fullscreenenter"",""1"",""3482""
","
","
","""event"",""trial"",""time""
""fullscreenenter"",""1"",""3482""
","
","","","999","","","11","10581","4927","g","elianto","#f73b6a7A","-1"," ","0","-10","[1851.4000000059605,2531.2000000178814,2755.4000000059605,2980.0999999940395,3195.2000000178814,3437.5999999940395]","6","2","","","10581","54","3","4","lose","no-go","0"
"pit-trial","173","1079170","0.0-59.0","battery-v0.2","","""event"",""trial"",""time""
""fullscreenenter"",""1"",""3482""
","
","
","""event"",""trial"",""time""
""fullscreenenter"",""1"",""3482""
","
","","","-1","","","11","10581","4927","u","elianto","#f73b6a7A"," ","-1","0","0","[]","0","2","","","10581","55","0","3","lose","go","1"
"pit-trial","174","1082597","0.0-60.0","battery-v0.2","","""event"",""trial"",""time""
""fullscreenenter"",""1"",""3482""
","
","
","""event"",""trial"",""time""
""fullscreenenter"",""1"",""3482""
","
","","","572.8000000119209","","","11","10581","4927","l","elianto","#3366ff99","-1"," ","0","0","[1423]","1","2","","","10581","56","1","2","win","no-go","0"
"pit-trial","175","1087452","0.0-61.0","battery-v0.2","","""event"",""trial"",""time""
""fullscreenenter"",""1"",""3482""
","
","
","""event"",""trial"",""time""
""fullscreenenter"",""1"",""3482""
","
","","","-1","","","11","10581","4927","u","elianto","#f73b6a7A"," ","-1","0","-10","[]","0","2","","","10581","57","0","3","lose","go","0"
"pit-trial","176","1091434","0.0-62.0","battery-v0.2","","""event"",""trial"",""time""
""fullscreenenter"",""1"",""3482""
","
","
","""event"",""trial"",""time""
""fullscreenenter"",""1"",""3482""
","
","","","1128.199999988079","","","11","10581","4927","g","elianto","#f73b6a7A","-1"," ","0","-10","[1979.2999999821186]","1","2","","","10581","58","3","4","lose","no-go","0"
"pit-trial","177","1096289","0.0-63.0","battery-v0.2","","""event"",""trial"",""time""
""fullscreenenter"",""1"",""3482""
","
","
","""event"",""trial"",""time""
""fullscreenenter"",""1"",""3482""
","
","","","-1","","","11","10581","4927","p","elianto","#3366ff99"," ","-1","0","+10","[]","0","2","","","10581","59","4","1","win","go","1"
"pit-trial","178","1099973","0.0-64.0","battery-v0.2","","""event"",""trial"",""time""
""fullscreenenter"",""1"",""3482""
","
","
","""event"",""trial"",""time""
""fullscreenenter"",""1"",""3482""
","
","","","829.1000000238419","","","11","10581","4927","a","elianto","#f73b6a7A"," "," ","1","0","[1679.9000000059605]","1","2","","","10581","60","2","3","lose","go","0"
"pit-trial","179","1103709","0.0-65.0","battery-v0.2","","""event"",""trial"",""time""
""fullscreenenter"",""1"",""3482""
","
","
","""event"",""trial"",""time""
""fullscreenenter"",""1"",""3482""
","
","","","881.7000000178814","","","11","10581","4927","a","elianto","#f73b6a7A"," "," ","1","0","[1732.4000000059605]","1","2","","","10581","61","2","3","lose","go","0"
"pit-trial","180","1108563","0.0-66.0","battery-v0.2","","""event"",""trial"",""time""
""fullscreenenter"",""1"",""3482""
","
","
","""event"",""trial"",""time""
""fullscreenenter"",""1"",""3482""
","
","","","-1","","","11","10581","4927","l","elianto","#3366ff99","-1","-1","1","0","[]","0","2","","","10581","62","1","2","win","no-go","1"
"pit-trial","181","1112475","0.0-67.0","battery-v0.2","","""event"",""trial"",""time""
""fullscreenenter"",""1"",""3482""
","
","
","""event"",""trial"",""time""
""fullscreenenter"",""1"",""3482""
","
","","","1057.2999999821186","","","11","10581","4927","p","elianto","#3366ff99"," "," ","1","+10","[1908.199999988079]","1","2","","","10581","63","4","1","win","go","0"
"pit-trial","182","1116568","0.0-68.0","battery-v0.2","","""event"",""trial"",""time""
""fullscreenenter"",""1"",""3482""
","
","
","""event"",""trial"",""time""
""fullscreenenter"",""1"",""3482""
","
","","","1239.0999999940395","","","11","10581","4927","g","elianto","#f73b6a7A","-1"," ","0","0","[2089.100000023842]","1","2","","","10581","64","3","4","lose","no-go","1"
"pit-trial","183","1121423","0.0-69.0","battery-v0.2","","""event"",""trial"",""time""
""fullscreenenter"",""1"",""3482""
","
","
","""event"",""trial"",""time""
""fullscreenenter"",""1"",""3482""
","
","","","-1","","","11","10581","4927","l","elianto","#3366ff99","-1","-1","1","+10","[]","0","2","","","10581","65","1","2","win","no-go","0"
"pit-trial","184","1125355","0.0-70.0","battery-v0.2","","""event"",""trial"",""time""
""fullscreenenter"",""1"",""3482""
","
","
","""event"",""trial"",""time""
""fullscreenenter"",""1"",""3482""
","
","","","1078.0999999940395","","","11","10581","4927","p","elianto","#3366ff99"," "," ","1","+10","[1928.4000000059605]","1","2","","","10581","66","4","1","win","go","0"
"pit-trial","185","1129072","0.0-71.0","battery-v0.2","","""event"",""trial"",""time""
""fullscreenenter"",""1"",""3482""
","
","
","""event"",""trial"",""time""
""fullscreenenter"",""1"",""3482""
","
","","","864.0999999940395","","","11","10581","4927","g","elianto","#f73b6a7A","-1"," ","0","-10","[1714.199999988079,2406.5,2692.9000000059605,2931.300000011921]","4","2","","","10581","67","3","4","lose","no-go","0"
"pit-trial","186","1132293","0.0-72.0","battery-v0.2","","""event"",""trial"",""time""
""fullscreenenter"",""1"",""3482""
","
","
","""event"",""trial"",""time""
""fullscreenenter"",""1"",""3482""
","
","","","365","","","11","10581","4927","s","elianto","#3366ff99","-1"," ","0","0","[1216.5]","1","2","","","10581","68","5","2","win","no-go","0"
"pit-trial","187","1137150","0.0-73.0","battery-v0.2","","""event"",""trial"",""time""
""fullscreenenter"",""1"",""3482""
","
","
","""event"",""trial"",""time""
""fullscreenenter"",""1"",""3482""
","
","","","-1","","","11","10581","4927","p","elianto","#3366ff99"," ","-1","0","0","[]","0","2","","","10581","69","4","1","win","go","0"
"pit-trial","188","1140095","0.0-74.0","battery-v0.2","","""event"",""trial"",""time""
""fullscreenenter"",""1"",""3482""
","
","
","""event"",""trial"",""time""
""fullscreenenter"",""1"",""3482""
","
","","","91.19999998807907","","","11","10581","4927","l","elianto","#3366ff99","-1"," ","0","0","[941.1999999880791]","1","2","","","10581","70","1","2","win","no-go","0"
"pit-trial","189","1144951","0.0-75.0","battery-v0.2","","""event"",""trial"",""time""
""fullscreenenter"",""1"",""3482""
","
","
","""event"",""trial"",""time""
""fullscreenenter"",""1"",""3482""
","
","","","-1","","","11","10581","4927","s","elianto","#3366ff99","-1","-1","1","+10","[]","0","2","","","10581","71","5","2","win","no-go","0"
"pit-trial","190","1149805","0.0-76.0","battery-v0.2","","""event"",""trial"",""time""
""fullscreenenter"",""1"",""3482""
","
","
","""event"",""trial"",""time""
""fullscreenenter"",""1"",""3482""
","
","","","-1","","","11","10581","4927","a","elianto","#f73b6a7A"," ","-1","0","-10","[]","0","2","","","10581","72","2","3","lose","go","0"
"pit-trial","191","1153660","0.0-77.0","battery-v0.2","","""event"",""trial"",""time""
""fullscreenenter"",""1"",""3482""
","
","
","""event"",""trial"",""time""
""fullscreenenter"",""1"",""3482""
","
","","","1001.3999999761581","","","11","10581","4927","p","elianto","#3366ff99"," "," ","1","+10","[1851.8999999761581]","1","2","","","10581","73","4","1","win","go","0"
"pit-trial","192","1157980","0.0-78.0","battery-v0.2","","""event"",""trial"",""time""
""fullscreenenter"",""1"",""3482""
","
","
","""event"",""trial"",""time""
""fullscreenenter"",""1"",""3482""
","
","","","1465.7999999821186","","","11","10581","4927","g","elianto","#f73b6a7A","-1"," ","0","0","[2316.5,2723.9000000059605,3003.300000011921,3229.9000000059605,3436.2000000178814,3646,4024.300000011921,4258.200000017881]","8","2","","","10581","74","3","4","lose","no-go","1"
"pit-trial","193","1160945","0.0-79.0","battery-v0.2","","""event"",""trial"",""time""
""fullscreenenter"",""1"",""3482""
","
","
","""event"",""trial"",""time""
""fullscreenenter"",""1"",""3482""
","
","","","109.59999999403954","","","11","10581","4927","s","elianto","#3366ff99","-1"," ","0","0","[151.5,395.59999999403954,564.2000000178814,757.4000000059605,961.3000000119209,1186.7000000178814,1376.0999999940395,1607.2000000178814,1833.0999999940395]","9","2","","","10581","75","5","2","win","no-go","0"
"pit-trial","194","1164483","0.0-80.0","battery-v0.2","","""event"",""trial"",""time""
""fullscreenenter"",""1"",""3482""
","
","
","""event"",""trial"",""time""
""fullscreenenter"",""1"",""3482""
","
","","","684","","","11","10581","4927","l","elianto","#3366ff99","-1"," ","0","0","[1534.300000011921]","1","2","","","10581","76","1","2","win","no-go","0"
"pit-trial","195","1169337","0.0-81.0","battery-v0.2","","""event"",""trial"",""time""
""fullscreenenter"",""1"",""3482""
","
","
","""event"",""trial"",""time""
""fullscreenenter"",""1"",""3482""
","
","","","-1","","","11","10581","4927","g","elianto","#f73b6a7A","-1","-1","1","0","[4176.100000023842]","1","2","","","10581","77","3","4","lose","no-go","0"
"pit-trial","196","1172272","0.0-82.0","battery-v0.2","","""event"",""trial"",""time""
""fullscreenenter"",""1"",""3482""
","
","
","""event"",""trial"",""time""
""fullscreenenter"",""1"",""3482""
","
","","","78.80000001192093","","","11","10581","4927","p","elianto","#3366ff99"," "," ","1","+10","[452.7000000178814,930.3000000119209]","2","2","","","10581","78","4","1","win","go","0"
"pit-trial","197","1177055","0.0-83.0","battery-v0.2","","""event"",""trial"",""time""
""fullscreenenter"",""1"",""3482""
","
","
","""event"",""trial"",""time""
""fullscreenenter"",""1"",""3482""
","
","","","1928.2000000178814","","","11","10581","4927","s","elianto","#3366ff99","-1"," ","0","0","[2778.9000000059605]","1","2","","","10581","79","5","2","win","no-go","0"
"pit-trial","198","1180861","0.0-84.0","battery-v0.2","","""event"",""trial"",""time""
""fullscreenenter"",""1"",""3482""
","
","
","""event"",""trial"",""time""
""fullscreenenter"",""1"",""3482""
","
","","","938.0999999940395","","","11","10581","4927","p","elianto","#3366ff99"," "," ","1","0","[1788.699999988079]","1","2","","","10581","80","4","1","win","go","1"
"pit-trial","199","1183844","0.0-85.0","battery-v0.2","","""event"",""trial"",""time""
""fullscreenenter"",""1"",""3482""
","
","
","""event"",""trial"",""time""
""fullscreenenter"",""1"",""3482""
","
","","","127.5","","","11","10581","4927","e","elianto","#f73b6a7A","-1"," ","0","-10","[650.2999999821186,979.5,1199.199999988079,1387.0999999940395,1576,1772.5999999940395,1997.699999988079,2216.699999988079,2414.5999999940395,2644.699999988079,2851.9000000059605]","11","2","","","10581","81","7","4","lose","no-go","0"
"pit-trial","200","1186867","0.0-86.0","battery-v0.2","","""event"",""trial"",""time""
""fullscreenenter"",""1"",""3482""
","
","
","""event"",""trial"",""time""
""fullscreenenter"",""1"",""3482""
","
","","","154.59999999403954","","","11","10581","4927","p","elianto","#3366ff99"," "," ","1","0","[75.69999998807907,300,545.9000000059605,789.4000000059605,1005.1999999880791,1214.5,1415,1640.4000000059605,1864.699999988079,2100.0999999940395,2289.7999999821186,2477.5999999940395,2687.5999999940395,2884.0999999940395]","14","2","","","10581","82","4","1","win","go","1"
"pit-trial","201","1189808","0.0-87.0","battery-v0.2","","""event"",""trial"",""time""
""fullscreenenter"",""1"",""3482""
","
","
","""event"",""trial"",""time""
""fullscreenenter"",""1"",""3482""
","
","","","86.59999999403954","","","11","10581","4927","s","elianto","#3366ff99","-1"," ","0","0","[72.59999999403954,518.6999999880791,733.4000000059605,937,1116,1324.699999988079,1536.300000011921,1741.9000000059605,1955.9000000059605,2160.199999988079,2415.800000011921,2621.5,2830.800000011921]","13","2","","","10581","83","5","2","win","no-go","0"
"pit-trial","202","1192688","0.0-88.0","battery-v0.2","","""event"",""trial"",""time""
""fullscreenenter"",""1"",""3482""
","
","
","""event"",""trial"",""time""
""fullscreenenter"",""1"",""3482""
","
","","","24.900000005960464","","","11","10581","4927","g","elianto","#f73b6a7A","-1"," ","0","0","[96.7999999821186,295.39999997615814,485.19999998807907,673.0999999940395,876.7999999821186,1078.8999999761581,1294.199999988079,1505.7999999821186,1735.5,1950.699999988079,2164.5,2368.899999976158,2593.5]","13","2","","","10581","84","3","4","lose","no-go","1"
"pit-trial","203","1195678","0.0-89.0","battery-v0.2","","""event"",""trial"",""time""
""fullscreenenter"",""1"",""3482""
","
","
","""event"",""trial"",""time""
""fullscreenenter"",""1"",""3482""
","
","","","135.7999999821186","","","11","10581","4927","p","elianto","#3366ff99"," "," ","1","0","[126.7999999821186,731.0999999940395,986.2999999821186]","3","2","","","10581","85","4","1","win","go","1"
"pit-trial","204","1200337","0.0-90.0","battery-v0.2","","""event"",""trial"",""time""
""fullscreenenter"",""1"",""3482""
","
","
","""event"",""trial"",""time""
""fullscreenenter"",""1"",""3482""
","
","","","1804.5","","","11","10581","4927","w","elianto","#f73b6a7A"," "," ","1","0","[2655.199999988079]","1","2","","","10581","86","6","3","lose","go","0"
"pit-trial","205","1204032","0.0-91.0","battery-v0.2","","""event"",""trial"",""time""
""fullscreenenter"",""1"",""3482""
","
","
","""event"",""trial"",""time""
""fullscreenenter"",""1"",""3482""
","
","","","839.6000000238419","","","11","10581","4927","e","elianto","#f73b6a7A","-1"," ","0","0","[1690.199999988079]","1","2","","","10581","87","7","4","lose","no-go","1"
"pit-trial","206","1208886","0.0-92.0","battery-v0.2","","""event"",""trial"",""time""
""fullscreenenter"",""1"",""3482""
","
","
","""event"",""trial"",""time""
""fullscreenenter"",""1"",""3482""
","
","","","-1","","","11","10581","4927","s","elianto","#3366ff99","-1","-1","1","+10","[]","0","2","","","10581","88","5","2","win","no-go","0"
"pit-trial","207","1212352","0.0-93.0","battery-v0.2","","""event"",""trial"",""time""
""fullscreenenter"",""1"",""3482""
","
","
","""event"",""trial"",""time""
""fullscreenenter"",""1"",""3482""
","
","","","611.3000000119209","","","11","10581","4927","s","elianto","#3366ff99","-1"," ","0","0","[1462.4000000059605]","1","2","","","10581","89","5","2","win","no-go","0"
"pit-trial","208","1217206","0.0-94.0","battery-v0.2","","""event"",""trial"",""time""
""fullscreenenter"",""1"",""3482""
","
","
","""event"",""trial"",""time""
""fullscreenenter"",""1"",""3482""
","
","","","-1","","","11","10581","4927","e","elianto","#f73b6a7A","-1","-1","1","0","[]","0","2","","","10581","90","7","4","lose","no-go","0"
"pit-trial","209","1222061","0.0-95.0","battery-v0.2","","""event"",""trial"",""time""
""fullscreenenter"",""1"",""3482""
","
","
","""event"",""trial"",""time""
""fullscreenenter"",""1"",""3482""
","
","","","-1","","","11","10581","4927","w","elianto","#f73b6a7A"," ","-1","0","-10","[2862.5999999940395]","1","2","","","10581","91","6","3","lose","go","0"
"pit-trial","210","1226915","0.0-96.0","battery-v0.2","","""event"",""trial"",""time""
""fullscreenenter"",""1"",""3482""
","
","
","""event"",""trial"",""time""
""fullscreenenter"",""1"",""3482""
","
","","","-1","","","11","10581","4927","p","elianto","#3366ff99"," ","-1","0","+10","[]","0","2","","","10581","92","4","1","win","go","1"
"pit-trial","211","1230547","0.0-97.0","battery-v0.2","","""event"",""trial"",""time""
""fullscreenenter"",""1"",""3482""
","
","
","""event"",""trial"",""time""
""fullscreenenter"",""1"",""3482""
","
","","","777.1999999880791","","","11","10581","4927","d","elianto","#3366ff99"," "," ","1","+10","[1630.0999999940395]","1","2","","","10581","93","8","1","win","go","0"
"pit-trial","212","1234572","0.0-98.0","battery-v0.2","","""event"",""trial"",""time""
""fullscreenenter"",""1"",""3482""
","
","
","""event"",""trial"",""time""
""fullscreenenter"",""1"",""3482""
","
","","","1172.5","","","11","10581","4927","e","elianto","#f73b6a7A","-1"," ","0","0","[2022.699999988079]","1","2","","","10581","94","7","4","lose","no-go","1"
"pit-trial","213","1237943","0.0-99.0","battery-v0.2","","""event"",""trial"",""time""
""fullscreenenter"",""1"",""3482""
","
","
","""event"",""trial"",""time""
""fullscreenenter"",""1"",""3482""
","
","","","516.2000000178814","","","11","10581","4927","w","elianto","#f73b6a7A"," "," ","1","0","[1366.300000011921]","1","2","","","10581","95","6","3","lose","go","0"
"pit-trial","214","1241352","0.0-100.0","battery-v0.2","","""event"",""trial"",""time""
""fullscreenenter"",""1"",""3482""
","
","
","""event"",""trial"",""time""
""fullscreenenter"",""1"",""3482""
","
","","","555","","","11","10581","4927","s","elianto","#3366ff99","-1"," ","0","0","[1405.800000011921]","1","2","","","10581","96","5","2","win","no-go","0"
"pit-trial","215","1244873","0.0-101.0","battery-v0.2","","""event"",""trial"",""time""
""fullscreenenter"",""1"",""3482""
","
","
","""event"",""trial"",""time""
""fullscreenenter"",""1"",""3482""
","
","","","666.4000000059605","","","11","10581","4927","s","elianto","#3366ff99","-1"," ","0","0","[1517.2000000178814]","1","2","","","10581","97","5","2","win","no-go","0"
"pit-trial","216","1249727","0.0-102.0","battery-v0.2","","""event"",""trial"",""time""
""fullscreenenter"",""1"",""3482""
","
","
","""event"",""trial"",""time""
""fullscreenenter"",""1"",""3482""
","
","","","-1","","","11","10581","4927","e","elianto","#f73b6a7A","-1","-1","1","0","[]","0","2","","","10581","98","7","4","lose","no-go","0"
"pit-trial","217","1253248","0.0-103.0","battery-v0.2","","""event"",""trial"",""time""
""fullscreenenter"",""1"",""3482""
","
","
","""event"",""trial"",""time""
""fullscreenenter"",""1"",""3482""
","
","","","666.4000000059605","","","11","10581","4927","d","elianto","#3366ff99"," "," ","1","+10","[1517.1000000238419]","1","2","","","10581","99","8","1","win","go","0"
"pit-trial","218","1256424","0.0-104.0","battery-v0.2","","""event"",""trial"",""time""
""fullscreenenter"",""1"",""3482""
","
","
","""event"",""trial"",""time""
""fullscreenenter"",""1"",""3482""
","
","","","321","","","11","10581","4927","w","elianto","#f73b6a7A"," "," ","1","0","[1172.199999988079]","1","2","","","10581","100","6","3","lose","go","0"
"pit-trial","219","1259899","0.0-105.0","battery-v0.2","","""event"",""trial"",""time""
""fullscreenenter"",""1"",""3482""
","
","
","""event"",""trial"",""time""
""fullscreenenter"",""1"",""3482""
","
","","","621.2999999821186","","","11","10581","4927","d","elianto","#3366ff99"," "," ","1","+10","[1471.699999988079]","1","2","","","10581","101","8","1","win","go","0"
"pit-trial","220","1264753","0.0-106.0","battery-v0.2","","""event"",""trial"",""time""
""fullscreenenter"",""1"",""3482""
","
","
","""event"",""trial"",""time""
""fullscreenenter"",""1"",""3482""
","
","","","-1","","","11","10581","4927","e","elianto","#f73b6a7A","-1","-1","1","0","[]","0","2","","","10581","102","7","4","lose","no-go","0"
"pit-trial","221","1268595","0.0-107.0","battery-v0.2","","""event"",""trial"",""time""
""fullscreenenter"",""1"",""3482""
","
","
","""event"",""trial"",""time""
""fullscreenenter"",""1"",""3482""
","
","","","987.5","","","11","10581","4927","s","elianto","#3366ff99","-1"," ","0","+10","[1838.7999999821186]","1","2","","","10581","103","5","2","win","no-go","1"
"pit-trial","222","1272102","0.0-108.0","battery-v0.2","","""event"",""trial"",""time""
""fullscreenenter"",""1"",""3482""
","
","
","""event"",""trial"",""time""
""fullscreenenter"",""1"",""3482""
","
","","","653.2000000178814","","","11","10581","4927","j","elianto","#3366ff99"," "," ","1","+10","[1503.199999988079,2002.199999988079]","2","2","","","10581","104","9","1","win","go","0"
"pit-trial","223","1276956","0.0-109.0","battery-v0.2","","""event"",""trial"",""time""
""fullscreenenter"",""1"",""3482""
","
","
","""event"",""trial"",""time""
""fullscreenenter"",""1"",""3482""
","
","","","-1","","","11","10581","4927","p","elianto","#3366ff99"," ","-1","0","0","[]","0","2","","","10581","105","4","1","win","go","0"
"pit-trial","224","1280261","0.0-110.0","battery-v0.2","","""event"",""trial"",""time""
""fullscreenenter"",""1"",""3482""
","
","
","""event"",""trial"",""time""
""fullscreenenter"",""1"",""3482""
","
","","","451.40000000596046","","","11","10581","4927","j","elianto","#3366ff99"," "," ","1","+10","[1302]","1","2","","","10581","106","9","1","win","go","0"
"pit-trial","225","1283630","0.0-111.0","battery-v0.2","","""event"",""trial"",""time""
""fullscreenenter"",""1"",""3482""
","
","
","""event"",""trial"",""time""
""fullscreenenter"",""1"",""3482""
","
","","","514.9000000059605","","","11","10581","4927","d","elianto","#3366ff99"," "," ","1","+10","[832.1999999880791,1365.5999999940395]","2","2","","","10581","107","8","1","win","go","0"
"pit-trial","226","1288483","0.0-112.0","battery-v0.2","","""event"",""trial"",""time""
""fullscreenenter"",""1"",""3482""
","
","
","""event"",""trial"",""time""
""fullscreenenter"",""1"",""3482""
","
","","","-1","","","11","10581","4927","w","elianto","#f73b6a7A"," ","-1","0","-10","[]","0","2","","","10581","108","6","3","lose","go","0"
"pit-trial","227","1292132","0.0-113.0","battery-v0.2","","""event"",""trial"",""time""
""fullscreenenter"",""1"",""3482""
","
","
","""event"",""trial"",""time""
""fullscreenenter"",""1"",""3482""
","
","","","794.3999999761581","","","11","10581","4927","j","elianto","#3366ff99"," "," ","1","0","[1645]","1","2","","","10581","109","9","1","win","go","1"
"pit-trial","228","1296986","0.0-114.0","battery-v0.2","","""event"",""trial"",""time""
""fullscreenenter"",""1"",""3482""
","
","
","""event"",""trial"",""time""
""fullscreenenter"",""1"",""3482""
","
","","","-1","","","11","10581","4927","d","elianto","#3366ff99"," ","-1","0","+10","[3228.5999999940395,3976.899999976158]","2","2","","","10581","110","8","1","win","go","1"
"pit-trial","229","1301150","0.0-115.0","battery-v0.2","","""event"",""trial"",""time""
""fullscreenenter"",""1"",""3482""
","
","
","""event"",""trial"",""time""
""fullscreenenter"",""1"",""3482""
","
","","","1309.5999999940395","","","11","10581","4927","w","elianto","#f73b6a7A"," "," ","1","0","[2159.5]","1","2","","","10581","111","6","3","lose","go","0"
"pit-trial","230","1304774","0.0-116.0","battery-v0.2","","""event"",""trial"",""time""
""fullscreenenter"",""1"",""3482""
","
","
","""event"",""trial"",""time""
""fullscreenenter"",""1"",""3482""
","
","","","771.1999999880791","","","11","10581","4927","s","elianto","#3366ff99","-1"," ","0","+10","[1621.0999999940395]","1","2","","","10581","112","5","2","win","no-go","1"
"pit-trial","231","1307910","0.0-117.0","battery-v0.2","","""event"",""trial"",""time""
""fullscreenenter"",""1"",""3482""
","
","
","""event"",""trial"",""time""
""fullscreenenter"",""1"",""3482""
","
","","","281","","","11","10581","4927","w","elianto","#f73b6a7A"," "," ","1","-10","[1131.800000011921]","1","2","","","10581","113","6","3","lose","go","1"
"pit-trial","232","1312763","0.0-118.0","battery-v0.2","","""event"",""trial"",""time""
""fullscreenenter"",""1"",""3482""
","
","
","""event"",""trial"",""time""
""fullscreenenter"",""1"",""3482""
","
","","","-1","","","11","10581","4927","d","elianto","#3366ff99"," ","-1","0","+10","[2949.2999999821186]","1","2","","","10581","114","8","1","win","go","1"
"pit-trial","233","1316313","0.0-119.0","battery-v0.2","","""event"",""trial"",""time""
""fullscreenenter"",""1"",""3482""
","
","
","""event"",""trial"",""time""
""fullscreenenter"",""1"",""3482""
","
","","","696.2000000178814","","","11","10581","4927","j","elianto","#3366ff99"," "," ","1","+10","[1546.699999988079]","1","2","","","10581","115","9","1","win","go","0"
"pit-trial","234","1319732","0.0-120.0","battery-v0.2","","""event"",""trial"",""time""
""fullscreenenter"",""1"",""3482""
","
","
","""event"",""trial"",""time""
""fullscreenenter"",""1"",""3482""
","
","","","565.0999999940395","","","11","10581","4927","s","elianto","#3366ff99","-1"," ","0","+10","[1416.0999999940395]","1","2","","","10581","116","5","2","win","no-go","1"
"pit-trial","235","1323032","0.0-121.0","battery-v0.2","","""event"",""trial"",""time""
""fullscreenenter"",""1"",""3482""
","
","
","""event"",""trial"",""time""
""fullscreenenter"",""1"",""3482""
","
","","","443.80000001192093","","","11","10581","4927","d","elianto","#3366ff99"," "," ","1","+10","[1296.5]","1","2","","","10581","117","8","1","win","go","0"
"pit-trial","236","1327253","0.0-122.0","battery-v0.2","","""event"",""trial"",""time""
""fullscreenenter"",""1"",""3482""
","
","
","""event"",""trial"",""time""
""fullscreenenter"",""1"",""3482""
","
","","","1365.4000000059605","","","11","10581","4927","w","elianto","#f73b6a7A"," "," ","1","0","[2216.100000023842]","1","2","","","10581","118","6","3","lose","go","0"
"pit-trial","237","1330727","0.0-123.0","battery-v0.2","","""event"",""trial"",""time""
""fullscreenenter"",""1"",""3482""
","
","
","""event"",""trial"",""time""
""fullscreenenter"",""1"",""3482""
","
","","","619.8000000119209","","","11","10581","4927","j","elianto","#3366ff99"," "," ","1","+10","[1470.2000000178814]","1","2","","","10581","119","9","1","win","go","0"
"pit-trial","238","1334197","0.0-124.0","battery-v0.2","","""event"",""trial"",""time""
""fullscreenenter"",""1"",""3482""
","
","
","""event"",""trial"",""time""
""fullscreenenter"",""1"",""3482""
","
","","","616","","","11","10581","4927","s","elianto","#3366ff99","-1"," ","0","0","[1467.300000011921]","1","2","","","10581","120","5","2","win","no-go","0"
"pit-trial","239","1337805","0.0-125.0","battery-v0.2","","""event"",""trial"",""time""
""fullscreenenter"",""1"",""3482""
","
","
","""event"",""trial"",""time""
""fullscreenenter"",""1"",""3482""
","
","","","754.9000000059605","","","11","10581","4927","j","elianto","#3366ff99"," "," ","1","+10","[1605.2000000178814]","1","2","","","10581","121","9","1","win","go","0"
"pit-trial","240","1340744","0.0-126.0","battery-v0.2","","""event"",""trial"",""time""
""fullscreenenter"",""1"",""3482""
","
","
","""event"",""trial"",""time""
""fullscreenenter"",""1"",""3482""
","
","","","85.09999999403954","","","11","10581","4927","w","elianto","#f73b6a7A"," "," ","1","0","[346.5,936.0999999940395]","2","2","","","10581","122","6","3","lose","go","0"
"pit-trial","241","1344283","0.0-127.0","battery-v0.2","","""event"",""trial"",""time""
""fullscreenenter"",""1"",""3482""
","
","
","""event"",""trial"",""time""
""fullscreenenter"",""1"",""3482""
","
","","","684.0999999940395","","","11","10581","4927","d","elianto","#3366ff99"," "," ","1","+10","[1536]","1","2","","","10581","123","8","1","win","go","0"
"pit-trial","242","1347806","0.0-128.0","battery-v0.2","","""event"",""trial"",""time""
""fullscreenenter"",""1"",""3482""
","
","
","""event"",""trial"",""time""
""fullscreenenter"",""1"",""3482""
","
","","","667.2000000178814","","","11","10581","4927","e","elianto","#f73b6a7A","-1"," ","0","-10","[1519.8999999761581]","1","2","","","10581","124","7","4","lose","no-go","0"
"pit-trial","243","1350876","0.0-129.0","battery-v0.2","","""event"",""trial"",""time""
""fullscreenenter"",""1"",""3482""
","
","
","""event"",""trial"",""time""
""fullscreenenter"",""1"",""3482""
","
","","","215.19999998807907","","","11","10581","4927","d","elianto","#3366ff99"," "," ","1","+10","[1066.5]","1","2","","","10581","125","8","1","win","go","0"
"pit-trial","244","1353956","0.0-130.0","battery-v0.2","","""event"",""trial"",""time""
""fullscreenenter"",""1"",""3482""
","
","
","""event"",""trial"",""time""
""fullscreenenter"",""1"",""3482""
","
","","","225.60000002384186","","","11","10581","4927","j","elianto","#3366ff99"," "," ","1","+10","[1076.4000000059605]","1","2","","","10581","126","9","1","win","go","0"
"pit-trial","245","1357795","0.0-131.0","battery-v0.2","","""event"",""trial"",""time""
""fullscreenenter"",""1"",""3482""
","
","
","""event"",""trial"",""time""
""fullscreenenter"",""1"",""3482""
","
","","","986.5","","","11","10581","4927","w","elianto","#f73b6a7A"," "," ","1","0","[1836.5]","1","2","","","10581","127","6","3","lose","go","0"
"pit-trial","246","1361575","0.0-132.0","battery-v0.2","","""event"",""trial"",""time""
""fullscreenenter"",""1"",""3482""
","
","
","""event"",""trial"",""time""
""fullscreenenter"",""1"",""3482""
","
","","","927.1999999880791","","","11","10581","4927","e","elianto","#f73b6a7A","-1"," ","0","0","[1777.5]","1","2","","","10581","128","7","4","lose","no-go","1"
"pit-trial","247","1365536","0.0-133.0","battery-v0.2","","""event"",""trial"",""time""
""fullscreenenter"",""1"",""3482""
","
","
","""event"",""trial"",""time""
""fullscreenenter"",""1"",""3482""
","
","","","1105.7999999821186","","","11","10581","4927","j","elianto","#3366ff99"," "," ","1","+10","[1956.699999988079]","1","2","","","10581","129","9","1","win","go","0"
"pit-trial","248","1368738","0.0-134.0","battery-v0.2","","""event"",""trial"",""time""
""fullscreenenter"",""1"",""3482""
","
","
","""event"",""trial"",""time""
""fullscreenenter"",""1"",""3482""
","
","","","347.7000000178814","","","11","10581","4927","d","elianto","#3366ff99"," "," ","1","0","[1198.300000011921]","1","2","","","10581","130","8","1","win","go","1"
"pit-trial","249","1372495","0.0-135.0","battery-v0.2","","""event"",""trial"",""time""
""fullscreenenter"",""1"",""3482""
","
","
","""event"",""trial"",""time""
""fullscreenenter"",""1"",""3482""
","
","","","902.4000000059605","","","11","10581","4927","w","elianto","#f73b6a7A"," "," ","1","0","[1753.5999999940395]","1","2","","","10581","131","6","3","lose","go","0"
"pit-trial","250","1376294","0.0-136.0","battery-v0.2","","""event"",""trial"",""time""
""fullscreenenter"",""1"",""3482""
","
","
","""event"",""trial"",""time""
""fullscreenenter"",""1"",""3482""
","
","","","944.5999999940395","","","11","10581","4927","e","elianto","#f73b6a7A","-1"," ","0","-10","[1795.7000000178814]","1","2","","","10581","132","7","4","lose","no-go","0"
"pit-trial","251","1379778","0.0-137.0","battery-v0.2","","""event"",""trial"",""time""
""fullscreenenter"",""1"",""3482""
","
","
","""event"",""trial"",""time""
""fullscreenenter"",""1"",""3482""
","
","","","629","","","11","10581","4927","w","elianto","#f73b6a7A"," "," ","1","0","[1479.8999999761581,3045.7999999821186]","2","2","","","10581","133","6","3","lose","go","0"
"pit-trial","252","1382712","0.0-138.0","battery-v0.2","","""event"",""trial"",""time""
""fullscreenenter"",""1"",""3482""
","
","
","""event"",""trial"",""time""
""fullscreenenter"",""1"",""3482""
","
","","","79.80000001192093","","","11","10581","4927","j","elianto","#3366ff99"," "," ","1","+10","[930.3000000119209]","1","2","","","10581","134","9","1","win","go","0"
"pit-trial","253","1386223","0.0-139.0","battery-v0.2","","""event"",""trial"",""time""
""fullscreenenter"",""1"",""3482""
","
","
","""event"",""trial"",""time""
""fullscreenenter"",""1"",""3482""
","
","","","657.0999999940395","","","11","10581","4927","d","elianto","#3366ff99"," "," ","1","+10","[1507.5999999940395]","1","2","","","10581","135","8","1","win","go","0"
"pit-trial","254","1389707","0.0-140.0","battery-v0.2","","""event"",""trial"",""time""
""fullscreenenter"",""1"",""3482""
","
","
","""event"",""trial"",""time""
""fullscreenenter"",""1"",""3482""
","
","","","629.5","","","11","10581","4927","e","elianto","#f73b6a7A","-1"," ","0","-10","[1479.699999988079]","1","2","","","10581","136","7","4","lose","no-go","0"
