"trial_type","trial_index","time_elapsed","internal_node_id","task_version","subject_id","interactions","blur_events","focus_events","fullscreenenter_events","fullscreenexit_events","success","view_history","rt","responses","num_errors","age","subject","participantId","rune","rune_set","hex","correct","choice","accuracy","outcome","keys","total_keys","block","practice","value","sub","trial","stimulus","robot","valence","action","sham"
"pavlovia","0","8","0.0-0.0","battery-v0.2","","""event"",""trial"",""time""
""fullscreenenter"",""1"",""1842""
","
","
","""event"",""trial"",""time""
""fullscreenenter"",""1"",""1842""
","
","","","","","","","","","","","","","","","","","","","","","","","","","","",""
"fullscreen","1","2734","0.0-1.0","battery-v0.2","","""event"",""trial"",""time""
""fullscreenenter"",""1"",""1842""
","
","
","""event"",""trial"",""time""
""fullscreenenter"",""1"",""1842""
","
","true","","","","","","","","","","","","","","","","","","","","","","","","","",""
"pit-instructions","2","12185","0.0-2.0-0.0","battery-v0.2","","""event"",""trial"",""time""
""fullscreenenter"",""1"",""1842""
","
","
","""event"",""trial"",""time""
""fullscreenenter"",""1"",""1842""
","
","","[{""page_index"":0,""viewing_time"":9442.699999999255}]","9443.599999999627","","","","","","","","","","","","","","","","","","","","","","","",""
"pit-comprehension","3","16761","0.0-2.0-1.0-0.0","battery-v0.2","","""event"",""trial"",""time""
""fullscreenenter"",""1"",""1842""
","
","
","""event"",""trial"",""time""
""fullscreenenter"",""1"",""1842""
","
","","","4564.5999999996275","[""shark""]","0","13","10677","5223","","","","","","","","","","","","","","","","","","",""
"pit-instructions","4","18994","0.0-2.0-1.0-1.0","battery-v0.2","","""event"",""trial"",""time""
""fullscreenenter"",""1"",""1842""
","
","
","""event"",""trial"",""time""
""fullscreenenter"",""1"",""1842""
","
","","[{""page_index"":0,""viewing_time"":2182.5}]","2183.199999999255","","","","","","","","","","","","","","","","","","","","","","","",""
"pit-comprehension","5","23789","0.0-2.0-2.0-0.0","battery-v0.2","","""event"",""trial"",""time""
""fullscreenenter"",""1"",""1842""
","
","
","""event"",""trial"",""time""
""fullscreenenter"",""1"",""1842""
","
","","","4785.5999999996275","[""tiger""]","0","13","10677","5223","","","","","","","","","","","","","","","","","","",""
"pit-instructions","6","24990","0.0-2.0-2.0-1.0","battery-v0.2","","""event"",""trial"",""time""
""fullscreenenter"",""1"",""1842""
","
","
","""event"",""trial"",""time""
""fullscreenenter"",""1"",""1842""
","
","","[{""page_index"":0,""viewing_time"":1193}]","1193.800000000745","","","","","","","","","","","","","","","","","","","","","","","",""
"pit-instructions","7","130136","0.0-2.0-3.0","battery-v0.2","","""event"",""trial"",""time""
""fullscreenenter"",""1"",""1842""
","
","
","""event"",""trial"",""time""
""fullscreenenter"",""1"",""1842""
","
","","[{""page_index"":0,""viewing_time"":9298},{""page_index"":1,""viewing_time"":6865.5999999996275},{""page_index"":2,""viewing_time"":6493.4000000003725},{""page_index"":3,""viewing_time"":6183.799999998882},{""page_index"":4,""viewing_time"":12692.300000000745},{""page_index"":5,""viewing_time"":6008.5},{""page_index"":6,""viewing_time"":7771.299999998882},{""page_index"":7,""viewing_time"":7143.10000000149},{""page_index"":8,""viewing_time"":6577.0999999996275},{""page_index"":9,""viewing_time"":8233.199999999255},{""page_index"":10,""viewing_time"":7815.200000001118},{""page_index"":11,""viewing_time"":7449.0999999996275},{""page_index"":12,""viewing_time"":6286.199999999255},{""page_index"":13,""viewing_time"":6316.5999999996275}]","105134.5","","","","","","","","","","","","","","","","","","","","","","","",""
"pit-trial","8","133374","0.0-2.0-4.0-0.0","battery-v0.2","","""event"",""trial"",""time""
""fullscreenenter"",""1"",""1842""
","
","
","""event"",""trial"",""time""
""fullscreenenter"",""1"",""1842""
","
","","","369.2999999988824","","","13","10677","5223","&#9784;","elianto","#FFFFF080"," "," ","1","&#10004","[1219.1000000014901,3113.2000000011176]","2","0","0","","","","","","","",""
"pit-trial","9","138042","0.0-2.0-4.1-0.1","battery-v0.2","","""event"",""trial"",""time""
""fullscreenenter"",""1"",""1842""
","
","
","""event"",""trial"",""time""
""fullscreenenter"",""1"",""1842""
","
","","","1795.4000000003725","","","13","10677","5223","&#9784;","elianto","#FFFFF080"," "," ","1","&#10004","[2648.199999999255,3648.0999999996275]","2","0","0","","","","","","","",""
"pit-trial","10","142926","0.0-2.0-4.2-0.2","battery-v0.2","","""event"",""trial"",""time""
""fullscreenenter"",""1"",""1842""
","
","
","""event"",""trial"",""time""
""fullscreenenter"",""1"",""1842""
","
","","","-1","","","13","10677","5223","&#9784;","elianto","#FFFFF080"," ","-1","0","&#10060","[]","0","0","0","","","","","","","",""
"pit-trial","11","146759","0.0-2.0-4.3-0.3","battery-v0.2","","""event"",""trial"",""time""
""fullscreenenter"",""1"",""1842""
","
","
","""event"",""trial"",""time""
""fullscreenenter"",""1"",""1842""
","
","","","971.1999999992549","","","13","10677","5223","&#9784;","elianto","#FFFFF080"," "," ","1","&#10004","[1822.2999999988824]","1","0","0","","","","","","","",""
"pit-trial","12","150482","0.0-2.0-4.4-0.4","battery-v0.2","","""event"",""trial"",""time""
""fullscreenenter"",""1"",""1842""
","
","
","""event"",""trial"",""time""
""fullscreenenter"",""1"",""1842""
","
","","","855.5999999996275","","","13","10677","5223","&#9784;","elianto","#FFFFF080"," "," ","1","&#10004","[1706.7000000011176]","1","0","0","","","","","","","",""
"pit-trial","13","154351","0.0-2.0-4.5-0.5","battery-v0.2","","""event"",""trial"",""time""
""fullscreenenter"",""1"",""1842""
","
","
","""event"",""trial"",""time""
""fullscreenenter"",""1"",""1842""
","
","","","999.5","","","13","10677","5223","&#9784;","elianto","#FFFFF080"," "," ","1","&#10004","[1854.4000000003725]","1","0","0","","","","","","","",""
"pit-instructions","14","178057","0.0-2.0-5.0","battery-v0.2","","""event"",""trial"",""time""
""fullscreenenter"",""1"",""1842""
","
","
","""event"",""trial"",""time""
""fullscreenenter"",""1"",""1842""
","
","","[{""page_index"":0,""viewing_time"":6553.5999999996275},{""page_index"":1,""viewing_time"":5015.699999999255},{""page_index"":2,""viewing_time"":6440.9000000003725},{""page_index"":3,""viewing_time"":5685.5}]","23697.299999998882","","","","","","","","","","","","","","","","","","","","","","","",""
"pit-trial","15","182932","0.0-2.0-6.0-0.0","battery-v0.2","","""event"",""trial"",""time""
""fullscreenenter"",""1"",""1842""
","
","
","""event"",""trial"",""time""
""fullscreenenter"",""1"",""1842""
","
","","","-1","","","13","10677","5223","&#9854;","elianto","#FFFFF080","-1","-1","1","&#10004","[]","0","0","1","","","","","","","",""
"pit-trial","16","187808","0.0-2.0-6.1-0.1","battery-v0.2","","""event"",""trial"",""time""
""fullscreenenter"",""1"",""1842""
","
","
","""event"",""trial"",""time""
""fullscreenenter"",""1"",""1842""
","
","","","-1","","","13","10677","5223","&#9854;","elianto","#FFFFF080","-1","-1","1","&#10004","[]","0","0","1","","","","","","","",""
"pit-trial","17","192673","0.0-2.0-6.2-0.2","battery-v0.2","","""event"",""trial"",""time""
""fullscreenenter"",""1"",""1842""
","
","
","""event"",""trial"",""time""
""fullscreenenter"",""1"",""1842""
","
","","","-1","","","13","10677","5223","&#9854;","elianto","#FFFFF080","-1","-1","1","&#10004","[]","0","0","1","","","","","","","",""
"pit-trial","18","197541","0.0-2.0-6.3-0.3","battery-v0.2","","""event"",""trial"",""time""
""fullscreenenter"",""1"",""1842""
","
","
","""event"",""trial"",""time""
""fullscreenenter"",""1"",""1842""
","
","","","-1","","","13","10677","5223","&#9854;","elianto","#FFFFF080","-1","-1","1","&#10004","[]","0","0","1","","","","","","","",""
"pit-trial","19","202413","0.0-2.0-6.4-0.4","battery-v0.2","","""event"",""trial"",""time""
""fullscreenenter"",""1"",""1842""
","
","
","""event"",""trial"",""time""
""fullscreenenter"",""1"",""1842""
","
","","","-1","","","13","10677","5223","&#9854;","elianto","#FFFFF080","-1","-1","1","&#10004","[]","0","0","1","","","","","","","",""
"pit-instructions","20","339612","0.0-2.0-7.0","battery-v0.2","","""event"",""trial"",""time""
""fullscreenenter"",""1"",""1842""
","
","
","""event"",""trial"",""time""
""fullscreenenter"",""1"",""1842""
","
","","[{""page_index"":0,""viewing_time"":11661.799999998882},{""page_index"":1,""viewing_time"":8347.800000000745},{""page_index"":2,""viewing_time"":6751.9000000003725},{""page_index"":3,""viewing_time"":7747},{""page_index"":4,""viewing_time"":6382.0999999996275},{""page_index"":5,""viewing_time"":7026.0999999996275},{""page_index"":6,""viewing_time"":5105.9000000003725},{""page_index"":7,""viewing_time"":9437.099999999627},{""page_index"":8,""viewing_time"":7603.5},{""page_index"":9,""viewing_time"":6623.200000001118},{""page_index"":10,""viewing_time"":6919.299999998882},{""page_index"":11,""viewing_time"":6488.5},{""page_index"":12,""viewing_time"":7987.9000000003725},{""page_index"":13,""viewing_time"":7833.199999999255},{""page_index"":14,""viewing_time"":8371.800000000745},{""page_index"":15,""viewing_time"":8401.300000000745},{""page_index"":16,""viewing_time"":6438.299999998882},{""page_index"":17,""viewing_time"":8064}]","137191.79999999888","","","","","","","","","","","","","","","","","","","","","","","",""
"pit-trial","21","343491","0.0-2.0-8.0-0.0","battery-v0.2","","""event"",""trial"",""time""
""fullscreenenter"",""1"",""1842""
","
","
","""event"",""trial"",""time""
""fullscreenenter"",""1"",""1842""
","
","","","1018.1999999992549","","","13","10677","5223","&#9776;","elianto","#3366ff99"," "," ","1","+10","[1871.800000000745]","1","0","1","","","","","","","",""
"pit-trial","22","347391","0.0-2.0-8.0-1.0","battery-v0.2","","""event"",""trial"",""time""
""fullscreenenter"",""1"",""1842""
","
","
","""event"",""trial"",""time""
""fullscreenenter"",""1"",""1842""
","
","","","1038.5999999996275","","","13","10677","5223","&#9776;","elianto","#3366ff99"," "," ","1","+10","[1889.699999999255]","1","0","1","","","","","","","",""
"pit-trial","23","350829","0.0-2.0-8.0-2.0","battery-v0.2","","""event"",""trial"",""time""
""fullscreenenter"",""1"",""1842""
","
","
","""event"",""trial"",""time""
""fullscreenenter"",""1"",""1842""
","
","","","580.5","","","13","10677","5223","&#9776;","elianto","#3366ff99"," "," ","1","+10","[1433.3999999985099]","1","0","1","","","","","","","",""
"pit-trial","24","353819","0.0-2.0-8.0-3.0","battery-v0.2","","""event"",""trial"",""time""
""fullscreenenter"",""1"",""1842""
","
","
","""event"",""trial"",""time""
""fullscreenenter"",""1"",""1842""
","
","","","129.5","","","13","10677","5223","&#9776;","elianto","#3366ff99"," "," ","1","0","[982.0999999996275]","1","0","1","","","","","","","",""
"pit-trial","25","356737","0.0-2.0-8.0-4.0","battery-v0.2","","""event"",""trial"",""time""
""fullscreenenter"",""1"",""1842""
","
","
","""event"",""trial"",""time""
""fullscreenenter"",""1"",""1842""
","
","","","59.5","","","13","10677","5223","&#9776;","elianto","#3366ff99"," "," ","1","+10","[911.7000000011176]","1","0","1","","","","","","","",""
"pit-trial","26","361401","0.0-2.0-8.1-0.1","battery-v0.2","","""event"",""trial"",""time""
""fullscreenenter"",""1"",""1842""
","
","
","""event"",""trial"",""time""
""fullscreenenter"",""1"",""1842""
","
","","","1801.5","","","13","10677","5223","&#9776;","elianto","#3366ff99"," "," ","1","+10","[840.6999999992549,2652]","2","0","1","","","","","","","",""
"pit-trial","27","364594","0.0-2.0-8.1-1.1","battery-v0.2","","""event"",""trial"",""time""
""fullscreenenter"",""1"",""1842""
","
","
","""event"",""trial"",""time""
""fullscreenenter"",""1"",""1842""
","
","","","328.2000000011176","","","13","10677","5223","&#9776;","elianto","#3366ff99"," "," ","1","+10","[1183]","1","0","1","","","","","","","",""
"pit-trial","28","367683","0.0-2.0-8.1-2.1","battery-v0.2","","""event"",""trial"",""time""
""fullscreenenter"",""1"",""1842""
","
","
","""event"",""trial"",""time""
""fullscreenenter"",""1"",""1842""
","
","","","224.80000000074506","","","13","10677","5223","&#9776;","elianto","#3366ff99"," "," ","1","+10","[1078.7999999988824]","1","0","1","","","","","","","",""
"pit-trial","29","370642","0.0-2.0-8.1-3.1","battery-v0.2","","""event"",""trial"",""time""
""fullscreenenter"",""1"",""1842""
","
","
","""event"",""trial"",""time""
""fullscreenenter"",""1"",""1842""
","
","","","86.20000000111759","","","13","10677","5223","&#9776;","elianto","#3366ff99"," "," ","1","0","[940.5999999996275]","1","0","1","","","","","","","",""
"pit-trial","30","373680","0.0-2.0-8.1-4.1","battery-v0.2","","""event"",""trial"",""time""
""fullscreenenter"",""1"",""1842""
","
","
","""event"",""trial"",""time""
""fullscreenenter"",""1"",""1842""
","
","","","166.30000000074506","","","13","10677","5223","&#9776;","elianto","#3366ff99"," "," ","1","+10","[1024.699999999255,1306.5]","2","0","1","","","","","","","",""
"pit-trial","31","377801","0.0-2.0-8.2-0.2","battery-v0.2","","""event"",""trial"",""time""
""fullscreenenter"",""1"",""1842""
","
","
","""event"",""trial"",""time""
""fullscreenenter"",""1"",""1842""
","
","","","1252","","","13","10677","5223","&#9776;","elianto","#3366ff99"," "," ","1","+10","[841.4000000003725,2102.0999999996275]","2","0","1","","","","","","","",""
"pit-trial","32","381171","0.0-2.0-8.2-1.2","battery-v0.2","","""event"",""trial"",""time""
""fullscreenenter"",""1"",""1842""
","
","
","""event"",""trial"",""time""
""fullscreenenter"",""1"",""1842""
","
","","","501.90000000037253","","","13","10677","5223","&#9776;","elianto","#3366ff99"," "," ","1","+10","[1352]","1","0","1","","","","","","","",""
"pit-trial","33","384737","0.0-2.0-8.2-2.2","battery-v0.2","","""event"",""trial"",""time""
""fullscreenenter"",""1"",""1842""
","
","
","""event"",""trial"",""time""
""fullscreenenter"",""1"",""1842""
","
","","","700","","","13","10677","5223","&#9776;","elianto","#3366ff99"," "," ","1","+10","[1556.2000000011176]","1","0","1","","","","","","","",""
"pit-trial","34","387833","0.0-2.0-8.2-3.2","battery-v0.2","","""event"",""trial"",""time""
""fullscreenenter"",""1"",""1842""
","
","
","""event"",""trial"",""time""
""fullscreenenter"",""1"",""1842""
","
","","","233.5","","","13","10677","5223","&#9776;","elianto","#3366ff99"," "," ","1","0","[1089.4000000003725]","1","0","1","","","","","","","",""
"pit-trial","35","391121","0.0-2.0-8.2-4.2","battery-v0.2","","""event"",""trial"",""time""
""fullscreenenter"",""1"",""1842""
","
","
","""event"",""trial"",""time""
""fullscreenenter"",""1"",""1842""
","
","","","414.30000000074506","","","13","10677","5223","&#9776;","elianto","#3366ff99"," "," ","1","+10","[1267.1000000014901]","1","0","1","","","","","","","",""
"call-function","36","391124","0.0-2.0-9.0","battery-v0.2","","""event"",""trial"",""time""
""fullscreenenter"",""1"",""1842""
","
","
","""event"",""trial"",""time""
""fullscreenenter"",""1"",""1842""
","
","","","","","","","","","","","","","","","","","","","","","","","","","","",""
"pit-instructions","37","439044","0.0-2.0-10.0","battery-v0.2","","""event"",""trial"",""time""
""fullscreenenter"",""1"",""1842""
","
","
","""event"",""trial"",""time""
""fullscreenenter"",""1"",""1842""
","
","","[{""page_index"":0,""viewing_time"":10374.699999999255},{""page_index"":1,""viewing_time"":8529.099999999627},{""page_index"":2,""viewing_time"":10234.10000000149},{""page_index"":3,""viewing_time"":10359.299999998882},{""page_index"":4,""viewing_time"":8418.5}]","47916.79999999888","","","","","","","","","","","","","","","","","","","","","","","",""
"pit-trial","38","443141","0.0-2.0-11.0-0.0","battery-v0.2","","""event"",""trial"",""time""
""fullscreenenter"",""1"",""1842""
","
","
","""event"",""trial"",""time""
""fullscreenenter"",""1"",""1842""
","
","","","1231.5999999996275","","","13","10677","5223","&#9761;","elianto","#3366ff99","-1"," ","0","0","[2086.9000000003725]","1","0","2","","","","","","","",""
"pit-trial","39","448003","0.0-2.0-11.0-1.0","battery-v0.2","","""event"",""trial"",""time""
""fullscreenenter"",""1"",""1842""
","
","
","""event"",""trial"",""time""
""fullscreenenter"",""1"",""1842""
","
","","","-1","","","13","10677","5223","&#9761;","elianto","#3366ff99","-1","-1","1","+10","[]","0","0","2","","","","","","","",""
"pit-trial","40","452871","0.0-2.0-11.0-2.0","battery-v0.2","","""event"",""trial"",""time""
""fullscreenenter"",""1"",""1842""
","
","
","""event"",""trial"",""time""
""fullscreenenter"",""1"",""1842""
","
","","","-1","","","13","10677","5223","&#9761;","elianto","#3366ff99","-1","-1","1","+10","[]","0","0","2","","","","","","","",""
"pit-trial","41","457742","0.0-2.0-11.0-3.0","battery-v0.2","","""event"",""trial"",""time""
""fullscreenenter"",""1"",""1842""
","
","
","""event"",""trial"",""time""
""fullscreenenter"",""1"",""1842""
","
","","","-1","","","13","10677","5223","&#9761;","elianto","#3366ff99","-1","-1","1","0","[]","0","0","2","","","","","","","",""
"pit-trial","42","462599","0.0-2.0-11.0-4.0","battery-v0.2","","""event"",""trial"",""time""
""fullscreenenter"",""1"",""1842""
","
","
","""event"",""trial"",""time""
""fullscreenenter"",""1"",""1842""
","
","","","-1","","","13","10677","5223","&#9761;","elianto","#3366ff99","-1","-1","1","+10","[]","0","0","2","","","","","","","",""
"pit-trial","43","467466","0.0-2.0-11.1-0.1","battery-v0.2","","""event"",""trial"",""time""
""fullscreenenter"",""1"",""1842""
","
","
","""event"",""trial"",""time""
""fullscreenenter"",""1"",""1842""
","
","","","-1","","","13","10677","5223","&#9761;","elianto","#3366ff99","-1","-1","1","+10","[]","0","0","2","","","","","","","",""
"pit-trial","44","470648","0.0-2.0-11.1-1.1","battery-v0.2","","""event"",""trial"",""time""
""fullscreenenter"",""1"",""1842""
","
","
","""event"",""trial"",""time""
""fullscreenenter"",""1"",""1842""
","
","","","319.40000000037253","","","13","10677","5223","&#9761;","elianto","#3366ff99","-1"," ","0","0","[1170.6000000014901]","1","0","2","","","","","","","",""
"pit-trial","45","475527","0.0-2.0-11.1-2.1","battery-v0.2","","""event"",""trial"",""time""
""fullscreenenter"",""1"",""1842""
","
","
","""event"",""trial"",""time""
""fullscreenenter"",""1"",""1842""
","
","","","-1","","","13","10677","5223","&#9761;","elianto","#3366ff99","-1","-1","1","+10","[]","0","0","2","","","","","","","",""
"pit-trial","46","480390","0.0-2.0-11.1-3.1","battery-v0.2","","""event"",""trial"",""time""
""fullscreenenter"",""1"",""1842""
","
","
","""event"",""trial"",""time""
""fullscreenenter"",""1"",""1842""
","
","","","-1","","","13","10677","5223","&#9761;","elianto","#3366ff99","-1","-1","1","0","[]","0","0","2","","","","","","","",""
"pit-trial","47","485253","0.0-2.0-11.1-4.1","battery-v0.2","","""event"",""trial"",""time""
""fullscreenenter"",""1"",""1842""
","
","
","""event"",""trial"",""time""
""fullscreenenter"",""1"",""1842""
","
","","","-1","","","13","10677","5223","&#9761;","elianto","#3366ff99","-1","-1","1","+10","[]","0","0","2","","","","","","","",""
"pit-trial","48","490124","0.0-2.0-11.2-0.2","battery-v0.2","","""event"",""trial"",""time""
""fullscreenenter"",""1"",""1842""
","
","
","""event"",""trial"",""time""
""fullscreenenter"",""1"",""1842""
","
","","","-1","","","13","10677","5223","&#9761;","elianto","#3366ff99","-1","-1","1","+10","[]","0","0","2","","","","","","","",""
"pit-trial","49","493903","0.0-2.0-11.2-1.2","battery-v0.2","","""event"",""trial"",""time""
""fullscreenenter"",""1"",""1842""
","
","
","""event"",""trial"",""time""
""fullscreenenter"",""1"",""1842""
","
","","","916.1000000014901","","","13","10677","5223","&#9761;","elianto","#3366ff99","-1"," ","0","0","[1772.0999999996275]","1","0","2","","","","","","","",""
"pit-trial","50","497744","0.0-2.0-11.2-2.2","battery-v0.2","","""event"",""trial"",""time""
""fullscreenenter"",""1"",""1842""
","
","
","""event"",""trial"",""time""
""fullscreenenter"",""1"",""1842""
","
","","","975.0999999996275","","","13","10677","5223","&#9761;","elianto","#3366ff99","-1"," ","0","0","[1826.199999999255]","1","0","2","","","","","","","",""
"pit-trial","51","502610","0.0-2.0-11.2-3.2","battery-v0.2","","""event"",""trial"",""time""
""fullscreenenter"",""1"",""1842""
","
","
","""event"",""trial"",""time""
""fullscreenenter"",""1"",""1842""
","
","","","-1","","","13","10677","5223","&#9761;","elianto","#3366ff99","-1","-1","1","0","[]","0","0","2","","","","","","","",""
"pit-trial","52","507469","0.0-2.0-11.2-4.2","battery-v0.2","","""event"",""trial"",""time""
""fullscreenenter"",""1"",""1842""
","
","
","""event"",""trial"",""time""
""fullscreenenter"",""1"",""1842""
","
","","","-1","","","13","10677","5223","&#9761;","elianto","#3366ff99","-1","-1","1","+10","[]","0","0","2","","","","","","","",""
"pit-trial","53","512335","0.0-2.0-11.3-0.3","battery-v0.2","","""event"",""trial"",""time""
""fullscreenenter"",""1"",""1842""
","
","
","""event"",""trial"",""time""
""fullscreenenter"",""1"",""1842""
","
","","","-1","","","13","10677","5223","&#9761;","elianto","#3366ff99","-1","-1","1","+10","[]","0","0","2","","","","","","","",""
"pit-trial","54","517199","0.0-2.0-11.3-1.3","battery-v0.2","","""event"",""trial"",""time""
""fullscreenenter"",""1"",""1842""
","
","
","""event"",""trial"",""time""
""fullscreenenter"",""1"",""1842""
","
","","","-1","","","13","10677","5223","&#9761;","elianto","#3366ff99","-1","-1","1","+10","[]","0","0","2","","","","","","","",""
"pit-trial","55","520559","0.0-2.0-11.3-2.3","battery-v0.2","","""event"",""trial"",""time""
""fullscreenenter"",""1"",""1842""
","
","
","""event"",""trial"",""time""
""fullscreenenter"",""1"",""1842""
","
","","","499.7999999988824","","","13","10677","5223","&#9761;","elianto","#3366ff99","-1"," ","0","0","[1351.4000000003725,2979.800000000745]","2","0","2","","","","","","","",""
"pit-trial","56","525430","0.0-2.0-11.3-3.3","battery-v0.2","","""event"",""trial"",""time""
""fullscreenenter"",""1"",""1842""
","
","
","""event"",""trial"",""time""
""fullscreenenter"",""1"",""1842""
","
","","","-1","","","13","10677","5223","&#9761;","elianto","#3366ff99","-1","-1","1","0","[]","0","0","2","","","","","","","",""
"pit-trial","57","530293","0.0-2.0-11.3-4.3","battery-v0.2","","""event"",""trial"",""time""
""fullscreenenter"",""1"",""1842""
","
","
","""event"",""trial"",""time""
""fullscreenenter"",""1"",""1842""
","
","","","-1","","","13","10677","5223","&#9761;","elianto","#3366ff99","-1","-1","1","+10","[]","0","0","2","","","","","","","",""
"call-function","58","530296","0.0-2.0-12.0","battery-v0.2","","""event"",""trial"",""time""
""fullscreenenter"",""1"",""1842""
","
","
","""event"",""trial"",""time""
""fullscreenenter"",""1"",""1842""
","
","","","","","","","","","","","","","","","","","","","","","","","","","","",""
"pit-instructions","59","570257","0.0-2.0-13.0","battery-v0.2","","""event"",""trial"",""time""
""fullscreenenter"",""1"",""1842""
","
","
","""event"",""trial"",""time""
""fullscreenenter"",""1"",""1842""
","
","","[{""page_index"":0,""viewing_time"":5838},{""page_index"":1,""viewing_time"":7695.4000000003725},{""page_index"":2,""viewing_time"":7456.0999999996275},{""page_index"":3,""viewing_time"":11672.699999999255},{""page_index"":4,""viewing_time"":7296.700000001118}]","39959.90000000037","","","","","","","","","","","","","","","","","","","","","","","",""
"pit-trial","60","574619","0.0-2.0-14.0-0.0","battery-v0.2","","""event"",""trial"",""time""
""fullscreenenter"",""1"",""1842""
","
","
","""event"",""trial"",""time""
""fullscreenenter"",""1"",""1842""
","
","","","1497.7999999988824","","","13","10677","5223","&#9826;","elianto","#f73b6a7A","-1"," ","0","-10","[2351.9000000003725]","1","0","3","","","","","","","",""
"pit-trial","61","577904","0.0-2.0-14.0-1.0","battery-v0.2","","""event"",""trial"",""time""
""fullscreenenter"",""1"",""1842""
","
","
","""event"",""trial"",""time""
""fullscreenenter"",""1"",""1842""
","
","","","415.19999999925494","","","13","10677","5223","&#9826;","elianto","#f73b6a7A","-1"," ","0","-10","[1266]","1","0","3","","","","","","","",""
"pit-trial","62","580980","0.0-2.0-14.0-2.0","battery-v0.2","","""event"",""trial"",""time""
""fullscreenenter"",""1"",""1842""
","
","
","""event"",""trial"",""time""
""fullscreenenter"",""1"",""1842""
","
","","","216","","","13","10677","5223","&#9826;","elianto","#f73b6a7A","-1"," ","0","-10","[1066.5999999996275]","1","0","3","","","","","","","",""
"pit-trial","63","585844","0.0-2.0-14.0-3.0","battery-v0.2","","""event"",""trial"",""time""
""fullscreenenter"",""1"",""1842""
","
","
","""event"",""trial"",""time""
""fullscreenenter"",""1"",""1842""
","
","","","-1","","","13","10677","5223","&#9826;","elianto","#f73b6a7A","-1","-1","1","-10","[]","0","0","3","","","","","","","",""
"pit-trial","64","590720","0.0-2.0-14.0-4.0","battery-v0.2","","""event"",""trial"",""time""
""fullscreenenter"",""1"",""1842""
","
","
","""event"",""trial"",""time""
""fullscreenenter"",""1"",""1842""
","
","","","-1","","","13","10677","5223","&#9826;","elianto","#f73b6a7A","-1","-1","1","0","[]","0","0","3","","","","","","","",""
"pit-trial","65","595598","0.0-2.0-14.1-0.1","battery-v0.2","","""event"",""trial"",""time""
""fullscreenenter"",""1"",""1842""
","
","
","""event"",""trial"",""time""
""fullscreenenter"",""1"",""1842""
","
","","","-1","","","13","10677","5223","&#9826;","elianto","#f73b6a7A","-1","-1","1","0","[]","0","0","3","","","","","","","",""
"pit-trial","66","600475","0.0-2.0-14.1-1.1","battery-v0.2","","""event"",""trial"",""time""
""fullscreenenter"",""1"",""1842""
","
","
","""event"",""trial"",""time""
""fullscreenenter"",""1"",""1842""
","
","","","-1","","","13","10677","5223","&#9826;","elianto","#f73b6a7A","-1","-1","1","0","[]","0","0","3","","","","","","","",""
"pit-trial","67","605335","0.0-2.0-14.1-2.1","battery-v0.2","","""event"",""trial"",""time""
""fullscreenenter"",""1"",""1842""
","
","
","""event"",""trial"",""time""
""fullscreenenter"",""1"",""1842""
","
","","","-1","","","13","10677","5223","&#9826;","elianto","#f73b6a7A","-1","-1","1","0","[]","0","0","3","","","","","","","",""
"pit-trial","68","610210","0.0-2.0-14.1-3.1","battery-v0.2","","""event"",""trial"",""time""
""fullscreenenter"",""1"",""1842""
","
","
","""event"",""trial"",""time""
""fullscreenenter"",""1"",""1842""
","
","","","-1","","","13","10677","5223","&#9826;","elianto","#f73b6a7A","-1","-1","1","-10","[]","0","0","3","","","","","","","",""
"pit-trial","69","615070","0.0-2.0-14.1-4.1","battery-v0.2","","""event"",""trial"",""time""
""fullscreenenter"",""1"",""1842""
","
","
","""event"",""trial"",""time""
""fullscreenenter"",""1"",""1842""
","
","","","-1","","","13","10677","5223","&#9826;","elianto","#f73b6a7A","-1","-1","1","0","[]","0","0","3","","","","","","","",""
"pit-trial","70","618756","0.0-2.0-14.2-0.2","battery-v0.2","","""event"",""trial"",""time""
""fullscreenenter"",""1"",""1842""
","
","
","""event"",""trial"",""time""
""fullscreenenter"",""1"",""1842""
","
","","","828.5","","","13","10677","5223","&#9826;","elianto","#f73b6a7A","-1"," ","0","-10","[1680.300000000745]","1","0","3","","","","","","","",""
"pit-trial","71","622401","0.0-2.0-14.2-1.2","battery-v0.2","","""event"",""trial"",""time""
""fullscreenenter"",""1"",""1842""
","
","
","""event"",""trial"",""time""
""fullscreenenter"",""1"",""1842""
","
","","","785.1999999992549","","","13","10677","5223","&#9826;","elianto","#f73b6a7A","-1"," ","0","-10","[1636.2999999988824]","1","0","3","","","","","","","",""
"pit-trial","72","627261","0.0-2.0-14.2-2.2","battery-v0.2","","""event"",""trial"",""time""
""fullscreenenter"",""1"",""1842""
","
","
","""event"",""trial"",""time""
""fullscreenenter"",""1"",""1842""
","
","","","-1","","","13","10677","5223","&#9826;","elianto","#f73b6a7A","-1","-1","1","0","[]","0","0","3","","","","","","","",""
"pit-trial","73","632128","0.0-2.0-14.2-3.2","battery-v0.2","","""event"",""trial"",""time""
""fullscreenenter"",""1"",""1842""
","
","
","""event"",""trial"",""time""
""fullscreenenter"",""1"",""1842""
","
","","","-1","","","13","10677","5223","&#9826;","elianto","#f73b6a7A","-1","-1","1","-10","[]","0","0","3","","","","","","","",""
"pit-trial","74","636992","0.0-2.0-14.2-4.2","battery-v0.2","","""event"",""trial"",""time""
""fullscreenenter"",""1"",""1842""
","
","
","""event"",""trial"",""time""
""fullscreenenter"",""1"",""1842""
","
","","","-1","","","13","10677","5223","&#9826;","elianto","#f73b6a7A","-1","-1","1","0","[]","0","0","3","","","","","","","",""
"pit-trial","75","641858","0.0-2.0-14.3-0.3","battery-v0.2","","""event"",""trial"",""time""
""fullscreenenter"",""1"",""1842""
","
","
","""event"",""trial"",""time""
""fullscreenenter"",""1"",""1842""
","
","","","-1","","","13","10677","5223","&#9826;","elianto","#f73b6a7A","-1","-1","1","0","[]","0","0","3","","","","","","","",""
"pit-trial","76","646719","0.0-2.0-14.3-1.3","battery-v0.2","","""event"",""trial"",""time""
""fullscreenenter"",""1"",""1842""
","
","
","""event"",""trial"",""time""
""fullscreenenter"",""1"",""1842""
","
","","","-1","","","13","10677","5223","&#9826;","elianto","#f73b6a7A","-1","-1","1","0","[]","0","0","3","","","","","","","",""
"pit-trial","77","651580","0.0-2.0-14.3-2.3","battery-v0.2","","""event"",""trial"",""time""
""fullscreenenter"",""1"",""1842""
","
","
","""event"",""trial"",""time""
""fullscreenenter"",""1"",""1842""
","
","","","-1","","","13","10677","5223","&#9826;","elianto","#f73b6a7A","-1","-1","1","0","[]","0","0","3","","","","","","","",""
"pit-trial","78","655949","0.0-2.0-14.3-3.3","battery-v0.2","","""event"",""trial"",""time""
""fullscreenenter"",""1"",""1842""
","
","
","""event"",""trial"",""time""
""fullscreenenter"",""1"",""1842""
","
","","","1513.0999999996275","","","13","10677","5223","&#9826;","elianto","#f73b6a7A","-1"," ","0","0","[2364.10000000149]","1","0","3","","","","","","","",""
"pit-trial","79","659354","0.0-2.0-14.3-4.3","battery-v0.2","","""event"",""trial"",""time""
""fullscreenenter"",""1"",""1842""
","
","
","""event"",""trial"",""time""
""fullscreenenter"",""1"",""1842""
","
","","","542.5","","","13","10677","5223","&#9826;","elianto","#f73b6a7A","-1"," ","0","-10","[70.39999999850988,1394.5999999996275]","2","0","3","","","","","","","",""
"call-function","80","659357","0.0-2.0-15.0","battery-v0.2","","""event"",""trial"",""time""
""fullscreenenter"",""1"",""1842""
","
","
","""event"",""trial"",""time""
""fullscreenenter"",""1"",""1842""
","
","","","","","","","","","","","","","","","","","","","","","","","","","","",""
"pit-instructions","81","687026","0.0-2.0-16.0","battery-v0.2","","""event"",""trial"",""time""
""fullscreenenter"",""1"",""1842""
","
","
","""event"",""trial"",""time""
""fullscreenenter"",""1"",""1842""
","
","","[{""page_index"":0,""viewing_time"":6741},{""page_index"":1,""viewing_time"":9919.300000000745},{""page_index"":2,""viewing_time"":5446.5999999996275},{""page_index"":3,""viewing_time"":5561.9000000003725}]","27669.700000001118","","","","","","","","","","","","","","","","","","","","","","","",""
"pit-trial","82","690803","0.0-2.0-17.0-0.0","battery-v0.2","","""event"",""trial"",""time""
""fullscreenenter"",""1"",""1842""
","
","
","""event"",""trial"",""time""
""fullscreenenter"",""1"",""1842""
","
","","","915.5999999996275","","","13","10677","5223","&#9789;","elianto","#f73b6a7A"," "," ","1","0","[281.30000000074506,1771.9000000003725]","2","0","4","","","","","","","",""
"pit-trial","83","693925","0.0-2.0-17.0-1.0","battery-v0.2","","""event"",""trial"",""time""
""fullscreenenter"",""1"",""1842""
","
","
","""event"",""trial"",""time""
""fullscreenenter"",""1"",""1842""
","
","","","258.69999999925494","","","13","10677","5223","&#9789;","elianto","#f73b6a7A"," "," ","1","0","[1109.300000000745]","1","0","4","","","","","","","",""
"pit-trial","84","696811","0.0-2.0-17.0-2.0","battery-v0.2","","""event"",""trial"",""time""
""fullscreenenter"",""1"",""1842""
","
","
","""event"",""trial"",""time""
""fullscreenenter"",""1"",""1842""
","
","","","18.90000000037253","","","13","10677","5223","&#9789;","elianto","#f73b6a7A"," "," ","1","0","[873.8000000007451]","1","0","4","","","","","","","",""
"pit-trial","85","699922","0.0-2.0-17.0-3.0","battery-v0.2","","""event"",""trial"",""time""
""fullscreenenter"",""1"",""1842""
","
","
","""event"",""trial"",""time""
""fullscreenenter"",""1"",""1842""
","
","","","238.7000000011176","","","13","10677","5223","&#9789;","elianto","#f73b6a7A"," "," ","1","-10","[1092.7000000011176]","1","0","4","","","","","","","",""
"pit-trial","86","703134","0.0-2.0-17.0-4.0","battery-v0.2","","""event"",""trial"",""time""
""fullscreenenter"",""1"",""1842""
","
","
","""event"",""trial"",""time""
""fullscreenenter"",""1"",""1842""
","
","","","340.40000000037253","","","13","10677","5223","&#9789;","elianto","#f73b6a7A"," "," ","1","0","[1198.9000000003725]","1","0","4","","","","","","","",""
"pit-trial","87","706375","0.0-2.0-17.1-0.1","battery-v0.2","","""event"",""trial"",""time""
""fullscreenenter"",""1"",""1842""
","
","
","""event"",""trial"",""time""
""fullscreenenter"",""1"",""1842""
","
","","","375.80000000074506","","","13","10677","5223","&#9789;","elianto","#f73b6a7A"," "," ","1","0","[1225.7999999988824]","1","0","4","","","","","","","",""
"pit-trial","88","709711","0.0-2.0-17.1-1.1","battery-v0.2","","""event"",""trial"",""time""
""fullscreenenter"",""1"",""1842""
","
","
","""event"",""trial"",""time""
""fullscreenenter"",""1"",""1842""
","
","","","467.5","","","13","10677","5223","&#9789;","elianto","#f73b6a7A"," "," ","1","0","[1321.5]","1","0","4","","","","","","","",""
"pit-trial","89","712947","0.0-2.0-17.1-2.1","battery-v0.2","","""event"",""trial"",""time""
""fullscreenenter"",""1"",""1842""
","
","
","""event"",""trial"",""time""
""fullscreenenter"",""1"",""1842""
","
","","","365.6000000014901","","","13","10677","5223","&#9789;","elianto","#f73b6a7A"," "," ","1","0","[1219.2000000011176]","1","0","4","","","","","","","",""
"pit-trial","90","716705","0.0-2.0-17.1-3.1","battery-v0.2","","""event"",""trial"",""time""
""fullscreenenter"",""1"",""1842""
","
","
","""event"",""trial"",""time""
""fullscreenenter"",""1"",""1842""
","
","","","896.7000000011176","","","13","10677","5223","&#9789;","elianto","#f73b6a7A"," "," ","1","-10","[1748.4000000003725]","1","0","4","","","","","","","",""
"pit-trial","91","721453","0.0-2.0-17.1-4.1","battery-v0.2","","""event"",""trial"",""time""
""fullscreenenter"",""1"",""1842""
","
","
","""event"",""trial"",""time""
""fullscreenenter"",""1"",""1842""
","
","","","1881.5","","","13","10677","5223","&#9789;","elianto","#f73b6a7A"," "," ","1","0","[2738]","1","0","4","","","","","","","",""
"pit-trial","92","724430","0.0-2.0-17.2-0.2","battery-v0.2","","""event"",""trial"",""time""
""fullscreenenter"",""1"",""1842""
","
","
","""event"",""trial"",""time""
""fullscreenenter"",""1"",""1842""
","
","","","115.10000000149012","","","13","10677","5223","&#9789;","elianto","#f73b6a7A"," "," ","1","0","[966.2999999988824]","1","0","4","","","","","","","",""
"pit-trial","93","727978","0.0-2.0-17.2-1.2","battery-v0.2","","""event"",""trial"",""time""
""fullscreenenter"",""1"",""1842""
","
","
","""event"",""trial"",""time""
""fullscreenenter"",""1"",""1842""
","
","","","691","","","13","10677","5223","&#9789;","elianto","#f73b6a7A"," "," ","1","0","[1544.4000000003725]","1","0","4","","","","","","","",""
"pit-trial","94","731674","0.0-2.0-17.2-2.2","battery-v0.2","","""event"",""trial"",""time""
""fullscreenenter"",""1"",""1842""
","
","
","""event"",""trial"",""time""
""fullscreenenter"",""1"",""1842""
","
","","","839.1999999992549","","","13","10677","5223","&#9789;","elianto","#f73b6a7A"," "," ","1","0","[1689.199999999255]","1","0","4","","","","","","","",""
"pit-trial","95","735290","0.0-2.0-17.2-3.2","battery-v0.2","","""event"",""trial"",""time""
""fullscreenenter"",""1"",""1842""
","
","
","""event"",""trial"",""time""
""fullscreenenter"",""1"",""1842""
","
","","","760.6999999992549","","","13","10677","5223","&#9789;","elianto","#f73b6a7A"," "," ","1","-10","[1610.8999999985099]","1","0","4","","","","","","","",""
"pit-trial","96","740150","0.0-2.0-17.2-4.2","battery-v0.2","","""event"",""trial"",""time""
""fullscreenenter"",""1"",""1842""
","
","
","""event"",""trial"",""time""
""fullscreenenter"",""1"",""1842""
","
","","","-1","","","13","10677","5223","&#9789;","elianto","#f73b6a7A"," ","-1","0","-10","[3673.10000000149]","1","0","4","","","","","","","",""
"pit-trial","97","743335","0.0-2.0-17.3-0.3","battery-v0.2","","""event"",""trial"",""time""
""fullscreenenter"",""1"",""1842""
","
","
","""event"",""trial"",""time""
""fullscreenenter"",""1"",""1842""
","
","","","318.09999999962747","","","13","10677","5223","&#9789;","elianto","#f73b6a7A"," "," ","1","0","[329.2999999988824,1168.4000000003725]","2","0","4","","","","","","","",""
"pit-trial","98","746381","0.0-2.0-17.3-1.3","battery-v0.2","","""event"",""trial"",""time""
""fullscreenenter"",""1"",""1842""
","
","
","""event"",""trial"",""time""
""fullscreenenter"",""1"",""1842""
","
","","","188.69999999925494","","","13","10677","5223","&#9789;","elianto","#f73b6a7A"," "," ","1","0","[1039.5]","1","0","4","","","","","","","",""
"pit-trial","99","749528","0.0-2.0-17.3-2.3","battery-v0.2","","""event"",""trial"",""time""
""fullscreenenter"",""1"",""1842""
","
","
","""event"",""trial"",""time""
""fullscreenenter"",""1"",""1842""
","
","","","289.59999999962747","","","13","10677","5223","&#9789;","elianto","#f73b6a7A"," "," ","1","0","[1141.4000000003725]","1","0","4","","","","","","","",""
"pit-trial","100","753098","0.0-2.0-17.3-3.3","battery-v0.2","","""event"",""trial"",""time""
""fullscreenenter"",""1"",""1842""
","
","
","""event"",""trial"",""time""
""fullscreenenter"",""1"",""1842""
","
","","","709.0999999996275","","","13","10677","5223","&#9789;","elianto","#f73b6a7A"," "," ","1","-10","[1560.6000000014901]","1","0","4","","","","","","","",""
"pit-trial","101","757096","0.0-2.0-17.3-4.3","battery-v0.2","","""event"",""trial"",""time""
""fullscreenenter"",""1"",""1842""
","
","
","""event"",""trial"",""time""
""fullscreenenter"",""1"",""1842""
","
","","","1138","","","13","10677","5223","&#9789;","elianto","#f73b6a7A"," "," ","1","0","[1989.199999999255]","1","0","4","","","","","","","",""
"call-function","102","757098","0.0-2.0-18.0","battery-v0.2","","""event"",""trial"",""time""
""fullscreenenter"",""1"",""1842""
","
","
","""event"",""trial"",""time""
""fullscreenenter"",""1"",""1842""
","
","","","","","","","","","","","","","","","","","","","","","","","","","","",""
"pit-instructions","103","842912","0.0-2.0-19.0","battery-v0.2","","""event"",""trial"",""time""
""fullscreenenter"",""1"",""1842""
","
","
","""event"",""trial"",""time""
""fullscreenenter"",""1"",""1842""
","
","","[{""page_index"":0,""viewing_time"":11104.599999999627},{""page_index"":1,""viewing_time"":6188.700000001118},{""page_index"":2,""viewing_time"":15985.89999999851},{""page_index"":3,""viewing_time"":7850.4000000003725},{""page_index"":4,""viewing_time"":8861.400000000373},{""page_index"":5,""viewing_time"":8990.199999999255},{""page_index"":6,""viewing_time"":8802.800000000745},{""page_index"":7,""viewing_time"":9613.5},{""page_index"":8,""viewing_time"":8408.400000000373}]","85807.09999999963","","","","","","","","","","","","","","","","","","","","","","","",""
"pit-comprehension","104","847629","0.0-2.0-20.0-0.0","battery-v0.2","","""event"",""trial"",""time""
""fullscreenenter"",""1"",""1842""
","
","
","""event"",""trial"",""time""
""fullscreenenter"",""1"",""1842""
","
","","","4708.300000000745","[""SPACE""]","0","13","10677","5223","","","","","","","","","","","","","","","","","","",""
"pit-instructions","105","851867","0.0-2.0-20.0-1.0","battery-v0.2","","""event"",""trial"",""time""
""fullscreenenter"",""1"",""1842""
","
","
","""event"",""trial"",""time""
""fullscreenenter"",""1"",""1842""
","
","","[{""page_index"":0,""viewing_time"":4133.200000001118}]","4133.800000000745","","","","","","","","","","","","","","","","","","","","","","","",""
"pit-comprehension","106","856440","0.0-2.0-21.0-0.0","battery-v0.2","","""event"",""trial"",""time""
""fullscreenenter"",""1"",""1842""
","
","
","""event"",""trial"",""time""
""fullscreenenter"",""1"",""1842""
","
","","","4562.699999999255","[""10""]","0","13","10677","5223","","","","","","","","","","","","","","","","","","",""
"pit-instructions","107","858158","0.0-2.0-21.0-1.0","battery-v0.2","","""event"",""trial"",""time""
""fullscreenenter"",""1"",""1842""
","
","
","""event"",""trial"",""time""
""fullscreenenter"",""1"",""1842""
","
","","[{""page_index"":0,""viewing_time"":1664.6000000014901}]","1665.300000000745","","","","","","","","","","","","","","","","","","","","","","","",""
"pit-comprehension","108","866035","0.0-2.0-22.0-0.0","battery-v0.2","","""event"",""trial"",""time""
""fullscreenenter"",""1"",""1842""
","
","
","""event"",""trial"",""time""
""fullscreenenter"",""1"",""1842""
","
","","","7868.699999999255","[""-10""]","1","13","10677","5223","","","","","","","","","","","","","","","","","","",""
"pit-instructions","109","871735","0.0-2.0-22.0-1.0","battery-v0.2","","""event"",""trial"",""time""
""fullscreenenter"",""1"",""1842""
","
","
","""event"",""trial"",""time""
""fullscreenenter"",""1"",""1842""
","
","","[{""page_index"":0,""viewing_time"":5645}]","5646","","","","","","","","","","","","","","","","","","","","","","","",""
"pit-instructions","110","872868","0.0-2.0-22.0-2.0-0.0","battery-v0.2","","""event"",""trial"",""time""
""fullscreenenter"",""1"",""1842""
","
","
","""event"",""trial"",""time""
""fullscreenenter"",""1"",""1842""
","
","","[{""page_index"":0,""viewing_time"":1126.2000000011176}]","1128.2000000011176","","","","","","","","","","","","","","","","","","","","","","","",""
"pit-comprehension","111","879221","0.0-2.0-22.1-0.1","battery-v0.2","","""event"",""trial"",""time""
""fullscreenenter"",""1"",""1842""
","
","
","""event"",""trial"",""time""
""fullscreenenter"",""1"",""1842""
","
","","","6347.5","[""0""]","0","13","10677","5223","","","","","","","","","","","","","","","","","","",""
"pit-instructions","112","881733","0.0-2.0-22.1-1.1","battery-v0.2","","""event"",""trial"",""time""
""fullscreenenter"",""1"",""1842""
","
","
","""event"",""trial"",""time""
""fullscreenenter"",""1"",""1842""
","
","","[{""page_index"":0,""viewing_time"":2468.5999999996275}]","2469.2999999988824","","","","","","","","","","","","","","","","","","","","","","","",""
"pit-comprehension","113","890575","0.0-2.0-23.0-0.0","battery-v0.2","","""event"",""trial"",""time""
""fullscreenenter"",""1"",""1842""
","
","
","""event"",""trial"",""time""
""fullscreenenter"",""1"",""1842""
","
","","","8833.099999999627","[""True""]","0","13","10677","5223","","","","","","","","","","","","","","","","","","",""
"pit-instructions","114","894395","0.0-2.0-23.0-1.0","battery-v0.2","","""event"",""trial"",""time""
""fullscreenenter"",""1"",""1842""
","
","
","""event"",""trial"",""time""
""fullscreenenter"",""1"",""1842""
","
","","[{""page_index"":0,""viewing_time"":3778.2999999988824}]","3779","","","","","","","","","","","","","","","","","","","","","","","",""
"pit-comprehension","115","902241","0.0-2.0-24.0-0.0","battery-v0.2","","""event"",""trial"",""time""
""fullscreenenter"",""1"",""1842""
","
","
","""event"",""trial"",""time""
""fullscreenenter"",""1"",""1842""
","
","","","7838.5999999996275","[""True""]","0","13","10677","5223","","","","","","","","","","","","","","","","","","",""
"pit-instructions","116","906134","0.0-2.0-24.0-1.0","battery-v0.2","","""event"",""trial"",""time""
""fullscreenenter"",""1"",""1842""
","
","
","""event"",""trial"",""time""
""fullscreenenter"",""1"",""1842""
","
","","[{""page_index"":0,""viewing_time"":3835}]","3835.9000000003725","","","","","","","","","","","","","","","","","","","","","","","",""
"pit-comprehension","117","912772","0.0-2.0-25.0-0.0","battery-v0.2","","""event"",""trial"",""time""
""fullscreenenter"",""1"",""1842""
","
","
","""event"",""trial"",""time""
""fullscreenenter"",""1"",""1842""
","
","","","6629.9000000003725","[""True""]","0","13","10677","5223","","","","","","","","","","","","","","","","","","",""
"pit-instructions","118","915024","0.0-2.0-25.0-1.0","battery-v0.2","","""event"",""trial"",""time""
""fullscreenenter"",""1"",""1842""
","
","
","""event"",""trial"",""time""
""fullscreenenter"",""1"",""1842""
","
","","[{""page_index"":0,""viewing_time"":2192.5}]","2193.0999999996275","","","","","","","","","","","","","","","","","","","","","","","",""
"pit-comprehension","119","921259","0.0-2.0-26.0-0.0","battery-v0.2","","""event"",""trial"",""time""
""fullscreenenter"",""1"",""1842""
","
","
","""event"",""trial"",""time""
""fullscreenenter"",""1"",""1842""
","
","","","6226.5","[""False""]","0","13","10677","5223","","","","","","","","","","","","","","","","","","",""
"pit-instructions","120","925817","0.0-2.0-26.0-1.0","battery-v0.2","","""event"",""trial"",""time""
""fullscreenenter"",""1"",""1842""
","
","
","""event"",""trial"",""time""
""fullscreenenter"",""1"",""1842""
","
","","[{""page_index"":0,""viewing_time"":4486.5999999996275}]","4487.300000000745","","","","","","","","","","","","","","","","","","","","","","","",""
"pit-instructions","121","941936","0.0-3.0","battery-v0.2","","""event"",""trial"",""time""
""fullscreenenter"",""1"",""1842""
","
","
","""event"",""trial"",""time""
""fullscreenenter"",""1"",""1842""
","
","","[{""page_index"":0,""viewing_time"":4141.699999999255},{""page_index"":1,""viewing_time"":5125.199999999255},{""page_index"":2,""viewing_time"":6848.60000000149}]","16116.099999999627","","","","","","","","","","","","","","","","","","","","","","","",""
"pit-trial","122","946551","0.0-4.0","battery-v0.2","","""event"",""trial"",""time""
""fullscreenenter"",""1"",""1842""
","
","
","""event"",""trial"",""time""
""fullscreenenter"",""1"",""1842""
","
","","","1745.699999999255","","","13","10677","5223","&#9730;","elianto","#3366ff99"," "," ","1","+10","[2598.5999999996275]","1","1","","","10677","1","1","1","win","go","0"
"pit-trial","123","950961","0.0-5.0","battery-v0.2","","""event"",""trial"",""time""
""fullscreenenter"",""1"",""1842""
","
","
","""event"",""trial"",""time""
""fullscreenenter"",""1"",""1842""
","
","","","1540.7999999988824","","","13","10677","5223","&#9752;","elianto","#f73b6a7A"," "," ","1","0","[2393.2999999988824]","1","1","","","10677","2","3","3","lose","go","0"
"pit-trial","124","955520","0.0-6.0","battery-v0.2","","""event"",""trial"",""time""
""fullscreenenter"",""1"",""1842""
","
","
","""event"",""trial"",""time""
""fullscreenenter"",""1"",""1842""
","
","","","1684.5999999996275","","","13","10677","5223","&#9733;","elianto","#3366ff99","-1"," ","0","0","[2538.800000000745]","1","1","","","10677","3","2","2","win","no-go","0"
"pit-trial","125","960397","0.0-7.0","battery-v0.2","","""event"",""trial"",""time""
""fullscreenenter"",""1"",""1842""
","
","
","""event"",""trial"",""time""
""fullscreenenter"",""1"",""1842""
","
","","","-1","","","13","10677","5223","&#9728;","elianto","#f73b6a7A","-1","-1","1","0","[3104.5]","1","1","","","10677","4","0","4","lose","no-go","0"
"pit-trial","126","965266","0.0-8.0","battery-v0.2","","""event"",""trial"",""time""
""fullscreenenter"",""1"",""1842""
","
","
","""event"",""trial"",""time""
""fullscreenenter"",""1"",""1842""
","
","","","-1","","","13","10677","5223","&#9752;","elianto","#f73b6a7A"," ","-1","0","0","[2919.7999999988824]","1","1","","","10677","5","3","3","lose","go","1"
"pit-trial","127","970135","0.0-9.0","battery-v0.2","","""event"",""trial"",""time""
""fullscreenenter"",""1"",""1842""
","
","
","""event"",""trial"",""time""
""fullscreenenter"",""1"",""1842""
","
","","","-1","","","13","10677","5223","&#9728;","elianto","#f73b6a7A","-1","-1","1","0","[]","0","1","","","10677","6","0","4","lose","no-go","0"
"pit-trial","128","974056","0.0-10.0","battery-v0.2","","""event"",""trial"",""time""
""fullscreenenter"",""1"",""1842""
","
","
","""event"",""trial"",""time""
""fullscreenenter"",""1"",""1842""
","
","","","1054.800000000745","","","13","10677","5223","&#9730;","elianto","#3366ff99"," "," ","1","+10","[1909.300000000745]","1","1","","","10677","7","1","1","win","go","0"
"pit-trial","129","978918","0.0-11.0","battery-v0.2","","""event"",""trial"",""time""
""fullscreenenter"",""1"",""1842""
","
","
","""event"",""trial"",""time""
""fullscreenenter"",""1"",""1842""
","
","","","-1","","","13","10677","5223","&#9733;","elianto","#3366ff99","-1","-1","1","+10","[]","0","1","","","10677","8","2","2","win","no-go","0"
"pit-trial","130","983787","0.0-12.0","battery-v0.2","","""event"",""trial"",""time""
""fullscreenenter"",""1"",""1842""
","
","
","""event"",""trial"",""time""
""fullscreenenter"",""1"",""1842""
","
","","","-1","","","13","10677","5223","&#9752;","elianto","#f73b6a7A"," ","-1","0","-10","[]","0","1","","","10677","9","3","3","lose","go","0"
"pit-trial","131","988647","0.0-13.0","battery-v0.2","","""event"",""trial"",""time""
""fullscreenenter"",""1"",""1842""
","
","
","""event"",""trial"",""time""
""fullscreenenter"",""1"",""1842""
","
","","","-1","","","13","10677","5223","&#9733;","elianto","#3366ff99","-1","-1","1","+10","[]","0","1","","","10677","10","2","2","win","no-go","0"
"pit-trial","132","992512","0.0-14.0","battery-v0.2","","""event"",""trial"",""time""
""fullscreenenter"",""1"",""1842""
","
","
","""event"",""trial"",""time""
""fullscreenenter"",""1"",""1842""
","
","","","1002.7999999988824","","","13","10677","5223","&#9730;","elianto","#3366ff99"," "," ","1","+10","[1855]","1","1","","","10677","11","1","1","win","go","0"
"pit-trial","133","997388","0.0-15.0","battery-v0.2","","""event"",""trial"",""time""
""fullscreenenter"",""1"",""1842""
","
","
","""event"",""trial"",""time""
""fullscreenenter"",""1"",""1842""
","
","","","-1","","","13","10677","5223","&#9728;","elianto","#f73b6a7A","-1","-1","1","0","[]","0","1","","","10677","12","0","4","lose","no-go","0"
"pit-trial","134","1002254","0.0-16.0","battery-v0.2","","""event"",""trial"",""time""
""fullscreenenter"",""1"",""1842""
","
","
","""event"",""trial"",""time""
""fullscreenenter"",""1"",""1842""
","
","","","-1","","","13","10677","5223","&#9728;","elianto","#f73b6a7A","-1","-1","1","0","[]","0","1","","","10677","13","0","4","lose","no-go","0"
"pit-trial","135","1006956","0.0-17.0","battery-v0.2","","""event"",""trial"",""time""
""fullscreenenter"",""1"",""1842""
","
","
","""event"",""trial"",""time""
""fullscreenenter"",""1"",""1842""
","
","","","1842.7000000011176","","","13","10677","5223","&#9752;","elianto","#f73b6a7A"," "," ","1","0","[2694]","1","1","","","10677","14","3","3","lose","go","0"
"pit-trial","136","1011418","0.0-18.0","battery-v0.2","","""event"",""trial"",""time""
""fullscreenenter"",""1"",""1842""
","
","
","""event"",""trial"",""time""
""fullscreenenter"",""1"",""1842""
","
","","","1605.0999999996275","","","13","10677","5223","&#9730;","elianto","#3366ff99"," "," ","1","+10","[2457.9000000003725]","1","1","","","10677","15","1","1","win","go","0"
"pit-trial","137","1016296","0.0-19.0","battery-v0.2","","""event"",""trial"",""time""
""fullscreenenter"",""1"",""1842""
","
","
","""event"",""trial"",""time""
""fullscreenenter"",""1"",""1842""
","
","","","-1","","","13","10677","5223","&#9733;","elianto","#3366ff99","-1","-1","1","+10","[]","0","1","","","10677","16","2","2","win","no-go","0"
"pit-trial","138","1020364","0.0-20.0","battery-v0.2","","""event"",""trial"",""time""
""fullscreenenter"",""1"",""1842""
","
","
","""event"",""trial"",""time""
""fullscreenenter"",""1"",""1842""
","
","","","1212.199999999255","","","13","10677","5223","&#9733;","elianto","#3366ff99","-1"," ","0","+10","[2063.5]","1","1","","","10677","17","2","2","win","no-go","1"
"pit-trial","139","1024850","0.0-21.0","battery-v0.2","","""event"",""trial"",""time""
""fullscreenenter"",""1"",""1842""
","
","
","""event"",""trial"",""time""
""fullscreenenter"",""1"",""1842""
","
","","","1612.5","","","13","10677","5223","&#9752;","elianto","#f73b6a7A"," "," ","1","0","[2466.199999999255]","1","1","","","10677","18","3","3","lose","go","0"
"pit-trial","140","1029717","0.0-22.0","battery-v0.2","","""event"",""trial"",""time""
""fullscreenenter"",""1"",""1842""
","
","
","""event"",""trial"",""time""
""fullscreenenter"",""1"",""1842""
","
","","","-1","","","13","10677","5223","&#9728;","elianto","#f73b6a7A","-1","-1","1","-10","[]","0","1","","","10677","19","0","4","lose","no-go","1"
"pit-trial","141","1033870","0.0-23.0","battery-v0.2","","""event"",""trial"",""time""
""fullscreenenter"",""1"",""1842""
","
","
","""event"",""trial"",""time""
""fullscreenenter"",""1"",""1842""
","
","","","1291.800000000745","","","13","10677","5223","&#9730;","elianto","#3366ff99"," "," ","1","+10","[2142.9000000003725]","1","1","","","10677","20","1","1","win","go","0"
"pit-instructions","142","1046923","0.0-24.0","battery-v0.2","","""event"",""trial"",""time""
""fullscreenenter"",""1"",""1842""
","
","
","""event"",""trial"",""time""
""fullscreenenter"",""1"",""1842""
","
","","[{""page_index"":0,""viewing_time"":6741.800000000745},{""page_index"":1,""viewing_time"":6305.699999999255}]","13049.700000001118","","","","","","","","","","","","","","","","","","","","","","","",""
"pit-trial","143","1051794","0.0-25.0","battery-v0.2","","""event"",""trial"",""time""
""fullscreenenter"",""1"",""1842""
","
","
","""event"",""trial"",""time""
""fullscreenenter"",""1"",""1842""
","
","","","-1","","","13","10677","5223","h","elianto","#f73b6a7A"," ","-1","0","-10","[]","0","2","","","10677","21","3","3","lose","go","0"
"pit-trial","144","1055528","0.0-26.0","battery-v0.2","","""event"",""trial"",""time""
""fullscreenenter"",""1"",""1842""
","
","
","""event"",""trial"",""time""
""fullscreenenter"",""1"",""1842""
","
","","","866.8999999985099","","","13","10677","5223","m","elianto","#f73b6a7A","-1"," ","0","0","[1722.7999999988824]","1","2","","","10677","22","0","4","lose","no-go","1"
"pit-trial","145","1060098","0.0-27.0","battery-v0.2","","""event"",""trial"",""time""
""fullscreenenter"",""1"",""1842""
","
","
","""event"",""trial"",""time""
""fullscreenenter"",""1"",""1842""
","
","","","1695.0999999996275","","","13","10677","5223","r","elianto","#3366ff99"," "," ","1","+10","[2548.800000000745]","1","2","","","10677","23","1","1","win","go","0"
"pit-trial","146","1064980","0.0-28.0","battery-v0.2","","""event"",""trial"",""time""
""fullscreenenter"",""1"",""1842""
","
","
","""event"",""trial"",""time""
""fullscreenenter"",""1"",""1842""
","
","","","-1","","","13","10677","5223","y","elianto","#f73b6a7A","-1","-1","1","0","[]","0","2","","","10677","24","2","4","lose","no-go","0"
"pit-trial","147","1069794","0.0-29.0","battery-v0.2","","""event"",""trial"",""time""
""fullscreenenter"",""1"",""1842""
","
","
","""event"",""trial"",""time""
""fullscreenenter"",""1"",""1842""
","
","","","1940.800000000745","","","13","10677","5223","y","elianto","#f73b6a7A","-1"," ","0","0","[2794]","1","2","","","10677","25","2","4","lose","no-go","1"
"pit-trial","148","1074662","0.0-30.0","battery-v0.2","","""event"",""trial"",""time""
""fullscreenenter"",""1"",""1842""
","
","
","""event"",""trial"",""time""
""fullscreenenter"",""1"",""1842""
","
","","","-1","","","13","10677","5223","m","elianto","#f73b6a7A","-1","-1","1","0","[]","0","2","","","10677","26","0","4","lose","no-go","0"
"pit-trial","149","1078432","0.0-31.0","battery-v0.2","","""event"",""trial"",""time""
""fullscreenenter"",""1"",""1842""
","
","
","""event"",""trial"",""time""
""fullscreenenter"",""1"",""1842""
","
","","","905","","","13","10677","5223","r","elianto","#3366ff99"," "," ","1","0","[1760.5]","1","2","","","10677","27","1","1","win","go","1"
"pit-trial","150","1082023","0.0-32.0","battery-v0.2","","""event"",""trial"",""time""
""fullscreenenter"",""1"",""1842""
","
","
","""event"",""trial"",""time""
""fullscreenenter"",""1"",""1842""
","
","","","730.5","","","13","10677","5223","h","elianto","#f73b6a7A"," "," ","1","0","[1581.800000000745]","1","2","","","10677","28","3","3","lose","go","0"
"pit-trial","151","1086900","0.0-33.0","battery-v0.2","","""event"",""trial"",""time""
""fullscreenenter"",""1"",""1842""
","
","
","""event"",""trial"",""time""
""fullscreenenter"",""1"",""1842""
","
","","","-1","","","13","10677","5223","m","elianto","#f73b6a7A","-1","-1","1","0","[]","0","2","","","10677","29","0","4","lose","no-go","0"
"pit-trial","152","1091109","0.0-34.0","battery-v0.2","","""event"",""trial"",""time""
""fullscreenenter"",""1"",""1842""
","
","
","""event"",""trial"",""time""
""fullscreenenter"",""1"",""1842""
","
","","","1347.199999999255","","","13","10677","5223","y","elianto","#f73b6a7A","-1"," ","0","-10","[2200.7999999988824]","1","2","","","10677","30","2","4","lose","no-go","0"
"pit-trial","153","1095980","0.0-35.0","battery-v0.2","","""event"",""trial"",""time""
""fullscreenenter"",""1"",""1842""
","
","
","""event"",""trial"",""time""
""fullscreenenter"",""1"",""1842""
","
","","","-1","","","13","10677","5223","r","elianto","#3366ff99"," ","-1","0","0","[]","0","2","","","10677","31","1","1","win","go","0"
"pit-trial","154","1100050","0.0-36.0","battery-v0.2","","""event"",""trial"",""time""
""fullscreenenter"",""1"",""1842""
","
","
","""event"",""trial"",""time""
""fullscreenenter"",""1"",""1842""
","
","","","1210.5999999996275","","","13","10677","5223","h","elianto","#f73b6a7A"," "," ","1","0","[2065]","1","2","","","10677","32","3","3","lose","go","0"
"pit-trial","155","1104921","0.0-37.0","battery-v0.2","","""event"",""trial"",""time""
""fullscreenenter"",""1"",""1842""
","
","
","""event"",""trial"",""time""
""fullscreenenter"",""1"",""1842""
","
","","","-1","","","13","10677","5223","h","elianto","#f73b6a7A"," ","-1","0","0","[2965.9000000003725]","1","2","","","10677","33","3","3","lose","go","1"
"pit-trial","156","1109791","0.0-38.0","battery-v0.2","","""event"",""trial"",""time""
""fullscreenenter"",""1"",""1842""
","
","
","""event"",""trial"",""time""
""fullscreenenter"",""1"",""1842""
","
","","","-1","","","13","10677","5223","m","elianto","#f73b6a7A","-1","-1","1","0","[2942.0999999996275]","1","2","","","10677","34","0","4","lose","no-go","0"
"pit-trial","157","1113662","0.0-39.0","battery-v0.2","","""event"",""trial"",""time""
""fullscreenenter"",""1"",""1842""
","
","
","""event"",""trial"",""time""
""fullscreenenter"",""1"",""1842""
","
","","","1002.0999999996275","","","13","10677","5223","r","elianto","#3366ff99"," "," ","1","+10","[1852.5999999996275]","1","2","","","10677","35","1","1","win","go","0"
"pit-trial","158","1118533","0.0-40.0","battery-v0.2","","""event"",""trial"",""time""
""fullscreenenter"",""1"",""1842""
","
","
","""event"",""trial"",""time""
""fullscreenenter"",""1"",""1842""
","
","","","-1","","","13","10677","5223","y","elianto","#f73b6a7A","-1","-1","1","0","[]","0","2","","","10677","36","2","4","lose","no-go","0"
"pit-trial","159","1123402","0.0-41.0","battery-v0.2","","""event"",""trial"",""time""
""fullscreenenter"",""1"",""1842""
","
","
","""event"",""trial"",""time""
""fullscreenenter"",""1"",""1842""
","
","","","-1","","","13","10677","5223","y","elianto","#f73b6a7A","-1","-1","1","0","[]","0","2","","","10677","37","2","4","lose","no-go","0"
"pit-trial","160","1127157","0.0-42.0","battery-v0.2","","""event"",""trial"",""time""
""fullscreenenter"",""1"",""1842""
","
","
","""event"",""trial"",""time""
""fullscreenenter"",""1"",""1842""
","
","","","885.5","","","13","10677","5223","r","elianto","#3366ff99"," "," ","1","+10","[1739.2000000011176]","1","2","","","10677","38","1","1","win","go","0"
"pit-trial","161","1132028","0.0-43.0","battery-v0.2","","""event"",""trial"",""time""
""fullscreenenter"",""1"",""1842""
","
","
","""event"",""trial"",""time""
""fullscreenenter"",""1"",""1842""
","
","","","-1","","","13","10677","5223","m","elianto","#f73b6a7A","-1","-1","1","0","[]","0","2","","","10677","39","0","4","lose","no-go","0"
"pit-trial","162","1136887","0.0-44.0","battery-v0.2","","""event"",""trial"",""time""
""fullscreenenter"",""1"",""1842""
","
","
","""event"",""trial"",""time""
""fullscreenenter"",""1"",""1842""
","
","","","-1","","","13","10677","5223","h","elianto","#f73b6a7A"," ","-1","0","-10","[]","0","2","","","10677","40","3","3","lose","go","0"
"pit-trial","163","1140614","0.0-45.0","battery-v0.2","","""event"",""trial"",""time""
""fullscreenenter"",""1"",""1842""
","
","
","""event"",""trial"",""time""
""fullscreenenter"",""1"",""1842""
","
","","","863.5999999996275","","","13","10677","5223","h","elianto","#f73b6a7A"," "," ","1","0","[1715.199999999255]","1","2","","","10677","41","3","3","lose","go","0"
"pit-trial","164","1144405","0.0-46.0","battery-v0.2","","""event"",""trial"",""time""
""fullscreenenter"",""1"",""1842""
","
","
","""event"",""trial"",""time""
""fullscreenenter"",""1"",""1842""
","
","","","926.5999999996275","","","13","10677","5223","r","elianto","#3366ff99"," "," ","1","+10","[1781.4000000003725]","1","2","","","10677","42","1","1","win","go","0"
"pit-trial","165","1149278","0.0-47.0","battery-v0.2","","""event"",""trial"",""time""
""fullscreenenter"",""1"",""1842""
","
","
","""event"",""trial"",""time""
""fullscreenenter"",""1"",""1842""
","
","","","-1","","","13","10677","5223","m","elianto","#f73b6a7A","-1","-1","1","0","[]","0","2","","","10677","43","0","4","lose","no-go","0"
"pit-trial","166","1154140","0.0-48.0","battery-v0.2","","""event"",""trial"",""time""
""fullscreenenter"",""1"",""1842""
","
","
","""event"",""trial"",""time""
""fullscreenenter"",""1"",""1842""
","
","","","-1","","","13","10677","5223","y","elianto","#f73b6a7A","-1","-1","1","0","[]","0","2","","","10677","44","2","4","lose","no-go","0"
"pit-trial","167","1159011","0.0-49.0","battery-v0.2","","""event"",""trial"",""time""
""fullscreenenter"",""1"",""1842""
","
","
","""event"",""trial"",""time""
""fullscreenenter"",""1"",""1842""
","
","","","-1","","","13","10677","5223","h","elianto","#f73b6a7A"," ","-1","0","-10","[]","0","2","","","10677","45","3","3","lose","go","0"
"pit-trial","168","1162491","0.0-50.0","battery-v0.2","","""event"",""trial"",""time""
""fullscreenenter"",""1"",""1842""
","
","
","""event"",""trial"",""time""
""fullscreenenter"",""1"",""1842""
","
","","","609.2000000011176","","","13","10677","5223","z","elianto","#3366ff99","-1"," ","0","0","[1465.3999999985099]","1","2","","","10677","46","4","2","win","no-go","0"
"pit-trial","169","1167360","0.0-51.0","battery-v0.2","","""event"",""trial"",""time""
""fullscreenenter"",""1"",""1842""
","
","
","""event"",""trial"",""time""
""fullscreenenter"",""1"",""1842""
","
","","","-1","","","13","10677","5223","m","elianto","#f73b6a7A","-1","-1","1","0","[]","0","2","","","10677","47","0","4","lose","no-go","0"
"pit-trial","170","1172220","0.0-52.0","battery-v0.2","","""event"",""trial"",""time""
""fullscreenenter"",""1"",""1842""
","
","
","""event"",""trial"",""time""
""fullscreenenter"",""1"",""1842""
","
","","","-1","","","13","10677","5223","y","elianto","#f73b6a7A","-1","-1","1","-10","[]","0","2","","","10677","48","2","4","lose","no-go","1"
"pit-trial","171","1176079","0.0-53.0","battery-v0.2","","""event"",""trial"",""time""
""fullscreenenter"",""1"",""1842""
","
","
","""event"",""trial"",""time""
""fullscreenenter"",""1"",""1842""
","
","","","1004.2999999988824","","","13","10677","5223","r","elianto","#3366ff99"," "," ","1","0","[1855.2000000011176]","1","2","","","10677","49","1","1","win","go","1"
"pit-trial","172","1180408","0.0-54.0","battery-v0.2","","""event"",""trial"",""time""
""fullscreenenter"",""1"",""1842""
","
","
","""event"",""trial"",""time""
""fullscreenenter"",""1"",""1842""
","
","","","1464.7000000011176","","","13","10677","5223","z","elianto","#3366ff99","-1"," ","0","0","[2318.7000000011176]","1","2","","","10677","50","4","2","win","no-go","0"
"pit-trial","173","1184644","0.0-55.0","battery-v0.2","","""event"",""trial"",""time""
""fullscreenenter"",""1"",""1842""
","
","
","""event"",""trial"",""time""
""fullscreenenter"",""1"",""1842""
","
","","","1376.9000000003725","","","13","10677","5223","m","elianto","#f73b6a7A","-1"," ","0","-10","[2227.4000000003725]","1","2","","","10677","51","0","4","lose","no-go","0"
"pit-trial","174","1188537","0.0-56.0","battery-v0.2","","""event"",""trial"",""time""
""fullscreenenter"",""1"",""1842""
","
","
","""event"",""trial"",""time""
""fullscreenenter"",""1"",""1842""
","
","","","1019.5999999996275","","","13","10677","5223","h","elianto","#f73b6a7A"," "," ","1","-10","[1875.699999999255]","1","2","","","10677","52","3","3","lose","go","1"
"pit-trial","175","1192416","0.0-57.0","battery-v0.2","","""event"",""trial"",""time""
""fullscreenenter"",""1"",""1842""
","
","
","""event"",""trial"",""time""
""fullscreenenter"",""1"",""1842""
","
","","","1018.2999999988824","","","13","10677","5223","r","elianto","#3366ff99"," "," ","1","0","[1868.5999999996275]","1","2","","","10677","53","1","1","win","go","1"
"pit-trial","176","1196821","0.0-58.0","battery-v0.2","","""event"",""trial"",""time""
""fullscreenenter"",""1"",""1842""
","
","
","""event"",""trial"",""time""
""fullscreenenter"",""1"",""1842""
","
","","","1541.699999999255","","","13","10677","5223","y","elianto","#f73b6a7A","-1"," ","0","-10","[2393.800000000745]","1","2","","","10677","54","2","4","lose","no-go","0"
"pit-trial","177","1201177","0.0-59.0","battery-v0.2","","""event"",""trial"",""time""
""fullscreenenter"",""1"",""1842""
","
","
","""event"",""trial"",""time""
""fullscreenenter"",""1"",""1842""
","
","","","1495.699999999255","","","13","10677","5223","z","elianto","#3366ff99","-1"," ","0","0","[2346.5]","1","2","","","10677","55","4","2","win","no-go","0"
"pit-trial","178","1206037","0.0-60.0","battery-v0.2","","""event"",""trial"",""time""
""fullscreenenter"",""1"",""1842""
","
","
","""event"",""trial"",""time""
""fullscreenenter"",""1"",""1842""
","
","","","-1","","","13","10677","5223","m","elianto","#f73b6a7A","-1","-1","1","0","[]","0","2","","","10677","56","0","4","lose","no-go","0"
"pit-trial","179","1210239","0.0-61.0","battery-v0.2","","""event"",""trial"",""time""
""fullscreenenter"",""1"",""1842""
","
","
","""event"",""trial"",""time""
""fullscreenenter"",""1"",""1842""
","
","","","1342.300000000745","","","13","10677","5223","h","elianto","#f73b6a7A"," "," ","1","0","[2192.4000000003725]","1","2","","","10677","57","3","3","lose","go","0"
"pit-trial","180","1215102","0.0-62.0","battery-v0.2","","""event"",""trial"",""time""
""fullscreenenter"",""1"",""1842""
","
","
","""event"",""trial"",""time""
""fullscreenenter"",""1"",""1842""
","
","","","-1","","","13","10677","5223","m","elianto","#f73b6a7A","-1","-1","1","0","[]","0","2","","","10677","58","0","4","lose","no-go","0"
"pit-trial","181","1219484","0.0-63.0","battery-v0.2","","""event"",""trial"",""time""
""fullscreenenter"",""1"",""1842""
","
","
","""event"",""trial"",""time""
""fullscreenenter"",""1"",""1842""
","
","","","1524","","","13","10677","5223","z","elianto","#3366ff99","-1"," ","0","0","[2374.800000000745]","1","2","","","10677","59","4","2","win","no-go","0"
"pit-trial","182","1224360","0.0-64.0","battery-v0.2","","""event"",""trial"",""time""
""fullscreenenter"",""1"",""1842""
","
","
","""event"",""trial"",""time""
""fullscreenenter"",""1"",""1842""
","
","","","-1","","","13","10677","5223","r","elianto","#3366ff99"," ","-1","0","0","[]","0","2","","","10677","60","1","1","win","go","0"
"pit-trial","183","1228981","0.0-65.0","battery-v0.2","","""event"",""trial"",""time""
""fullscreenenter"",""1"",""1842""
","
","
","""event"",""trial"",""time""
""fullscreenenter"",""1"",""1842""
","
","","","1761.7999999988824","","","13","10677","5223","z","elianto","#3366ff99","-1"," ","0","+10","[2617.4000000003725]","1","2","","","10677","61","4","2","win","no-go","1"
"pit-trial","184","1233850","0.0-66.0","battery-v0.2","","""event"",""trial"",""time""
""fullscreenenter"",""1"",""1842""
","
","
","""event"",""trial"",""time""
""fullscreenenter"",""1"",""1842""
","
","","","-1","","","13","10677","5223","y","elianto","#f73b6a7A","-1","-1","1","-10","[3313]","1","2","","","10677","62","2","4","lose","no-go","1"
"pit-trial","185","1237464","0.0-67.0","battery-v0.2","","""event"",""trial"",""time""
""fullscreenenter"",""1"",""1842""
","
","
","""event"",""trial"",""time""
""fullscreenenter"",""1"",""1842""
","
","","","754.4000000003725","","","13","10677","5223","h","elianto","#f73b6a7A"," "," ","1","-10","[1605.4000000003725]","1","2","","","10677","63","3","3","lose","go","1"
"pit-trial","186","1241462","0.0-68.0","battery-v0.2","","""event"",""trial"",""time""
""fullscreenenter"",""1"",""1842""
","
","
","""event"",""trial"",""time""
""fullscreenenter"",""1"",""1842""
","
","","","1129.1000000014901","","","13","10677","5223","r","elianto","#3366ff99"," "," ","1","+10","[1982.0999999996275]","1","2","","","10677","64","1","1","win","go","0"
"pit-trial","187","1245548","0.0-69.0","battery-v0.2","","""event"",""trial"",""time""
""fullscreenenter"",""1"",""1842""
","
","
","""event"",""trial"",""time""
""fullscreenenter"",""1"",""1842""
","
","","","1218","","","13","10677","5223","r","elianto","#3366ff99"," "," ","1","+10","[2070.300000000745]","1","2","","","10677","65","1","1","win","go","0"
"pit-trial","188","1249808","0.0-70.0","battery-v0.2","","""event"",""trial"",""time""
""fullscreenenter"",""1"",""1842""
","
","
","""event"",""trial"",""time""
""fullscreenenter"",""1"",""1842""
","
","","","1395.300000000745","","","13","10677","5223","z","elianto","#3366ff99","-1"," ","0","0","[2248.199999999255]","1","2","","","10677","66","4","2","win","no-go","0"
"pit-trial","189","1254669","0.0-71.0","battery-v0.2","","""event"",""trial"",""time""
""fullscreenenter"",""1"",""1842""
","
","
","""event"",""trial"",""time""
""fullscreenenter"",""1"",""1842""
","
","","","-1","","","13","10677","5223","h","elianto","#f73b6a7A"," ","-1","0","-10","[]","0","2","","","10677","67","3","3","lose","go","0"
"pit-trial","190","1259208","0.0-72.0","battery-v0.2","","""event"",""trial"",""time""
""fullscreenenter"",""1"",""1842""
","
","
","""event"",""trial"",""time""
""fullscreenenter"",""1"",""1842""
","
","","","1677","","","13","10677","5223","y","elianto","#f73b6a7A","-1"," ","0","-10","[2530.89999999851]","1","2","","","10677","68","2","4","lose","no-go","0"
"pit-trial","191","1262950","0.0-73.0","battery-v0.2","","""event"",""trial"",""time""
""fullscreenenter"",""1"",""1842""
","
","
","""event"",""trial"",""time""
""fullscreenenter"",""1"",""1842""
","
","","","870","","","13","10677","5223","c","elianto","#3366ff99"," "," ","1","0","[1726.4000000003725]","1","2","","","10677","69","5","1","win","go","1"
"pit-trial","192","1267071","0.0-74.0","battery-v0.2","","""event"",""trial"",""time""
""fullscreenenter"",""1"",""1842""
","
","
","""event"",""trial"",""time""
""fullscreenenter"",""1"",""1842""
","
","","","1259.6000000014901","","","13","10677","5223","r","elianto","#3366ff99"," "," ","1","+10","[2110]","1","2","","","10677","70","1","1","win","go","0"
"pit-trial","193","1271935","0.0-75.0","battery-v0.2","","""event"",""trial"",""time""
""fullscreenenter"",""1"",""1842""
","
","
","""event"",""trial"",""time""
""fullscreenenter"",""1"",""1842""
","
","","","-1","","","13","10677","5223","z","elianto","#3366ff99","-1","-1","1","0","[]","0","2","","","10677","71","4","2","win","no-go","1"
"pit-trial","194","1276802","0.0-76.0","battery-v0.2","","""event"",""trial"",""time""
""fullscreenenter"",""1"",""1842""
","
","
","""event"",""trial"",""time""
""fullscreenenter"",""1"",""1842""
","
","","","-1","","","13","10677","5223","h","elianto","#f73b6a7A"," ","-1","0","-10","[]","0","2","","","10677","72","3","3","lose","go","0"
"pit-trial","195","1281001","0.0-77.0","battery-v0.2","","""event"",""trial"",""time""
""fullscreenenter"",""1"",""1842""
","
","
","""event"",""trial"",""time""
""fullscreenenter"",""1"",""1842""
","
","","","1333.300000000745","","","13","10677","5223","c","elianto","#3366ff99"," "," ","1","0","[2187.800000000745]","1","2","","","10677","73","5","1","win","go","1"
"pit-trial","196","1285418","0.0-78.0","battery-v0.2","","""event"",""trial"",""time""
""fullscreenenter"",""1"",""1842""
","
","
","""event"",""trial"",""time""
""fullscreenenter"",""1"",""1842""
","
","","","1560.0999999996275","","","13","10677","5223","h","elianto","#f73b6a7A"," "," ","1","0","[2410.9000000003725]","1","2","","","10677","74","3","3","lose","go","0"
"pit-trial","197","1290018","0.0-79.0","battery-v0.2","","""event"",""trial"",""time""
""fullscreenenter"",""1"",""1842""
","
","
","""event"",""trial"",""time""
""fullscreenenter"",""1"",""1842""
","
","","","1735.800000000745","","","13","10677","5223","z","elianto","#3366ff99","-1"," ","0","0","[2589.800000000745]","1","2","","","10677","75","4","2","win","no-go","0"
"pit-trial","198","1294469","0.0-80.0","battery-v0.2","","""event"",""trial"",""time""
""fullscreenenter"",""1"",""1842""
","
","
","""event"",""trial"",""time""
""fullscreenenter"",""1"",""1842""
","
","","","1592.199999999255","","","13","10677","5223","r","elianto","#3366ff99"," "," ","1","+10","[2445.9000000003725]","1","2","","","10677","76","1","1","win","go","0"
"pit-trial","199","1299341","0.0-81.0","battery-v0.2","","""event"",""trial"",""time""
""fullscreenenter"",""1"",""1842""
","
","
","""event"",""trial"",""time""
""fullscreenenter"",""1"",""1842""
","
","","","-1","","","13","10677","5223","c","elianto","#3366ff99"," ","-1","0","0","[]","0","2","","","10677","77","5","1","win","go","0"
"pit-trial","200","1304209","0.0-82.0","battery-v0.2","","""event"",""trial"",""time""
""fullscreenenter"",""1"",""1842""
","
","
","""event"",""trial"",""time""
""fullscreenenter"",""1"",""1842""
","
","","","-1","","","13","10677","5223","b","elianto","#f73b6a7A","-1","-1","1","0","[]","0","2","","","10677","78","6","4","lose","no-go","0"
"pit-trial","201","1307873","0.0-83.0","battery-v0.2","","""event"",""trial"",""time""
""fullscreenenter"",""1"",""1842""
","
","
","""event"",""trial"",""time""
""fullscreenenter"",""1"",""1842""
","
","","","795.5999999996275","","","13","10677","5223","z","elianto","#3366ff99","-1"," ","0","+10","[1647.199999999255]","1","2","","","10677","79","4","2","win","no-go","1"
"pit-trial","202","1311862","0.0-84.0","battery-v0.2","","""event"",""trial"",""time""
""fullscreenenter"",""1"",""1842""
","
","
","""event"",""trial"",""time""
""fullscreenenter"",""1"",""1842""
","
","","","1117","","","13","10677","5223","h","elianto","#f73b6a7A"," "," ","1","0","[1967.7000000011176]","1","2","","","10677","80","3","3","lose","go","0"
"pit-trial","203","1316207","0.0-85.0","battery-v0.2","","""event"",""trial"",""time""
""fullscreenenter"",""1"",""1842""
","
","
","""event"",""trial"",""time""
""fullscreenenter"",""1"",""1842""
","
","","","1484.0999999996275","","","13","10677","5223","c","elianto","#3366ff99"," "," ","1","+10","[2340.800000000745]","1","2","","","10677","81","5","1","win","go","0"
"pit-trial","204","1321076","0.0-86.0","battery-v0.2","","""event"",""trial"",""time""
""fullscreenenter"",""1"",""1842""
","
","
","""event"",""trial"",""time""
""fullscreenenter"",""1"",""1842""
","
","","","-1","","","13","10677","5223","b","elianto","#f73b6a7A","-1","-1","1","0","[]","0","2","","","10677","82","6","4","lose","no-go","0"
"pit-trial","205","1324785","0.0-87.0","battery-v0.2","","""event"",""trial"",""time""
""fullscreenenter"",""1"",""1842""
","
","
","""event"",""trial"",""time""
""fullscreenenter"",""1"",""1842""
","
","","","841.5999999996275","","","13","10677","5223","z","elianto","#3366ff99","-1"," ","0","0","[1700.0999999996275]","1","2","","","10677","83","4","2","win","no-go","0"
"pit-trial","206","1329657","0.0-88.0","battery-v0.2","","""event"",""trial"",""time""
""fullscreenenter"",""1"",""1842""
","
","
","""event"",""trial"",""time""
""fullscreenenter"",""1"",""1842""
","
","","","-1","","","13","10677","5223","t","elianto","#f73b6a7A"," ","-1","0","-10","[]","0","2","","","10677","84","7","3","lose","go","0"
"pit-trial","207","1333860","0.0-89.0","battery-v0.2","","""event"",""trial"",""time""
""fullscreenenter"",""1"",""1842""
","
","
","""event"",""trial"",""time""
""fullscreenenter"",""1"",""1842""
","
","","","1339.7000000011176","","","13","10677","5223","c","elianto","#3366ff99"," "," ","1","+10","[2196.199999999255]","1","2","","","10677","85","5","1","win","go","0"
"pit-trial","208","1338729","0.0-90.0","battery-v0.2","","""event"",""trial"",""time""
""fullscreenenter"",""1"",""1842""
","
","
","""event"",""trial"",""time""
""fullscreenenter"",""1"",""1842""
","
","","","-1","","","13","10677","5223","t","elianto","#f73b6a7A"," ","-1","0","0","[]","0","2","","","10677","86","7","3","lose","go","1"
"pit-trial","209","1343082","0.0-91.0","battery-v0.2","","""event"",""trial"",""time""
""fullscreenenter"",""1"",""1842""
","
","
","""event"",""trial"",""time""
""fullscreenenter"",""1"",""1842""
","
","","","1483.800000000745","","","13","10677","5223","z","elianto","#3366ff99","-1"," ","0","0","[2336.2000000011176]","1","2","","","10677","87","4","2","win","no-go","0"
"pit-trial","210","1347942","0.0-92.0","battery-v0.2","","""event"",""trial"",""time""
""fullscreenenter"",""1"",""1842""
","
","
","""event"",""trial"",""time""
""fullscreenenter"",""1"",""1842""
","
","","","-1","","","13","10677","5223","b","elianto","#f73b6a7A","-1","-1","1","-10","[]","0","2","","","10677","88","6","4","lose","no-go","1"
"pit-trial","211","1352815","0.0-93.0","battery-v0.2","","""event"",""trial"",""time""
""fullscreenenter"",""1"",""1842""
","
","
","""event"",""trial"",""time""
""fullscreenenter"",""1"",""1842""
","
","","","-1","","","13","10677","5223","t","elianto","#f73b6a7A"," ","-1","0","-10","[]","0","2","","","10677","89","7","3","lose","go","0"
"pit-trial","212","1357688","0.0-94.0","battery-v0.2","","""event"",""trial"",""time""
""fullscreenenter"",""1"",""1842""
","
","
","""event"",""trial"",""time""
""fullscreenenter"",""1"",""1842""
","
","","","-1","","","13","10677","5223","b","elianto","#f73b6a7A","-1","-1","1","0","[]","0","2","","","10677","90","6","4","lose","no-go","0"
"pit-trial","213","1361848","0.0-95.0","battery-v0.2","","""event"",""trial"",""time""
""fullscreenenter"",""1"",""1842""
","
","
","""event"",""trial"",""time""
""fullscreenenter"",""1"",""1842""
","
","","","1300.5999999996275","","","13","10677","5223","c","elianto","#3366ff99"," "," ","1","0","[2151.2000000011176]","1","2","","","10677","91","5","1","win","go","1"
"pit-trial","214","1366652","0.0-96.0","battery-v0.2","","""event"",""trial"",""time""
""fullscreenenter"",""1"",""1842""
","
","
","""event"",""trial"",""time""
""fullscreenenter"",""1"",""1842""
","
","","","1945.2000000011176","","","13","10677","5223","z","elianto","#3366ff99","-1"," ","0","0","[2798.9000000003725]","1","2","","","10677","92","4","2","win","no-go","0"
"pit-trial","215","1370641","0.0-97.0","battery-v0.2","","""event"",""trial"",""time""
""fullscreenenter"",""1"",""1842""
","
","
","""event"",""trial"",""time""
""fullscreenenter"",""1"",""1842""
","
","","","1120.0999999996275","","","13","10677","5223","c","elianto","#3366ff99"," "," ","1","+10","[1974.5]","1","2","","","10677","93","5","1","win","go","0"
"pit-trial","216","1374698","0.0-98.0","battery-v0.2","","""event"",""trial"",""time""
""fullscreenenter"",""1"",""1842""
","
","
","""event"",""trial"",""time""
""fullscreenenter"",""1"",""1842""
","
","","","1187.300000000745","","","13","10677","5223","f","elianto","#3366ff99","-1"," ","0","0","[2044.6000000014901]","1","2","","","10677","94","8","2","win","no-go","0"
"pit-trial","217","1379572","0.0-99.0","battery-v0.2","","""event"",""trial"",""time""
""fullscreenenter"",""1"",""1842""
","
","
","""event"",""trial"",""time""
""fullscreenenter"",""1"",""1842""
","
","","","-1","","","13","10677","5223","t","elianto","#f73b6a7A"," ","-1","0","-10","[]","0","2","","","10677","95","7","3","lose","go","0"
"pit-trial","218","1384441","0.0-100.0","battery-v0.2","","""event"",""trial"",""time""
""fullscreenenter"",""1"",""1842""
","
","
","""event"",""trial"",""time""
""fullscreenenter"",""1"",""1842""
","
","","","-1","","","13","10677","5223","b","elianto","#f73b6a7A","-1","-1","1","0","[]","0","2","","","10677","96","6","4","lose","no-go","0"
"pit-trial","219","1388473","0.0-101.0","battery-v0.2","","""event"",""trial"",""time""
""fullscreenenter"",""1"",""1842""
","
","
","""event"",""trial"",""time""
""fullscreenenter"",""1"",""1842""
","
","","","1169","","","13","10677","5223","c","elianto","#3366ff99"," "," ","1","+10","[2019.5]","1","2","","","10677","97","5","1","win","go","0"
"pit-trial","220","1392685","0.0-102.0","battery-v0.2","","""event"",""trial"",""time""
""fullscreenenter"",""1"",""1842""
","
","
","""event"",""trial"",""time""
""fullscreenenter"",""1"",""1842""
","
","","","1347.3999999985099","","","13","10677","5223","b","elianto","#f73b6a7A","-1"," ","0","-10","[2197.7999999988824]","1","2","","","10677","98","6","4","lose","no-go","0"
"pit-trial","221","1396488","0.0-103.0","battery-v0.2","","""event"",""trial"",""time""
""fullscreenenter"",""1"",""1842""
","
","
","""event"",""trial"",""time""
""fullscreenenter"",""1"",""1842""
","
","","","935.4000000003725","","","13","10677","5223","t","elianto","#f73b6a7A"," "," ","1","0","[1785.5]","1","2","","","10677","99","7","3","lose","go","0"
"pit-trial","222","1400681","0.0-104.0","battery-v0.2","","""event"",""trial"",""time""
""fullscreenenter"",""1"",""1842""
","
","
","""event"",""trial"",""time""
""fullscreenenter"",""1"",""1842""
","
","","","1321.5","","","13","10677","5223","f","elianto","#3366ff99","-1"," ","0","0","[2173.800000000745]","1","2","","","10677","100","8","2","win","no-go","0"
"pit-trial","223","1405552","0.0-105.0","battery-v0.2","","""event"",""trial"",""time""
""fullscreenenter"",""1"",""1842""
","
","
","""event"",""trial"",""time""
""fullscreenenter"",""1"",""1842""
","
","","","-1","","","13","10677","5223","b","elianto","#f73b6a7A","-1","-1","1","-10","[]","0","2","","","10677","101","6","4","lose","no-go","1"
"pit-trial","224","1408777","0.0-106.0","battery-v0.2","","""event"",""trial"",""time""
""fullscreenenter"",""1"",""1842""
","
","
","""event"",""trial"",""time""
""fullscreenenter"",""1"",""1842""
","
","","","362.19999999925494","","","13","10677","5223","n","elianto","#3366ff99","-1"," ","0","+10","[1214.5]","1","2","","","10677","102","9","2","win","no-go","1"
"pit-trial","225","1413639","0.0-107.0","battery-v0.2","","""event"",""trial"",""time""
""fullscreenenter"",""1"",""1842""
","
","
","""event"",""trial"",""time""
""fullscreenenter"",""1"",""1842""
","
","","","-1","","","13","10677","5223","f","elianto","#3366ff99","-1","-1","1","0","[3010.5]","1","2","","","10677","103","8","2","win","no-go","1"
"pit-trial","226","1417481","0.0-108.0","battery-v0.2","","""event"",""trial"",""time""
""fullscreenenter"",""1"",""1842""
","
","
","""event"",""trial"",""time""
""fullscreenenter"",""1"",""1842""
","
","","","979.0999999996275","","","13","10677","5223","c","elianto","#3366ff99"," "," ","1","+10","[1832.300000000745]","1","2","","","10677","104","5","1","win","go","0"
"pit-trial","227","1420951","0.0-109.0","battery-v0.2","","""event"",""trial"",""time""
""fullscreenenter"",""1"",""1842""
","
","
","""event"",""trial"",""time""
""fullscreenenter"",""1"",""1842""
","
","","","610.5999999996275","","","13","10677","5223","f","elianto","#3366ff99","-1"," ","0","0","[1461.5999999996275]","1","2","","","10677","105","8","2","win","no-go","0"
"pit-trial","228","1425197","0.0-110.0","battery-v0.2","","""event"",""trial"",""time""
""fullscreenenter"",""1"",""1842""
","
","
","""event"",""trial"",""time""
""fullscreenenter"",""1"",""1842""
","
","","","1391.9000000003725","","","13","10677","5223","b","elianto","#f73b6a7A","-1"," ","0","-10","[2242.60000000149]","1","2","","","10677","106","6","4","lose","no-go","0"
"pit-trial","229","1428989","0.0-111.0","battery-v0.2","","""event"",""trial"",""time""
""fullscreenenter"",""1"",""1842""
","
","
","""event"",""trial"",""time""
""fullscreenenter"",""1"",""1842""
","
","","","928.7999999988824","","","13","10677","5223","c","elianto","#3366ff99"," "," ","1","+10","[1782.699999999255]","1","2","","","10677","107","5","1","win","go","0"
"pit-trial","230","1433856","0.0-112.0","battery-v0.2","","""event"",""trial"",""time""
""fullscreenenter"",""1"",""1842""
","
","
","""event"",""trial"",""time""
""fullscreenenter"",""1"",""1842""
","
","","","-1","","","13","10677","5223","n","elianto","#3366ff99","-1","-1","1","+10","[]","0","2","","","10677","108","9","2","win","no-go","0"
"pit-trial","231","1437881","0.0-113.0","battery-v0.2","","""event"",""trial"",""time""
""fullscreenenter"",""1"",""1842""
","
","
","""event"",""trial"",""time""
""fullscreenenter"",""1"",""1842""
","
","","","1160.699999999255","","","13","10677","5223","c","elianto","#3366ff99"," "," ","1","+10","[2018.0999999996275]","1","2","","","10677","109","5","1","win","go","0"
"pit-trial","232","1442742","0.0-114.0","battery-v0.2","","""event"",""trial"",""time""
""fullscreenenter"",""1"",""1842""
","
","
","""event"",""trial"",""time""
""fullscreenenter"",""1"",""1842""
","
","","","-1","","","13","10677","5223","n","elianto","#3366ff99","-1","-1","1","0","[]","0","2","","","10677","110","9","2","win","no-go","1"
"pit-trial","233","1446817","0.0-115.0","battery-v0.2","","""event"",""trial"",""time""
""fullscreenenter"",""1"",""1842""
","
","
","""event"",""trial"",""time""
""fullscreenenter"",""1"",""1842""
","
","","","1200.5","","","13","10677","5223","b","elianto","#f73b6a7A","-1"," ","0","-10","[2058.4000000003725]","1","2","","","10677","111","6","4","lose","no-go","0"
"pit-trial","234","1450020","0.0-116.0","battery-v0.2","","""event"",""trial"",""time""
""fullscreenenter"",""1"",""1842""
","
","
","""event"",""trial"",""time""
""fullscreenenter"",""1"",""1842""
","
","","","346.90000000037253","","","13","10677","5223","f","elianto","#3366ff99","-1"," ","0","0","[557.2999999988824,1197.5999999996275]","2","2","","","10677","112","8","2","win","no-go","0"
"pit-trial","235","1454895","0.0-117.0","battery-v0.2","","""event"",""trial"",""time""
""fullscreenenter"",""1"",""1842""
","
","
","""event"",""trial"",""time""
""fullscreenenter"",""1"",""1842""
","
","","","-1","","","13","10677","5223","t","elianto","#f73b6a7A"," ","-1","0","-10","[]","0","2","","","10677","113","7","3","lose","go","0"
"pit-trial","236","1459613","0.0-118.0","battery-v0.2","","""event"",""trial"",""time""
""fullscreenenter"",""1"",""1842""
","
","
","""event"",""trial"",""time""
""fullscreenenter"",""1"",""1842""
","
","","","1860.0999999996275","","","13","10677","5223","f","elianto","#3366ff99","-1"," ","0","0","[2712.4000000003725,3010.0999999996275,3341.199999999255]","3","2","","","10677","114","8","2","win","no-go","0"
"pit-trial","237","1462676","0.0-119.0","battery-v0.2","","""event"",""trial"",""time""
""fullscreenenter"",""1"",""1842""
","
","
","""event"",""trial"",""time""
""fullscreenenter"",""1"",""1842""
","
","","","200.10000000149012","","","13","10677","5223","n","elianto","#3366ff99","-1"," ","0","0","[494.80000000074506,1053.0999999996275,1817.800000000745]","3","2","","","10677","115","9","2","win","no-go","0"
"pit-trial","238","1466671","0.0-120.0","battery-v0.2","","""event"",""trial"",""time""
""fullscreenenter"",""1"",""1842""
","
","
","""event"",""trial"",""time""
""fullscreenenter"",""1"",""1842""
","
","","","1133.5","","","13","10677","5223","c","elianto","#3366ff99"," "," ","1","+10","[1990.0999999996275]","1","2","","","10677","116","5","1","win","go","0"
"pit-trial","239","1471079","0.0-121.0","battery-v0.2","","""event"",""trial"",""time""
""fullscreenenter"",""1"",""1842""
","
","
","""event"",""trial"",""time""
""fullscreenenter"",""1"",""1842""
","
","","","1552.699999999255","","","13","10677","5223","n","elianto","#3366ff99","-1"," ","0","0","[2403.5999999996275]","1","2","","","10677","117","9","2","win","no-go","0"
"pit-trial","240","1475652","0.0-122.0","battery-v0.2","","""event"",""trial"",""time""
""fullscreenenter"",""1"",""1842""
","
","
","""event"",""trial"",""time""
""fullscreenenter"",""1"",""1842""
","
","","","1703.0999999996275","","","13","10677","5223","c","elianto","#3366ff99"," "," ","1","0","[2556.9000000003725]","1","2","","","10677","118","5","1","win","go","1"
"pit-trial","241","1480451","0.0-123.0","battery-v0.2","","""event"",""trial"",""time""
""fullscreenenter"",""1"",""1842""
","
","
","""event"",""trial"",""time""
""fullscreenenter"",""1"",""1842""
","
","","","1935.300000000745","","","13","10677","5223","b","elianto","#f73b6a7A","-1"," ","0","-10","[2788.9000000003725]","1","2","","","10677","119","6","4","lose","no-go","0"
"pit-trial","242","1484086","0.0-124.0","battery-v0.2","","""event"",""trial"",""time""
""fullscreenenter"",""1"",""1842""
","
","
","""event"",""trial"",""time""
""fullscreenenter"",""1"",""1842""
","
","","","779.4000000003725","","","13","10677","5223","f","elianto","#3366ff99","-1"," ","0","0","[1630.4000000003725]","1","2","","","10677","120","8","2","win","no-go","0"
"pit-trial","243","1487382","0.0-125.0","battery-v0.2","","""event"",""trial"",""time""
""fullscreenenter"",""1"",""1842""
","
","
","""event"",""trial"",""time""
""fullscreenenter"",""1"",""1842""
","
","","","432.90000000037253","","","13","10677","5223","n","elianto","#3366ff99","-1"," ","0","0","[1284.9000000003725]","1","2","","","10677","121","9","2","win","no-go","0"
"pit-trial","244","1492245","0.0-126.0","battery-v0.2","","""event"",""trial"",""time""
""fullscreenenter"",""1"",""1842""
","
","
","""event"",""trial"",""time""
""fullscreenenter"",""1"",""1842""
","
","","","-1","","","13","10677","5223","t","elianto","#f73b6a7A"," ","-1","0","-10","[]","0","2","","","10677","122","7","3","lose","go","0"
"pit-trial","245","1495411","0.0-127.0","battery-v0.2","","""event"",""trial"",""time""
""fullscreenenter"",""1"",""1842""
","
","
","""event"",""trial"",""time""
""fullscreenenter"",""1"",""1842""
","
","","","304.90000000037253","","","13","10677","5223","f","elianto","#3366ff99","-1"," ","0","0","[1161.9000000003725]","1","2","","","10677","123","8","2","win","no-go","0"
"pit-trial","246","1498953","0.0-128.0","battery-v0.2","","""event"",""trial"",""time""
""fullscreenenter"",""1"",""1842""
","
","
","""event"",""trial"",""time""
""fullscreenenter"",""1"",""1842""
","
","","","669.9000000003725","","","13","10677","5223","c","elianto","#3366ff99"," "," ","1","+10","[1526]","1","2","","","10677","124","5","1","win","go","0"
"pit-trial","247","1502982","0.0-129.0","battery-v0.2","","""event"",""trial"",""time""
""fullscreenenter"",""1"",""1842""
","
","
","""event"",""trial"",""time""
""fullscreenenter"",""1"",""1842""
","
","","","1163.800000000745","","","13","10677","5223","n","elianto","#3366ff99","-1"," ","0","+10","[2017.5]","1","2","","","10677","125","9","2","win","no-go","1"
"pit-trial","248","1507846","0.0-130.0","battery-v0.2","","""event"",""trial"",""time""
""fullscreenenter"",""1"",""1842""
","
","
","""event"",""trial"",""time""
""fullscreenenter"",""1"",""1842""
","
","","","-1","","","13","10677","5223","b","elianto","#f73b6a7A","-1","-1","1","-10","[]","0","2","","","10677","126","6","4","lose","no-go","1"
"pit-trial","249","1512721","0.0-131.0","battery-v0.2","","""event"",""trial"",""time""
""fullscreenenter"",""1"",""1842""
","
","
","""event"",""trial"",""time""
""fullscreenenter"",""1"",""1842""
","
","","","-1","","","13","10677","5223","f","elianto","#3366ff99","-1","-1","1","+10","[]","0","2","","","10677","127","8","2","win","no-go","0"
"pit-trial","250","1517590","0.0-132.0","battery-v0.2","","""event"",""trial"",""time""
""fullscreenenter"",""1"",""1842""
","
","
","""event"",""trial"",""time""
""fullscreenenter"",""1"",""1842""
","
","","","-1","","","13","10677","5223","t","elianto","#f73b6a7A"," ","-1","0","0","[]","0","2","","","10677","128","7","3","lose","go","1"
"pit-trial","251","1522466","0.0-133.0","battery-v0.2","","""event"",""trial"",""time""
""fullscreenenter"",""1"",""1842""
","
","
","""event"",""trial"",""time""
""fullscreenenter"",""1"",""1842""
","
","","","-1","","","13","10677","5223","t","elianto","#f73b6a7A"," ","-1","0","-10","[]","0","2","","","10677","129","7","3","lose","go","0"
"pit-trial","252","1527331","0.0-134.0","battery-v0.2","","""event"",""trial"",""time""
""fullscreenenter"",""1"",""1842""
","
","
","""event"",""trial"",""time""
""fullscreenenter"",""1"",""1842""
","
","","","-1","","","13","10677","5223","b","elianto","#f73b6a7A","-1","-1","1","0","[]","0","2","","","10677","130","6","4","lose","no-go","0"
"pit-trial","253","1530948","0.0-135.0","battery-v0.2","","""event"",""trial"",""time""
""fullscreenenter"",""1"",""1842""
","
","
","""event"",""trial"",""time""
""fullscreenenter"",""1"",""1842""
","
","","","750.9000000003725","","","13","10677","5223","n","elianto","#3366ff99","-1"," ","0","0","[1606.5999999996275]","1","2","","","10677","131","9","2","win","no-go","0"
"pit-trial","254","1535825","0.0-136.0","battery-v0.2","","""event"",""trial"",""time""
""fullscreenenter"",""1"",""1842""
","
","
","""event"",""trial"",""time""
""fullscreenenter"",""1"",""1842""
","
","","","-1","","","13","10677","5223","f","elianto","#3366ff99","-1","-1","1","+10","[]","0","2","","","10677","132","8","2","win","no-go","0"
"pit-trial","255","1540692","0.0-137.0","battery-v0.2","","""event"",""trial"",""time""
""fullscreenenter"",""1"",""1842""
","
","
","""event"",""trial"",""time""
""fullscreenenter"",""1"",""1842""
","
","","","-1","","","13","10677","5223","n","elianto","#3366ff99","-1","-1","1","+10","[]","0","2","","","10677","133","9","2","win","no-go","0"
"pit-trial","256","1545551","0.0-138.0","battery-v0.2","","""event"",""trial"",""time""
""fullscreenenter"",""1"",""1842""
","
","
","""event"",""trial"",""time""
""fullscreenenter"",""1"",""1842""
","
","","","-1","","","13","10677","5223","b","elianto","#f73b6a7A","-1","-1","1","0","[]","0","2","","","10677","134","6","4","lose","no-go","0"
"pit-trial","257","1550416","0.0-139.0","battery-v0.2","","""event"",""trial"",""time""
""fullscreenenter"",""1"",""1842""
","
","
","""event"",""trial"",""time""
""fullscreenenter"",""1"",""1842""
","
","","","-1","","","13","10677","5223","t","elianto","#f73b6a7A"," ","-1","0","-10","[]","0","2","","","10677","135","7","3","lose","go","0"
"pit-trial","258","1555276","0.0-140.0","battery-v0.2","","""event"",""trial"",""time""
""fullscreenenter"",""1"",""1842""
","
","
","""event"",""trial"",""time""
""fullscreenenter"",""1"",""1842""
","
","","","-1","","","13","10677","5223","f","elianto","#3366ff99","-1","-1","1","0","[]","0","2","","","10677","136","8","2","win","no-go","1"
"pit-trial","259","1560143","0.0-141.0","battery-v0.2","","""event"",""trial"",""time""
""fullscreenenter"",""1"",""1842""
","
","
","""event"",""trial"",""time""
""fullscreenenter"",""1"",""1842""
","
","","","-1","","","13","10677","5223","f","elianto","#3366ff99","-1","-1","1","+10","[]","0","2","","","10677","137","8","2","win","no-go","0"
"pit-trial","260","1565012","0.0-142.0","battery-v0.2","","""event"",""trial"",""time""
""fullscreenenter"",""1"",""1842""
","
","
","""event"",""trial"",""time""
""fullscreenenter"",""1"",""1842""
","
","","","-1","","","13","10677","5223","b","elianto","#f73b6a7A","-1","-1","1","0","[]","0","2","","","10677","138","6","4","lose","no-go","0"
"pit-trial","261","1569871","0.0-143.0","battery-v0.2","","""event"",""trial"",""time""
""fullscreenenter"",""1"",""1842""
","
","
","""event"",""trial"",""time""
""fullscreenenter"",""1"",""1842""
","
","","","-1","","","13","10677","5223","n","elianto","#3366ff99","-1","-1","1","+10","[3020.5]","1","2","","","10677","139","9","2","win","no-go","0"
"pit-trial","262","1573412","0.0-144.0","battery-v0.2","","""event"",""trial"",""time""
""fullscreenenter"",""1"",""1842""
","
","
","""event"",""trial"",""time""
""fullscreenenter"",""1"",""1842""
","
","","","666.9000000003725","","","13","10677","5223","t","elianto","#f73b6a7A"," "," ","1","0","[1520,1739.0999999996275]","2","2","","","10677","140","7","3","lose","go","0"
"pit-instructions","263","1588037","0.0-145.0","battery-v0.2","","""event"",""trial"",""time""
""fullscreenenter"",""1"",""1842""
","
","
","""event"",""trial"",""time""
""fullscreenenter"",""1"",""1842""
","
","","[{""page_index"":0,""viewing_time"":5737.5},{""page_index"":1,""viewing_time"":8883.799999998882}]","14622","","","","","","","","","","","","","","","","","","","","","","","",""
"pit-trial","264","1592124","0.0-146.0","battery-v0.2","","""event"",""trial"",""time""
""fullscreenenter"",""1"",""1842""
","
","
","""event"",""trial"",""time""
""fullscreenenter"",""1"",""1842""
","
","","","1218.0999999996275","","","13","10677","5223","l","elianto","#3366ff99","-1"," ","0","0","[2074]","1","3","","","10677","141","1","2","win","no-go","0"
"pit-trial","265","1597001","0.0-147.0","battery-v0.2","","""event"",""trial"",""time""
""fullscreenenter"",""1"",""1842""
","
","
","""event"",""trial"",""time""
