"trial_type","trial_index","time_elapsed","internal_node_id","task_version","subject_id","interactions","blur_events","focus_events","fullscreenenter_events","fullscreenexit_events","success","view_history","rt","responses","num_errors","age","subject","participantId","rune","rune_set","hex","correct","choice","accuracy","outcome","keys","total_keys","block","practice","value","sub","trial","stimulus","robot","valence","action","sham"
"pavlovia","0","5","0.0-0.0","battery-v0.2","","""event"",""trial"",""time""
""fullscreenenter"",""1"",""1157""
","
","
","""event"",""trial"",""time""
""fullscreenenter"",""1"",""1157""
","
","","","","","","","","","","","","","","","","","","","","","","","","","","",""
"fullscreen","1","2146","0.0-1.0","battery-v0.2","","""event"",""trial"",""time""
""fullscreenenter"",""1"",""1157""
","
","
","""event"",""trial"",""time""
""fullscreenenter"",""1"",""1157""
","
","true","","","","","","","","","","","","","","","","","","","","","","","","","",""
"pit-instructions","2","8557","0.0-2.0-0.0","battery-v0.2","","""event"",""trial"",""time""
""fullscreenenter"",""1"",""1157""
","
","
","""event"",""trial"",""time""
""fullscreenenter"",""1"",""1157""
","
","","[{""page_index"":0,""viewing_time"":6409.0999999940395}]","6409.4000000059605","","","","","","","","","","","","","","","","","","","","","","","",""
"pit-comprehension","3","11151","0.0-2.0-1.0-0.0","battery-v0.2","","""event"",""trial"",""time""
""fullscreenenter"",""1"",""1157""
","
","
","""event"",""trial"",""time""
""fullscreenenter"",""1"",""1157""
","
","","","2591.5999999940395","[""shark""]","0","11","4366","625","","","","","","","","","","","","","","","","","","",""
"pit-instructions","4","12797","0.0-2.0-1.0-1.0","battery-v0.2","","""event"",""trial"",""time""
""fullscreenenter"",""1"",""1157""
","
","
","""event"",""trial"",""time""
""fullscreenenter"",""1"",""1157""
","
","","[{""page_index"":0,""viewing_time"":1641.800000011921}]","1641.9000000059605","","","","","","","","","","","","","","","","","","","","","","","",""
"pit-comprehension","5","16436","0.0-2.0-2.0-0.0","battery-v0.2","","""event"",""trial"",""time""
""fullscreenenter"",""1"",""1157""
","
","
","""event"",""trial"",""time""
""fullscreenenter"",""1"",""1157""
","
","","","3637.9000000059605","[""tiger""]","0","11","4366","625","","","","","","","","","","","","","","","","","","",""
"pit-instructions","6","17919","0.0-2.0-2.0-1.0","battery-v0.2","","""event"",""trial"",""time""
""fullscreenenter"",""1"",""1157""
","
","
","""event"",""trial"",""time""
""fullscreenenter"",""1"",""1157""
","
","","[{""page_index"":0,""viewing_time"":1481.0999999940395}]","1481.199999988079","","","","","","","","","","","","","","","","","","","","","","","",""
"pit-instructions","7","109819","0.0-2.0-3.0","battery-v0.2","","""event"",""trial"",""time""
""fullscreenenter"",""1"",""1157""
","
","
","""event"",""trial"",""time""
""fullscreenenter"",""1"",""1157""
","
","","[{""page_index"":0,""viewing_time"":9749.700000017881},{""page_index"":1,""viewing_time"":6089},{""page_index"":2,""viewing_time"":6480.799999982119},{""page_index"":3,""viewing_time"":5380.100000023842},{""page_index"":4,""viewing_time"":6170.199999988079},{""page_index"":5,""viewing_time"":5507.9000000059605},{""page_index"":6,""viewing_time"":5475.799999982119},{""page_index"":7,""viewing_time"":6225.100000023842},{""page_index"":8,""viewing_time"":7281.0999999940395},{""page_index"":9,""viewing_time"":8219.799999982119},{""page_index"":10,""viewing_time"":7479},{""page_index"":11,""viewing_time"":5756.9000000059605},{""page_index"":12,""viewing_time"":6174},{""page_index"":13,""viewing_time"":5909.300000011921}]","91898.90000000596","","","","","","","","","","","","","","","","","","","","","","","",""
"pit-trial","8","113329","0.0-2.0-4.0-0.0","battery-v0.2","","""event"",""trial"",""time""
""fullscreenenter"",""1"",""1157""
","
","
","""event"",""trial"",""time""
""fullscreenenter"",""1"",""1157""
","
","","","646.4000000059605","","","11","4366","625","&#9784;","elianto","#FFFFF080"," "," ","1","&#10004","[1498.0999999940395]","1","0","0","","","","","","","",""
"pit-trial","9","116664","0.0-2.0-4.1-0.1","battery-v0.2","","""event"",""trial"",""time""
""fullscreenenter"",""1"",""1157""
","
","
","""event"",""trial"",""time""
""fullscreenenter"",""1"",""1157""
","
","","","468.69999998807907","","","11","4366","625","&#9784;","elianto","#FFFFF080"," "," ","1","&#10004","[1325.199999988079]","1","0","0","","","","","","","",""
"pit-trial","10","120041","0.0-2.0-4.2-0.2","battery-v0.2","","""event"",""trial"",""time""
""fullscreenenter"",""1"",""1157""
","
","
","""event"",""trial"",""time""
""fullscreenenter"",""1"",""1157""
","
","","","517.5999999940395","","","11","4366","625","&#9784;","elianto","#FFFFF080"," "," ","1","&#10004","[1373.5999999940395]","1","0","0","","","","","","","",""
"pit-trial","11","124129","0.0-2.0-4.3-0.3","battery-v0.2","","""event"",""trial"",""time""
""fullscreenenter"",""1"",""1157""
","
","
","""event"",""trial"",""time""
""fullscreenenter"",""1"",""1157""
","
","","","1208.0999999940395","","","11","4366","625","&#9784;","elianto","#FFFFF080"," "," ","1","&#10004","[753.0999999940395,2065.0999999940395]","2","0","0","","","","","","","",""
"pit-trial","12","127379","0.0-2.0-4.4-0.4","battery-v0.2","","""event"",""trial"",""time""
""fullscreenenter"",""1"",""1157""
","
","
","""event"",""trial"",""time""
""fullscreenenter"",""1"",""1157""
","
","","","390.90000000596046","","","11","4366","625","&#9784;","elianto","#FFFFF080"," "," ","1","&#10004","[1248.4000000059605]","1","0","0","","","","","","","",""
"pit-instructions","13","149434","0.0-2.0-5.0","battery-v0.2","","""event"",""trial"",""time""
""fullscreenenter"",""1"",""1157""
","
","
","""event"",""trial"",""time""
""fullscreenenter"",""1"",""1157""
","
","","[{""page_index"":0,""viewing_time"":5860.699999988079},{""page_index"":1,""viewing_time"":5884.800000011921},{""page_index"":2,""viewing_time"":4527.9000000059605},{""page_index"":3,""viewing_time"":5780.299999982119}]","22053.90000000596","","","","","","","","","","","","","","","","","","","","","","","",""
"pit-trial","14","154303","0.0-2.0-6.0-0.0","battery-v0.2","","""event"",""trial"",""time""
""fullscreenenter"",""1"",""1157""
","
","
","""event"",""trial"",""time""
""fullscreenenter"",""1"",""1157""
","
","","","-1","","","11","4366","625","&#9854;","elianto","#FFFFF080","-1","-1","1","&#10004","[]","0","0","1","","","","","","","",""
"pit-trial","15","157776","0.0-2.0-6.1-0.1","battery-v0.2","","""event"",""trial"",""time""
""fullscreenenter"",""1"",""1157""
""blur"",""16"",""161082""
","""event"",""trial"",""time""
""blur"",""16"",""161082""
","
","""event"",""trial"",""time""
""fullscreenenter"",""1"",""1157""
","
","","","607.0999999940395","","","11","4366","625","&#9854;","elianto","#FFFFF080","-1"," ","0","&#10060","[1457.199999988079]","1","0","1","","","","","","","",""
"pit-trial","16","162642","0.0-2.0-6.2-0.2","battery-v0.2","","""event"",""trial"",""time""
""fullscreenenter"",""1"",""1157""
""blur"",""16"",""161082""
","""event"",""trial"",""time""
""blur"",""16"",""161082""
","
","""event"",""trial"",""time""
""fullscreenenter"",""1"",""1157""
","
","","","-1","","","11","4366","625","&#9854;","elianto","#FFFFF080","-1","-1","1","&#10004","[]","0","0","1","","","","","","","",""
"pit-trial","17","167514","0.0-2.0-6.3-0.3","battery-v0.2","","""event"",""trial"",""time""
""fullscreenenter"",""1"",""1157""
""blur"",""16"",""161082""
","""event"",""trial"",""time""
""blur"",""16"",""161082""
","
","""event"",""trial"",""time""
""fullscreenenter"",""1"",""1157""
","
","","","-1","","","11","4366","625","&#9854;","elianto","#FFFFF080","-1","-1","1","&#10004","[]","0","0","1","","","","","","","",""
"pit-trial","18","172384","0.0-2.0-6.4-0.4","battery-v0.2","","""event"",""trial"",""time""
""fullscreenenter"",""1"",""1157""
""blur"",""16"",""161082""
""focus"",""19"",""193657""
""blur"",""19"",""240531""
""focus"",""19"",""242756""
""blur"",""19"",""259226""
""focus"",""19"",""264619""
""blur"",""19"",""265937""
""focus"",""19"",""282848""
""blur"",""19"",""284887""
""focus"",""19"",""295301""
""blur"",""19"",""299508""
""focus"",""19"",""313430""
","""event"",""trial"",""time""
""blur"",""16"",""161082""
""blur"",""19"",""240531""
""blur"",""19"",""259226""
""blur"",""19"",""265937""
""blur"",""19"",""284887""
""blur"",""19"",""299508""
","""event"",""trial"",""time""
""focus"",""19"",""193657""
""focus"",""19"",""242756""
""focus"",""19"",""264619""
""focus"",""19"",""282848""
""focus"",""19"",""295301""
""focus"",""19"",""313430""
","""event"",""trial"",""time""
""fullscreenenter"",""1"",""1157""
","
","","","-1","","","11","4366","625","&#9854;","elianto","#FFFFF080","-1","-1","1","&#10004","[]","0","0","1","","","","","","","",""
"pit-instructions","19","349359","0.0-2.0-7.0","battery-v0.2","","""event"",""trial"",""time""
""fullscreenenter"",""1"",""1157""
""blur"",""16"",""161082""
""focus"",""19"",""193657""
""blur"",""19"",""240531""
""focus"",""19"",""242756""
""blur"",""19"",""259226""
""focus"",""19"",""264619""
""blur"",""19"",""265937""
""focus"",""19"",""282848""
""blur"",""19"",""284887""
""focus"",""19"",""295301""
""blur"",""19"",""299508""
""focus"",""19"",""313430""
","""event"",""trial"",""time""
""blur"",""16"",""161082""
""blur"",""19"",""240531""
""blur"",""19"",""259226""
""blur"",""19"",""265937""
""blur"",""19"",""284887""
""blur"",""19"",""299508""
","""event"",""trial"",""time""
""focus"",""19"",""193657""
""focus"",""19"",""242756""
""focus"",""19"",""264619""
""focus"",""19"",""282848""
""focus"",""19"",""295301""
""focus"",""19"",""313430""
","""event"",""trial"",""time""
""fullscreenenter"",""1"",""1157""
","
","","[{""page_index"":0,""viewing_time"":21600.40000000596},{""page_index"":1,""viewing_time"":6194.799999982119},{""page_index"":2,""viewing_time"":5608.9000000059605},{""page_index"":3,""viewing_time"":5693.0999999940395},{""page_index"":4,""viewing_time"":5347.200000017881},{""page_index"":5,""viewing_time"":5801.0999999940395},{""page_index"":6,""viewing_time"":4482.9000000059605},{""page_index"":7,""viewing_time"":7354.799999982119},{""page_index"":8,""viewing_time"":8687.100000023842},{""page_index"":9,""viewing_time"":5332},{""page_index"":10,""viewing_time"":7524.699999988079},{""page_index"":11,""viewing_time"":8700.90000000596},{""page_index"":12,""viewing_time"":18226},{""page_index"":13,""viewing_time"":12459.09999999404},{""page_index"":14,""viewing_time"":18160},{""page_index"":15,""viewing_time"":16043},{""page_index"":16,""viewing_time"":13332.699999988079},{""page_index"":17,""viewing_time"":6425.200000017881}]","176974","","","","","","","","","","","","","","","","","","","","","","","",""
"pit-trial","20","352723","0.0-2.0-8.0-0.0","battery-v0.2","","""event"",""trial"",""time""
""fullscreenenter"",""1"",""1157""
""blur"",""16"",""161082""
""focus"",""19"",""193657""
""blur"",""19"",""240531""
""focus"",""19"",""242756""
""blur"",""19"",""259226""
""focus"",""19"",""264619""
""blur"",""19"",""265937""
""focus"",""19"",""282848""
""blur"",""19"",""284887""
""focus"",""19"",""295301""
""blur"",""19"",""299508""
""focus"",""19"",""313430""
","""event"",""trial"",""time""
""blur"",""16"",""161082""
""blur"",""19"",""240531""
""blur"",""19"",""259226""
""blur"",""19"",""265937""
""blur"",""19"",""284887""
""blur"",""19"",""299508""
","""event"",""trial"",""time""
""focus"",""19"",""193657""
""focus"",""19"",""242756""
""focus"",""19"",""264619""
""focus"",""19"",""282848""
""focus"",""19"",""295301""
""focus"",""19"",""313430""
","""event"",""trial"",""time""
""fullscreenenter"",""1"",""1157""
","
","","","502.90000000596046","","","11","4366","625","&#9776;","elianto","#3366ff99"," "," ","1","+10","[1354.2999999821186]","1","0","1","","","","","","","",""
"pit-trial","21","355999","0.0-2.0-8.0-1.0","battery-v0.2","","""event"",""trial"",""time""
""fullscreenenter"",""1"",""1157""
""blur"",""16"",""161082""
""focus"",""19"",""193657""
""blur"",""19"",""240531""
""focus"",""19"",""242756""
""blur"",""19"",""259226""
""focus"",""19"",""264619""
""blur"",""19"",""265937""
""focus"",""19"",""282848""
""blur"",""19"",""284887""
""focus"",""19"",""295301""
""blur"",""19"",""299508""
""focus"",""19"",""313430""
","""event"",""trial"",""time""
""blur"",""16"",""161082""
""blur"",""19"",""240531""
""blur"",""19"",""259226""
""blur"",""19"",""265937""
""blur"",""19"",""284887""
""blur"",""19"",""299508""
","""event"",""trial"",""time""
""focus"",""19"",""193657""
""focus"",""19"",""242756""
""focus"",""19"",""264619""
""focus"",""19"",""282848""
""focus"",""19"",""295301""
""focus"",""19"",""313430""
","""event"",""trial"",""time""
""fullscreenenter"",""1"",""1157""
","
","","","414.90000000596046","","","11","4366","625","&#9776;","elianto","#3366ff99"," "," ","1","+10","[1269.199999988079]","1","0","1","","","","","","","",""
"pit-trial","22","359245","0.0-2.0-8.0-2.0","battery-v0.2","","""event"",""trial"",""time""
""fullscreenenter"",""1"",""1157""
""blur"",""16"",""161082""
""focus"",""19"",""193657""
""blur"",""19"",""240531""
""focus"",""19"",""242756""
""blur"",""19"",""259226""
""focus"",""19"",""264619""
""blur"",""19"",""265937""
""focus"",""19"",""282848""
""blur"",""19"",""284887""
""focus"",""19"",""295301""
""blur"",""19"",""299508""
""focus"",""19"",""313430""
","""event"",""trial"",""time""
""blur"",""16"",""161082""
""blur"",""19"",""240531""
""blur"",""19"",""259226""
""blur"",""19"",""265937""
""blur"",""19"",""284887""
""blur"",""19"",""299508""
","""event"",""trial"",""time""
""focus"",""19"",""193657""
""focus"",""19"",""242756""
""focus"",""19"",""264619""
""focus"",""19"",""282848""
""focus"",""19"",""295301""
""focus"",""19"",""313430""
","""event"",""trial"",""time""
""fullscreenenter"",""1"",""1157""
","
","","","385.7000000178814","","","11","4366","625","&#9776;","elianto","#3366ff99"," "," ","1","+10","[1235.9000000059605]","1","0","1","","","","","","","",""
"pit-trial","23","362509","0.0-2.0-8.0-3.0","battery-v0.2","","""event"",""trial"",""time""
""fullscreenenter"",""1"",""1157""
""blur"",""16"",""161082""
""focus"",""19"",""193657""
""blur"",""19"",""240531""
""focus"",""19"",""242756""
""blur"",""19"",""259226""
""focus"",""19"",""264619""
""blur"",""19"",""265937""
""focus"",""19"",""282848""
""blur"",""19"",""284887""
""focus"",""19"",""295301""
""blur"",""19"",""299508""
""focus"",""19"",""313430""
","""event"",""trial"",""time""
""blur"",""16"",""161082""
""blur"",""19"",""240531""
""blur"",""19"",""259226""
""blur"",""19"",""265937""
""blur"",""19"",""284887""
""blur"",""19"",""299508""
","""event"",""trial"",""time""
""focus"",""19"",""193657""
""focus"",""19"",""242756""
""focus"",""19"",""264619""
""focus"",""19"",""282848""
""focus"",""19"",""295301""
""focus"",""19"",""313430""
","""event"",""trial"",""time""
""fullscreenenter"",""1"",""1157""
","
","","","391.59999999403954","","","11","4366","625","&#9776;","elianto","#3366ff99"," "," ","1","0","[1244.5]","1","0","1","","","","","","","",""
"pit-trial","24","365867","0.0-2.0-8.0-4.0","battery-v0.2","","""event"",""trial"",""time""
""fullscreenenter"",""1"",""1157""
""blur"",""16"",""161082""
""focus"",""19"",""193657""
""blur"",""19"",""240531""
""focus"",""19"",""242756""
""blur"",""19"",""259226""
""focus"",""19"",""264619""
""blur"",""19"",""265937""
""focus"",""19"",""282848""
""blur"",""19"",""284887""
""focus"",""19"",""295301""
""blur"",""19"",""299508""
""focus"",""19"",""313430""
","""event"",""trial"",""time""
""blur"",""16"",""161082""
""blur"",""19"",""240531""
""blur"",""19"",""259226""
""blur"",""19"",""265937""
""blur"",""19"",""284887""
""blur"",""19"",""299508""
","""event"",""trial"",""time""
""focus"",""19"",""193657""
""focus"",""19"",""242756""
""focus"",""19"",""264619""
""focus"",""19"",""282848""
""focus"",""19"",""295301""
""focus"",""19"",""313430""
","""event"",""trial"",""time""
""fullscreenenter"",""1"",""1157""
","
","","","486.7999999821186","","","11","4366","625","&#9776;","elianto","#3366ff99"," "," ","1","+10","[1339.8999999761581]","1","0","1","","","","","","","",""
"pit-trial","25","369132","0.0-2.0-8.1-0.1","battery-v0.2","","""event"",""trial"",""time""
""fullscreenenter"",""1"",""1157""
""blur"",""16"",""161082""
""focus"",""19"",""193657""
""blur"",""19"",""240531""
""focus"",""19"",""242756""
""blur"",""19"",""259226""
""focus"",""19"",""264619""
""blur"",""19"",""265937""
""focus"",""19"",""282848""
""blur"",""19"",""284887""
""focus"",""19"",""295301""
""blur"",""19"",""299508""
""focus"",""19"",""313430""
","""event"",""trial"",""time""
""blur"",""16"",""161082""
""blur"",""19"",""240531""
""blur"",""19"",""259226""
""blur"",""19"",""265937""
""blur"",""19"",""284887""
""blur"",""19"",""299508""
","""event"",""trial"",""time""
""focus"",""19"",""193657""
""focus"",""19"",""242756""
""focus"",""19"",""264619""
""focus"",""19"",""282848""
""focus"",""19"",""295301""
""focus"",""19"",""313430""
","""event"",""trial"",""time""
""fullscreenenter"",""1"",""1157""
","
","","","397.59999999403954","","","11","4366","625","&#9776;","elianto","#3366ff99"," "," ","1","+10","[1253]","1","0","1","","","","","","","",""
"pit-trial","26","372960","0.0-2.0-8.1-1.1","battery-v0.2","","""event"",""trial"",""time""
""fullscreenenter"",""1"",""1157""
""blur"",""16"",""161082""
""focus"",""19"",""193657""
""blur"",""19"",""240531""
""focus"",""19"",""242756""
""blur"",""19"",""259226""
""focus"",""19"",""264619""
""blur"",""19"",""265937""
""focus"",""19"",""282848""
""blur"",""19"",""284887""
""focus"",""19"",""295301""
""blur"",""19"",""299508""
""focus"",""19"",""313430""
","""event"",""trial"",""time""
""blur"",""16"",""161082""
""blur"",""19"",""240531""
""blur"",""19"",""259226""
""blur"",""19"",""265937""
""blur"",""19"",""284887""
""blur"",""19"",""299508""
","""event"",""trial"",""time""
""focus"",""19"",""193657""
""focus"",""19"",""242756""
""focus"",""19"",""264619""
""focus"",""19"",""282848""
""focus"",""19"",""295301""
""focus"",""19"",""313430""
","""event"",""trial"",""time""
""fullscreenenter"",""1"",""1157""
","
","","","960.2000000178814","","","11","4366","625","&#9776;","elianto","#3366ff99"," "," ","1","+10","[1810.5999999940395]","1","0","1","","","","","","","",""
"pit-trial","27","376612","0.0-2.0-8.1-2.1","battery-v0.2","","""event"",""trial"",""time""
""fullscreenenter"",""1"",""1157""
""blur"",""16"",""161082""
""focus"",""19"",""193657""
""blur"",""19"",""240531""
""focus"",""19"",""242756""
""blur"",""19"",""259226""
""focus"",""19"",""264619""
""blur"",""19"",""265937""
""focus"",""19"",""282848""
""blur"",""19"",""284887""
""focus"",""19"",""295301""
""blur"",""19"",""299508""
""focus"",""19"",""313430""
","""event"",""trial"",""time""
""blur"",""16"",""161082""
""blur"",""19"",""240531""
""blur"",""19"",""259226""
""blur"",""19"",""265937""
""blur"",""19"",""284887""
""blur"",""19"",""299508""
","""event"",""trial"",""time""
""focus"",""19"",""193657""
""focus"",""19"",""242756""
""focus"",""19"",""264619""
""focus"",""19"",""282848""
""focus"",""19"",""295301""
""focus"",""19"",""313430""
","""event"",""trial"",""time""
""fullscreenenter"",""1"",""1157""
","
","","","788","","","11","4366","625","&#9776;","elianto","#3366ff99"," "," ","1","+10","[1643.2999999821186]","1","0","1","","","","","","","",""
"pit-trial","28","381482","0.0-2.0-8.1-3.1","battery-v0.2","","""event"",""trial"",""time""
""fullscreenenter"",""1"",""1157""
""blur"",""16"",""161082""
""focus"",""19"",""193657""
""blur"",""19"",""240531""
""focus"",""19"",""242756""
""blur"",""19"",""259226""
""focus"",""19"",""264619""
""blur"",""19"",""265937""
""focus"",""19"",""282848""
""blur"",""19"",""284887""
""focus"",""19"",""295301""
""blur"",""19"",""299508""
""focus"",""19"",""313430""
","""event"",""trial"",""time""
""blur"",""16"",""161082""
""blur"",""19"",""240531""
""blur"",""19"",""259226""
""blur"",""19"",""265937""
""blur"",""19"",""284887""
""blur"",""19"",""299508""
","""event"",""trial"",""time""
""focus"",""19"",""193657""
""focus"",""19"",""242756""
""focus"",""19"",""264619""
""focus"",""19"",""282848""
""focus"",""19"",""295301""
""focus"",""19"",""313430""
","""event"",""trial"",""time""
""fullscreenenter"",""1"",""1157""
","
","","","-1","","","11","4366","625","&#9776;","elianto","#3366ff99"," ","-1","0","+10","[2868.800000011921]","1","0","1","","","","","","","",""
"pit-trial","29","385199","0.0-2.0-8.1-4.1","battery-v0.2","","""event"",""trial"",""time""
""fullscreenenter"",""1"",""1157""
""blur"",""16"",""161082""
""focus"",""19"",""193657""
""blur"",""19"",""240531""
""focus"",""19"",""242756""
""blur"",""19"",""259226""
""focus"",""19"",""264619""
""blur"",""19"",""265937""
""focus"",""19"",""282848""
""blur"",""19"",""284887""
""focus"",""19"",""295301""
""blur"",""19"",""299508""
""focus"",""19"",""313430""
","""event"",""trial"",""time""
""blur"",""16"",""161082""
""blur"",""19"",""240531""
""blur"",""19"",""259226""
""blur"",""19"",""265937""
""blur"",""19"",""284887""
""blur"",""19"",""299508""
","""event"",""trial"",""time""
""focus"",""19"",""193657""
""focus"",""19"",""242756""
""focus"",""19"",""264619""
""focus"",""19"",""282848""
""focus"",""19"",""295301""
""focus"",""19"",""313430""
","""event"",""trial"",""time""
""fullscreenenter"",""1"",""1157""
","
","","","860.3000000119209","","","11","4366","625","&#9776;","elianto","#3366ff99"," "," ","1","+10","[1715.699999988079]","1","0","1","","","","","","","",""
"pit-trial","30","388578","0.0-2.0-8.2-0.2","battery-v0.2","","""event"",""trial"",""time""
""fullscreenenter"",""1"",""1157""
""blur"",""16"",""161082""
""focus"",""19"",""193657""
""blur"",""19"",""240531""
""focus"",""19"",""242756""
""blur"",""19"",""259226""
""focus"",""19"",""264619""
""blur"",""19"",""265937""
""focus"",""19"",""282848""
""blur"",""19"",""284887""
""focus"",""19"",""295301""
""blur"",""19"",""299508""
""focus"",""19"",""313430""
","""event"",""trial"",""time""
""blur"",""16"",""161082""
""blur"",""19"",""240531""
""blur"",""19"",""259226""
""blur"",""19"",""265937""
""blur"",""19"",""284887""
""blur"",""19"",""299508""
","""event"",""trial"",""time""
""focus"",""19"",""193657""
""focus"",""19"",""242756""
""focus"",""19"",""264619""
""focus"",""19"",""282848""
""focus"",""19"",""295301""
""focus"",""19"",""313430""
","""event"",""trial"",""time""
""fullscreenenter"",""1"",""1157""
","
","","","515.5999999940395","","","11","4366","625","&#9776;","elianto","#3366ff99"," "," ","1","+10","[1374.4000000059605]","1","0","1","","","","","","","",""
"pit-trial","31","391459","0.0-2.0-8.2-1.2","battery-v0.2","","""event"",""trial"",""time""
""fullscreenenter"",""1"",""1157""
""blur"",""16"",""161082""
""focus"",""19"",""193657""
""blur"",""19"",""240531""
""focus"",""19"",""242756""
""blur"",""19"",""259226""
""focus"",""19"",""264619""
""blur"",""19"",""265937""
""focus"",""19"",""282848""
""blur"",""19"",""284887""
""focus"",""19"",""295301""
""blur"",""19"",""299508""
""focus"",""19"",""313430""
","""event"",""trial"",""time""
""blur"",""16"",""161082""
""blur"",""19"",""240531""
""blur"",""19"",""259226""
""blur"",""19"",""265937""
""blur"",""19"",""284887""
""blur"",""19"",""299508""
","""event"",""trial"",""time""
""focus"",""19"",""193657""
""focus"",""19"",""242756""
""focus"",""19"",""264619""
""focus"",""19"",""282848""
""focus"",""19"",""295301""
""focus"",""19"",""313430""
","""event"",""trial"",""time""
""fullscreenenter"",""1"",""1157""
","
","","","19.400000005960464","","","11","4366","625","&#9776;","elianto","#3366ff99"," "," ","1","+10","[872.2000000178814]","1","0","1","","","","","","","",""
"pit-trial","32","395019","0.0-2.0-8.2-2.2","battery-v0.2","","""event"",""trial"",""time""
""fullscreenenter"",""1"",""1157""
""blur"",""16"",""161082""
""focus"",""19"",""193657""
""blur"",""19"",""240531""
""focus"",""19"",""242756""
""blur"",""19"",""259226""
""focus"",""19"",""264619""
""blur"",""19"",""265937""
""focus"",""19"",""282848""
""blur"",""19"",""284887""
""focus"",""19"",""295301""
""blur"",""19"",""299508""
""focus"",""19"",""313430""
","""event"",""trial"",""time""
""blur"",""16"",""161082""
""blur"",""19"",""240531""
""blur"",""19"",""259226""
""blur"",""19"",""265937""
""blur"",""19"",""284887""
""blur"",""19"",""299508""
","""event"",""trial"",""time""
""focus"",""19"",""193657""
""focus"",""19"",""242756""
""focus"",""19"",""264619""
""focus"",""19"",""282848""
""focus"",""19"",""295301""
""focus"",""19"",""313430""
","""event"",""trial"",""time""
""fullscreenenter"",""1"",""1157""
","
","","","696.7000000178814","","","11","4366","625","&#9776;","elianto","#3366ff99"," "," ","1","+10","[449.2000000178814,1551.2000000178814]","2","0","1","","","","","","","",""
"pit-trial","33","398316","0.0-2.0-8.2-3.2","battery-v0.2","","""event"",""trial"",""time""
""fullscreenenter"",""1"",""1157""
""blur"",""16"",""161082""
""focus"",""19"",""193657""
""blur"",""19"",""240531""
""focus"",""19"",""242756""
""blur"",""19"",""259226""
""focus"",""19"",""264619""
""blur"",""19"",""265937""
""focus"",""19"",""282848""
""blur"",""19"",""284887""
""focus"",""19"",""295301""
""blur"",""19"",""299508""
""focus"",""19"",""313430""
","""event"",""trial"",""time""
""blur"",""16"",""161082""
""blur"",""19"",""240531""
""blur"",""19"",""259226""
""blur"",""19"",""265937""
""blur"",""19"",""284887""
""blur"",""19"",""299508""
","""event"",""trial"",""time""
""focus"",""19"",""193657""
""focus"",""19"",""242756""
""focus"",""19"",""264619""
""focus"",""19"",""282848""
""focus"",""19"",""295301""
""focus"",""19"",""313430""
","""event"",""trial"",""time""
""fullscreenenter"",""1"",""1157""
","
","","","437.80000001192093","","","11","4366","625","&#9776;","elianto","#3366ff99"," "," ","1","0","[338.10000002384186,1292.2000000178814,2521.2000000178814]","3","0","1","","","","","","","",""
"pit-trial","34","401876","0.0-2.0-8.2-4.2","battery-v0.2","","""event"",""trial"",""time""
""fullscreenenter"",""1"",""1157""
""blur"",""16"",""161082""
""focus"",""19"",""193657""
""blur"",""19"",""240531""
""focus"",""19"",""242756""
""blur"",""19"",""259226""
""focus"",""19"",""264619""
""blur"",""19"",""265937""
""focus"",""19"",""282848""
""blur"",""19"",""284887""
""focus"",""19"",""295301""
""blur"",""19"",""299508""
""focus"",""19"",""313430""
","""event"",""trial"",""time""
""blur"",""16"",""161082""
""blur"",""19"",""240531""
""blur"",""19"",""259226""
""blur"",""19"",""265937""
""blur"",""19"",""284887""
""blur"",""19"",""299508""
","""event"",""trial"",""time""
""focus"",""19"",""193657""
""focus"",""19"",""242756""
""focus"",""19"",""264619""
""focus"",""19"",""282848""
""focus"",""19"",""295301""
""focus"",""19"",""313430""
","""event"",""trial"",""time""
""fullscreenenter"",""1"",""1157""
","
","","","700.3000000119209","","","11","4366","625","&#9776;","elianto","#3366ff99"," "," ","1","+10","[1555]","1","0","1","","","","","","","",""
"call-function","35","401876","0.0-2.0-9.0","battery-v0.2","","""event"",""trial"",""time""
""fullscreenenter"",""1"",""1157""
""blur"",""16"",""161082""
""focus"",""19"",""193657""
""blur"",""19"",""240531""
""focus"",""19"",""242756""
""blur"",""19"",""259226""
""focus"",""19"",""264619""
""blur"",""19"",""265937""
""focus"",""19"",""282848""
""blur"",""19"",""284887""
""focus"",""19"",""295301""
""blur"",""19"",""299508""
""focus"",""19"",""313430""
""blur"",""36"",""424222""
""focus"",""36"",""427172""
""blur"",""36"",""430883""
""focus"",""36"",""472487""
","""event"",""trial"",""time""
""blur"",""16"",""161082""
""blur"",""19"",""240531""
""blur"",""19"",""259226""
""blur"",""19"",""265937""
""blur"",""19"",""284887""
""blur"",""19"",""299508""
""blur"",""36"",""424222""
""blur"",""36"",""430883""
","""event"",""trial"",""time""
""focus"",""19"",""193657""
""focus"",""19"",""242756""
""focus"",""19"",""264619""
""focus"",""19"",""282848""
""focus"",""19"",""295301""
""focus"",""19"",""313430""
""focus"",""36"",""427172""
""focus"",""36"",""472487""
","""event"",""trial"",""time""
""fullscreenenter"",""1"",""1157""
","
","","","","","","","","","","","","","","","","","","","","","","","","","","",""
"pit-instructions","36","481193","0.0-2.0-10.0","battery-v0.2","","""event"",""trial"",""time""
""fullscreenenter"",""1"",""1157""
""blur"",""16"",""161082""
""focus"",""19"",""193657""
""blur"",""19"",""240531""
""focus"",""19"",""242756""
""blur"",""19"",""259226""
""focus"",""19"",""264619""
""blur"",""19"",""265937""
""focus"",""19"",""282848""
""blur"",""19"",""284887""
""focus"",""19"",""295301""
""blur"",""19"",""299508""
""focus"",""19"",""313430""
""blur"",""36"",""424222""
""focus"",""36"",""427172""
""blur"",""36"",""430883""
""focus"",""36"",""472487""
","""event"",""trial"",""time""
""blur"",""16"",""161082""
""blur"",""19"",""240531""
""blur"",""19"",""259226""
""blur"",""19"",""265937""
""blur"",""19"",""284887""
""blur"",""19"",""299508""
""blur"",""36"",""424222""
""blur"",""36"",""430883""
","""event"",""trial"",""time""
""focus"",""19"",""193657""
""focus"",""19"",""242756""
""focus"",""19"",""264619""
""focus"",""19"",""282848""
""focus"",""19"",""295301""
""focus"",""19"",""313430""
""focus"",""36"",""427172""
""focus"",""36"",""472487""
","""event"",""trial"",""time""
""fullscreenenter"",""1"",""1157""
","
","","[{""page_index"":0,""viewing_time"":5817.5999999940395},{""page_index"":1,""viewing_time"":8044.0999999940395},{""page_index"":2,""viewing_time"":11520.700000017881},{""page_index"":3,""viewing_time"":46798.09999999404},{""page_index"":4,""viewing_time"":7135.799999982119}]","79316.5","","","","","","","","","","","","","","","","","","","","","","","",""
"pit-trial","37","486074","0.0-2.0-11.0-0.0","battery-v0.2","","""event"",""trial"",""time""
""fullscreenenter"",""1"",""1157""
""blur"",""16"",""161082""
""focus"",""19"",""193657""
""blur"",""19"",""240531""
""focus"",""19"",""242756""
""blur"",""19"",""259226""
""focus"",""19"",""264619""
""blur"",""19"",""265937""
""focus"",""19"",""282848""
""blur"",""19"",""284887""
""focus"",""19"",""295301""
""blur"",""19"",""299508""
""focus"",""19"",""313430""
""blur"",""36"",""424222""
""focus"",""36"",""427172""
""blur"",""36"",""430883""
""focus"",""36"",""472487""
","""event"",""trial"",""time""
""blur"",""16"",""161082""
""blur"",""19"",""240531""
""blur"",""19"",""259226""
""blur"",""19"",""265937""
""blur"",""19"",""284887""
""blur"",""19"",""299508""
""blur"",""36"",""424222""
""blur"",""36"",""430883""
","""event"",""trial"",""time""
""focus"",""19"",""193657""
""focus"",""19"",""242756""
""focus"",""19"",""264619""
""focus"",""19"",""282848""
""focus"",""19"",""295301""
""focus"",""19"",""313430""
""focus"",""36"",""427172""
""focus"",""36"",""472487""
","""event"",""trial"",""time""
""fullscreenenter"",""1"",""1157""
","
","","","-1","","","11","4366","625","&#9761;","elianto","#3366ff99","-1","-1","1","+10","[]","0","0","2","","","","","","","",""
"pit-trial","38","490951","0.0-2.0-11.0-1.0","battery-v0.2","","""event"",""trial"",""time""
""fullscreenenter"",""1"",""1157""
""blur"",""16"",""161082""
""focus"",""19"",""193657""
""blur"",""19"",""240531""
""focus"",""19"",""242756""
""blur"",""19"",""259226""
""focus"",""19"",""264619""
""blur"",""19"",""265937""
""focus"",""19"",""282848""
""blur"",""19"",""284887""
""focus"",""19"",""295301""
""blur"",""19"",""299508""
""focus"",""19"",""313430""
""blur"",""36"",""424222""
""focus"",""36"",""427172""
""blur"",""36"",""430883""
""focus"",""36"",""472487""
","""event"",""trial"",""time""
""blur"",""16"",""161082""
""blur"",""19"",""240531""
""blur"",""19"",""259226""
""blur"",""19"",""265937""
""blur"",""19"",""284887""
""blur"",""19"",""299508""
""blur"",""36"",""424222""
""blur"",""36"",""430883""
","""event"",""trial"",""time""
""focus"",""19"",""193657""
""focus"",""19"",""242756""
""focus"",""19"",""264619""
""focus"",""19"",""282848""
""focus"",""19"",""295301""
""focus"",""19"",""313430""
""focus"",""36"",""427172""
""focus"",""36"",""472487""
","""event"",""trial"",""time""
""fullscreenenter"",""1"",""1157""
","
","","","-1","","","11","4366","625","&#9761;","elianto","#3366ff99","-1","-1","1","+10","[]","0","0","2","","","","","","","",""
"pit-trial","39","495823","0.0-2.0-11.0-2.0","battery-v0.2","","""event"",""trial"",""time""
""fullscreenenter"",""1"",""1157""
""blur"",""16"",""161082""
""focus"",""19"",""193657""
""blur"",""19"",""240531""
""focus"",""19"",""242756""
""blur"",""19"",""259226""
""focus"",""19"",""264619""
""blur"",""19"",""265937""
""focus"",""19"",""282848""
""blur"",""19"",""284887""
""focus"",""19"",""295301""
""blur"",""19"",""299508""
""focus"",""19"",""313430""
""blur"",""36"",""424222""
""focus"",""36"",""427172""
""blur"",""36"",""430883""
""focus"",""36"",""472487""
","""event"",""trial"",""time""
""blur"",""16"",""161082""
""blur"",""19"",""240531""
""blur"",""19"",""259226""
""blur"",""19"",""265937""
""blur"",""19"",""284887""
""blur"",""19"",""299508""
""blur"",""36"",""424222""
""blur"",""36"",""430883""
","""event"",""trial"",""time""
""focus"",""19"",""193657""
""focus"",""19"",""242756""
""focus"",""19"",""264619""
""focus"",""19"",""282848""
""focus"",""19"",""295301""
""focus"",""19"",""313430""
""focus"",""36"",""427172""
""focus"",""36"",""472487""
","""event"",""trial"",""time""
""fullscreenenter"",""1"",""1157""
","
","","","-1","","","11","4366","625","&#9761;","elianto","#3366ff99","-1","-1","1","+10","[]","0","0","2","","","","","","","",""
"pit-trial","40","500695","0.0-2.0-11.0-3.0","battery-v0.2","","""event"",""trial"",""time""
""fullscreenenter"",""1"",""1157""
""blur"",""16"",""161082""
""focus"",""19"",""193657""
""blur"",""19"",""240531""
""focus"",""19"",""242756""
""blur"",""19"",""259226""
""focus"",""19"",""264619""
""blur"",""19"",""265937""
""focus"",""19"",""282848""
""blur"",""19"",""284887""
""focus"",""19"",""295301""
""blur"",""19"",""299508""
""focus"",""19"",""313430""
""blur"",""36"",""424222""
""focus"",""36"",""427172""
""blur"",""36"",""430883""
""focus"",""36"",""472487""
","""event"",""trial"",""time""
""blur"",""16"",""161082""
""blur"",""19"",""240531""
""blur"",""19"",""259226""
""blur"",""19"",""265937""
""blur"",""19"",""284887""
""blur"",""19"",""299508""
""blur"",""36"",""424222""
""blur"",""36"",""430883""
","""event"",""trial"",""time""
""focus"",""19"",""193657""
""focus"",""19"",""242756""
""focus"",""19"",""264619""
""focus"",""19"",""282848""
""focus"",""19"",""295301""
""focus"",""19"",""313430""
""focus"",""36"",""427172""
""focus"",""36"",""472487""
","""event"",""trial"",""time""
""fullscreenenter"",""1"",""1157""
","
","","","-1","","","11","4366","625","&#9761;","elianto","#3366ff99","-1","-1","1","0","[]","0","0","2","","","","","","","",""
"pit-trial","41","505559","0.0-2.0-11.0-4.0","battery-v0.2","","""event"",""trial"",""time""
""fullscreenenter"",""1"",""1157""
""blur"",""16"",""161082""
""focus"",""19"",""193657""
""blur"",""19"",""240531""
""focus"",""19"",""242756""
""blur"",""19"",""259226""
""focus"",""19"",""264619""
""blur"",""19"",""265937""
""focus"",""19"",""282848""
""blur"",""19"",""284887""
""focus"",""19"",""295301""
""blur"",""19"",""299508""
""focus"",""19"",""313430""
""blur"",""36"",""424222""
""focus"",""36"",""427172""
""blur"",""36"",""430883""
""focus"",""36"",""472487""
","""event"",""trial"",""time""
""blur"",""16"",""161082""
""blur"",""19"",""240531""
""blur"",""19"",""259226""
""blur"",""19"",""265937""
""blur"",""19"",""284887""
""blur"",""19"",""299508""
""blur"",""36"",""424222""
""blur"",""36"",""430883""
","""event"",""trial"",""time""
""focus"",""19"",""193657""
""focus"",""19"",""242756""
""focus"",""19"",""264619""
""focus"",""19"",""282848""
""focus"",""19"",""295301""
""focus"",""19"",""313430""
""focus"",""36"",""427172""
""focus"",""36"",""472487""
","""event"",""trial"",""time""
""fullscreenenter"",""1"",""1157""
","
","","","-1","","","11","4366","625","&#9761;","elianto","#3366ff99","-1","-1","1","+10","[]","0","0","2","","","","","","","",""
"pit-trial","42","510427","0.0-2.0-11.1-0.1","battery-v0.2","","""event"",""trial"",""time""
""fullscreenenter"",""1"",""1157""
""blur"",""16"",""161082""
""focus"",""19"",""193657""
""blur"",""19"",""240531""
""focus"",""19"",""242756""
""blur"",""19"",""259226""
""focus"",""19"",""264619""
""blur"",""19"",""265937""
""focus"",""19"",""282848""
""blur"",""19"",""284887""
""focus"",""19"",""295301""
""blur"",""19"",""299508""
""focus"",""19"",""313430""
""blur"",""36"",""424222""
""focus"",""36"",""427172""
""blur"",""36"",""430883""
""focus"",""36"",""472487""
""blur"",""43"",""514605""
","""event"",""trial"",""time""
""blur"",""16"",""161082""
""blur"",""19"",""240531""
""blur"",""19"",""259226""
""blur"",""19"",""265937""
""blur"",""19"",""284887""
""blur"",""19"",""299508""
""blur"",""36"",""424222""
""blur"",""36"",""430883""
""blur"",""43"",""514605""
","""event"",""trial"",""time""
""focus"",""19"",""193657""
""focus"",""19"",""242756""
""focus"",""19"",""264619""
""focus"",""19"",""282848""
""focus"",""19"",""295301""
""focus"",""19"",""313430""
""focus"",""36"",""427172""
""focus"",""36"",""472487""
","""event"",""trial"",""time""
""fullscreenenter"",""1"",""1157""
","
","","","-1","","","11","4366","625","&#9761;","elianto","#3366ff99","-1","-1","1","+10","[]","0","0","2","","","","","","","",""
"pit-trial","43","515291","0.0-2.0-11.1-1.1","battery-v0.2","","""event"",""trial"",""time""
""fullscreenenter"",""1"",""1157""
""blur"",""16"",""161082""
""focus"",""19"",""193657""
""blur"",""19"",""240531""
""focus"",""19"",""242756""
""blur"",""19"",""259226""
""focus"",""19"",""264619""
""blur"",""19"",""265937""
""focus"",""19"",""282848""
""blur"",""19"",""284887""
""focus"",""19"",""295301""
""blur"",""19"",""299508""
""focus"",""19"",""313430""
""blur"",""36"",""424222""
""focus"",""36"",""427172""
""blur"",""36"",""430883""
""focus"",""36"",""472487""
""blur"",""43"",""514605""
","""event"",""trial"",""time""
""blur"",""16"",""161082""
""blur"",""19"",""240531""
""blur"",""19"",""259226""
""blur"",""19"",""265937""
""blur"",""19"",""284887""
""blur"",""19"",""299508""
""blur"",""36"",""424222""
""blur"",""36"",""430883""
""blur"",""43"",""514605""
","""event"",""trial"",""time""
""focus"",""19"",""193657""
""focus"",""19"",""242756""
""focus"",""19"",""264619""
""focus"",""19"",""282848""
""focus"",""19"",""295301""
""focus"",""19"",""313430""
""focus"",""36"",""427172""
""focus"",""36"",""472487""
","""event"",""trial"",""time""
""fullscreenenter"",""1"",""1157""
","
","","","-1","","","11","4366","625","&#9761;","elianto","#3366ff99","-1","-1","1","+10","[]","0","0","2","","","","","","","",""
"pit-trial","44","520147","0.0-2.0-11.1-2.1","battery-v0.2","","""event"",""trial"",""time""
""fullscreenenter"",""1"",""1157""
""blur"",""16"",""161082""
""focus"",""19"",""193657""
""blur"",""19"",""240531""
""focus"",""19"",""242756""
""blur"",""19"",""259226""
""focus"",""19"",""264619""
""blur"",""19"",""265937""
""focus"",""19"",""282848""
""blur"",""19"",""284887""
""focus"",""19"",""295301""
""blur"",""19"",""299508""
""focus"",""19"",""313430""
""blur"",""36"",""424222""
""focus"",""36"",""427172""
""blur"",""36"",""430883""
""focus"",""36"",""472487""
""blur"",""43"",""514605""
","""event"",""trial"",""time""
""blur"",""16"",""161082""
""blur"",""19"",""240531""
""blur"",""19"",""259226""
""blur"",""19"",""265937""
""blur"",""19"",""284887""
""blur"",""19"",""299508""
""blur"",""36"",""424222""
""blur"",""36"",""430883""
""blur"",""43"",""514605""
","""event"",""trial"",""time""
""focus"",""19"",""193657""
""focus"",""19"",""242756""
""focus"",""19"",""264619""
""focus"",""19"",""282848""
""focus"",""19"",""295301""
""focus"",""19"",""313430""
""focus"",""36"",""427172""
""focus"",""36"",""472487""
","""event"",""trial"",""time""
""fullscreenenter"",""1"",""1157""
","
","","","-1","","","11","4366","625","&#9761;","elianto","#3366ff99","-1","-1","1","+10","[]","0","0","2","","","","","","","",""
"pit-trial","45","525012","0.0-2.0-11.1-3.1","battery-v0.2","","""event"",""trial"",""time""
""fullscreenenter"",""1"",""1157""
""blur"",""16"",""161082""
""focus"",""19"",""193657""
""blur"",""19"",""240531""
""focus"",""19"",""242756""
""blur"",""19"",""259226""
""focus"",""19"",""264619""
""blur"",""19"",""265937""
""focus"",""19"",""282848""
""blur"",""19"",""284887""
""focus"",""19"",""295301""
""blur"",""19"",""299508""
""focus"",""19"",""313430""
""blur"",""36"",""424222""
""focus"",""36"",""427172""
""blur"",""36"",""430883""
""focus"",""36"",""472487""
""blur"",""43"",""514605""
","""event"",""trial"",""time""
""blur"",""16"",""161082""
""blur"",""19"",""240531""
""blur"",""19"",""259226""
""blur"",""19"",""265937""
""blur"",""19"",""284887""
""blur"",""19"",""299508""
""blur"",""36"",""424222""
""blur"",""36"",""430883""
""blur"",""43"",""514605""
","""event"",""trial"",""time""
""focus"",""19"",""193657""
""focus"",""19"",""242756""
""focus"",""19"",""264619""
""focus"",""19"",""282848""
""focus"",""19"",""295301""
""focus"",""19"",""313430""
""focus"",""36"",""427172""
""focus"",""36"",""472487""
","""event"",""trial"",""time""
""fullscreenenter"",""1"",""1157""
","
","","","-1","","","11","4366","625","&#9761;","elianto","#3366ff99","-1","-1","1","0","[]","0","0","2","","","","","","","",""
"pit-trial","46","529875","0.0-2.0-11.1-4.1","battery-v0.2","","""event"",""trial"",""time""
""fullscreenenter"",""1"",""1157""
""blur"",""16"",""161082""
""focus"",""19"",""193657""
""blur"",""19"",""240531""
""focus"",""19"",""242756""
""blur"",""19"",""259226""
""focus"",""19"",""264619""
""blur"",""19"",""265937""
""focus"",""19"",""282848""
""blur"",""19"",""284887""
""focus"",""19"",""295301""
""blur"",""19"",""299508""
""focus"",""19"",""313430""
""blur"",""36"",""424222""
""focus"",""36"",""427172""
""blur"",""36"",""430883""
""focus"",""36"",""472487""
""blur"",""43"",""514605""
","""event"",""trial"",""time""
""blur"",""16"",""161082""
""blur"",""19"",""240531""
""blur"",""19"",""259226""
""blur"",""19"",""265937""
""blur"",""19"",""284887""
""blur"",""19"",""299508""
""blur"",""36"",""424222""
""blur"",""36"",""430883""
""blur"",""43"",""514605""
","""event"",""trial"",""time""
""focus"",""19"",""193657""
""focus"",""19"",""242756""
""focus"",""19"",""264619""
""focus"",""19"",""282848""
""focus"",""19"",""295301""
""focus"",""19"",""313430""
""focus"",""36"",""427172""
""focus"",""36"",""472487""
","""event"",""trial"",""time""
""fullscreenenter"",""1"",""1157""
","
","","","-1","","","11","4366","625","&#9761;","elianto","#3366ff99","-1","-1","1","+10","[]","0","0","2","","","","","","","",""
"pit-trial","47","534739","0.0-2.0-11.2-0.2","battery-v0.2","","""event"",""trial"",""time""
""fullscreenenter"",""1"",""1157""
""blur"",""16"",""161082""
""focus"",""19"",""193657""
""blur"",""19"",""240531""
""focus"",""19"",""242756""
""blur"",""19"",""259226""
""focus"",""19"",""264619""
""blur"",""19"",""265937""
""focus"",""19"",""282848""
""blur"",""19"",""284887""
""focus"",""19"",""295301""
""blur"",""19"",""299508""
""focus"",""19"",""313430""
""blur"",""36"",""424222""
""focus"",""36"",""427172""
""blur"",""36"",""430883""
""focus"",""36"",""472487""
""blur"",""43"",""514605""
","""event"",""trial"",""time""
""blur"",""16"",""161082""
""blur"",""19"",""240531""
""blur"",""19"",""259226""
""blur"",""19"",""265937""
""blur"",""19"",""284887""
""blur"",""19"",""299508""
""blur"",""36"",""424222""
""blur"",""36"",""430883""
""blur"",""43"",""514605""
","""event"",""trial"",""time""
""focus"",""19"",""193657""
""focus"",""19"",""242756""
""focus"",""19"",""264619""
""focus"",""19"",""282848""
""focus"",""19"",""295301""
""focus"",""19"",""313430""
""focus"",""36"",""427172""
""focus"",""36"",""472487""
","""event"",""trial"",""time""
""fullscreenenter"",""1"",""1157""
","
","","","-1","","","11","4366","625","&#9761;","elianto","#3366ff99","-1","-1","1","+10","[]","0","0","2","","","","","","","",""
"pit-trial","48","539604","0.0-2.0-11.2-1.2","battery-v0.2","","""event"",""trial"",""time""
""fullscreenenter"",""1"",""1157""
""blur"",""16"",""161082""
""focus"",""19"",""193657""
""blur"",""19"",""240531""
""focus"",""19"",""242756""
""blur"",""19"",""259226""
""focus"",""19"",""264619""
""blur"",""19"",""265937""
""focus"",""19"",""282848""
""blur"",""19"",""284887""
""focus"",""19"",""295301""
""blur"",""19"",""299508""
""focus"",""19"",""313430""
""blur"",""36"",""424222""
""focus"",""36"",""427172""
""blur"",""36"",""430883""
""focus"",""36"",""472487""
""blur"",""43"",""514605""
","""event"",""trial"",""time""
""blur"",""16"",""161082""
""blur"",""19"",""240531""
""blur"",""19"",""259226""
""blur"",""19"",""265937""
""blur"",""19"",""284887""
""blur"",""19"",""299508""
""blur"",""36"",""424222""
""blur"",""36"",""430883""
""blur"",""43"",""514605""
","""event"",""trial"",""time""
""focus"",""19"",""193657""
""focus"",""19"",""242756""
""focus"",""19"",""264619""
""focus"",""19"",""282848""
""focus"",""19"",""295301""
""focus"",""19"",""313430""
""focus"",""36"",""427172""
""focus"",""36"",""472487""
","""event"",""trial"",""time""
""fullscreenenter"",""1"",""1157""
","
","","","-1","","","11","4366","625","&#9761;","elianto","#3366ff99","-1","-1","1","+10","[]","0","0","2","","","","","","","",""
"pit-trial","49","544467","0.0-2.0-11.2-2.2","battery-v0.2","","""event"",""trial"",""time""
""fullscreenenter"",""1"",""1157""
""blur"",""16"",""161082""
""focus"",""19"",""193657""
""blur"",""19"",""240531""
""focus"",""19"",""242756""
""blur"",""19"",""259226""
""focus"",""19"",""264619""
""blur"",""19"",""265937""
""focus"",""19"",""282848""
""blur"",""19"",""284887""
""focus"",""19"",""295301""
""blur"",""19"",""299508""
""focus"",""19"",""313430""
""blur"",""36"",""424222""
""focus"",""36"",""427172""
""blur"",""36"",""430883""
""focus"",""36"",""472487""
""blur"",""43"",""514605""
","""event"",""trial"",""time""
""blur"",""16"",""161082""
""blur"",""19"",""240531""
""blur"",""19"",""259226""
""blur"",""19"",""265937""
""blur"",""19"",""284887""
""blur"",""19"",""299508""
""blur"",""36"",""424222""
""blur"",""36"",""430883""
""blur"",""43"",""514605""
","""event"",""trial"",""time""
""focus"",""19"",""193657""
""focus"",""19"",""242756""
""focus"",""19"",""264619""
""focus"",""19"",""282848""
""focus"",""19"",""295301""
""focus"",""19"",""313430""
""focus"",""36"",""427172""
""focus"",""36"",""472487""
","""event"",""trial"",""time""
""fullscreenenter"",""1"",""1157""
","
","","","-1","","","11","4366","625","&#9761;","elianto","#3366ff99","-1","-1","1","+10","[]","0","0","2","","","","","","","",""
"pit-trial","50","549329","0.0-2.0-11.2-3.2","battery-v0.2","","""event"",""trial"",""time""
""fullscreenenter"",""1"",""1157""
""blur"",""16"",""161082""
""focus"",""19"",""193657""
""blur"",""19"",""240531""
""focus"",""19"",""242756""
""blur"",""19"",""259226""
""focus"",""19"",""264619""
""blur"",""19"",""265937""
""focus"",""19"",""282848""
""blur"",""19"",""284887""
""focus"",""19"",""295301""
""blur"",""19"",""299508""
""focus"",""19"",""313430""
""blur"",""36"",""424222""
""focus"",""36"",""427172""
""blur"",""36"",""430883""
""focus"",""36"",""472487""
""blur"",""43"",""514605""
","""event"",""trial"",""time""
""blur"",""16"",""161082""
""blur"",""19"",""240531""
""blur"",""19"",""259226""
""blur"",""19"",""265937""
""blur"",""19"",""284887""
""blur"",""19"",""299508""
""blur"",""36"",""424222""
""blur"",""36"",""430883""
""blur"",""43"",""514605""
","""event"",""trial"",""time""
""focus"",""19"",""193657""
""focus"",""19"",""242756""
""focus"",""19"",""264619""
""focus"",""19"",""282848""
""focus"",""19"",""295301""
""focus"",""19"",""313430""
""focus"",""36"",""427172""
""focus"",""36"",""472487""
","""event"",""trial"",""time""
""fullscreenenter"",""1"",""1157""
","
","","","-1","","","11","4366","625","&#9761;","elianto","#3366ff99","-1","-1","1","0","[]","0","0","2","","","","","","","",""
"pit-trial","51","554188","0.0-2.0-11.2-4.2","battery-v0.2","","""event"",""trial"",""time""
""fullscreenenter"",""1"",""1157""
""blur"",""16"",""161082""
""focus"",""19"",""193657""
""blur"",""19"",""240531""
""focus"",""19"",""242756""
""blur"",""19"",""259226""
""focus"",""19"",""264619""
""blur"",""19"",""265937""
""focus"",""19"",""282848""
""blur"",""19"",""284887""
""focus"",""19"",""295301""
""blur"",""19"",""299508""
""focus"",""19"",""313430""
""blur"",""36"",""424222""
""focus"",""36"",""427172""
""blur"",""36"",""430883""
""focus"",""36"",""472487""
""blur"",""43"",""514605""
","""event"",""trial"",""time""
""blur"",""16"",""161082""
""blur"",""19"",""240531""
""blur"",""19"",""259226""
""blur"",""19"",""265937""
""blur"",""19"",""284887""
""blur"",""19"",""299508""
""blur"",""36"",""424222""
""blur"",""36"",""430883""
""blur"",""43"",""514605""
","""event"",""trial"",""time""
""focus"",""19"",""193657""
""focus"",""19"",""242756""
""focus"",""19"",""264619""
""focus"",""19"",""282848""
""focus"",""19"",""295301""
""focus"",""19"",""313430""
""focus"",""36"",""427172""
""focus"",""36"",""472487""
","""event"",""trial"",""time""
""fullscreenenter"",""1"",""1157""
","
","","","-1","","","11","4366","625","&#9761;","elianto","#3366ff99","-1","-1","1","+10","[]","0","0","2","","","","","","","",""
"pit-trial","52","559051","0.0-2.0-11.3-0.3","battery-v0.2","","""event"",""trial"",""time""
""fullscreenenter"",""1"",""1157""
""blur"",""16"",""161082""
""focus"",""19"",""193657""
""blur"",""19"",""240531""
""focus"",""19"",""242756""
""blur"",""19"",""259226""
""focus"",""19"",""264619""
""blur"",""19"",""265937""
""focus"",""19"",""282848""
""blur"",""19"",""284887""
""focus"",""19"",""295301""
""blur"",""19"",""299508""
""focus"",""19"",""313430""
""blur"",""36"",""424222""
""focus"",""36"",""427172""
""blur"",""36"",""430883""
""focus"",""36"",""472487""
""blur"",""43"",""514605""
","""event"",""trial"",""time""
""blur"",""16"",""161082""
""blur"",""19"",""240531""
""blur"",""19"",""259226""
""blur"",""19"",""265937""
""blur"",""19"",""284887""
""blur"",""19"",""299508""
""blur"",""36"",""424222""
""blur"",""36"",""430883""
""blur"",""43"",""514605""
","""event"",""trial"",""time""
""focus"",""19"",""193657""
""focus"",""19"",""242756""
""focus"",""19"",""264619""
""focus"",""19"",""282848""
""focus"",""19"",""295301""
""focus"",""19"",""313430""
""focus"",""36"",""427172""
""focus"",""36"",""472487""
","""event"",""trial"",""time""
""fullscreenenter"",""1"",""1157""
","
","","","-1","","","11","4366","625","&#9761;","elianto","#3366ff99","-1","-1","1","+10","[]","0","0","2","","","","","","","",""
"pit-trial","53","563915","0.0-2.0-11.3-1.3","battery-v0.2","","""event"",""trial"",""time""
""fullscreenenter"",""1"",""1157""
""blur"",""16"",""161082""
""focus"",""19"",""193657""
""blur"",""19"",""240531""
""focus"",""19"",""242756""
""blur"",""19"",""259226""
""focus"",""19"",""264619""
""blur"",""19"",""265937""
""focus"",""19"",""282848""
""blur"",""19"",""284887""
""focus"",""19"",""295301""
""blur"",""19"",""299508""
""focus"",""19"",""313430""
""blur"",""36"",""424222""
""focus"",""36"",""427172""
""blur"",""36"",""430883""
""focus"",""36"",""472487""
""blur"",""43"",""514605""
","""event"",""trial"",""time""
""blur"",""16"",""161082""
""blur"",""19"",""240531""
""blur"",""19"",""259226""
""blur"",""19"",""265937""
""blur"",""19"",""284887""
""blur"",""19"",""299508""
""blur"",""36"",""424222""
""blur"",""36"",""430883""
""blur"",""43"",""514605""
","""event"",""trial"",""time""
""focus"",""19"",""193657""
""focus"",""19"",""242756""
""focus"",""19"",""264619""
""focus"",""19"",""282848""
""focus"",""19"",""295301""
""focus"",""19"",""313430""
""focus"",""36"",""427172""
""focus"",""36"",""472487""
","""event"",""trial"",""time""
""fullscreenenter"",""1"",""1157""
","
","","","-1","","","11","4366","625","&#9761;","elianto","#3366ff99","-1","-1","1","+10","[]","0","0","2","","","","","","","",""
"pit-trial","54","568779","0.0-2.0-11.3-2.3","battery-v0.2","","""event"",""trial"",""time""
""fullscreenenter"",""1"",""1157""
""blur"",""16"",""161082""
""focus"",""19"",""193657""
""blur"",""19"",""240531""
""focus"",""19"",""242756""
""blur"",""19"",""259226""
""focus"",""19"",""264619""
""blur"",""19"",""265937""
""focus"",""19"",""282848""
""blur"",""19"",""284887""
""focus"",""19"",""295301""
""blur"",""19"",""299508""
""focus"",""19"",""313430""
""blur"",""36"",""424222""
""focus"",""36"",""427172""
""blur"",""36"",""430883""
""focus"",""36"",""472487""
""blur"",""43"",""514605""
","""event"",""trial"",""time""
""blur"",""16"",""161082""
""blur"",""19"",""240531""
""blur"",""19"",""259226""
""blur"",""19"",""265937""
""blur"",""19"",""284887""
""blur"",""19"",""299508""
""blur"",""36"",""424222""
""blur"",""36"",""430883""
""blur"",""43"",""514605""
","""event"",""trial"",""time""
""focus"",""19"",""193657""
""focus"",""19"",""242756""
""focus"",""19"",""264619""
""focus"",""19"",""282848""
""focus"",""19"",""295301""
""focus"",""19"",""313430""
""focus"",""36"",""427172""
""focus"",""36"",""472487""
","""event"",""trial"",""time""
""fullscreenenter"",""1"",""1157""
","
","","","-1","","","11","4366","625","&#9761;","elianto","#3366ff99","-1","-1","1","+10","[]","0","0","2","","","","","","","",""
"pit-trial","55","573644","0.0-2.0-11.3-3.3","battery-v0.2","","""event"",""trial"",""time""
""fullscreenenter"",""1"",""1157""
""blur"",""16"",""161082""
""focus"",""19"",""193657""
""blur"",""19"",""240531""
""focus"",""19"",""242756""
""blur"",""19"",""259226""
""focus"",""19"",""264619""
""blur"",""19"",""265937""
""focus"",""19"",""282848""
""blur"",""19"",""284887""
""focus"",""19"",""295301""
""blur"",""19"",""299508""
""focus"",""19"",""313430""
""blur"",""36"",""424222""
""focus"",""36"",""427172""
""blur"",""36"",""430883""
""focus"",""36"",""472487""
""blur"",""43"",""514605""
","""event"",""trial"",""time""
""blur"",""16"",""161082""
""blur"",""19"",""240531""
""blur"",""19"",""259226""
""blur"",""19"",""265937""
""blur"",""19"",""284887""
""blur"",""19"",""299508""
""blur"",""36"",""424222""
""blur"",""36"",""430883""
""blur"",""43"",""514605""
","""event"",""trial"",""time""
""focus"",""19"",""193657""
""focus"",""19"",""242756""
""focus"",""19"",""264619""
""focus"",""19"",""282848""
""focus"",""19"",""295301""
""focus"",""19"",""313430""
""focus"",""36"",""427172""
""focus"",""36"",""472487""
","""event"",""trial"",""time""
""fullscreenenter"",""1"",""1157""
","
","","","-1","","","11","4366","625","&#9761;","elianto","#3366ff99","-1","-1","1","0","[]","0","0","2","","","","","","","",""
"pit-trial","56","578508","0.0-2.0-11.3-4.3","battery-v0.2","","""event"",""trial"",""time""
""fullscreenenter"",""1"",""1157""
""blur"",""16"",""161082""
""focus"",""19"",""193657""
""blur"",""19"",""240531""
""focus"",""19"",""242756""
""blur"",""19"",""259226""
""focus"",""19"",""264619""
""blur"",""19"",""265937""
""focus"",""19"",""282848""
""blur"",""19"",""284887""
""focus"",""19"",""295301""
""blur"",""19"",""299508""
""focus"",""19"",""313430""
""blur"",""36"",""424222""
""focus"",""36"",""427172""
""blur"",""36"",""430883""
""focus"",""36"",""472487""
""blur"",""43"",""514605""
","""event"",""trial"",""time""
""blur"",""16"",""161082""
""blur"",""19"",""240531""
""blur"",""19"",""259226""
""blur"",""19"",""265937""
""blur"",""19"",""284887""
""blur"",""19"",""299508""
""blur"",""36"",""424222""
""blur"",""36"",""430883""
""blur"",""43"",""514605""
","""event"",""trial"",""time""
""focus"",""19"",""193657""
""focus"",""19"",""242756""
""focus"",""19"",""264619""
""focus"",""19"",""282848""
""focus"",""19"",""295301""
""focus"",""19"",""313430""
""focus"",""36"",""427172""
""focus"",""36"",""472487""
","""event"",""trial"",""time""
""fullscreenenter"",""1"",""1157""
","
","","","-1","","","11","4366","625","&#9761;","elianto","#3366ff99","-1","-1","1","+10","[]","0","0","2","","","","","","","",""
"call-function","57","578508","0.0-2.0-12.0","battery-v0.2","","""event"",""trial"",""time""
""fullscreenenter"",""1"",""1157""
""blur"",""16"",""161082""
""focus"",""19"",""193657""
""blur"",""19"",""240531""
""focus"",""19"",""242756""
""blur"",""19"",""259226""
""focus"",""19"",""264619""
""blur"",""19"",""265937""
""focus"",""19"",""282848""
""blur"",""19"",""284887""
""focus"",""19"",""295301""
""blur"",""19"",""299508""
""focus"",""19"",""313430""
""blur"",""36"",""424222""
""focus"",""36"",""427172""
""blur"",""36"",""430883""
""focus"",""36"",""472487""
""blur"",""43"",""514605""
""focus"",""58"",""585801""
","""event"",""trial"",""time""
""blur"",""16"",""161082""
""blur"",""19"",""240531""
""blur"",""19"",""259226""
""blur"",""19"",""265937""
""blur"",""19"",""284887""
""blur"",""19"",""299508""
""blur"",""36"",""424222""
""blur"",""36"",""430883""
""blur"",""43"",""514605""
","""event"",""trial"",""time""
""focus"",""19"",""193657""
""focus"",""19"",""242756""
""focus"",""19"",""264619""
""focus"",""19"",""282848""
""focus"",""19"",""295301""
""focus"",""19"",""313430""
""focus"",""36"",""427172""
""focus"",""36"",""472487""
""focus"",""58"",""585801""
","""event"",""trial"",""time""
""fullscreenenter"",""1"",""1157""
","
","","","","","","","","","","","","","","","","","","","","","","","","","","",""
"pit-instructions","58","616626","0.0-2.0-13.0","battery-v0.2","","""event"",""trial"",""time""
""fullscreenenter"",""1"",""1157""
""blur"",""16"",""161082""
""focus"",""19"",""193657""
""blur"",""19"",""240531""
""focus"",""19"",""242756""
""blur"",""19"",""259226""
""focus"",""19"",""264619""
""blur"",""19"",""265937""
""focus"",""19"",""282848""
""blur"",""19"",""284887""
""focus"",""19"",""295301""
""blur"",""19"",""299508""
""focus"",""19"",""313430""
""blur"",""36"",""424222""
""focus"",""36"",""427172""
""blur"",""36"",""430883""
""focus"",""36"",""472487""
""blur"",""43"",""514605""
""focus"",""58"",""585801""
","""event"",""trial"",""time""
""blur"",""16"",""161082""
""blur"",""19"",""240531""
""blur"",""19"",""259226""
""blur"",""19"",""265937""
""blur"",""19"",""284887""
""blur"",""19"",""299508""
""blur"",""36"",""424222""
""blur"",""36"",""430883""
""blur"",""43"",""514605""
","""event"",""trial"",""time""
""focus"",""19"",""193657""
""focus"",""19"",""242756""
""focus"",""19"",""264619""
""focus"",""19"",""282848""
""focus"",""19"",""295301""
""focus"",""19"",""313430""
""focus"",""36"",""427172""
""focus"",""36"",""472487""
""focus"",""58"",""585801""
","""event"",""trial"",""time""
""fullscreenenter"",""1"",""1157""
","
","","[{""page_index"":0,""viewing_time"":7695},{""page_index"":1,""viewing_time"":6748.9000000059605},{""page_index"":2,""viewing_time"":3431.199999988079},{""page_index"":3,""viewing_time"":11369.699999988079},{""page_index"":4,""viewing_time"":8872}]","38116.90000000596","","","","","","","","","","","","","","","","","","","","","","","",""
"pit-trial","59","621499","0.0-2.0-14.0-0.0","battery-v0.2","","""event"",""trial"",""time""
""fullscreenenter"",""1"",""1157""
""blur"",""16"",""161082""
""focus"",""19"",""193657""
""blur"",""19"",""240531""
""focus"",""19"",""242756""
""blur"",""19"",""259226""
""focus"",""19"",""264619""
""blur"",""19"",""265937""
""focus"",""19"",""282848""
""blur"",""19"",""284887""
""focus"",""19"",""295301""
""blur"",""19"",""299508""
""focus"",""19"",""313430""
""blur"",""36"",""424222""
""focus"",""36"",""427172""
""blur"",""36"",""430883""
""focus"",""36"",""472487""
""blur"",""43"",""514605""
""focus"",""58"",""585801""
","""event"",""trial"",""time""
""blur"",""16"",""161082""
""blur"",""19"",""240531""
""blur"",""19"",""259226""
""blur"",""19"",""265937""
""blur"",""19"",""284887""
""blur"",""19"",""299508""
""blur"",""36"",""424222""
""blur"",""36"",""430883""
""blur"",""43"",""514605""
","""event"",""trial"",""time""
""focus"",""19"",""193657""
""focus"",""19"",""242756""
""focus"",""19"",""264619""
""focus"",""19"",""282848""
""focus"",""19"",""295301""
""focus"",""19"",""313430""
""focus"",""36"",""427172""
""focus"",""36"",""472487""
""focus"",""58"",""585801""
","""event"",""trial"",""time""
""fullscreenenter"",""1"",""1157""
","
","","","-1","","","11","4366","625","&#9826;","elianto","#f73b6a7A","-1","-1","1","0","[]","0","0","3","","","","","","","",""
"pit-trial","60","626368","0.0-2.0-14.0-1.0","battery-v0.2","","""event"",""trial"",""time""
""fullscreenenter"",""1"",""1157""
""blur"",""16"",""161082""
""focus"",""19"",""193657""
""blur"",""19"",""240531""
""focus"",""19"",""242756""
""blur"",""19"",""259226""
""focus"",""19"",""264619""
""blur"",""19"",""265937""
""focus"",""19"",""282848""
""blur"",""19"",""284887""
""focus"",""19"",""295301""
""blur"",""19"",""299508""
""focus"",""19"",""313430""
""blur"",""36"",""424222""
""focus"",""36"",""427172""
""blur"",""36"",""430883""
""focus"",""36"",""472487""
""blur"",""43"",""514605""
""focus"",""58"",""585801""
","""event"",""trial"",""time""
""blur"",""16"",""161082""
""blur"",""19"",""240531""
""blur"",""19"",""259226""
""blur"",""19"",""265937""
""blur"",""19"",""284887""
""blur"",""19"",""299508""
""blur"",""36"",""424222""
""blur"",""36"",""430883""
""blur"",""43"",""514605""
","""event"",""trial"",""time""
""focus"",""19"",""193657""
""focus"",""19"",""242756""
""focus"",""19"",""264619""
""focus"",""19"",""282848""
""focus"",""19"",""295301""
""focus"",""19"",""313430""
""focus"",""36"",""427172""
""focus"",""36"",""472487""
""focus"",""58"",""585801""
","""event"",""trial"",""time""
""fullscreenenter"",""1"",""1157""
","
","","","-1","","","11","4366","625","&#9826;","elianto","#f73b6a7A","-1","-1","1","0","[]","0","0","3","","","","","","","",""
"pit-trial","61","631241","0.0-2.0-14.0-2.0","battery-v0.2","","""event"",""trial"",""time""
""fullscreenenter"",""1"",""1157""
""blur"",""16"",""161082""
""focus"",""19"",""193657""
""blur"",""19"",""240531""
""focus"",""19"",""242756""
""blur"",""19"",""259226""
""focus"",""19"",""264619""
""blur"",""19"",""265937""
""focus"",""19"",""282848""
""blur"",""19"",""284887""
""focus"",""19"",""295301""
""blur"",""19"",""299508""
""focus"",""19"",""313430""
""blur"",""36"",""424222""
""focus"",""36"",""427172""
""blur"",""36"",""430883""
""focus"",""36"",""472487""
""blur"",""43"",""514605""
""focus"",""58"",""585801""
","""event"",""trial"",""time""
""blur"",""16"",""161082""
""blur"",""19"",""240531""
""blur"",""19"",""259226""
""blur"",""19"",""265937""
""blur"",""19"",""284887""
""blur"",""19"",""299508""
""blur"",""36"",""424222""
""blur"",""36"",""430883""
""blur"",""43"",""514605""
","""event"",""trial"",""time""
""focus"",""19"",""193657""
""focus"",""19"",""242756""
""focus"",""19"",""264619""
""focus"",""19"",""282848""
""focus"",""19"",""295301""
""focus"",""19"",""313430""
""focus"",""36"",""427172""
""focus"",""36"",""472487""
""focus"",""58"",""585801""
","""event"",""trial"",""time""
""fullscreenenter"",""1"",""1157""
","
","","","-1","","","11","4366","625","&#9826;","elianto","#f73b6a7A","-1","-1","1","0","[]","0","0","3","","","","","","","",""
"pit-trial","62","636119","0.0-2.0-14.0-3.0","battery-v0.2","","""event"",""trial"",""time""
""fullscreenenter"",""1"",""1157""
""blur"",""16"",""161082""
""focus"",""19"",""193657""
""blur"",""19"",""240531""
""focus"",""19"",""242756""
""blur"",""19"",""259226""
""focus"",""19"",""264619""
""blur"",""19"",""265937""
""focus"",""19"",""282848""
""blur"",""19"",""284887""
""focus"",""19"",""295301""
""blur"",""19"",""299508""
""focus"",""19"",""313430""
""blur"",""36"",""424222""
""focus"",""36"",""427172""
""blur"",""36"",""430883""
""focus"",""36"",""472487""
""blur"",""43"",""514605""
""focus"",""58"",""585801""
","""event"",""trial"",""time""
""blur"",""16"",""161082""
""blur"",""19"",""240531""
""blur"",""19"",""259226""
""blur"",""19"",""265937""
""blur"",""19"",""284887""
""blur"",""19"",""299508""
""blur"",""36"",""424222""
""blur"",""36"",""430883""
""blur"",""43"",""514605""
","""event"",""trial"",""time""
""focus"",""19"",""193657""
""focus"",""19"",""242756""
""focus"",""19"",""264619""
""focus"",""19"",""282848""
""focus"",""19"",""295301""
""focus"",""19"",""313430""
""focus"",""36"",""427172""
""focus"",""36"",""472487""
""focus"",""58"",""585801""
","""event"",""trial"",""time""
""fullscreenenter"",""1"",""1157""
","
","","","-1","","","11","4366","625","&#9826;","elianto","#f73b6a7A","-1","-1","1","-10","[]","0","0","3","","","","","","","",""
"pit-trial","63","640993","0.0-2.0-14.0-4.0","battery-v0.2","","""event"",""trial"",""time""
""fullscreenenter"",""1"",""1157""
""blur"",""16"",""161082""
""focus"",""19"",""193657""
""blur"",""19"",""240531""
""focus"",""19"",""242756""
""blur"",""19"",""259226""
""focus"",""19"",""264619""
""blur"",""19"",""265937""
""focus"",""19"",""282848""
""blur"",""19"",""284887""
""focus"",""19"",""295301""
""blur"",""19"",""299508""
""focus"",""19"",""313430""
""blur"",""36"",""424222""
""focus"",""36"",""427172""
""blur"",""36"",""430883""
""focus"",""36"",""472487""
""blur"",""43"",""514605""
""focus"",""58"",""585801""
","""event"",""trial"",""time""
""blur"",""16"",""161082""
""blur"",""19"",""240531""
""blur"",""19"",""259226""
""blur"",""19"",""265937""
""blur"",""19"",""284887""
""blur"",""19"",""299508""
""blur"",""36"",""424222""
""blur"",""36"",""430883""
""blur"",""43"",""514605""
","""event"",""trial"",""time""
""focus"",""19"",""193657""
""focus"",""19"",""242756""
""focus"",""19"",""264619""
""focus"",""19"",""282848""
""focus"",""19"",""295301""
""focus"",""19"",""313430""
""focus"",""36"",""427172""
""focus"",""36"",""472487""
""focus"",""58"",""585801""
","""event"",""trial"",""time""
""fullscreenenter"",""1"",""1157""
","
","","","-1","","","11","4366","625","&#9826;","elianto","#f73b6a7A","-1","-1","1","0","[]","0","0","3","","","","","","","",""
"pit-trial","64","645858","0.0-2.0-14.1-0.1","battery-v0.2","","""event"",""trial"",""time""
""fullscreenenter"",""1"",""1157""
""blur"",""16"",""161082""
""focus"",""19"",""193657""
""blur"",""19"",""240531""
""focus"",""19"",""242756""
""blur"",""19"",""259226""
""focus"",""19"",""264619""
""blur"",""19"",""265937""
""focus"",""19"",""282848""
""blur"",""19"",""284887""
""focus"",""19"",""295301""
""blur"",""19"",""299508""
""focus"",""19"",""313430""
""blur"",""36"",""424222""
""focus"",""36"",""427172""
""blur"",""36"",""430883""
""focus"",""36"",""472487""
""blur"",""43"",""514605""
""focus"",""58"",""585801""
""blur"",""65"",""646807""
","""event"",""trial"",""time""
""blur"",""16"",""161082""
""blur"",""19"",""240531""
""blur"",""19"",""259226""
""blur"",""19"",""265937""
""blur"",""19"",""284887""
""blur"",""19"",""299508""
""blur"",""36"",""424222""
""blur"",""36"",""430883""
""blur"",""43"",""514605""
""blur"",""65"",""646807""
","""event"",""trial"",""time""
""focus"",""19"",""193657""
""focus"",""19"",""242756""
""focus"",""19"",""264619""
""focus"",""19"",""282848""
""focus"",""19"",""295301""
""focus"",""19"",""313430""
""focus"",""36"",""427172""
""focus"",""36"",""472487""
""focus"",""58"",""585801""
","""event"",""trial"",""time""
""fullscreenenter"",""1"",""1157""
","
","","","-1","","","11","4366","625","&#9826;","elianto","#f73b6a7A","-1","-1","1","0","[]","0","0","3","","","","","","","",""
"pit-trial","65","650723","0.0-2.0-14.1-1.1","battery-v0.2","","""event"",""trial"",""time""
""fullscreenenter"",""1"",""1157""
""blur"",""16"",""161082""
""focus"",""19"",""193657""
""blur"",""19"",""240531""
""focus"",""19"",""242756""
""blur"",""19"",""259226""
""focus"",""19"",""264619""
""blur"",""19"",""265937""
""focus"",""19"",""282848""
""blur"",""19"",""284887""
""focus"",""19"",""295301""
""blur"",""19"",""299508""
""focus"",""19"",""313430""
""blur"",""36"",""424222""
""focus"",""36"",""427172""
""blur"",""36"",""430883""
""focus"",""36"",""472487""
""blur"",""43"",""514605""
""focus"",""58"",""585801""
""blur"",""65"",""646807""
","""event"",""trial"",""time""
""blur"",""16"",""161082""
""blur"",""19"",""240531""
""blur"",""19"",""259226""
""blur"",""19"",""265937""
""blur"",""19"",""284887""
""blur"",""19"",""299508""
""blur"",""36"",""424222""
""blur"",""36"",""430883""
""blur"",""43"",""514605""
""blur"",""65"",""646807""
","""event"",""trial"",""time""
""focus"",""19"",""193657""
""focus"",""19"",""242756""
""focus"",""19"",""264619""
""focus"",""19"",""282848""
""focus"",""19"",""295301""
""focus"",""19"",""313430""
""focus"",""36"",""427172""
""focus"",""36"",""472487""
""focus"",""58"",""585801""
","""event"",""trial"",""time""
""fullscreenenter"",""1"",""1157""
","
","","","-1","","","11","4366","625","&#9826;","elianto","#f73b6a7A","-1","-1","1","0","[]","0","0","3","","","","","","","",""
"pit-trial","66","655586","0.0-2.0-14.1-2.1","battery-v0.2","","""event"",""trial"",""time""
""fullscreenenter"",""1"",""1157""
""blur"",""16"",""161082""
""focus"",""19"",""193657""
""blur"",""19"",""240531""
""focus"",""19"",""242756""
""blur"",""19"",""259226""
""focus"",""19"",""264619""
""blur"",""19"",""265937""
""focus"",""19"",""282848""
""blur"",""19"",""284887""
""focus"",""19"",""295301""
""blur"",""19"",""299508""
""focus"",""19"",""313430""
""blur"",""36"",""424222""
""focus"",""36"",""427172""
""blur"",""36"",""430883""
""focus"",""36"",""472487""
""blur"",""43"",""514605""
""focus"",""58"",""585801""
""blur"",""65"",""646807""
","""event"",""trial"",""time""
""blur"",""16"",""161082""
""blur"",""19"",""240531""
""blur"",""19"",""259226""
""blur"",""19"",""265937""
""blur"",""19"",""284887""
""blur"",""19"",""299508""
""blur"",""36"",""424222""
""blur"",""36"",""430883""
""blur"",""43"",""514605""
""blur"",""65"",""646807""
","""event"",""trial"",""time""
""focus"",""19"",""193657""
""focus"",""19"",""242756""
""focus"",""19"",""264619""
""focus"",""19"",""282848""
""focus"",""19"",""295301""
""focus"",""19"",""313430""
""focus"",""36"",""427172""
""focus"",""36"",""472487""
""focus"",""58"",""585801""
","""event"",""trial"",""time""
""fullscreenenter"",""1"",""1157""
","
","","","-1","","","11","4366","625","&#9826;","elianto","#f73b6a7A","-1","-1","1","0","[]","0","0","3","","","","","","","",""
"pit-trial","67","660450","0.0-2.0-14.1-3.1","battery-v0.2","","""event"",""trial"",""time""
""fullscreenenter"",""1"",""1157""
""blur"",""16"",""161082""
""focus"",""19"",""193657""
""blur"",""19"",""240531""
""focus"",""19"",""242756""
""blur"",""19"",""259226""
""focus"",""19"",""264619""
""blur"",""19"",""265937""
""focus"",""19"",""282848""
""blur"",""19"",""284887""
""focus"",""19"",""295301""
""blur"",""19"",""299508""
""focus"",""19"",""313430""
""blur"",""36"",""424222""
""focus"",""36"",""427172""
""blur"",""36"",""430883""
""focus"",""36"",""472487""
""blur"",""43"",""514605""
""focus"",""58"",""585801""
""blur"",""65"",""646807""
","""event"",""trial"",""time""
""blur"",""16"",""161082""
""blur"",""19"",""240531""
""blur"",""19"",""259226""
""blur"",""19"",""265937""
""blur"",""19"",""284887""
""blur"",""19"",""299508""
""blur"",""36"",""424222""
""blur"",""36"",""430883""
""blur"",""43"",""514605""
""blur"",""65"",""646807""
","""event"",""trial"",""time""
""focus"",""19"",""193657""
""focus"",""19"",""242756""
""focus"",""19"",""264619""
""focus"",""19"",""282848""
""focus"",""19"",""295301""
""focus"",""19"",""313430""
""focus"",""36"",""427172""
""focus"",""36"",""472487""
""focus"",""58"",""585801""
","""event"",""trial"",""time""
""fullscreenenter"",""1"",""1157""
","
","","","-1","","","11","4366","625","&#9826;","elianto","#f73b6a7A","-1","-1","1","-10","[]","0","0","3","","","","","","","",""
"pit-trial","68","665314","0.0-2.0-14.1-4.1","battery-v0.2","","""event"",""trial"",""time""
""fullscreenenter"",""1"",""1157""
""blur"",""16"",""161082""
""focus"",""19"",""193657""
""blur"",""19"",""240531""
""focus"",""19"",""242756""
""blur"",""19"",""259226""
""focus"",""19"",""264619""
""blur"",""19"",""265937""
""focus"",""19"",""282848""
""blur"",""19"",""284887""
""focus"",""19"",""295301""
""blur"",""19"",""299508""
""focus"",""19"",""313430""
""blur"",""36"",""424222""
""focus"",""36"",""427172""
""blur"",""36"",""430883""
""focus"",""36"",""472487""
""blur"",""43"",""514605""
""focus"",""58"",""585801""
""blur"",""65"",""646807""
","""event"",""trial"",""time""
""blur"",""16"",""161082""
""blur"",""19"",""240531""
""blur"",""19"",""259226""
""blur"",""19"",""265937""
""blur"",""19"",""284887""
""blur"",""19"",""299508""
""blur"",""36"",""424222""
""blur"",""36"",""430883""
""blur"",""43"",""514605""
""blur"",""65"",""646807""
","""event"",""trial"",""time""
""focus"",""19"",""193657""
""focus"",""19"",""242756""
""focus"",""19"",""264619""
""focus"",""19"",""282848""
""focus"",""19"",""295301""
""focus"",""19"",""313430""
""focus"",""36"",""427172""
""focus"",""36"",""472487""
""focus"",""58"",""585801""
","""event"",""trial"",""time""
""fullscreenenter"",""1"",""1157""
","
","","","-1","","","11","4366","625","&#9826;","elianto","#f73b6a7A","-1","-1","1","0","[]","0","0","3","","","","","","","",""
"pit-trial","69","670175","0.0-2.0-14.2-0.2","battery-v0.2","","""event"",""trial"",""time""
""fullscreenenter"",""1"",""1157""
""blur"",""16"",""161082""
""focus"",""19"",""193657""
""blur"",""19"",""240531""
""focus"",""19"",""242756""
""blur"",""19"",""259226""
""focus"",""19"",""264619""
""blur"",""19"",""265937""
""focus"",""19"",""282848""
""blur"",""19"",""284887""
""focus"",""19"",""295301""
""blur"",""19"",""299508""
""focus"",""19"",""313430""
""blur"",""36"",""424222""
""focus"",""36"",""427172""
""blur"",""36"",""430883""
""focus"",""36"",""472487""
""blur"",""43"",""514605""
""focus"",""58"",""585801""
""blur"",""65"",""646807""
""focus"",""70"",""670838""
","""event"",""trial"",""time""
""blur"",""16"",""161082""
""blur"",""19"",""240531""
""blur"",""19"",""259226""
""blur"",""19"",""265937""
""blur"",""19"",""284887""
""blur"",""19"",""299508""
""blur"",""36"",""424222""
""blur"",""36"",""430883""
""blur"",""43"",""514605""
""blur"",""65"",""646807""
","""event"",""trial"",""time""
""focus"",""19"",""193657""
""focus"",""19"",""242756""
""focus"",""19"",""264619""
""focus"",""19"",""282848""
""focus"",""19"",""295301""
""focus"",""19"",""313430""
""focus"",""36"",""427172""
""focus"",""36"",""472487""
""focus"",""58"",""585801""
""focus"",""70"",""670838""
","""event"",""trial"",""time""
""fullscreenenter"",""1"",""1157""
","
","","","-1","","","11","4366","625","&#9826;","elianto","#f73b6a7A","-1","-1","1","0","[]","0","0","3","","","","","","","",""
"pit-trial","70","674251","0.0-2.0-14.2-1.2","battery-v0.2","","""event"",""trial"",""time""
""fullscreenenter"",""1"",""1157""
""blur"",""16"",""161082""
""focus"",""19"",""193657""
""blur"",""19"",""240531""
""focus"",""19"",""242756""
""blur"",""19"",""259226""
""focus"",""19"",""264619""
""blur"",""19"",""265937""
""focus"",""19"",""282848""
""blur"",""19"",""284887""
""focus"",""19"",""295301""
""blur"",""19"",""299508""
""focus"",""19"",""313430""
""blur"",""36"",""424222""
""focus"",""36"",""427172""
""blur"",""36"",""430883""
""focus"",""36"",""472487""
""blur"",""43"",""514605""
""focus"",""58"",""585801""
""blur"",""65"",""646807""
""focus"",""70"",""670838""
","""event"",""trial"",""time""
""blur"",""16"",""161082""
""blur"",""19"",""240531""
""blur"",""19"",""259226""
""blur"",""19"",""265937""
""blur"",""19"",""284887""
""blur"",""19"",""299508""
""blur"",""36"",""424222""
""blur"",""36"",""430883""
""blur"",""43"",""514605""
""blur"",""65"",""646807""
","""event"",""trial"",""time""
""focus"",""19"",""193657""
""focus"",""19"",""242756""
""focus"",""19"",""264619""
""focus"",""19"",""282848""
""focus"",""19"",""295301""
""focus"",""19"",""313430""
""focus"",""36"",""427172""
""focus"",""36"",""472487""
""focus"",""58"",""585801""
""focus"",""70"",""670838""
","""event"",""trial"",""time""
""fullscreenenter"",""1"",""1157""
","
","","","1215.800000011921","","","11","4366","625","&#9826;","elianto","#f73b6a7A","-1"," ","0","-10","[2066.300000011921,2520.7000000178814]","2","0","3","","","","","","","",""
"pit-trial","71","677578","0.0-2.0-14.2-2.2","battery-v0.2","","""event"",""trial"",""time""
""fullscreenenter"",""1"",""1157""
""blur"",""16"",""161082""
""focus"",""19"",""193657""
""blur"",""19"",""240531""
""focus"",""19"",""242756""
""blur"",""19"",""259226""
""focus"",""19"",""264619""
""blur"",""19"",""265937""
""focus"",""19"",""282848""
""blur"",""19"",""284887""
""focus"",""19"",""295301""
""blur"",""19"",""299508""
""focus"",""19"",""313430""
""blur"",""36"",""424222""
""focus"",""36"",""427172""
""blur"",""36"",""430883""
""focus"",""36"",""472487""
""blur"",""43"",""514605""
""focus"",""58"",""585801""
""blur"",""65"",""646807""
""focus"",""70"",""670838""
","""event"",""trial"",""time""
""blur"",""16"",""161082""
""blur"",""19"",""240531""
""blur"",""19"",""259226""
""blur"",""19"",""265937""
""blur"",""19"",""284887""
""blur"",""19"",""299508""
""blur"",""36"",""424222""
""blur"",""36"",""430883""
""blur"",""43"",""514605""
""blur"",""65"",""646807""
","""event"",""trial"",""time""
""focus"",""19"",""193657""
""focus"",""19"",""242756""
""focus"",""19"",""264619""
""focus"",""19"",""282848""
""focus"",""19"",""295301""
""focus"",""19"",""313430""
""focus"",""36"",""427172""
""focus"",""36"",""472487""
""focus"",""58"",""585801""
""focus"",""70"",""670838""
","""event"",""trial"",""time""
""fullscreenenter"",""1"",""1157""
","
","","","465.19999998807907","","","11","4366","625","&#9826;","elianto","#f73b6a7A","-1"," ","0","-10","[1320.4000000059605]","1","0","3","","","","","","","",""
"pit-trial","72","680925","0.0-2.0-14.2-3.2","battery-v0.2","","""event"",""trial"",""time""
""fullscreenenter"",""1"",""1157""
""blur"",""16"",""161082""
""focus"",""19"",""193657""
""blur"",""19"",""240531""
""focus"",""19"",""242756""
""blur"",""19"",""259226""
""focus"",""19"",""264619""
""blur"",""19"",""265937""
""focus"",""19"",""282848""
""blur"",""19"",""284887""
""focus"",""19"",""295301""
""blur"",""19"",""299508""
""focus"",""19"",""313430""
""blur"",""36"",""424222""
""focus"",""36"",""427172""
""blur"",""36"",""430883""
""focus"",""36"",""472487""
""blur"",""43"",""514605""
""focus"",""58"",""585801""
""blur"",""65"",""646807""
""focus"",""70"",""670838""
","""event"",""trial"",""time""
""blur"",""16"",""161082""
""blur"",""19"",""240531""
""blur"",""19"",""259226""
""blur"",""19"",""265937""
""blur"",""19"",""284887""
""blur"",""19"",""299508""
""blur"",""36"",""424222""
""blur"",""36"",""430883""
""blur"",""43"",""514605""
""blur"",""65"",""646807""
","""event"",""trial"",""time""
""focus"",""19"",""193657""
""focus"",""19"",""242756""
""focus"",""19"",""264619""
""focus"",""19"",""282848""
""focus"",""19"",""295301""
""focus"",""19"",""313430""
""focus"",""36"",""427172""
""focus"",""36"",""472487""
""focus"",""58"",""585801""
""focus"",""70"",""670838""
","""event"",""trial"",""time""
""fullscreenenter"",""1"",""1157""
","
","","","476.2000000178814","","","11","4366","625","&#9826;","elianto","#f73b6a7A","-1"," ","0","0","[1332]","1","0","3","","","","","","","",""
"pit-trial","73","683994","0.0-2.0-14.2-4.2","battery-v0.2","","""event"",""trial"",""time""
""fullscreenenter"",""1"",""1157""
""blur"",""16"",""161082""
""focus"",""19"",""193657""
""blur"",""19"",""240531""
""focus"",""19"",""242756""
""blur"",""19"",""259226""
""focus"",""19"",""264619""
""blur"",""19"",""265937""
""focus"",""19"",""282848""
""blur"",""19"",""284887""
""focus"",""19"",""295301""
""blur"",""19"",""299508""
""focus"",""19"",""313430""
""blur"",""36"",""424222""
""focus"",""36"",""427172""
""blur"",""36"",""430883""
""focus"",""36"",""472487""
""blur"",""43"",""514605""
""focus"",""58"",""585801""
""blur"",""65"",""646807""
""focus"",""70"",""670838""
","""event"",""trial"",""time""
""blur"",""16"",""161082""
""blur"",""19"",""240531""
""blur"",""19"",""259226""
""blur"",""19"",""265937""
""blur"",""19"",""284887""
""blur"",""19"",""299508""
""blur"",""36"",""424222""
""blur"",""36"",""430883""
""blur"",""43"",""514605""
""blur"",""65"",""646807""
","""event"",""trial"",""time""
""focus"",""19"",""193657""
""focus"",""19"",""242756""
""focus"",""19"",""264619""
""focus"",""19"",""282848""
""focus"",""19"",""295301""
""focus"",""19"",""313430""
""focus"",""36"",""427172""
""focus"",""36"",""472487""
""focus"",""58"",""585801""
""focus"",""70"",""670838""
","""event"",""trial"",""time""
""fullscreenenter"",""1"",""1157""
","
","","","211.80000001192093","","","11","4366","625","&#9826;","elianto","#f73b6a7A","-1"," ","0","-10","[1061.9000000059605]","1","0","3","","","","","","","",""
"pit-trial","74","688858","0.0-2.0-14.3-0.3","battery-v0.2","","""event"",""trial"",""time""
""fullscreenenter"",""1"",""1157""
""blur"",""16"",""161082""
""focus"",""19"",""193657""
""blur"",""19"",""240531""
""focus"",""19"",""242756""
""blur"",""19"",""259226""
""focus"",""19"",""264619""
""blur"",""19"",""265937""
""focus"",""19"",""282848""
""blur"",""19"",""284887""
""focus"",""19"",""295301""
""blur"",""19"",""299508""
""focus"",""19"",""313430""
""blur"",""36"",""424222""
""focus"",""36"",""427172""
""blur"",""36"",""430883""
""focus"",""36"",""472487""
""blur"",""43"",""514605""
""focus"",""58"",""585801""
""blur"",""65"",""646807""
""focus"",""70"",""670838""
","""event"",""trial"",""time""
""blur"",""16"",""161082""
""blur"",""19"",""240531""
""blur"",""19"",""259226""
""blur"",""19"",""265937""
""blur"",""19"",""284887""
""blur"",""19"",""299508""
""blur"",""36"",""424222""
""blur"",""36"",""430883""
""blur"",""43"",""514605""
""blur"",""65"",""646807""
","""event"",""trial"",""time""
""focus"",""19"",""193657""
""focus"",""19"",""242756""
""focus"",""19"",""264619""
""focus"",""19"",""282848""
""focus"",""19"",""295301""
""focus"",""19"",""313430""
""focus"",""36"",""427172""
""focus"",""36"",""472487""
""focus"",""58"",""585801""
""focus"",""70"",""670838""
","""event"",""trial"",""time""
""fullscreenenter"",""1"",""1157""
","
","","","-1","","","11","4366","625","&#9826;","elianto","#f73b6a7A","-1","-1","1","0","[]","0","0","3","","","","","","","",""
"pit-trial","75","693729","0.0-2.0-14.3-1.3","battery-v0.2","","""event"",""trial"",""time""
""fullscreenenter"",""1"",""1157""
""blur"",""16"",""161082""
""focus"",""19"",""193657""
""blur"",""19"",""240531""
""focus"",""19"",""242756""
""blur"",""19"",""259226""
""focus"",""19"",""264619""
""blur"",""19"",""265937""
""focus"",""19"",""282848""
""blur"",""19"",""284887""
""focus"",""19"",""295301""
""blur"",""19"",""299508""
""focus"",""19"",""313430""
""blur"",""36"",""424222""
""focus"",""36"",""427172""
""blur"",""36"",""430883""
""focus"",""36"",""472487""
""blur"",""43"",""514605""
""focus"",""58"",""585801""
""blur"",""65"",""646807""
""focus"",""70"",""670838""
","""event"",""trial"",""time""
""blur"",""16"",""161082""
""blur"",""19"",""240531""
""blur"",""19"",""259226""
""blur"",""19"",""265937""
""blur"",""19"",""284887""
""blur"",""19"",""299508""
""blur"",""36"",""424222""
""blur"",""36"",""430883""
""blur"",""43"",""514605""
""blur"",""65"",""646807""
","""event"",""trial"",""time""
""focus"",""19"",""193657""
""focus"",""19"",""242756""
""focus"",""19"",""264619""
""focus"",""19"",""282848""
""focus"",""19"",""295301""
""focus"",""19"",""313430""
""focus"",""36"",""427172""
""focus"",""36"",""472487""
""focus"",""58"",""585801""
""focus"",""70"",""670838""
","""event"",""trial"",""time""
""fullscreenenter"",""1"",""1157""
","
","","","-1","","","11","4366","625","&#9826;","elianto","#f73b6a7A","-1","-1","1","0","[]","0","0","3","","","","","","","",""
"pit-trial","76","698591","0.0-2.0-14.3-2.3","battery-v0.2","","""event"",""trial"",""time""
""fullscreenenter"",""1"",""1157""
""blur"",""16"",""161082""
""focus"",""19"",""193657""
""blur"",""19"",""240531""
""focus"",""19"",""242756""
""blur"",""19"",""259226""
""focus"",""19"",""264619""
""blur"",""19"",""265937""
""focus"",""19"",""282848""
""blur"",""19"",""284887""
""focus"",""19"",""295301""
""blur"",""19"",""299508""
""focus"",""19"",""313430""
""blur"",""36"",""424222""
""focus"",""36"",""427172""
""blur"",""36"",""430883""
""focus"",""36"",""472487""
""blur"",""43"",""514605""
""focus"",""58"",""585801""
""blur"",""65"",""646807""
""focus"",""70"",""670838""
","""event"",""trial"",""time""
""blur"",""16"",""161082""
""blur"",""19"",""240531""
""blur"",""19"",""259226""
""blur"",""19"",""265937""
""blur"",""19"",""284887""
""blur"",""19"",""299508""
""blur"",""36"",""424222""
""blur"",""36"",""430883""
""blur"",""43"",""514605""
""blur"",""65"",""646807""
","""event"",""trial"",""time""
""focus"",""19"",""193657""
""focus"",""19"",""242756""
""focus"",""19"",""264619""
""focus"",""19"",""282848""
""focus"",""19"",""295301""
""focus"",""19"",""313430""
""focus"",""36"",""427172""
""focus"",""36"",""472487""
""focus"",""58"",""585801""
""focus"",""70"",""670838""
","""event"",""trial"",""time""
""fullscreenenter"",""1"",""1157""
","
","","","-1","","","11","4366","625","&#9826;","elianto","#f73b6a7A","-1","-1","1","0","[]","0","0","3","","","","","","","",""
"pit-trial","77","703458","0.0-2.0-14.3-3.3","battery-v0.2","","""event"",""trial"",""time""
""fullscreenenter"",""1"",""1157""
""blur"",""16"",""161082""
""focus"",""19"",""193657""
""blur"",""19"",""240531""
""focus"",""19"",""242756""
""blur"",""19"",""259226""
""focus"",""19"",""264619""
""blur"",""19"",""265937""
""focus"",""19"",""282848""
""blur"",""19"",""284887""
""focus"",""19"",""295301""
""blur"",""19"",""299508""
""focus"",""19"",""313430""
""blur"",""36"",""424222""
""focus"",""36"",""427172""
""blur"",""36"",""430883""
""focus"",""36"",""472487""
""blur"",""43"",""514605""
""focus"",""58"",""585801""
""blur"",""65"",""646807""
""focus"",""70"",""670838""
","""event"",""trial"",""time""
""blur"",""16"",""161082""
""blur"",""19"",""240531""
""blur"",""19"",""259226""
""blur"",""19"",""265937""
""blur"",""19"",""284887""
""blur"",""19"",""299508""
""blur"",""36"",""424222""
""blur"",""36"",""430883""
""blur"",""43"",""514605""
""blur"",""65"",""646807""
","""event"",""trial"",""time""
""focus"",""19"",""193657""
""focus"",""19"",""242756""
""focus"",""19"",""264619""
""focus"",""19"",""282848""
""focus"",""19"",""295301""
""focus"",""19"",""313430""
""focus"",""36"",""427172""
""focus"",""36"",""472487""
""focus"",""58"",""585801""
""focus"",""70"",""670838""
","""event"",""trial"",""time""
""fullscreenenter"",""1"",""1157""
","
","","","-1","","","11","4366","625","&#9826;","elianto","#f73b6a7A","-1","-1","1","-10","[]","0","0","3","","","","","","","",""
"pit-trial","78","708322","0.0-2.0-14.3-4.3","battery-v0.2","","""event"",""trial"",""time""
""fullscreenenter"",""1"",""1157""
""blur"",""16"",""161082""
""focus"",""19"",""193657""
""blur"",""19"",""240531""
""focus"",""19"",""242756""
""blur"",""19"",""259226""
""focus"",""19"",""264619""
""blur"",""19"",""265937""
""focus"",""19"",""282848""
""blur"",""19"",""284887""
""focus"",""19"",""295301""
""blur"",""19"",""299508""
""focus"",""19"",""313430""
""blur"",""36"",""424222""
""focus"",""36"",""427172""
""blur"",""36"",""430883""
""focus"",""36"",""472487""
""blur"",""43"",""514605""
""focus"",""58"",""585801""
""blur"",""65"",""646807""
""focus"",""70"",""670838""
","""event"",""trial"",""time""
""blur"",""16"",""161082""
""blur"",""19"",""240531""
""blur"",""19"",""259226""
""blur"",""19"",""265937""
""blur"",""19"",""284887""
""blur"",""19"",""299508""
""blur"",""36"",""424222""
""blur"",""36"",""430883""
""blur"",""43"",""514605""
""blur"",""65"",""646807""
","""event"",""trial"",""time""
""focus"",""19"",""193657""
""focus"",""19"",""242756""
""focus"",""19"",""264619""
""focus"",""19"",""282848""
""focus"",""19"",""295301""
""focus"",""19"",""313430""
""focus"",""36"",""427172""
""focus"",""36"",""472487""
""focus"",""58"",""585801""
""focus"",""70"",""670838""
","""event"",""trial"",""time""
""fullscreenenter"",""1"",""1157""
","
","","","-1","","","11","4366","625","&#9826;","elianto","#f73b6a7A","-1","-1","1","0","[]","0","0","3","","","","","","","",""
"call-function","79","708323","0.0-2.0-15.0","battery-v0.2","","""event"",""trial"",""time""
""fullscreenenter"",""1"",""1157""
""blur"",""16"",""161082""
""focus"",""19"",""193657""
""blur"",""19"",""240531""
""focus"",""19"",""242756""
""blur"",""19"",""259226""
""focus"",""19"",""264619""
""blur"",""19"",""265937""
""focus"",""19"",""282848""
""blur"",""19"",""284887""
""focus"",""19"",""295301""
""blur"",""19"",""299508""
""focus"",""19"",""313430""
""blur"",""36"",""424222""
""focus"",""36"",""427172""
""blur"",""36"",""430883""
""focus"",""36"",""472487""
""blur"",""43"",""514605""
""focus"",""58"",""585801""
""blur"",""65"",""646807""
""focus"",""70"",""670838""
""blur"",""80"",""724660""
""focus"",""80"",""783953""
","""event"",""trial"",""time""
""blur"",""16"",""161082""
""blur"",""19"",""240531""
""blur"",""19"",""259226""
""blur"",""19"",""265937""
""blur"",""19"",""284887""
""blur"",""19"",""299508""
""blur"",""36"",""424222""
""blur"",""36"",""430883""
""blur"",""43"",""514605""
""blur"",""65"",""646807""
""blur"",""80"",""724660""
","""event"",""trial"",""time""
""focus"",""19"",""193657""
""focus"",""19"",""242756""
""focus"",""19"",""264619""
""focus"",""19"",""282848""
""focus"",""19"",""295301""
""focus"",""19"",""313430""
""focus"",""36"",""427172""
""focus"",""36"",""472487""
""focus"",""58"",""585801""
""focus"",""70"",""670838""
""focus"",""80"",""783953""
","""event"",""trial"",""time""
""fullscreenenter"",""1"",""1157""
","
","","","","","","","","","","","","","","","","","","","","","","","","","","",""
"pit-instructions","80","793460","0.0-2.0-16.0","battery-v0.2","","""event"",""trial"",""time""
""fullscreenenter"",""1"",""1157""
""blur"",""16"",""161082""
""focus"",""19"",""193657""
""blur"",""19"",""240531""
""focus"",""19"",""242756""
""blur"",""19"",""259226""
""focus"",""19"",""264619""
""blur"",""19"",""265937""
""focus"",""19"",""282848""
""blur"",""19"",""284887""
""focus"",""19"",""295301""
""blur"",""19"",""299508""
""focus"",""19"",""313430""
""blur"",""36"",""424222""
""focus"",""36"",""427172""
""blur"",""36"",""430883""
""focus"",""36"",""472487""
""blur"",""43"",""514605""
""focus"",""58"",""585801""
""blur"",""65"",""646807""
""focus"",""70"",""670838""
""blur"",""80"",""724660""
""focus"",""80"",""783953""
","""event"",""trial"",""time""
""blur"",""16"",""161082""
""blur"",""19"",""240531""
""blur"",""19"",""259226""
""blur"",""19"",""265937""
""blur"",""19"",""284887""
""blur"",""19"",""299508""
""blur"",""36"",""424222""
""blur"",""36"",""430883""
""blur"",""43"",""514605""
""blur"",""65"",""646807""
""blur"",""80"",""724660""
","""event"",""trial"",""time""
""focus"",""19"",""193657""
""focus"",""19"",""242756""
""focus"",""19"",""264619""
""focus"",""19"",""282848""
""focus"",""19"",""295301""
""focus"",""19"",""313430""
""focus"",""36"",""427172""
""focus"",""36"",""472487""
""focus"",""58"",""585801""
""focus"",""70"",""670838""
""focus"",""80"",""783953""
","""event"",""trial"",""time""
""fullscreenenter"",""1"",""1157""
","
","","[{""page_index"":0,""viewing_time"":6479.699999988079},{""page_index"":1,""viewing_time"":69268.59999999404},{""page_index"":2,""viewing_time"":4214.300000011921},{""page_index"":3,""viewing_time"":5173.699999988079}]","85136.40000000596","","","","","","","","","","","","","","","","","","","","","","","",""
"pit-trial","81","796794","0.0-2.0-17.0-0.0","battery-v0.2","","""event"",""trial"",""time""
""fullscreenenter"",""1"",""1157""
""blur"",""16"",""161082""
""focus"",""19"",""193657""
""blur"",""19"",""240531""
""focus"",""19"",""242756""
""blur"",""19"",""259226""
""focus"",""19"",""264619""
""blur"",""19"",""265937""
""focus"",""19"",""282848""
""blur"",""19"",""284887""
""focus"",""19"",""295301""
""blur"",""19"",""299508""
""focus"",""19"",""313430""
""blur"",""36"",""424222""
""focus"",""36"",""427172""
""blur"",""36"",""430883""
""focus"",""36"",""472487""
""blur"",""43"",""514605""
""focus"",""58"",""585801""
""blur"",""65"",""646807""
""focus"",""70"",""670838""
""blur"",""80"",""724660""
""focus"",""80"",""783953""
","""event"",""trial"",""time""
""blur"",""16"",""161082""
""blur"",""19"",""240531""
""blur"",""19"",""259226""
""blur"",""19"",""265937""
""blur"",""19"",""284887""
""blur"",""19"",""299508""
""blur"",""36"",""424222""
""blur"",""36"",""430883""
""blur"",""43"",""514605""
""blur"",""65"",""646807""
""blur"",""80"",""724660""
","""event"",""trial"",""time""
""focus"",""19"",""193657""
""focus"",""19"",""242756""
""focus"",""19"",""264619""
""focus"",""19"",""282848""
""focus"",""19"",""295301""
""focus"",""19"",""313430""
""focus"",""36"",""427172""
""focus"",""36"",""472487""
""focus"",""58"",""585801""
""focus"",""70"",""670838""
""focus"",""80"",""783953""
","""event"",""trial"",""time""
""fullscreenenter"",""1"",""1157""
","
","","","478.5","","","11","4366","625","&#9789;","elianto","#f73b6a7A"," "," ","1","0","[1332.0999999940395]","1","0","4","","","","","","","",""
"pit-trial","82","799820","0.0-2.0-17.0-1.0","battery-v0.2","","""event"",""trial"",""time""
""fullscreenenter"",""1"",""1157""
""blur"",""16"",""161082""
""focus"",""19"",""193657""
""blur"",""19"",""240531""
""focus"",""19"",""242756""
""blur"",""19"",""259226""
""focus"",""19"",""264619""
""blur"",""19"",""265937""
""focus"",""19"",""282848""
""blur"",""19"",""284887""
""focus"",""19"",""295301""
""blur"",""19"",""299508""
""focus"",""19"",""313430""
""blur"",""36"",""424222""
""focus"",""36"",""427172""
""blur"",""36"",""430883""
""focus"",""36"",""472487""
""blur"",""43"",""514605""
""focus"",""58"",""585801""
""blur"",""65"",""646807""
""focus"",""70"",""670838""
""blur"",""80"",""724660""
""focus"",""80"",""783953""
","""event"",""trial"",""time""
""blur"",""16"",""161082""
""blur"",""19"",""240531""
""blur"",""19"",""259226""
""blur"",""19"",""265937""
""blur"",""19"",""284887""
""blur"",""19"",""299508""
""blur"",""36"",""424222""
""blur"",""36"",""430883""
""blur"",""43"",""514605""
""blur"",""65"",""646807""
""blur"",""80"",""724660""
","""event"",""trial"",""time""
""focus"",""19"",""193657""
""focus"",""19"",""242756""
""focus"",""19"",""264619""
""focus"",""19"",""282848""
""focus"",""19"",""295301""
""focus"",""19"",""313430""
""focus"",""36"",""427172""
""focus"",""36"",""472487""
""focus"",""58"",""585801""
""focus"",""70"",""670838""
""focus"",""80"",""783953""
","""event"",""trial"",""time""
""fullscreenenter"",""1"",""1157""
","
","","","166.7000000178814","","","11","4366","625","&#9789;","elianto","#f73b6a7A"," "," ","1","0","[1022.9000000059605]","1","0","4","","","","","","","",""
"pit-trial","83","803797","0.0-2.0-17.0-2.0","battery-v0.2","","""event"",""trial"",""time""
""fullscreenenter"",""1"",""1157""
""blur"",""16"",""161082""
""focus"",""19"",""193657""
""blur"",""19"",""240531""
""focus"",""19"",""242756""
""blur"",""19"",""259226""
""focus"",""19"",""264619""
""blur"",""19"",""265937""
""focus"",""19"",""282848""
""blur"",""19"",""284887""
""focus"",""19"",""295301""
""blur"",""19"",""299508""
""focus"",""19"",""313430""
""blur"",""36"",""424222""
""focus"",""36"",""427172""
""blur"",""36"",""430883""
""focus"",""36"",""472487""
""blur"",""43"",""514605""
""focus"",""58"",""585801""
""blur"",""65"",""646807""
""focus"",""70"",""670838""
""blur"",""80"",""724660""
""focus"",""80"",""783953""
","""event"",""trial"",""time""
""blur"",""16"",""161082""
""blur"",""19"",""240531""
""blur"",""19"",""259226""
""blur"",""19"",""265937""
""blur"",""19"",""284887""
""blur"",""19"",""299508""
""blur"",""36"",""424222""
""blur"",""36"",""430883""
""blur"",""43"",""514605""
""blur"",""65"",""646807""
""blur"",""80"",""724660""
","""event"",""trial"",""time""
""focus"",""19"",""193657""
""focus"",""19"",""242756""
""focus"",""19"",""264619""
""focus"",""19"",""282848""
""focus"",""19"",""295301""
""focus"",""19"",""313430""
""focus"",""36"",""427172""
""focus"",""36"",""472487""
""focus"",""58"",""585801""
""focus"",""70"",""670838""
""focus"",""80"",""783953""
","""event"",""trial"",""time""
""fullscreenenter"",""1"",""1157""
","
","","","1107.699999988079","","","11","4366","625","&#9789;","elianto","#f73b6a7A"," "," ","1","0","[580.5999999940395,1960.0999999940395]","2","0","4","","","","","","","",""
"pit-trial","84","807041","0.0-2.0-17.0-3.0","battery-v0.2","","""event"",""trial"",""time""
""fullscreenenter"",""1"",""1157""
""blur"",""16"",""161082""
""focus"",""19"",""193657""
""blur"",""19"",""240531""
""focus"",""19"",""242756""
""blur"",""19"",""259226""
""focus"",""19"",""264619""
""blur"",""19"",""265937""
""focus"",""19"",""282848""
""blur"",""19"",""284887""
""focus"",""19"",""295301""
""blur"",""19"",""299508""
""focus"",""19"",""313430""
""blur"",""36"",""424222""
""focus"",""36"",""427172""
""blur"",""36"",""430883""
""focus"",""36"",""472487""
""blur"",""43"",""514605""
""focus"",""58"",""585801""
""blur"",""65"",""646807""
""focus"",""70"",""670838""
