"trial_type","trial_index","time_elapsed","internal_node_id","task_version","subject_id","interactions","blur_events","focus_events","fullscreenenter_events","fullscreenexit_events","success","view_history","rt","responses","num_errors","age","subject","participantId","rune","rune_set","hex","correct","choice","accuracy","outcome","keys","total_keys","block","practice","value","sub","trial","stimulus","robot","valence","action","sham"
"pavlovia","0","8","0.0-0.0","battery-v0.2","","""event"",""trial"",""time""
""fullscreenenter"",""1"",""1265""
","
","
","""event"",""trial"",""time""
""fullscreenenter"",""1"",""1265""
","
","","","","","","","","","","","","","","","","","","","","","","","","","","",""
"fullscreen","1","2258","0.0-1.0","battery-v0.2","","""event"",""trial"",""time""
""fullscreenenter"",""1"",""1265""
","
","
","""event"",""trial"",""time""
""fullscreenenter"",""1"",""1265""
","
","true","","","","","","","","","","","","","","","","","","","","","","","","","",""
"pit-instructions","2","8989","0.0-2.0-0.0","battery-v0.2","","""event"",""trial"",""time""
""fullscreenenter"",""1"",""1265""
","
","
","""event"",""trial"",""time""
""fullscreenenter"",""1"",""1265""
","
","","[{""page_index"":0,""viewing_time"":6727.200000047684}]","6727.600000023842","","","","","","","","","","","","","","","","","","","","","","","",""
"pit-comprehension","3","12606","0.0-2.0-1.0-0.0","battery-v0.2","","""event"",""trial"",""time""
""fullscreenenter"",""1"",""1265""
","
","
","""event"",""trial"",""time""
""fullscreenenter"",""1"",""1265""
","
","","","3613.6999999284744","[""shark""]","0","25","11363","165","","","","","","","","","","","","","","","","","","",""
"pit-instructions","4","14823","0.0-2.0-1.0-1.0","battery-v0.2","","""event"",""trial"",""time""
""fullscreenenter"",""1"",""1265""
","
","
","""event"",""trial"",""time""
""fullscreenenter"",""1"",""1265""
","
","","[{""page_index"":0,""viewing_time"":2207.5}]","2207.7999999523163","","","","","","","","","","","","","","","","","","","","","","","",""
"pit-comprehension","5","17923","0.0-2.0-2.0-0.0","battery-v0.2","","""event"",""trial"",""time""
""fullscreenenter"",""1"",""1265""
","
","
","""event"",""trial"",""time""
""fullscreenenter"",""1"",""1265""
","
","","","3096.7000000476837","[""tiger""]","0","25","11363","165","","","","","","","","","","","","","","","","","","",""
"pit-instructions","6","18923","0.0-2.0-2.0-1.0","battery-v0.2","","""event"",""trial"",""time""
""fullscreenenter"",""1"",""1265""
","
","
","""event"",""trial"",""time""
""fullscreenenter"",""1"",""1265""
","
","","[{""page_index"":0,""viewing_time"":996.2999999523163}]","996.8999999761581","","","","","","","","","","","","","","","","","","","","","","","",""
"pit-instructions","7","137307","0.0-2.0-3.0","battery-v0.2","","""event"",""trial"",""time""
""fullscreenenter"",""1"",""1265""
","
","
","""event"",""trial"",""time""
""fullscreenenter"",""1"",""1265""
","
","","[{""page_index"":0,""viewing_time"":11380.399999976158},{""page_index"":1,""viewing_time"":8130.800000071526},{""page_index"":2,""viewing_time"":8352.399999976158},{""page_index"":3,""viewing_time"":5833.399999976158},{""page_index"":4,""viewing_time"":6368},{""page_index"":5,""viewing_time"":12982},{""page_index"":6,""viewing_time"":12252.800000071526},{""page_index"":7,""viewing_time"":7030.399999976158},{""page_index"":8,""viewing_time"":7383.5},{""page_index"":9,""viewing_time"":11087},{""page_index"":10,""viewing_time"":7280.799999952316},{""page_index"":11,""viewing_time"":8719.700000047684},{""page_index"":12,""viewing_time"":6098.600000023842},{""page_index"":13,""viewing_time"":5486.099999904633}]","118386.39999997616","","","","","","","","","","","","","","","","","","","","","","","",""
"pit-trial","8","140778","0.0-2.0-4.0-0.0","battery-v0.2","","""event"",""trial"",""time""
""fullscreenenter"",""1"",""1265""
","
","
","""event"",""trial"",""time""
""fullscreenenter"",""1"",""1265""
","
","","","608.1000000238419","","","25","11363","165","&#9784;","elianto","#FFFFF080"," "," ","1","&#10004","[1461.4000000953674]","1","0","0","","","","","","","",""
"pit-trial","9","144371","0.0-2.0-4.1-0.1","battery-v0.2","","""event"",""trial"",""time""
""fullscreenenter"",""1"",""1265""
","
","
","""event"",""trial"",""time""
""fullscreenenter"",""1"",""1265""
","
","","","731.5","","","25","11363","165","&#9784;","elianto","#FFFFF080"," "," ","1","&#10004","[1582.8999999761581]","1","0","0","","","","","","","",""
"pit-trial","10","147752","0.0-2.0-4.2-0.2","battery-v0.2","","""event"",""trial"",""time""
""fullscreenenter"",""1"",""1265""
","
","
","""event"",""trial"",""time""
""fullscreenenter"",""1"",""1265""
","
","","","523","","","25","11363","165","&#9784;","elianto","#FFFFF080"," "," ","1","&#10004","[1374.2999999523163]","1","0","0","","","","","","","",""
"pit-trial","11","151099","0.0-2.0-4.3-0.3","battery-v0.2","","""event"",""trial"",""time""
""fullscreenenter"",""1"",""1265""
","
","
","""event"",""trial"",""time""
""fullscreenenter"",""1"",""1265""
","
","","","487","","","25","11363","165","&#9784;","elianto","#FFFFF080"," "," ","1","&#10004","[1337.5]","1","0","0","","","","","","","",""
"pit-trial","12","154401","0.0-2.0-4.4-0.4","battery-v0.2","","""event"",""trial"",""time""
""fullscreenenter"",""1"",""1265""
","
","
","""event"",""trial"",""time""
""fullscreenenter"",""1"",""1265""
","
","","","441","","","25","11363","165","&#9784;","elianto","#FFFFF080"," "," ","1","&#10004","[1292]","1","0","0","","","","","","","",""
"pit-instructions","13","183574","0.0-2.0-5.0","battery-v0.2","","""event"",""trial"",""time""
""fullscreenenter"",""1"",""1265""
","
","
","""event"",""trial"",""time""
""fullscreenenter"",""1"",""1265""
","
","","[{""page_index"":0,""viewing_time"":7699.299999952316},{""page_index"":1,""viewing_time"":7884.700000047684},{""page_index"":2,""viewing_time"":6216.100000023842},{""page_index"":3,""viewing_time"":7369}]","29169.600000023842","","","","","","","","","","","","","","","","","","","","","","","",""
"pit-trial","14","188438","0.0-2.0-6.0-0.0","battery-v0.2","","""event"",""trial"",""time""
""fullscreenenter"",""1"",""1265""
","
","
","""event"",""trial"",""time""
""fullscreenenter"",""1"",""1265""
","
","","","-1","","","25","11363","165","&#9854;","elianto","#FFFFF080","-1","-1","1","&#10004","[]","0","0","1","","","","","","","",""
"pit-trial","15","193303","0.0-2.0-6.1-0.1","battery-v0.2","","""event"",""trial"",""time""
""fullscreenenter"",""1"",""1265""
","
","
","""event"",""trial"",""time""
""fullscreenenter"",""1"",""1265""
","
","","","-1","","","25","11363","165","&#9854;","elianto","#FFFFF080","-1","-1","1","&#10004","[]","0","0","1","","","","","","","",""
"pit-trial","16","198169","0.0-2.0-6.2-0.2","battery-v0.2","","""event"",""trial"",""time""
""fullscreenenter"",""1"",""1265""
","
","
","""event"",""trial"",""time""
""fullscreenenter"",""1"",""1265""
","
","","","-1","","","25","11363","165","&#9854;","elianto","#FFFFF080","-1","-1","1","&#10004","[]","0","0","1","","","","","","","",""
"pit-trial","17","203034","0.0-2.0-6.3-0.3","battery-v0.2","","""event"",""trial"",""time""
""fullscreenenter"",""1"",""1265""
","
","
","""event"",""trial"",""time""
""fullscreenenter"",""1"",""1265""
","
","","","-1","","","25","11363","165","&#9854;","elianto","#FFFFF080","-1","-1","1","&#10004","[]","0","0","1","","","","","","","",""
"pit-trial","18","207899","0.0-2.0-6.4-0.4","battery-v0.2","","""event"",""trial"",""time""
""fullscreenenter"",""1"",""1265""
","
","
","""event"",""trial"",""time""
""fullscreenenter"",""1"",""1265""
","
","","","-1","","","25","11363","165","&#9854;","elianto","#FFFFF080","-1","-1","1","&#10004","[]","0","0","1","","","","","","","",""
"pit-instructions","19","346306","0.0-2.0-7.0","battery-v0.2","","""event"",""trial"",""time""
""fullscreenenter"",""1"",""1265""
","
","
","""event"",""trial"",""time""
""fullscreenenter"",""1"",""1265""
","
","","[{""page_index"":0,""viewing_time"":8021},{""page_index"":1,""viewing_time"":7380.300000071526},{""page_index"":2,""viewing_time"":6783},{""page_index"":3,""viewing_time"":6934.5},{""page_index"":4,""viewing_time"":9003.5},{""page_index"":5,""viewing_time"":6200},{""page_index"":6,""viewing_time"":5666},{""page_index"":7,""viewing_time"":8217.199999928474},{""page_index"":8,""viewing_time"":7169},{""page_index"":9,""viewing_time"":6364.700000047684},{""page_index"":10,""viewing_time"":6538},{""page_index"":11,""viewing_time"":4849.699999928474},{""page_index"":12,""viewing_time"":6828.300000071526},{""page_index"":13,""viewing_time"":11217.299999952316},{""page_index"":14,""viewing_time"":9184},{""page_index"":15,""viewing_time"":9017.200000047684},{""page_index"":16,""viewing_time"":8769.100000023842},{""page_index"":17,""viewing_time"":10265.299999952316}]","138408.60000002384","","","","","","","","","","","","","","","","","","","","","","","",""
"pit-trial","20","349773","0.0-2.0-8.0-0.0","battery-v0.2","","""event"",""trial"",""time""
""fullscreenenter"",""1"",""1265""
","
","
","""event"",""trial"",""time""
""fullscreenenter"",""1"",""1265""
","
","","","606.3999999761581","","","25","11363","165","&#9776;","elianto","#3366ff99"," "," ","1","+10","[1458.2999999523163]","1","0","1","","","","","","","",""
"pit-trial","21","353077","0.0-2.0-8.0-1.0","battery-v0.2","","""event"",""trial"",""time""
""fullscreenenter"",""1"",""1265""
","
","
","""event"",""trial"",""time""
""fullscreenenter"",""1"",""1265""
","
","","","444.40000009536743","","","25","11363","165","&#9776;","elianto","#3366ff99"," "," ","1","+10","[1295.3999999761581]","1","0","1","","","","","","","",""
"pit-trial","22","356389","0.0-2.0-8.0-2.0","battery-v0.2","","""event"",""trial"",""time""
""fullscreenenter"",""1"",""1265""
","
","
","""event"",""trial"",""time""
""fullscreenenter"",""1"",""1265""
","
","","","450.3000000715256","","","25","11363","165","&#9776;","elianto","#3366ff99"," "," ","1","+10","[1303.1000000238419]","1","0","1","","","","","","","",""
"pit-trial","23","359686","0.0-2.0-8.0-3.0","battery-v0.2","","""event"",""trial"",""time""
""fullscreenenter"",""1"",""1265""
","
","
","""event"",""trial"",""time""
""fullscreenenter"",""1"",""1265""
","
","","","440.89999997615814","","","25","11363","165","&#9776;","elianto","#3366ff99"," "," ","1","0","[1293]","1","0","1","","","","","","","",""
"pit-trial","24","362964","0.0-2.0-8.0-4.0","battery-v0.2","","""event"",""trial"",""time""
""fullscreenenter"",""1"",""1265""
","
","
","""event"",""trial"",""time""
""fullscreenenter"",""1"",""1265""
","
","","","422.3000000715256","","","25","11363","165","&#9776;","elianto","#3366ff99"," "," ","1","+10","[1273.5]","1","0","1","","","","","","","",""
"pit-trial","25","366102","0.0-2.0-8.1-0.1","battery-v0.2","","""event"",""trial"",""time""
""fullscreenenter"",""1"",""1265""
","
","
","""event"",""trial"",""time""
""fullscreenenter"",""1"",""1265""
","
","","","281.39999997615814","","","25","11363","165","&#9776;","elianto","#3366ff99"," "," ","1","+10","[1131.8999999761581]","1","0","1","","","","","","","",""
"pit-trial","26","369362","0.0-2.0-8.1-1.1","battery-v0.2","","""event"",""trial"",""time""
""fullscreenenter"",""1"",""1265""
","
","
","""event"",""trial"",""time""
""fullscreenenter"",""1"",""1265""
","
","","","401.7999999523163","","","25","11363","165","&#9776;","elianto","#3366ff99"," "," ","1","+10","[1252.1999999284744]","1","0","1","","","","","","","",""
"pit-trial","27","372393","0.0-2.0-8.1-2.1","battery-v0.2","","""event"",""trial"",""time""
""fullscreenenter"",""1"",""1265""
","
","
","""event"",""trial"",""time""
""fullscreenenter"",""1"",""1265""
","
","","","170.90000009536743","","","25","11363","165","&#9776;","elianto","#3366ff99"," "," ","1","+10","[1024.9000000953674]","1","0","1","","","","","","","",""
"pit-trial","28","375531","0.0-2.0-8.1-3.1","battery-v0.2","","""event"",""trial"",""time""
""fullscreenenter"",""1"",""1265""
","
","
","""event"",""trial"",""time""
""fullscreenenter"",""1"",""1265""
","
","","","278.2999999523163","","","25","11363","165","&#9776;","elianto","#3366ff99"," "," ","1","0","[1129]","1","0","1","","","","","","","",""
"pit-trial","29","378409","0.0-2.0-8.1-4.1","battery-v0.2","","""event"",""trial"",""time""
""fullscreenenter"",""1"",""1265""
","
","
","""event"",""trial"",""time""
""fullscreenenter"",""1"",""1265""
","
","","","21.799999952316284","","","25","11363","165","&#9776;","elianto","#3366ff99"," "," ","1","+10","[873.8999999761581]","1","0","1","","","","","","","",""
"pit-trial","30","381460","0.0-2.0-8.2-0.2","battery-v0.2","","""event"",""trial"",""time""
""fullscreenenter"",""1"",""1265""
","
","
","""event"",""trial"",""time""
""fullscreenenter"",""1"",""1265""
","
","","","190","","","25","11363","165","&#9776;","elianto","#3366ff99"," "," ","1","+10","[1043.3999999761581]","1","0","1","","","","","","","",""
"pit-trial","31","384599","0.0-2.0-8.2-1.2","battery-v0.2","","""event"",""trial"",""time""
""fullscreenenter"",""1"",""1265""
","
","
","""event"",""trial"",""time""
""fullscreenenter"",""1"",""1265""
","
","","","280.60000002384186","","","25","11363","165","&#9776;","elianto","#3366ff99"," "," ","1","+10","[1132.6000000238419]","1","0","1","","","","","","","",""
"pit-trial","32","387626","0.0-2.0-8.2-2.2","battery-v0.2","","""event"",""trial"",""time""
""fullscreenenter"",""1"",""1265""
","
","
","""event"",""trial"",""time""
""fullscreenenter"",""1"",""1265""
","
","","","171.70000004768372","","","25","11363","165","&#9776;","elianto","#3366ff99"," "," ","1","+10","[1022.1000000238419]","1","0","1","","","","","","","",""
"pit-trial","33","390781","0.0-2.0-8.2-3.2","battery-v0.2","","""event"",""trial"",""time""
""fullscreenenter"",""1"",""1265""
","
","
","""event"",""trial"",""time""
""fullscreenenter"",""1"",""1265""
","
","","","295.5","","","25","11363","165","&#9776;","elianto","#3366ff99"," "," ","1","0","[1148.2999999523163]","1","0","1","","","","","","","",""
"pit-trial","34","393906","0.0-2.0-8.2-4.2","battery-v0.2","","""event"",""trial"",""time""
""fullscreenenter"",""1"",""1265""
","
","
","""event"",""trial"",""time""
""fullscreenenter"",""1"",""1265""
","
","","","265","","","25","11363","165","&#9776;","elianto","#3366ff99"," "," ","1","+10","[1117.3000000715256]","1","0","1","","","","","","","",""
"call-function","35","393909","0.0-2.0-9.0","battery-v0.2","","""event"",""trial"",""time""
""fullscreenenter"",""1"",""1265""
","
","
","""event"",""trial"",""time""
""fullscreenenter"",""1"",""1265""
","
","","","","","","","","","","","","","","","","","","","","","","","","","","",""
"pit-instructions","36","438823","0.0-2.0-10.0","battery-v0.2","","""event"",""trial"",""time""
""fullscreenenter"",""1"",""1265""
","
","
","""event"",""trial"",""time""
""fullscreenenter"",""1"",""1265""
","
","","[{""page_index"":0,""viewing_time"":7645.199999928474},{""page_index"":1,""viewing_time"":7169.300000071526},{""page_index"":2,""viewing_time"":9884.899999976158},{""page_index"":3,""viewing_time"":11367.399999976158},{""page_index"":4,""viewing_time"":8847.200000047684}]","44914.5","","","","","","","","","","","","","","","","","","","","","","","",""
"pit-trial","37","443686","0.0-2.0-11.0-0.0","battery-v0.2","","""event"",""trial"",""time""
""fullscreenenter"",""1"",""1265""
","
","
","""event"",""trial"",""time""
""fullscreenenter"",""1"",""1265""
","
","","","-1","","","25","11363","165","&#9761;","elianto","#3366ff99","-1","-1","1","+10","[]","0","0","2","","","","","","","",""
"pit-trial","38","448548","0.0-2.0-11.0-1.0","battery-v0.2","","""event"",""trial"",""time""
""fullscreenenter"",""1"",""1265""
","
","
","""event"",""trial"",""time""
""fullscreenenter"",""1"",""1265""
","
","","","-1","","","25","11363","165","&#9761;","elianto","#3366ff99","-1","-1","1","+10","[]","0","0","2","","","","","","","",""
"pit-trial","39","453412","0.0-2.0-11.0-2.0","battery-v0.2","","""event"",""trial"",""time""
""fullscreenenter"",""1"",""1265""
","
","
","""event"",""trial"",""time""
""fullscreenenter"",""1"",""1265""
","
","","","-1","","","25","11363","165","&#9761;","elianto","#3366ff99","-1","-1","1","+10","[]","0","0","2","","","","","","","",""
"pit-trial","40","458273","0.0-2.0-11.0-3.0","battery-v0.2","","""event"",""trial"",""time""
""fullscreenenter"",""1"",""1265""
","
","
","""event"",""trial"",""time""
""fullscreenenter"",""1"",""1265""
","
","","","-1","","","25","11363","165","&#9761;","elianto","#3366ff99","-1","-1","1","0","[]","0","0","2","","","","","","","",""
"pit-trial","41","463136","0.0-2.0-11.0-4.0","battery-v0.2","","""event"",""trial"",""time""
""fullscreenenter"",""1"",""1265""
","
","
","""event"",""trial"",""time""
""fullscreenenter"",""1"",""1265""
","
","","","-1","","","25","11363","165","&#9761;","elianto","#3366ff99","-1","-1","1","+10","[]","0","0","2","","","","","","","",""
"pit-trial","42","467998","0.0-2.0-11.1-0.1","battery-v0.2","","""event"",""trial"",""time""
""fullscreenenter"",""1"",""1265""
","
","
","""event"",""trial"",""time""
""fullscreenenter"",""1"",""1265""
","
","","","-1","","","25","11363","165","&#9761;","elianto","#3366ff99","-1","-1","1","+10","[]","0","0","2","","","","","","","",""
"pit-trial","43","472862","0.0-2.0-11.1-1.1","battery-v0.2","","""event"",""trial"",""time""
""fullscreenenter"",""1"",""1265""
","
","
","""event"",""trial"",""time""
""fullscreenenter"",""1"",""1265""
","
","","","-1","","","25","11363","165","&#9761;","elianto","#3366ff99","-1","-1","1","+10","[]","0","0","2","","","","","","","",""
"pit-trial","44","477725","0.0-2.0-11.1-2.1","battery-v0.2","","""event"",""trial"",""time""
""fullscreenenter"",""1"",""1265""
","
","
","""event"",""trial"",""time""
""fullscreenenter"",""1"",""1265""
","
","","","-1","","","25","11363","165","&#9761;","elianto","#3366ff99","-1","-1","1","+10","[]","0","0","2","","","","","","","",""
"pit-trial","45","482588","0.0-2.0-11.1-3.1","battery-v0.2","","""event"",""trial"",""time""
""fullscreenenter"",""1"",""1265""
","
","
","""event"",""trial"",""time""
""fullscreenenter"",""1"",""1265""
","
","","","-1","","","25","11363","165","&#9761;","elianto","#3366ff99","-1","-1","1","0","[]","0","0","2","","","","","","","",""
"pit-trial","46","487451","0.0-2.0-11.1-4.1","battery-v0.2","","""event"",""trial"",""time""
""fullscreenenter"",""1"",""1265""
","
","
","""event"",""trial"",""time""
""fullscreenenter"",""1"",""1265""
","
","","","-1","","","25","11363","165","&#9761;","elianto","#3366ff99","-1","-1","1","+10","[]","0","0","2","","","","","","","",""
"pit-trial","47","492314","0.0-2.0-11.2-0.2","battery-v0.2","","""event"",""trial"",""time""
""fullscreenenter"",""1"",""1265""
","
","
","""event"",""trial"",""time""
""fullscreenenter"",""1"",""1265""
","
","","","-1","","","25","11363","165","&#9761;","elianto","#3366ff99","-1","-1","1","+10","[]","0","0","2","","","","","","","",""
"pit-trial","48","497175","0.0-2.0-11.2-1.2","battery-v0.2","","""event"",""trial"",""time""
""fullscreenenter"",""1"",""1265""
","
","
","""event"",""trial"",""time""
""fullscreenenter"",""1"",""1265""
","
","","","-1","","","25","11363","165","&#9761;","elianto","#3366ff99","-1","-1","1","+10","[]","0","0","2","","","","","","","",""
"pit-trial","49","502038","0.0-2.0-11.2-2.2","battery-v0.2","","""event"",""trial"",""time""
""fullscreenenter"",""1"",""1265""
","
","
","""event"",""trial"",""time""
""fullscreenenter"",""1"",""1265""
","
","","","-1","","","25","11363","165","&#9761;","elianto","#3366ff99","-1","-1","1","+10","[]","0","0","2","","","","","","","",""
"pit-trial","50","506900","0.0-2.0-11.2-3.2","battery-v0.2","","""event"",""trial"",""time""
""fullscreenenter"",""1"",""1265""
","
","
","""event"",""trial"",""time""
""fullscreenenter"",""1"",""1265""
","
","","","-1","","","25","11363","165","&#9761;","elianto","#3366ff99","-1","-1","1","0","[]","0","0","2","","","","","","","",""
"pit-trial","51","511760","0.0-2.0-11.2-4.2","battery-v0.2","","""event"",""trial"",""time""
""fullscreenenter"",""1"",""1265""
","
","
","""event"",""trial"",""time""
""fullscreenenter"",""1"",""1265""
","
","","","-1","","","25","11363","165","&#9761;","elianto","#3366ff99","-1","-1","1","+10","[]","0","0","2","","","","","","","",""
"pit-trial","52","516625","0.0-2.0-11.3-0.3","battery-v0.2","","""event"",""trial"",""time""
""fullscreenenter"",""1"",""1265""
","
","
","""event"",""trial"",""time""
""fullscreenenter"",""1"",""1265""
","
","","","-1","","","25","11363","165","&#9761;","elianto","#3366ff99","-1","-1","1","+10","[]","0","0","2","","","","","","","",""
"pit-trial","53","521488","0.0-2.0-11.3-1.3","battery-v0.2","","""event"",""trial"",""time""
""fullscreenenter"",""1"",""1265""
","
","
","""event"",""trial"",""time""
""fullscreenenter"",""1"",""1265""
","
","","","-1","","","25","11363","165","&#9761;","elianto","#3366ff99","-1","-1","1","+10","[]","0","0","2","","","","","","","",""
"pit-trial","54","526346","0.0-2.0-11.3-2.3","battery-v0.2","","""event"",""trial"",""time""
""fullscreenenter"",""1"",""1265""
","
","
","""event"",""trial"",""time""
""fullscreenenter"",""1"",""1265""
","
","","","-1","","","25","11363","165","&#9761;","elianto","#3366ff99","-1","-1","1","+10","[]","0","0","2","","","","","","","",""
"pit-trial","55","531211","0.0-2.0-11.3-3.3","battery-v0.2","","""event"",""trial"",""time""
""fullscreenenter"",""1"",""1265""
","
","
","""event"",""trial"",""time""
""fullscreenenter"",""1"",""1265""
","
","","","-1","","","25","11363","165","&#9761;","elianto","#3366ff99","-1","-1","1","0","[]","0","0","2","","","","","","","",""
"pit-trial","56","536075","0.0-2.0-11.3-4.3","battery-v0.2","","""event"",""trial"",""time""
""fullscreenenter"",""1"",""1265""
","
","
","""event"",""trial"",""time""
""fullscreenenter"",""1"",""1265""
","
","","","-1","","","25","11363","165","&#9761;","elianto","#3366ff99","-1","-1","1","+10","[]","0","0","2","","","","","","","",""
"call-function","57","536078","0.0-2.0-12.0","battery-v0.2","","""event"",""trial"",""time""
""fullscreenenter"",""1"",""1265""
","
","
","""event"",""trial"",""time""
""fullscreenenter"",""1"",""1265""
","
","","","","","","","","","","","","","","","","","","","","","","","","","","",""
"pit-instructions","58","647744","0.0-2.0-13.0","battery-v0.2","","""event"",""trial"",""time""
""fullscreenenter"",""1"",""1265""
","
","
","""event"",""trial"",""time""
""fullscreenenter"",""1"",""1265""
","
","","[{""page_index"":0,""viewing_time"":26083.899999976158},{""page_index"":1,""viewing_time"":50631},{""page_index"":2,""viewing_time"":11967.799999952316},{""page_index"":3,""viewing_time"":13933.300000071526},{""page_index"":4,""viewing_time"":9053.199999928474}]","111669.59999990463","","","","","","","","","","","","","","","","","","","","","","","",""
"pit-trial","59","652607","0.0-2.0-14.0-0.0","battery-v0.2","","""event"",""trial"",""time""
""fullscreenenter"",""1"",""1265""
","
","
","""event"",""trial"",""time""
""fullscreenenter"",""1"",""1265""
","
","","","-1","","","25","11363","165","&#9826;","elianto","#f73b6a7A","-1","-1","1","0","[]","0","0","3","","","","","","","",""
"pit-trial","60","657467","0.0-2.0-14.0-1.0","battery-v0.2","","""event"",""trial"",""time""
""fullscreenenter"",""1"",""1265""
","
","
","""event"",""trial"",""time""
""fullscreenenter"",""1"",""1265""
","
","","","-1","","","25","11363","165","&#9826;","elianto","#f73b6a7A","-1","-1","1","0","[]","0","0","3","","","","","","","",""
"pit-trial","61","662331","0.0-2.0-14.0-2.0","battery-v0.2","","""event"",""trial"",""time""
""fullscreenenter"",""1"",""1265""
","
","
","""event"",""trial"",""time""
""fullscreenenter"",""1"",""1265""
","
","","","-1","","","25","11363","165","&#9826;","elianto","#f73b6a7A","-1","-1","1","0","[]","0","0","3","","","","","","","",""
"pit-trial","62","667190","0.0-2.0-14.0-3.0","battery-v0.2","","""event"",""trial"",""time""
""fullscreenenter"",""1"",""1265""
","
","
","""event"",""trial"",""time""
""fullscreenenter"",""1"",""1265""
","
","","","-1","","","25","11363","165","&#9826;","elianto","#f73b6a7A","-1","-1","1","-10","[]","0","0","3","","","","","","","",""
"pit-trial","63","672054","0.0-2.0-14.0-4.0","battery-v0.2","","""event"",""trial"",""time""
""fullscreenenter"",""1"",""1265""
","
","
","""event"",""trial"",""time""
""fullscreenenter"",""1"",""1265""
","
","","","-1","","","25","11363","165","&#9826;","elianto","#f73b6a7A","-1","-1","1","0","[]","0","0","3","","","","","","","",""
"pit-trial","64","676915","0.0-2.0-14.1-0.1","battery-v0.2","","""event"",""trial"",""time""
""fullscreenenter"",""1"",""1265""
","
","
","""event"",""trial"",""time""
""fullscreenenter"",""1"",""1265""
","
","","","-1","","","25","11363","165","&#9826;","elianto","#f73b6a7A","-1","-1","1","0","[]","0","0","3","","","","","","","",""
"pit-trial","65","681775","0.0-2.0-14.1-1.1","battery-v0.2","","""event"",""trial"",""time""
""fullscreenenter"",""1"",""1265""
","
","
","""event"",""trial"",""time""
""fullscreenenter"",""1"",""1265""
","
","","","-1","","","25","11363","165","&#9826;","elianto","#f73b6a7A","-1","-1","1","0","[]","0","0","3","","","","","","","",""
"pit-trial","66","686640","0.0-2.0-14.1-2.1","battery-v0.2","","""event"",""trial"",""time""
""fullscreenenter"",""1"",""1265""
","
","
","""event"",""trial"",""time""
""fullscreenenter"",""1"",""1265""
","
","","","-1","","","25","11363","165","&#9826;","elianto","#f73b6a7A","-1","-1","1","0","[]","0","0","3","","","","","","","",""
"pit-trial","67","691504","0.0-2.0-14.1-3.1","battery-v0.2","","""event"",""trial"",""time""
""fullscreenenter"",""1"",""1265""
","
","
","""event"",""trial"",""time""
""fullscreenenter"",""1"",""1265""
","
","","","-1","","","25","11363","165","&#9826;","elianto","#f73b6a7A","-1","-1","1","-10","[]","0","0","3","","","","","","","",""
"pit-trial","68","696363","0.0-2.0-14.1-4.1","battery-v0.2","","""event"",""trial"",""time""
""fullscreenenter"",""1"",""1265""
","
","
","""event"",""trial"",""time""
""fullscreenenter"",""1"",""1265""
","
","","","-1","","","25","11363","165","&#9826;","elianto","#f73b6a7A","-1","-1","1","0","[]","0","0","3","","","","","","","",""
"pit-trial","69","701227","0.0-2.0-14.2-0.2","battery-v0.2","","""event"",""trial"",""time""
""fullscreenenter"",""1"",""1265""
","
","
","""event"",""trial"",""time""
""fullscreenenter"",""1"",""1265""
","
","","","-1","","","25","11363","165","&#9826;","elianto","#f73b6a7A","-1","-1","1","0","[]","0","0","3","","","","","","","",""
"pit-trial","70","706089","0.0-2.0-14.2-1.2","battery-v0.2","","""event"",""trial"",""time""
""fullscreenenter"",""1"",""1265""
","
","
","""event"",""trial"",""time""
""fullscreenenter"",""1"",""1265""
","
","","","-1","","","25","11363","165","&#9826;","elianto","#f73b6a7A","-1","-1","1","0","[]","0","0","3","","","","","","","",""
"pit-trial","71","710953","0.0-2.0-14.2-2.2","battery-v0.2","","""event"",""trial"",""time""
""fullscreenenter"",""1"",""1265""
","
","
","""event"",""trial"",""time""
""fullscreenenter"",""1"",""1265""
","
","","","-1","","","25","11363","165","&#9826;","elianto","#f73b6a7A","-1","-1","1","0","[]","0","0","3","","","","","","","",""
"pit-trial","72","715817","0.0-2.0-14.2-3.2","battery-v0.2","","""event"",""trial"",""time""
""fullscreenenter"",""1"",""1265""
","
","
","""event"",""trial"",""time""
""fullscreenenter"",""1"",""1265""
","
","","","-1","","","25","11363","165","&#9826;","elianto","#f73b6a7A","-1","-1","1","-10","[]","0","0","3","","","","","","","",""
"pit-trial","73","720678","0.0-2.0-14.2-4.2","battery-v0.2","","""event"",""trial"",""time""
""fullscreenenter"",""1"",""1265""
","
","
","""event"",""trial"",""time""
""fullscreenenter"",""1"",""1265""
","
","","","-1","","","25","11363","165","&#9826;","elianto","#f73b6a7A","-1","-1","1","0","[]","0","0","3","","","","","","","",""
"pit-trial","74","725539","0.0-2.0-14.3-0.3","battery-v0.2","","""event"",""trial"",""time""
""fullscreenenter"",""1"",""1265""
","
","
","""event"",""trial"",""time""
""fullscreenenter"",""1"",""1265""
","
","","","-1","","","25","11363","165","&#9826;","elianto","#f73b6a7A","-1","-1","1","0","[]","0","0","3","","","","","","","",""
"pit-trial","75","730398","0.0-2.0-14.3-1.3","battery-v0.2","","""event"",""trial"",""time""
""fullscreenenter"",""1"",""1265""
","
","
","""event"",""trial"",""time""
""fullscreenenter"",""1"",""1265""
","
","","","-1","","","25","11363","165","&#9826;","elianto","#f73b6a7A","-1","-1","1","0","[]","0","0","3","","","","","","","",""
"pit-trial","76","735262","0.0-2.0-14.3-2.3","battery-v0.2","","""event"",""trial"",""time""
""fullscreenenter"",""1"",""1265""
","
","
","""event"",""trial"",""time""
""fullscreenenter"",""1"",""1265""
","
","","","-1","","","25","11363","165","&#9826;","elianto","#f73b6a7A","-1","-1","1","0","[]","0","0","3","","","","","","","",""
"pit-trial","77","740127","0.0-2.0-14.3-3.3","battery-v0.2","","""event"",""trial"",""time""
""fullscreenenter"",""1"",""1265""
","
","
","""event"",""trial"",""time""
""fullscreenenter"",""1"",""1265""
","
","","","-1","","","25","11363","165","&#9826;","elianto","#f73b6a7A","-1","-1","1","-10","[]","0","0","3","","","","","","","",""
"pit-trial","78","744985","0.0-2.0-14.3-4.3","battery-v0.2","","""event"",""trial"",""time""
""fullscreenenter"",""1"",""1265""
","
","
","""event"",""trial"",""time""
""fullscreenenter"",""1"",""1265""
","
","","","-1","","","25","11363","165","&#9826;","elianto","#f73b6a7A","-1","-1","1","0","[]","0","0","3","","","","","","","",""
"call-function","79","744987","0.0-2.0-15.0","battery-v0.2","","""event"",""trial"",""time""
""fullscreenenter"",""1"",""1265""
","
","
","""event"",""trial"",""time""
""fullscreenenter"",""1"",""1265""
","
","","","","","","","","","","","","","","","","","","","","","","","","","","",""
"pit-instructions","80","776259","0.0-2.0-16.0","battery-v0.2","","""event"",""trial"",""time""
""fullscreenenter"",""1"",""1265""
","
","
","""event"",""trial"",""time""
""fullscreenenter"",""1"",""1265""
","
","","[{""page_index"":0,""viewing_time"":10354.399999976158},{""page_index"":1,""viewing_time"":9285.100000023842},{""page_index"":2,""viewing_time"":6051.899999976158},{""page_index"":3,""viewing_time"":5580.399999976158}]","31272.5","","","","","","","","","","","","","","","","","","","","","","","",""
"pit-trial","81","779676","0.0-2.0-17.0-0.0","battery-v0.2","","""event"",""trial"",""time""
""fullscreenenter"",""1"",""1265""
","
","
","""event"",""trial"",""time""
""fullscreenenter"",""1"",""1265""
","
","","","561.5","","","25","11363","165","&#9789;","elianto","#f73b6a7A"," "," ","1","0","[1413.7000000476837]","1","0","4","","","","","","","",""
"pit-trial","82","782687","0.0-2.0-17.0-1.0","battery-v0.2","","""event"",""trial"",""time""
""fullscreenenter"",""1"",""1265""
","
","
","""event"",""trial"",""time""
""fullscreenenter"",""1"",""1265""
","
","","","150.29999995231628","","","25","11363","165","&#9789;","elianto","#f73b6a7A"," "," ","1","0","[1002.2999999523163]","1","0","4","","","","","","","",""
"pit-trial","83","785737","0.0-2.0-17.0-2.0","battery-v0.2","","""event"",""trial"",""time""
""fullscreenenter"",""1"",""1265""
","
","
","""event"",""trial"",""time""
""fullscreenenter"",""1"",""1265""
","
","","","194.70000004768372","","","25","11363","165","&#9789;","elianto","#f73b6a7A"," "," ","1","0","[1045.3999999761581]","1","0","4","","","","","","","",""
"pit-trial","84","789663","0.0-2.0-17.0-3.0","battery-v0.2","","""event"",""trial"",""time""
""fullscreenenter"",""1"",""1265""
","
","
","""event"",""trial"",""time""
""fullscreenenter"",""1"",""1265""
","
","","","1066.8000000715256","","","25","11363","165","&#9789;","elianto","#f73b6a7A"," "," ","1","-10","[839.8000000715256,1917.7000000476837]","2","0","4","","","","","","","",""
"pit-trial","85","792959","0.0-2.0-17.0-4.0","battery-v0.2","","""event"",""trial"",""time""
""fullscreenenter"",""1"",""1265""
","
","
","""event"",""trial"",""time""
""fullscreenenter"",""1"",""1265""
","
","","","441.3000000715256","","","25","11363","165","&#9789;","elianto","#f73b6a7A"," "," ","1","0","[1293.6000000238419]","1","0","4","","","","","","","",""
"pit-trial","86","796023","0.0-2.0-17.1-0.1","battery-v0.2","","""event"",""trial"",""time""
""fullscreenenter"",""1"",""1265""
","
","
","""event"",""trial"",""time""
""fullscreenenter"",""1"",""1265""
","
","","","202.20000004768372","","","25","11363","165","&#9789;","elianto","#f73b6a7A"," "," ","1","0","[1054.3000000715256]","1","0","4","","","","","","","",""
"pit-trial","87","799047","0.0-2.0-17.1-1.1","battery-v0.2","","""event"",""trial"",""time""
""fullscreenenter"",""1"",""1265""
","
","
","""event"",""trial"",""time""
""fullscreenenter"",""1"",""1265""
","
","","","167.60000002384186","","","25","11363","165","&#9789;","elianto","#f73b6a7A"," "," ","1","0","[1019.1000000238419]","1","0","4","","","","","","","",""
"pit-trial","88","802117","0.0-2.0-17.1-2.1","battery-v0.2","","""event"",""trial"",""time""
""fullscreenenter"",""1"",""1265""
","
","
","""event"",""trial"",""time""
""fullscreenenter"",""1"",""1265""
","
","","","209.29999995231628","","","25","11363","165","&#9789;","elianto","#f73b6a7A"," "," ","1","0","[1061.6999999284744]","1","0","4","","","","","","","",""
"pit-trial","89","805081","0.0-2.0-17.1-3.1","battery-v0.2","","""event"",""trial"",""time""
""fullscreenenter"",""1"",""1265""
","
","
","""event"",""trial"",""time""
""fullscreenenter"",""1"",""1265""
","
","","","104.90000009536743","","","25","11363","165","&#9789;","elianto","#f73b6a7A"," "," ","1","-10","[955.1000000238419]","1","0","4","","","","","","","",""
"pit-trial","90","808457","0.0-2.0-17.1-4.1","battery-v0.2","","""event"",""trial"",""time""
""fullscreenenter"",""1"",""1265""
","
","
","""event"",""trial"",""time""
""fullscreenenter"",""1"",""1265""
","
","","","516.5","","","25","11363","165","&#9789;","elianto","#f73b6a7A"," "," ","1","0","[799.5,1370]","2","0","4","","","","","","","",""
"pit-trial","91","811583","0.0-2.0-17.2-0.2","battery-v0.2","","""event"",""trial"",""time""
""fullscreenenter"",""1"",""1265""
","
","
","""event"",""trial"",""time""
""fullscreenenter"",""1"",""1265""
","
","","","270.2999999523163","","","25","11363","165","&#9789;","elianto","#f73b6a7A"," "," ","1","0","[1120.5]","1","0","4","","","","","","","",""
"pit-trial","92","814647","0.0-2.0-17.2-1.2","battery-v0.2","","""event"",""trial"",""time""
""fullscreenenter"",""1"",""1265""
","
","
","""event"",""trial"",""time""
""fullscreenenter"",""1"",""1265""
","
","","","207","","","25","11363","165","&#9789;","elianto","#f73b6a7A"," "," ","1","0","[1059.3000000715256]","1","0","4","","","","","","","",""
"pit-trial","93","817709","0.0-2.0-17.2-2.2","battery-v0.2","","""event"",""trial"",""time""
""fullscreenenter"",""1"",""1265""
","
","
","""event"",""trial"",""time""
""fullscreenenter"",""1"",""1265""
","
","","","200","","","25","11363","165","&#9789;","elianto","#f73b6a7A"," "," ","1","0","[1053.5]","1","0","4","","","","","","","",""
"pit-trial","94","820735","0.0-2.0-17.2-3.2","battery-v0.2","","""event"",""trial"",""time""
""fullscreenenter"",""1"",""1265""
","
","
","""event"",""trial"",""time""
""fullscreenenter"",""1"",""1265""
","
","","","170.5","","","25","11363","165","&#9789;","elianto","#f73b6a7A"," "," ","1","-10","[1022.4000000953674]","1","0","4","","","","","","","",""
"pit-trial","95","823741","0.0-2.0-17.2-4.2","battery-v0.2","","""event"",""trial"",""time""
""fullscreenenter"",""1"",""1265""
","
","
","""event"",""trial"",""time""
""fullscreenenter"",""1"",""1265""
","
","","","147.5","","","25","11363","165","&#9789;","elianto","#f73b6a7A"," "," ","1","0","[998.7999999523163]","1","0","4","","","","","","","",""
"pit-trial","96","826787","0.0-2.0-17.3-0.3","battery-v0.2","","""event"",""trial"",""time""
""fullscreenenter"",""1"",""1265""
","
","
","""event"",""trial"",""time""
""fullscreenenter"",""1"",""1265""
","
","","","184.39999997615814","","","25","11363","165","&#9789;","elianto","#f73b6a7A"," "," ","1","0","[1036.7000000476837]","1","0","4","","","","","","","",""
"pit-trial","97","829802","0.0-2.0-17.3-1.3","battery-v0.2","","""event"",""trial"",""time""
""fullscreenenter"",""1"",""1265""
","
","
","""event"",""trial"",""time""
""fullscreenenter"",""1"",""1265""
","
","","","161.39999997615814","","","25","11363","165","&#9789;","elianto","#f73b6a7A"," "," ","1","0","[1012.1999999284744]","1","0","4","","","","","","","",""
"pit-trial","98","832875","0.0-2.0-17.3-2.3","battery-v0.2","","""event"",""trial"",""time""
""fullscreenenter"",""1"",""1265""
","
","
","""event"",""trial"",""time""
""fullscreenenter"",""1"",""1265""
","
","","","214.89999997615814","","","25","11363","165","&#9789;","elianto","#f73b6a7A"," "," ","1","0","[1066.1999999284744]","1","0","4","","","","","","","",""
"pit-trial","99","836026","0.0-2.0-17.3-3.3","battery-v0.2","","""event"",""trial"",""time""
""fullscreenenter"",""1"",""1265""
","
","
","""event"",""trial"",""time""
""fullscreenenter"",""1"",""1265""
","
","","","290.39999997615814","","","25","11363","165","&#9789;","elianto","#f73b6a7A"," "," ","1","-10","[1141.3999999761581]","1","0","4","","","","","","","",""
"pit-trial","100","839052","0.0-2.0-17.3-4.3","battery-v0.2","","""event"",""trial"",""time""
""fullscreenenter"",""1"",""1265""
","
","
","""event"",""trial"",""time""
""fullscreenenter"",""1"",""1265""
","
","","","168.29999995231628","","","25","11363","165","&#9789;","elianto","#f73b6a7A"," "," ","1","0","[1020.5999999046326]","1","0","4","","","","","","","",""
"call-function","101","839054","0.0-2.0-18.0","battery-v0.2","","""event"",""trial"",""time""
""fullscreenenter"",""1"",""1265""
","
","
","""event"",""trial"",""time""
""fullscreenenter"",""1"",""1265""
","
","","","","","","","","","","","","","","","","","","","","","","","","","","",""
"pit-instructions","102","914718","0.0-2.0-19.0","battery-v0.2","","""event"",""trial"",""time""
""fullscreenenter"",""1"",""1265""
","
","
","""event"",""trial"",""time""
""fullscreenenter"",""1"",""1265""
","
","","[{""page_index"":0,""viewing_time"":6653.299999952316},{""page_index"":1,""viewing_time"":6185.100000023842},{""page_index"":2,""viewing_time"":15219.100000023842},{""page_index"":3,""viewing_time"":7796.399999976158},{""page_index"":4,""viewing_time"":9404.300000071526},{""page_index"":5,""viewing_time"":8047.299999952316},{""page_index"":6,""viewing_time"":9785.600000023842},{""page_index"":7,""viewing_time"":7500.699999928474},{""page_index"":8,""viewing_time"":5117.800000071526}]","75710.20000004768","","","","","","","","","","","","","","","","","","","","","","","",""
"pit-comprehension","103","919549","0.0-2.0-20.0-0.0","battery-v0.2","","""event"",""trial"",""time""
""fullscreenenter"",""1"",""1265""
","
","
","""event"",""trial"",""time""
""fullscreenenter"",""1"",""1265""
","
","","","4827.5","[""SPACE""]","0","25","11363","165","","","","","","","","","","","","","","","","","","",""
"pit-instructions","104","922896","0.0-2.0-20.0-1.0","battery-v0.2","","""event"",""trial"",""time""
""fullscreenenter"",""1"",""1265""
","
","
","""event"",""trial"",""time""
""fullscreenenter"",""1"",""1265""
","
","","[{""page_index"":0,""viewing_time"":3315.3000000715256}]","3315.7000000476837","","","","","","","","","","","","","","","","","","","","","","","",""
"pit-comprehension","105","928697","0.0-2.0-21.0-0.0","battery-v0.2","","""event"",""trial"",""time""
""fullscreenenter"",""1"",""1265""
","
","
","""event"",""trial"",""time""
""fullscreenenter"",""1"",""1265""
","
","","","5797.700000047684","[""10""]","0","25","11363","165","","","","","","","","","","","","","","","","","","",""
"pit-instructions","106","931079","0.0-2.0-21.0-1.0","battery-v0.2","","""event"",""trial"",""time""
""fullscreenenter"",""1"",""1265""
","
","
","""event"",""trial"",""time""
""fullscreenenter"",""1"",""1265""
","
","","[{""page_index"":0,""viewing_time"":2355}]","2355.600000023842","","","","","","","","","","","","","","","","","","","","","","","",""
"pit-comprehension","107","937646","0.0-2.0-22.0-0.0","battery-v0.2","","""event"",""trial"",""time""
""fullscreenenter"",""1"",""1265""
","
","
","""event"",""trial"",""time""
""fullscreenenter"",""1"",""1265""
","
","","","6563.899999976158","[""0""]","0","25","11363","165","","","","","","","","","","","","","","","","","","",""
"pit-instructions","108","939811","0.0-2.0-22.0-1.0","battery-v0.2","","""event"",""trial"",""time""
""fullscreenenter"",""1"",""1265""
","
","
","""event"",""trial"",""time""
""fullscreenenter"",""1"",""1265""
","
","","[{""page_index"":0,""viewing_time"":2138.899999976158}]","2139.100000023842","","","","","","","","","","","","","","","","","","","","","","","",""
"pit-comprehension","109","948744","0.0-2.0-23.0-0.0","battery-v0.2","","""event"",""trial"",""time""
""fullscreenenter"",""1"",""1265""
","
","
","""event"",""trial"",""time""
""fullscreenenter"",""1"",""1265""
","
","","","8929.399999976158","[""True""]","0","25","11363","165","","","","","","","","","","","","","","","","","","",""
"pit-instructions","110","950412","0.0-2.0-23.0-1.0","battery-v0.2","","""event"",""trial"",""time""
""fullscreenenter"",""1"",""1265""
","
","
","""event"",""trial"",""time""
""fullscreenenter"",""1"",""1265""
","
","","[{""page_index"":0,""viewing_time"":1636}]","1636.2999999523163","","","","","","","","","","","","","","","","","","","","","","","",""
"pit-comprehension","111","957979","0.0-2.0-24.0-0.0","battery-v0.2","","""event"",""trial"",""time""
""fullscreenenter"",""1"",""1265""
","
","
","""event"",""trial"",""time""
""fullscreenenter"",""1"",""1265""
","
","","","7563.600000023842","[""True""]","0","25","11363","165","","","","","","","","","","","","","","","","","","",""
"pit-instructions","112","960112","0.0-2.0-24.0-1.0","battery-v0.2","","""event"",""trial"",""time""
""fullscreenenter"",""1"",""1265""
","
","
","""event"",""trial"",""time""
""fullscreenenter"",""1"",""1265""
","
","","[{""page_index"":0,""viewing_time"":2105.399999976158}]","2105.7999999523163","","","","","","","","","","","","","","","","","","","","","","","",""
"pit-comprehension","113","967195","0.0-2.0-25.0-0.0","battery-v0.2","","""event"",""trial"",""time""
""fullscreenenter"",""1"",""1265""
","
","
","""event"",""trial"",""time""
""fullscreenenter"",""1"",""1265""
","
","","","7079.700000047684","[""True""]","0","25","11363","165","","","","","","","","","","","","","","","","","","",""
"pit-instructions","114","969326","0.0-2.0-25.0-1.0","battery-v0.2","","""event"",""trial"",""time""
""fullscreenenter"",""1"",""1265""
","
","
","""event"",""trial"",""time""
""fullscreenenter"",""1"",""1265""
","
","","[{""page_index"":0,""viewing_time"":2096.7999999523163}]","2097.2000000476837","","","","","","","","","","","","","","","","","","","","","","","",""
"pit-comprehension","115","974879","0.0-2.0-26.0-0.0","battery-v0.2","","""event"",""trial"",""time""
""fullscreenenter"",""1"",""1265""
","
","
","""event"",""trial"",""time""
""fullscreenenter"",""1"",""1265""
","
","","","5549.399999976158","[""False""]","0","25","11363","165","","","","","","","","","","","","","","","","","","",""
"pit-instructions","116","976478","0.0-2.0-26.0-1.0","battery-v0.2","","""event"",""trial"",""time""
""fullscreenenter"",""1"",""1265""
","
","
","""event"",""trial"",""time""
""fullscreenenter"",""1"",""1265""
","
","","[{""page_index"":0,""viewing_time"":1564.5}]","1564.8000000715256","","","","","","","","","","","","","","","","","","","","","","","",""
"pit-instructions","117","996945","0.0-3.0","battery-v0.2","","""event"",""trial"",""time""
""fullscreenenter"",""1"",""1265""
","
","
","""event"",""trial"",""time""
""fullscreenenter"",""1"",""1265""
","
","","[{""page_index"":0,""viewing_time"":5380.700000047684},{""page_index"":1,""viewing_time"":6731.199999928474},{""page_index"":2,""viewing_time"":8353.300000071526}]","20465.700000047684","","","","","","","","","","","","","","","","","","","","","","","",""
"pit-trial","118","1000721","0.0-4.0","battery-v0.2","","""event"",""trial"",""time""
""fullscreenenter"",""1"",""1265""
","
","
","""event"",""trial"",""time""
""fullscreenenter"",""1"",""1265""
","
","","","915.4000000953674","","","25","11363","165","&#9728;","elianto","#f73b6a7A","-1"," ","0","-10","[1768.7000000476837]","1","1","","","11363","1","0","4","lose","no-go","0"
"pit-trial","119","1004375","0.0-5.0","battery-v0.2","","""event"",""trial"",""time""
""fullscreenenter"",""1"",""1265""
","
","
","""event"",""trial"",""time""
""fullscreenenter"",""1"",""1265""
","
","","","794.8999999761581","","","25","11363","165","&#9752;","elianto","#f73b6a7A"," "," ","1","0","[1645.8999999761581]","1","1","","","11363","2","3","3","lose","go","0"
"pit-trial","120","1007786","0.0-6.0","battery-v0.2","","""event"",""trial"",""time""
""fullscreenenter"",""1"",""1265""
","
","
","""event"",""trial"",""time""
""fullscreenenter"",""1"",""1265""
","
","","","549.3999999761581","","","25","11363","165","&#9733;","elianto","#3366ff99","-1"," ","0","0","[1401.3999999761581]","1","1","","","11363","3","2","2","win","no-go","0"
"pit-trial","121","1011148","0.0-7.0","battery-v0.2","","""event"",""trial"",""time""
""fullscreenenter"",""1"",""1265""
","
","
","""event"",""trial"",""time""
""fullscreenenter"",""1"",""1265""
","
","","","502.8000000715256","","","25","11363","165","&#9730;","elianto","#3366ff99"," "," ","1","+10","[1353.2000000476837]","1","1","","","11363","4","1","1","win","go","0"
"pit-trial","122","1014665","0.0-8.0","battery-v0.2","","""event"",""trial"",""time""
""fullscreenenter"",""1"",""1265""
","
","
","""event"",""trial"",""time""
""fullscreenenter"",""1"",""1265""
","
","","","656.9000000953674","","","25","11363","165","&#9730;","elianto","#3366ff99"," "," ","1","+10","[1509.3000000715256]","1","1","","","11363","5","1","1","win","go","0"
"pit-trial","123","1018182","0.0-9.0","battery-v0.2","","""event"",""trial"",""time""
""fullscreenenter"",""1"",""1265""
","
","
","""event"",""trial"",""time""
""fullscreenenter"",""1"",""1265""
","
","","","655.8000000715256","","","25","11363","165","&#9752;","elianto","#f73b6a7A"," "," ","1","0","[1509.5]","1","1","","","11363","6","3","3","lose","go","0"
"pit-trial","124","1021779","0.0-10.0","battery-v0.2","","""event"",""trial"",""time""
""fullscreenenter"",""1"",""1265""
","
","
","""event"",""trial"",""time""
""fullscreenenter"",""1"",""1265""
","
","","","737.1999999284744","","","25","11363","165","&#9733;","elianto","#3366ff99","-1"," ","0","0","[1587.8000000715256]","1","1","","","11363","7","2","2","win","no-go","0"
"pit-trial","125","1025487","0.0-11.0","battery-v0.2","","""event"",""trial"",""time""
""fullscreenenter"",""1"",""1265""
","
","
","""event"",""trial"",""time""
""fullscreenenter"",""1"",""1265""
","
","","","847","","","25","11363","165","&#9728;","elianto","#f73b6a7A","-1"," ","0","-10","[1699.1000000238419]","1","1","","","11363","8","0","4","lose","no-go","0"
"pit-trial","126","1029164","0.0-12.0","battery-v0.2","","""event"",""trial"",""time""
""fullscreenenter"",""1"",""1265""
","
","
","""event"",""trial"",""time""
""fullscreenenter"",""1"",""1265""
","
","","","817.3999999761581","","","25","11363","165","&#9752;","elianto","#f73b6a7A"," "," ","1","0","[1668.1000000238419]","1","1","","","11363","9","3","3","lose","go","0"
"pit-trial","127","1032975","0.0-13.0","battery-v0.2","","""event"",""trial"",""time""
""fullscreenenter"",""1"",""1265""
","
","
","""event"",""trial"",""time""
""fullscreenenter"",""1"",""1265""
","
","","","950.8999999761581","","","25","11363","165","&#9730;","elianto","#3366ff99"," "," ","1","+10","[1802.7000000476837]","1","1","","","11363","10","1","1","win","go","0"
"pit-trial","128","1036622","0.0-14.0","battery-v0.2","","""event"",""trial"",""time""
""fullscreenenter"",""1"",""1265""
","
","
","""event"",""trial"",""time""
""fullscreenenter"",""1"",""1265""
","
","","","786","","","25","11363","165","&#9733;","elianto","#3366ff99","-1"," ","0","+10","[1638.7999999523163]","1","1","","","11363","11","2","2","win","no-go","1"
"pit-trial","129","1041486","0.0-15.0","battery-v0.2","","""event"",""trial"",""time""
""fullscreenenter"",""1"",""1265""
","
","
","""event"",""trial"",""time""
""fullscreenenter"",""1"",""1265""
","
","","","-1","","","25","11363","165","&#9728;","elianto","#f73b6a7A","-1","-1","1","-10","[]","0","1","","","11363","12","0","4","lose","no-go","1"
"pit-trial","130","1046350","0.0-16.0","battery-v0.2","","""event"",""trial"",""time""
""fullscreenenter"",""1"",""1265""
","
","
","""event"",""trial"",""time""
""fullscreenenter"",""1"",""1265""
","
","","","-1","","","25","11363","165","&#9728;","elianto","#f73b6a7A","-1","-1","1","-10","[]","0","1","","","11363","13","0","4","lose","no-go","1"
"pit-trial","131","1049828","0.0-17.0","battery-v0.2","","""event"",""trial"",""time""
""fullscreenenter"",""1"",""1265""
","
","
","""event"",""trial"",""time""
""fullscreenenter"",""1"",""1265""
","
","","","620.1000000238419","","","25","11363","165","&#9730;","elianto","#3366ff99"," "," ","1","+10","[1472.7999999523163]","1","1","","","11363","14","1","1","win","go","0"
"pit-trial","132","1053853","0.0-18.0","battery-v0.2","","""event"",""trial"",""time""
""fullscreenenter"",""1"",""1265""
","
","
","""event"",""trial"",""time""
""fullscreenenter"",""1"",""1265""
","
","","","1169.1999999284744","","","25","11363","165","&#9752;","elianto","#f73b6a7A"," "," ","1","0","[2021.8999999761581]","1","1","","","11363","15","3","3","lose","go","0"
"pit-trial","133","1058718","0.0-19.0","battery-v0.2","","""event"",""trial"",""time""
""fullscreenenter"",""1"",""1265""
","
","
","""event"",""trial"",""time""
""fullscreenenter"",""1"",""1265""
","
","","","-1","","","25","11363","165","&#9733;","elianto","#3366ff99","-1","-1","1","+10","[]","0","1","","","11363","16","2","2","win","no-go","0"
"pit-trial","134","1062236","0.0-20.0","battery-v0.2","","""event"",""trial"",""time""
""fullscreenenter"",""1"",""1265""
","
","
","""event"",""trial"",""time""
""fullscreenenter"",""1"",""1265""
","
","","","661.5","","","25","11363","165","&#9730;","elianto","#3366ff99"," "," ","1","+10","[1511.7999999523163]","1","1","","","11363","17","1","1","win","go","0"
"pit-trial","135","1067095","0.0-21.0","battery-v0.2","","""event"",""trial"",""time""
""fullscreenenter"",""1"",""1265""
","
","
","""event"",""trial"",""time""
""fullscreenenter"",""1"",""1265""
","
","","","-1","","","25","11363","165","&#9733;","elianto","#3366ff99","-1","-1","1","0","[]","0","1","","","11363","18","2","2","win","no-go","1"
"pit-trial","136","1071462","0.0-22.0","battery-v0.2","","""event"",""trial"",""time""
""fullscreenenter"",""1"",""1265""
","
","
","""event"",""trial"",""time""
""fullscreenenter"",""1"",""1265""
","
","","","1507.3999999761581","","","25","11363","165","&#9752;","elianto","#f73b6a7A"," "," ","1","0","[2360.8000000715256]","1","1","","","11363","19","3","3","lose","go","0"
"pit-trial","137","1075527","0.0-23.0","battery-v0.2","","""event"",""trial"",""time""
""fullscreenenter"",""1"",""1265""
","
","
","""event"",""trial"",""time""
""fullscreenenter"",""1"",""1265""
","
","","","1204.4000000953674","","","25","11363","165","&#9728;","elianto","#f73b6a7A","-1"," ","0","-10","[2057.2000000476837]","1","1","","","11363","20","0","4","lose","no-go","0"
"pit-instructions","138","1091193","0.0-24.0","battery-v0.2","","""event"",""trial"",""time""
""fullscreenenter"",""1"",""1265""
","
","
","""event"",""trial"",""time""
""fullscreenenter"",""1"",""1265""
","
","","[{""page_index"":0,""viewing_time"":7797.5},{""page_index"":1,""viewing_time"":7865.799999952316}]","15663.899999976158","","","","","","","","","","","","","","","","","","","","","","","",""
"pit-trial","139","1094823","0.0-25.0","battery-v0.2","","""event"",""trial"",""time""
""fullscreenenter"",""1"",""1265""
","
","
","""event"",""trial"",""time""
""fullscreenenter"",""1"",""1265""
","
","","","771.5999999046326","","","25","11363","165","m","elianto","#f73b6a7A","-1"," ","0","-10","[1624.3000000715256]","1","2","","","11363","21","0","4","lose","no-go","0"
"pit-trial","140","1098427","0.0-26.0","battery-v0.2","","""event"",""trial"",""time""
""fullscreenenter"",""1"",""1265""
","
","
","""event"",""trial"",""time""
""fullscreenenter"",""1"",""1265""
","
","","","743.7999999523163","","","25","11363","165","y","elianto","#f73b6a7A","-1"," ","0","-10","[1595.2000000476837]","1","2","","","11363","22","2","4","lose","no-go","0"
"pit-trial","141","1101857","0.0-27.0","battery-v0.2","","""event"",""trial"",""time""
""fullscreenenter"",""1"",""1265""
","
","
","""event"",""trial"",""time""
""fullscreenenter"",""1"",""1265""
","
","","","567.1999999284744","","","25","11363","165","r","elianto","#3366ff99"," "," ","1","+10","[1420.2999999523163]","1","2","","","11363","23","1","1","win","go","0"
"pit-trial","142","1105447","0.0-28.0","battery-v0.2","","""event"",""trial"",""time""
""fullscreenenter"",""1"",""1265""
","
","
","""event"",""trial"",""time""
""fullscreenenter"",""1"",""1265""
","
","","","729.1000000238419","","","25","11363","165","h","elianto","#f73b6a7A"," "," ","1","-10","[1581.3999999761581]","1","2","","","11363","24","3","3","lose","go","1"
"pit-trial","143","1108946","0.0-29.0","battery-v0.2","","""event"",""trial"",""time""
""fullscreenenter"",""1"",""1265""
","
","
","""event"",""trial"",""time""
""fullscreenenter"",""1"",""1265""
","
","","","639.5","","","25","11363","165","r","elianto","#3366ff99"," "," ","1","+10","[1491.1000000238419]","1","2","","","11363","25","1","1","win","go","0"
"pit-trial","144","1113806","0.0-30.0","battery-v0.2","","""event"",""trial"",""time""
""fullscreenenter"",""1"",""1265""
","
","
","""event"",""trial"",""time""
""fullscreenenter"",""1"",""1265""
","
","","","-1","","","25","11363","165","m","elianto","#f73b6a7A","-1","-1","1","0","[]","0","2","","","11363","26","0","4","lose","no-go","0"
"pit-trial","145","1118665","0.0-31.0","battery-v0.2","","""event"",""trial"",""time""
""fullscreenenter"",""1"",""1265""
","
","
","""event"",""trial"",""time""
""fullscreenenter"",""1"",""1265""
","
","","","-1","","","25","11363","165","y","elianto","#f73b6a7A","-1","-1","1","0","[]","0","2","","","11363","27","2","4","lose","no-go","0"
"pit-trial","146","1123528","0.0-32.0","battery-v0.2","","""event"",""trial"",""time""
""fullscreenenter"",""1"",""1265""
","
","
","""event"",""trial"",""time""
""fullscreenenter"",""1"",""1265""
","
","","","-1","","","25","11363","165","h","elianto","#f73b6a7A"," ","-1","0","-10","[]","0","2","","","11363","28","3","3","lose","go","0"
"pit-trial","147","1128388","0.0-33.0","battery-v0.2","","""event"",""trial"",""time""
""fullscreenenter"",""1"",""1265""
","
","
","""event"",""trial"",""time""
""fullscreenenter"",""1"",""1265""
","
","","","-1","","","25","11363","165","m","elianto","#f73b6a7A","-1","-1","1","0","[]","0","2","","","11363","29","0","4","lose","no-go","0"
"pit-trial","148","1132235","0.0-34.0","battery-v0.2","","""event"",""trial"",""time""
""fullscreenenter"",""1"",""1265""
","
","
","""event"",""trial"",""time""
""fullscreenenter"",""1"",""1265""
","
","","","988","","","25","11363","165","r","elianto","#3366ff99"," "," ","1","+10","[1838.7999999523163]","1","2","","","11363","30","1","1","win","go","0"
"pit-trial","149","1137099","0.0-35.0","battery-v0.2","","""event"",""trial"",""time""
""fullscreenenter"",""1"",""1265""
","
","
","""event"",""trial"",""time""
""fullscreenenter"",""1"",""1265""
","
","","","-1","","","25","11363","165","y","elianto","#f73b6a7A","-1","-1","1","0","[]","0","2","","","11363","31","2","4","lose","no-go","0"
"pit-trial","150","1140561","0.0-36.0","battery-v0.2","","""event"",""trial"",""time""
""fullscreenenter"",""1"",""1265""
","
","
","""event"",""trial"",""time""
""fullscreenenter"",""1"",""1265""
","
","","","600.1999999284744","","","25","11363","165","h","elianto","#f73b6a7A"," "," ","1","0","[1453.6000000238419]","1","2","","","11363","32","3","3","lose","go","0"
"pit-trial","151","1145420","0.0-37.0","battery-v0.2","","""event"",""trial"",""time""
""fullscreenenter"",""1"",""1265""
","
","
","""event"",""trial"",""time""
""fullscreenenter"",""1"",""1265""
","
","","","-1","","","25","11363","165","m","elianto","#f73b6a7A","-1","-1","1","0","[]","0","2","","","11363","33","0","4","lose","no-go","0"
"pit-trial","152","1150280","0.0-38.0","battery-v0.2","","""event"",""trial"",""time""
""fullscreenenter"",""1"",""1265""
","
","
","""event"",""trial"",""time""
""fullscreenenter"",""1"",""1265""
","
","","","-1","","","25","11363","165","y","elianto","#f73b6a7A","-1","-1","1","0","[]","0","2","","","11363","34","2","4","lose","no-go","0"
"pit-trial","153","1153903","0.0-39.0","battery-v0.2","","""event"",""trial"",""time""
""fullscreenenter"",""1"",""1265""
","
","
","""event"",""trial"",""time""
""fullscreenenter"",""1"",""1265""
","
","","","762.5","","","25","11363","165","h","elianto","#f73b6a7A"," "," ","1","0","[1615.5]","1","2","","","11363","35","3","3","lose","go","0"
"pit-trial","154","1157204","0.0-40.0","battery-v0.2","","""event"",""trial"",""time""
""fullscreenenter"",""1"",""1265""
","
","
","""event"",""trial"",""time""
""fullscreenenter"",""1"",""1265""
","
","","","445.7000000476837","","","25","11363","165","r","elianto","#3366ff99"," "," ","1","0","[1295.7000000476837]","1","2","","","11363","36","1","1","win","go","1"
"pit-trial","155","1160697","0.0-41.0","battery-v0.2","","""event"",""trial"",""time""
""fullscreenenter"",""1"",""1265""
","
","
","""event"",""trial"",""time""
""fullscreenenter"",""1"",""1265""
","
","","","634.5","","","25","11363","165","r","elianto","#3366ff99"," "," ","1","+10","[1485.2000000476837]","1","2","","","11363","37","1","1","win","go","0"
"pit-trial","156","1164665","0.0-42.0","battery-v0.2","","""event"",""trial"",""time""
""fullscreenenter"",""1"",""1265""
","
","
","""event"",""trial"",""time""
""fullscreenenter"",""1"",""1265""
","
","","","1105","","","25","11363","165","h","elianto","#f73b6a7A"," "," ","1","0","[1959.2000000476837]","1","2","","","11363","38","3","3","lose","go","0"
"pit-trial","157","1169525","0.0-43.0","battery-v0.2","","""event"",""trial"",""time""
""fullscreenenter"",""1"",""1265""
","
","
","""event"",""trial"",""time""
""fullscreenenter"",""1"",""1265""
","
","","","-1","","","25","11363","165","y","elianto","#f73b6a7A","-1","-1","1","-10","[]","0","2","","","11363","39","2","4","lose","no-go","1"
"pit-trial","158","1174387","0.0-44.0","battery-v0.2","","""event"",""trial"",""time""
""fullscreenenter"",""1"",""1265""
","
","
","""event"",""trial"",""time""
""fullscreenenter"",""1"",""1265""
","
","","","-1","","","25","11363","165","m","elianto","#f73b6a7A","-1","-1","1","0","[]","0","2","","","11363","40","0","4","lose","no-go","0"
"pit-trial","159","1179250","0.0-45.0","battery-v0.2","","""event"",""trial"",""time""
""fullscreenenter"",""1"",""1265""
","
","
","""event"",""trial"",""time""
""fullscreenenter"",""1"",""1265""
","
","","","-1","","","25","11363","165","y","elianto","#f73b6a7A","-1","-1","1","0","[]","0","2","","","11363","41","2","4","lose","no-go","0"
"pit-trial","160","1182786","0.0-46.0","battery-v0.2","","""event"",""trial"",""time""
""fullscreenenter"",""1"",""1265""
","
","
","""event"",""trial"",""time""
""fullscreenenter"",""1"",""1265""
","
","","","676.8000000715256","","","25","11363","165","h","elianto","#f73b6a7A"," "," ","1","-10","[1527.2999999523163]","1","2","","","11363","42","3","3","lose","go","1"
"pit-trial","161","1186091","0.0-47.0","battery-v0.2","","""event"",""trial"",""time""
""fullscreenenter"",""1"",""1265""
","
","
","""event"",""trial"",""time""
""fullscreenenter"",""1"",""1265""
","
","","","444.7999999523163","","","25","11363","165","r","elianto","#3366ff99"," "," ","1","+10","[1296.3999999761581]","1","2","","","11363","43","1","1","win","go","0"
"pit-trial","162","1190954","0.0-48.0","battery-v0.2","","""event"",""trial"",""time""
""fullscreenenter"",""1"",""1265""
","
","
","""event"",""trial"",""time""
""fullscreenenter"",""1"",""1265""
","
","","","-1","","","25","11363","165","m","elianto","#f73b6a7A","-1","-1","1","0","[]","0","2","","","11363","44","0","4","lose","no-go","0"
"pit-trial","163","1195541","0.0-49.0","battery-v0.2","","""event"",""trial"",""time""
""fullscreenenter"",""1"",""1265""
","
","
","""event"",""trial"",""time""
""fullscreenenter"",""1"",""1265""
","
","","","1727.5","","","25","11363","165","h","elianto","#f73b6a7A"," "," ","1","-10","[2579]","1","2","","","11363","45","3","3","lose","go","1"
"pit-trial","164","1199530","0.0-50.0","battery-v0.2","","""event"",""trial"",""time""
""fullscreenenter"",""1"",""1265""
","
","
","""event"",""trial"",""time""
""fullscreenenter"",""1"",""1265""
","
","","","1127.8000000715256","","","25","11363","165","z","elianto","#3366ff99","-1"," ","0","+10","[1980.3999999761581]","1","2","","","11363","46","4","2","win","no-go","1"
"pit-trial","165","1204395","0.0-51.0","battery-v0.2","","""event"",""trial"",""time""
""fullscreenenter"",""1"",""1265""
","
","
","""event"",""trial"",""time""
""fullscreenenter"",""1"",""1265""
","
","","","-1","","","25","11363","165","m","elianto","#f73b6a7A","-1","-1","1","0","[]","0","2","","","11363","47","0","4","lose","no-go","0"
"pit-trial","166","1209260","0.0-52.0","battery-v0.2","","""event"",""trial"",""time""
""fullscreenenter"",""1"",""1265""
","
","
","""event"",""trial"",""time""
""fullscreenenter"",""1"",""1265""
","
","","","-1","","","25","11363","165","y","elianto","#f73b6a7A","-1","-1","1","-10","[]","0","2","","","11363","48","2","4","lose","no-go","1"
"pit-trial","167","1212683","0.0-53.0","battery-v0.2","","""event"",""trial"",""time""
""fullscreenenter"",""1"",""1265""
","
","
","""event"",""trial"",""time""
""fullscreenenter"",""1"",""1265""
","
","","","562.7000000476837","","","25","11363","165","r","elianto","#3366ff99"," "," ","1","+10","[1414.1000000238419]","1","2","","","11363","49","1","1","win","go","0"
"pit-trial","168","1217544","0.0-54.0","battery-v0.2","","""event"",""trial"",""time""
""fullscreenenter"",""1"",""1265""
","
","
","""event"",""trial"",""time""
""fullscreenenter"",""1"",""1265""
","
","","","-1","","","25","11363","165","m","elianto","#f73b6a7A","-1","-1","1","0","[]","0","2","","","11363","50","0","4","lose","no-go","0"
"pit-trial","169","1222409","0.0-55.0","battery-v0.2","","""event"",""trial"",""time""
""fullscreenenter"",""1"",""1265""
","
","
","""event"",""trial"",""time""
""fullscreenenter"",""1"",""1265""
","
","","","-1","","","25","11363","165","h","elianto","#f73b6a7A"," ","-1","0","0","[]","0","2","","","11363","51","3","3","lose","go","1"
"pit-trial","170","1226091","0.0-56.0","battery-v0.2","","""event"",""trial"",""time""
""fullscreenenter"",""1"",""1265""
","
","
","""event"",""trial"",""time""
""fullscreenenter"",""1"",""1265""
","
","","","824.7000000476837","","","25","11363","165","z","elianto","#3366ff99","-1"," ","0","0","[1675.8000000715256]","1","2","","","11363","52","4","2","win","no-go","0"
"pit-trial","171","1229651","0.0-57.0","battery-v0.2","","""event"",""trial"",""time""
""fullscreenenter"",""1"",""1265""
","
","
","""event"",""trial"",""time""
""fullscreenenter"",""1"",""1265""
","
","","","700","","","25","11363","165","z","elianto","#3366ff99","-1"," ","0","0","[1551.5]","1","2","","","11363","53","4","2","win","no-go","0"
"pit-trial","172","1234516","0.0-58.0","battery-v0.2","","""event"",""trial"",""time""
""fullscreenenter"",""1"",""1265""
","
","
","""event"",""trial"",""time""
""fullscreenenter"",""1"",""1265""
","
","","","-1","","","25","11363","165","m","elianto","#f73b6a7A","-1","-1","1","0","[]","0","2","","","11363","54","0","4","lose","no-go","0"
"pit-trial","173","1238463","0.0-59.0","battery-v0.2","","""event"",""trial"",""time""
""fullscreenenter"",""1"",""1265""
","
","
","""event"",""trial"",""time""
""fullscreenenter"",""1"",""1265""
","
","","","1093.5999999046326","","","25","11363","165","y","elianto","#f73b6a7A","-1"," ","0","0","[1943.8000000715256]","1","2","","","11363","55","2","4","lose","no-go","1"
"pit-trial","174","1241931","0.0-60.0","battery-v0.2","","""event"",""trial"",""time""
""fullscreenenter"",""1"",""1265""
","
","
","""event"",""trial"",""time""
""fullscreenenter"",""1"",""1265""
","
","","","608","","","25","11363","165","r","elianto","#3366ff99"," "," ","1","0","[1458.8000000715256]","1","2","","","11363","56","1","1","win","go","1"
"pit-trial","175","1246796","0.0-61.0","battery-v0.2","","""event"",""trial"",""time""
""fullscreenenter"",""1"",""1265""
","
","
","""event"",""trial"",""time""
""fullscreenenter"",""1"",""1265""
","
","","","-1","","","25","11363","165","z","elianto","#3366ff99","-1","-1","1","+10","[]","0","2","","","11363","57","4","2","win","no-go","0"
"pit-trial","176","1250350","0.0-62.0","battery-v0.2","","""event"",""trial"",""time""
""fullscreenenter"",""1"",""1265""
","
","
","""event"",""trial"",""time""
""fullscreenenter"",""1"",""1265""
","
","","","692.8999999761581","","","25","11363","165","r","elianto","#3366ff99"," "," ","1","0","[1546.0999999046326]","1","2","","","11363","58","1","1","win","go","1"
"pit-trial","177","1255204","0.0-63.0","battery-v0.2","","""event"",""trial"",""time""
""fullscreenenter"",""1"",""1265""
","
","
","""event"",""trial"",""time""
""fullscreenenter"",""1"",""1265""
","
","","","-1","","","25","11363","165","h","elianto","#f73b6a7A"," ","-1","0","-10","[]","0","2","","","11363","59","3","3","lose","go","0"
"pit-trial","178","1260068","0.0-64.0","battery-v0.2","","""event"",""trial"",""time""
""fullscreenenter"",""1"",""1265""
","
","
","""event"",""trial"",""time""
""fullscreenenter"",""1"",""1265""
","
","","","-1","","","25","11363","165","m","elianto","#f73b6a7A","-1","-1","1","0","[]","0","2","","","11363","60","0","4","lose","no-go","0"
"pit-trial","179","1263622","0.0-65.0","battery-v0.2","","""event"",""trial"",""time""
""fullscreenenter"",""1"",""1265""
","
","
","""event"",""trial"",""time""
""fullscreenenter"",""1"",""1265""
","
","","","695.1000000238419","","","25","11363","165","r","elianto","#3366ff99"," "," ","1","+10","[1545.6000000238419]","1","2","","","11363","61","1","1","win","go","0"
"pit-trial","180","1267805","0.0-66.0","battery-v0.2","","""event"",""trial"",""time""
""fullscreenenter"",""1"",""1265""
","
","
","""event"",""trial"",""time""
""fullscreenenter"",""1"",""1265""
","
","","","1326.1000000238419","","","25","11363","165","h","elianto","#f73b6a7A"," "," ","1","0","[2177.6999999284744]","1","2","","","11363","62","3","3","lose","go","0"
"pit-trial","181","1272665","0.0-67.0","battery-v0.2","","""event"",""trial"",""time""
""fullscreenenter"",""1"",""1265""
","
","
","""event"",""trial"",""time""
""fullscreenenter"",""1"",""1265""
","
","","","-1","","","25","11363","165","z","elianto","#3366ff99","-1","-1","1","+10","[]","0","2","","","11363","63","4","2","win","no-go","0"
"pit-trial","182","1277528","0.0-68.0","battery-v0.2","","""event"",""trial"",""time""
""fullscreenenter"",""1"",""1265""
","
","
","""event"",""trial"",""time""
""fullscreenenter"",""1"",""1265""
","
","","","-1","","","25","11363","165","y","elianto","#f73b6a7A","-1","-1","1","0","[]","0","2","","","11363","64","2","4","lose","no-go","0"
"pit-trial","183","1281148","0.0-69.0","battery-v0.2","","""event"",""trial"",""time""
""fullscreenenter"",""1"",""1265""
","
","
","""event"",""trial"",""time""
""fullscreenenter"",""1"",""1265""
","
","","","762.6000000238419","","","25","11363","165","r","elianto","#3366ff99"," "," ","1","0","[1616]","1","2","","","11363","65","1","1","win","go","1"
"pit-trial","184","1286008","0.0-70.0","battery-v0.2","","""event"",""trial"",""time""
""fullscreenenter"",""1"",""1265""
","
","
","""event"",""trial"",""time""
""fullscreenenter"",""1"",""1265""
","
","","","-1","","","25","11363","165","z","elianto","#3366ff99","-1","-1","1","+10","[]","0","2","","","11363","66","4","2","win","no-go","0"
"pit-trial","185","1290872","0.0-71.0","battery-v0.2","","""event"",""trial"",""time""
""fullscreenenter"",""1"",""1265""
","
","
","""event"",""trial"",""time""
""fullscreenenter"",""1"",""1265""
","
","","","-1","","","25","11363","165","y","elianto","#f73b6a7A","-1","-1","1","-10","[]","0","2","","","11363","67","2","4","lose","no-go","1"
"pit-trial","186","1295555","0.0-72.0","battery-v0.2","","""event"",""trial"",""time""
""fullscreenenter"",""1"",""1265""
","
","
","""event"",""trial"",""time""
""fullscreenenter"",""1"",""1265""
","
","","","1822.7999999523163","","","25","11363","165","h","elianto","#f73b6a7A"," "," ","1","0","[2673.7999999523163]","1","2","","","11363","68","3","3","lose","go","0"
"pit-trial","187","1300417","0.0-73.0","battery-v0.2","","""event"",""trial"",""time""
""fullscreenenter"",""1"",""1265""
","
","
","""event"",""trial"",""time""
""fullscreenenter"",""1"",""1265""
","
","","","-1","","","25","11363","165","c","elianto","#3366ff99"," ","-1","0","0","[2942.1999999284744]","1","2","","","11363","69","5","1","win","go","0"
"pit-trial","188","1304435","0.0-74.0","battery-v0.2","","""event"",""trial"",""time""
""fullscreenenter"",""1"",""1265""
","
","
","""event"",""trial"",""time""
""fullscreenenter"",""1"",""1265""
","
","","","1157.6999999284744","","","25","11363","165","h","elianto","#f73b6a7A"," "," ","1","0","[2008.3999999761581]","1","2","","","11363","70","3","3","lose","go","0"
"pit-trial","189","1307942","0.0-75.0","battery-v0.2","","""event"",""trial"",""time""
""fullscreenenter"",""1"",""1265""
","
","
","""event"",""trial"",""time""
""fullscreenenter"",""1"",""1265""
","
","","","649","","","25","11363","165","r","elianto","#3366ff99"," "," ","1","+10","[1499.2999999523163]","1","2","","","11363","71","1","1","win","go","0"
"pit-trial","190","1312800","0.0-76.0","battery-v0.2","","""event"",""trial"",""time""
""fullscreenenter"",""1"",""1265""
","
","
","""event"",""trial"",""time""
""fullscreenenter"",""1"",""1265""
","
","","","-1","","","25","11363","165","z","elianto","#3366ff99","-1","-1","1","+10","[]","0","2","","","11363","72","4","2","win","no-go","0"
"pit-trial","191","1316528","0.0-77.0","battery-v0.2","","""event"",""trial"",""time""
""fullscreenenter"",""1"",""1265""
","
","
","""event"",""trial"",""time""
""fullscreenenter"",""1"",""1265""
","
","","","867.7999999523163","","","25","11363","165","h","elianto","#f73b6a7A"," "," ","1","0","[1719]","1","2","","","11363","73","3","3","lose","go","0"
"pit-trial","192","1321390","0.0-78.0","battery-v0.2","","""event"",""trial"",""time""
""fullscreenenter"",""1"",""1265""
","
","
","""event"",""trial"",""time""
""fullscreenenter"",""1"",""1265""
","
","","","-1","","","25","11363","165","z","elianto","#3366ff99","-1","-1","1","0","[]","0","2","","","11363","74","4","2","win","no-go","1"
"pit-trial","193","1325925","0.0-79.0","battery-v0.2","","""event"",""trial"",""time""
""fullscreenenter"",""1"",""1265""
","
","
","""event"",""trial"",""time""
""fullscreenenter"",""1"",""1265""
","
","","","1677.1000000238419","","","25","11363","165","c","elianto","#3366ff99"," "," ","1","+10","[2528.5]","1","2","","","11363","75","5","1","win","go","0"
"pit-trial","194","1329400","0.0-80.0","battery-v0.2","","""event"",""trial"",""time""
""fullscreenenter"",""1"",""1265""
","
","
","""event"",""trial"",""time""
""fullscreenenter"",""1"",""1265""
","
","","","618.3999999761581","","","25","11363","165","r","elianto","#3366ff99"," "," ","1","+10","[1471.3999999761581]","1","2","","","11363","76","1","1","win","go","0"
"pit-trial","195","1333038","0.0-81.0","battery-v0.2","","""event"",""trial"",""time""
""fullscreenenter"",""1"",""1265""
","
","
","""event"",""trial"",""time""
""fullscreenenter"",""1"",""1265""
","
","","","777.6999999284744","","","25","11363","165","h","elianto","#f73b6a7A"," "," ","1","0","[1629]","1","2","","","11363","77","3","3","lose","go","0"
"pit-trial","196","1337903","0.0-82.0","battery-v0.2","","""event"",""trial"",""time""
""fullscreenenter"",""1"",""1265""
","
","
","""event"",""trial"",""time""
""fullscreenenter"",""1"",""1265""
","
","","","-1","","","25","11363","165","z","elianto","#3366ff99","-1","-1","1","+10","[]","0","2","","","11363","78","4","2","win","no-go","0"
"pit-trial","197","1342116","0.0-83.0","battery-v0.2","","""event"",""trial"",""time""
""fullscreenenter"",""1"",""1265""
","
","
","""event"",""trial"",""time""
""fullscreenenter"",""1"",""1265""
","
","","","1355.7000000476837","","","25","11363","165","b","elianto","#f73b6a7A","-1"," ","0","-10","[2207.2000000476837]","1","2","","","11363","79","6","4","lose","no-go","0"
"pit-trial","198","1346132","0.0-84.0","battery-v0.2","","""event"",""trial"",""time""
""fullscreenenter"",""1"",""1265""
","
","
","""event"",""trial"",""time""
""fullscreenenter"",""1"",""1265""
","
","","","1159.8000000715256","","","25","11363","165","c","elianto","#3366ff99"," "," ","1","0","[2011.2000000476837]","1","2","","","11363","80","5","1","win","go","1"
"pit-trial","199","1350994","0.0-85.0","battery-v0.2","","""event"",""trial"",""time""
""fullscreenenter"",""1"",""1265""
","
","
","""event"",""trial"",""time""
""fullscreenenter"",""1"",""1265""
","
","","","-1","","","25","11363","165","t","elianto","#f73b6a7A"," ","-1","0","-10","[]","0","2","","","11363","81","7","3","lose","go","0"
"pit-trial","200","1354786","0.0-86.0","battery-v0.2","","""event"",""trial"",""time""
""fullscreenenter"",""1"",""1265""
","
","
","""event"",""trial"",""time""
""fullscreenenter"",""1"",""1265""
","
","","","932.7000000476837","","","25","11363","165","b","elianto","#f73b6a7A","-1"," ","0","-10","[1784.7000000476837]","1","2","","","11363","82","6","4","lose","no-go","0"
"pit-trial","201","1358526","0.0-87.0","battery-v0.2","","""event"",""trial"",""time""
""fullscreenenter"",""1"",""1265""
","
","
","""event"",""trial"",""time""
""fullscreenenter"",""1"",""1265""
","
","","","879","","","25","11363","165","c","elianto","#3366ff99"," "," ","1","0","[1730.5]","1","2","","","11363","83","5","1","win","go","1"
"pit-trial","202","1363388","0.0-88.0","battery-v0.2","","""event"",""trial"",""time""
""fullscreenenter"",""1"",""1265""
","
","
","""event"",""trial"",""time""
""fullscreenenter"",""1"",""1265""
","
","","","-1","","","25","11363","165","z","elianto","#3366ff99","-1","-1","1","+10","[]","0","2","","","11363","84","4","2","win","no-go","0"
"pit-trial","203","1368250","0.0-89.0","battery-v0.2","","""event"",""trial"",""time""
""fullscreenenter"",""1"",""1265""
","
","
","""event"",""trial"",""time""
""fullscreenenter"",""1"",""1265""
","
","","","-1","","","25","11363","165","b","elianto","#f73b6a7A","-1","-1","1","0","[]","0","2","","","11363","85","6","4","lose","no-go","0"
"pit-trial","204","1373112","0.0-90.0","battery-v0.2","","""event"",""trial"",""time""
""fullscreenenter"",""1"",""1265""
","
","
","""event"",""trial"",""time""
""fullscreenenter"",""1"",""1265""
","
","","","-1","","","25","11363","165","z","elianto","#3366ff99","-1","-1","1","+10","[]","0","2","","","11363","86","4","2","win","no-go","0"
"pit-trial","205","1377976","0.0-91.0","battery-v0.2","","""event"",""trial"",""time""
""fullscreenenter"",""1"",""1265""
","
","
","""event"",""trial"",""time""
""fullscreenenter"",""1"",""1265""
","
","","","-1","","","25","11363","165","c","elianto","#3366ff99"," ","-1","0","0","[]","0","2","","","11363","87","5","1","win","go","0"
"pit-trial","206","1382841","0.0-92.0","battery-v0.2","","""event"",""trial"",""time""
""fullscreenenter"",""1"",""1265""
","
","
","""event"",""trial"",""time""
""fullscreenenter"",""1"",""1265""
","
","","","-1","","","25","11363","165","t","elianto","#f73b6a7A"," ","-1","0","-10","[]","0","2","","","11363","88","7","3","lose","go","0"
"pit-trial","207","1387705","0.0-93.0","battery-v0.2","","""event"",""trial"",""time""
""fullscreenenter"",""1"",""1265""
","
","
","""event"",""trial"",""time""
""fullscreenenter"",""1"",""1265""
","
","","","-1","","","25","11363","165","z","elianto","#3366ff99","-1","-1","1","+10","[]","0","2","","","11363","89","4","2","win","no-go","0"
"pit-trial","208","1392566","0.0-94.0","battery-v0.2","","""event"",""trial"",""time""
""fullscreenenter"",""1"",""1265""
","
","
","""event"",""trial"",""time""
""fullscreenenter"",""1"",""1265""
","
","","","-1","","","25","11363","165","t","elianto","#f73b6a7A"," ","-1","0","-10","[]","0","2","","","11363","90","7","3","lose","go","0"
"pit-trial","209","1397430","0.0-95.0","battery-v0.2","","""event"",""trial"",""time""
""fullscreenenter"",""1"",""1265""
","
","
","""event"",""trial"",""time""
""fullscreenenter"",""1"",""1265""
","
","","","-1","","","25","11363","165","b","elianto","#f73b6a7A","-1","-1","1","0","[]","0","2","","","11363","91","6","4","lose","no-go","0"
"pit-trial","210","1401809","0.0-96.0","battery-v0.2","","""event"",""trial"",""time""
""fullscreenenter"",""1"",""1265""
","
","
","""event"",""trial"",""time""
""fullscreenenter"",""1"",""1265""
","
","","","1517.2999999523163","","","25","11363","165","c","elianto","#3366ff99"," "," ","1","+10","[2370]","1","2","","","11363","92","5","1","win","go","0"
"pit-trial","211","1405344","0.0-97.0","battery-v0.2","","""event"",""trial"",""time""
""fullscreenenter"",""1"",""1265""
","
","
","""event"",""trial"",""time""
""fullscreenenter"",""1"",""1265""
","
","","","678.0999999046326","","","25","11363","165","c","elianto","#3366ff99"," "," ","1","+10","[1530.5]","1","2","","","11363","93","5","1","win","go","0"
"pit-trial","212","1409179","0.0-98.0","battery-v0.2","","""event"",""trial"",""time""
""fullscreenenter"",""1"",""1265""
","
","
","""event"",""trial"",""time""
""fullscreenenter"",""1"",""1265""
","
","","","972.0999999046326","","","25","11363","165","t","elianto","#f73b6a7A"," "," ","1","-10","[1825.8000000715256]","1","2","","","11363","94","7","3","lose","go","1"
"pit-trial","213","1414043","0.0-99.0","battery-v0.2","","""event"",""trial"",""time""
""fullscreenenter"",""1"",""1265""
","
","
","""event"",""trial"",""time""
""fullscreenenter"",""1"",""1265""
","
","","","-1","","","25","11363","165","b","elianto","#f73b6a7A","-1","-1","1","0","[]","0","2","","","11363","95","6","4","lose","no-go","0"
"pit-trial","214","1417957","0.0-100.0","battery-v0.2","","""event"",""trial"",""time""
""fullscreenenter"",""1"",""1265""
","
","
","""event"",""trial"",""time""
""fullscreenenter"",""1"",""1265""
","
","","","1051.2999999523163","","","25","11363","165","f","elianto","#3366ff99","-1"," ","0","0","[1905]","1","2","","","11363","96","8","2","win","no-go","0"
"pit-trial","215","1421901","0.0-101.0","battery-v0.2","","""event"",""trial"",""time""
""fullscreenenter"",""1"",""1265""
","
","
","""event"",""trial"",""time""
""fullscreenenter"",""1"",""1265""
","
","","","1087.3000000715256","","","25","11363","165","t","elianto","#f73b6a7A"," "," ","1","0","[1939.8000000715256]","1","2","","","11363","97","7","3","lose","go","0"
"pit-trial","216","1426766","0.0-102.0","battery-v0.2","","""event"",""trial"",""time""
""fullscreenenter"",""1"",""1265""
","
","
","""event"",""trial"",""time""
""fullscreenenter"",""1"",""1265""
","
","","","-1","","","25","11363","165","b","elianto","#f73b6a7A","-1","-1","1","0","[]","0","2","","","11363","98","6","4","lose","no-go","0"
"pit-trial","217","1430397","0.0-103.0","battery-v0.2","","""event"",""trial"",""time""
""fullscreenenter"",""1"",""1265""
","
","
","""event"",""trial"",""time""
""fullscreenenter"",""1"",""1265""
","
","","","773.3999999761581","","","25","11363","165","f","elianto","#3366ff99","-1"," ","0","0","[1623.7000000476837]","1","2","","","11363","99","8","2","win","no-go","0"
"pit-trial","218","1434049","0.0-104.0","battery-v0.2","","""event"",""trial"",""time""
""fullscreenenter"",""1"",""1265""
","
","
","""event"",""trial"",""time""
""fullscreenenter"",""1"",""1265""
","
","","","792.1000000238419","","","25","11363","165","c","elianto","#3366ff99"," "," ","1","+10","[1642.5]","1","2","","","11363","100","5","1","win","go","0"
"pit-trial","219","1437726","0.0-105.0","battery-v0.2","","""event"",""trial"",""time""
""fullscreenenter"",""1"",""1265""
","
","
","""event"",""trial"",""time""
""fullscreenenter"",""1"",""1265""
","
","","","817.7999999523163","","","25","11363","165","c","elianto","#3366ff99"," "," ","1","+10","[1668.1999999284744]","1","2","","","11363","101","5","1","win","go","0"
"pit-trial","220","1441399","0.0-106.0","battery-v0.2","","""event"",""trial"",""time""
""fullscreenenter"",""1"",""1265""
","
","
","""event"",""trial"",""time""
""fullscreenenter"",""1"",""1265""
","
","","","811.3999999761581","","","25","11363","165","n","elianto","#3366ff99","-1"," ","0","+10","[1664.8000000715256]","1","2","","","11363","102","9","2","win","no-go","1"
"pit-trial","221","1446263","0.0-107.0","battery-v0.2","","""event"",""trial"",""time""
""fullscreenenter"",""1"",""1265""
","
","
","""event"",""trial"",""time""
""fullscreenenter"",""1"",""1265""
","
","","","-1","","","25","11363","165","f","elianto","#3366ff99","-1","-1","1","+10","[]","0","2","","","11363","103","8","2","win","no-go","0"
"pit-trial","222","1451126","0.0-108.0","battery-v0.2","","""event"",""trial"",""time""
""fullscreenenter"",""1"",""1265""
","
","
","""event"",""trial"",""time""
""fullscreenenter"",""1"",""1265""
","
","","","-1","","","25","11363","165","b","elianto","#f73b6a7A","-1","-1","1","-10","[]","0","2","","","11363","104","6","4","lose","no-go","1"
"pit-trial","223","1455984","0.0-109.0","battery-v0.2","","""event"",""trial"",""time""
""fullscreenenter"",""1"",""1265""
","
","
","""event"",""trial"",""time""
""fullscreenenter"",""1"",""1265""
","
","","","-1","","","25","11363","165","b","elianto","#f73b6a7A","-1","-1","1","0","[]","0","2","","","11363","105","6","4","lose","no-go","0"
"pit-trial","224","1459722","0.0-110.0","battery-v0.2","","""event"",""trial"",""time""
""fullscreenenter"",""1"",""1265""
","
","
","""event"",""trial"",""time""
""fullscreenenter"",""1"",""1265""
","
","","","879.2999999523163","","","25","11363","165","c","elianto","#3366ff99"," "," ","1","+10","[1729.7999999523163]","1","2","","","11363","106","5","1","win","go","0"
"pit-trial","225","1463577","0.0-111.0","battery-v0.2","","""event"",""trial"",""time""
""fullscreenenter"",""1"",""1265""
","
","
","""event"",""trial"",""time""
""fullscreenenter"",""1"",""1265""
","
","","","994.1999999284744","","","25","11363","165","n","elianto","#3366ff99","-1"," ","0","0","[1846.3999999761581]","1","2","","","11363","107","9","2","win","no-go","0"
"pit-trial","226","1467775","0.0-112.0","battery-v0.2","","""event"",""trial"",""time""
""fullscreenenter"",""1"",""1265""
","
","
","""event"",""trial"",""time""
""fullscreenenter"",""1"",""1265""
","
","","","1336.5","","","25","11363","165","f","elianto","#3366ff99","-1"," ","0","0","[2190]","1","2","","","11363","108","8","2","win","no-go","0"
"pit-trial","227","1472637","0.0-113.0","battery-v0.2","","""event"",""trial"",""time""
""fullscreenenter"",""1"",""1265""
","
","
","""event"",""trial"",""time""
""fullscreenenter"",""1"",""1265""
","
","","","-1","","","25","11363","165","f","elianto","#3366ff99","-1","-1","1","+10","[]","0","2","","","11363","109","8","2","win","no-go","0"
"pit-trial","228","1476290","0.0-114.0","battery-v0.2","","""event"",""trial"",""time""
""fullscreenenter"",""1"",""1265""
","
","
","""event"",""trial"",""time""
""fullscreenenter"",""1"",""1265""
","
","","","792.1000000238419","","","25","11363","165","c","elianto","#3366ff99"," "," ","1","+10","[1644.3000000715256]","1","2","","","11363","110","5","1","win","go","0"
"pit-trial","229","1480875","0.0-115.0","battery-v0.2","","""event"",""trial"",""time""
""fullscreenenter"",""1"",""1265""
","
","
","""event"",""trial"",""time""
""fullscreenenter"",""1"",""1265""
","
","","","1724.2999999523163","","","25","11363","165","b","elianto","#f73b6a7A","-1"," ","0","-10","[2576]","1","2","","","11363","111","6","4","lose","no-go","0"
"pit-trial","230","1484568","0.0-116.0","battery-v0.2","","""event"",""trial"",""time""
""fullscreenenter"",""1"",""1265""
","
","
","""event"",""trial"",""time""
""fullscreenenter"",""1"",""1265""
","
","","","832.2000000476837","","","25","11363","165","n","elianto","#3366ff99","-1"," ","0","0","[1685.2000000476837]","1","2","","","11363","112","9","2","win","no-go","0"
"pit-trial","231","1489430","0.0-117.0","battery-v0.2","","""event"",""trial"",""time""
""fullscreenenter"",""1"",""1265""
","
","
","""event"",""trial"",""time""
""fullscreenenter"",""1"",""1265""
","
","","","-1","","","25","11363","165","f","elianto","#3366ff99","-1","-1","1","+10","[]","0","2","","","11363","113","8","2","win","no-go","0"
"pit-trial","232","1494293","0.0-118.0","battery-v0.2","","""event"",""trial"",""time""
""fullscreenenter"",""1"",""1265""
","
","
","""event"",""trial"",""time""
""fullscreenenter"",""1"",""1265""
","
","","","-1","","","25","11363","165","n","elianto","#3366ff99","-1","-1","1","+10","[]","0","2","","","11363","114","9","2","win","no-go","0"
"pit-trial","233","1498591","0.0-119.0","battery-v0.2","","""event"",""trial"",""time""
""fullscreenenter"",""1"",""1265""
","
","
","""event"",""trial"",""time""
""fullscreenenter"",""1"",""1265""
","
","","","1436.2000000476837","","","25","11363","165","c","elianto","#3366ff99"," "," ","1","+10","[2288.5]","1","2","","","11363","115","5","1","win","go","0"
"pit-trial","234","1503454","0.0-120.0","battery-v0.2","","""event"",""trial"",""time""
""fullscreenenter"",""1"",""1265""
","
","
","""event"",""trial"",""time""
""fullscreenenter"",""1"",""1265""
","
","","","-1","","","25","11363","165","t","elianto","#f73b6a7A"," ","-1","0","-10","[3016.399999976158]","1","2","","","11363","116","7","3","lose","go","0"
"pit-trial","235","1508315","0.0-121.0","battery-v0.2","","""event"",""trial"",""time""
""fullscreenenter"",""1"",""1265""
","
","
","""event"",""trial"",""time""
""fullscreenenter"",""1"",""1265""
","
","","","-1","","","25","11363","165","f","elianto","#3366ff99","-1","-1","1","0","[]","0","2","","","11363","117","8","2","win","no-go","1"
"pit-trial","236","1511906","0.0-122.0","battery-v0.2","","""event"",""trial"",""time""
""fullscreenenter"",""1"",""1265""
","
","
","""event"",""trial"",""time""
""fullscreenenter"",""1"",""1265""
","
","","","733.8999999761581","","","25","11363","165","c","elianto","#3366ff99"," "," ","1","0","[1584.1999999284744]","1","2","","","11363","118","5","1","win","go","1"
"pit-trial","237","1516212","0.0-123.0","battery-v0.2","","""event"",""trial"",""time""
""fullscreenenter"",""1"",""1265""
","
","
","""event"",""trial"",""time""
""fullscreenenter"",""1"",""1265""
","
","","","1445","","","25","11363","165","b","elianto","#f73b6a7A","-1"," ","0","-10","[2297.6999999284744]","1","2","","","11363","119","6","4","lose","no-go","0"
"pit-trial","238","1521077","0.0-124.0","battery-v0.2","","""event"",""trial"",""time""
""fullscreenenter"",""1"",""1265""
","
","
","""event"",""trial"",""time""
""fullscreenenter"",""1"",""1265""
","
","","","-1","","","25","11363","165","n","elianto","#3366ff99","-1","-1","1","0","[]","0","2","","","11363","120","9","2","win","no-go","1"
"pit-trial","239","1525173","0.0-125.0","battery-v0.2","","""event"",""trial"",""time""
""fullscreenenter"",""1"",""1265""
","
","
","""event"",""trial"",""time""
""fullscreenenter"",""1"",""1265""
","
","","","1236.3999999761581","","","25","11363","165","c","elianto","#3366ff99"," "," ","1","+10","[2088]","1","2","","","11363","121","5","1","win","go","0"
"pit-trial","240","1530037","0.0-126.0","battery-v0.2","","""event"",""trial"",""time""
""fullscreenenter"",""1"",""1265""
","
","
","""event"",""trial"",""time""
""fullscreenenter"",""1"",""1265""
","
","","","-1","","","25","11363","165","f","elianto","#3366ff99","-1","-1","1","+10","[]","0","2","","","11363","122","8","2","win","no-go","0"
"pit-trial","241","1534901","0.0-127.0","battery-v0.2","","""event"",""trial"",""time""
""fullscreenenter"",""1"",""1265""
","
","
","""event"",""trial"",""time""
""fullscreenenter"",""1"",""1265""
","
","","","-1","","","25","11363","165","n","elianto","#3366ff99","-1","-1","1","+10","[]","0","2","","","11363","123","9","2","win","no-go","0"
"pit-trial","242","1538968","0.0-128.0","battery-v0.2","","""event"",""trial"",""time""
""fullscreenenter"",""1"",""1265""
","
","
","""event"",""trial"",""time""
""fullscreenenter"",""1"",""1265""
","
","","","1211.2999999523163","","","25","11363","165","t","elianto","#f73b6a7A"," "," ","1","0","[2062.5]","1","2","","","11363","124","7","3","lose","go","0"
"pit-trial","243","1543830","0.0-129.0","battery-v0.2","","""event"",""trial"",""time""
""fullscreenenter"",""1"",""1265""
","
","
","""event"",""trial"",""time""
""fullscreenenter"",""1"",""1265""
","
","","","-1","","","25","11363","165","f","elianto","#3366ff99","-1","-1","1","+10","[]","0","2","","","11363","125","8","2","win","no-go","0"
"pit-trial","244","1547943","0.0-130.0","battery-v0.2","","""event"",""trial"",""time""
""fullscreenenter"",""1"",""1265""
","
","
","""event"",""trial"",""time""
""fullscreenenter"",""1"",""1265""
","
","","","1254.0999999046326","","","25","11363","165","b","elianto","#f73b6a7A","-1"," ","0","0","[2105.2999999523163]","1","2","","","11363","126","6","4","lose","no-go","1"
"pit-trial","245","1551971","0.0-131.0","battery-v0.2","","""event"",""trial"",""time""
""fullscreenenter"",""1"",""1265""
","
","
","""event"",""trial"",""time""
""fullscreenenter"",""1"",""1265""
","
","","","1170.1000000238419","","","25","11363","165","t","elianto","#f73b6a7A"," "," ","1","-10","[2023.5]","1","2","","","11363","127","7","3","lose","go","1"
"pit-trial","246","1556834","0.0-132.0","battery-v0.2","","""event"",""trial"",""time""
""fullscreenenter"",""1"",""1265""
","
","
","""event"",""trial"",""time""
""fullscreenenter"",""1"",""1265""
","
","","","-1","","","25","11363","165","n","elianto","#3366ff99","-1","-1","1","+10","[]","0","2","","","11363","128","9","2","win","no-go","0"
"pit-trial","247","1561690","0.0-133.0","battery-v0.2","","""event"",""trial"",""time""
""fullscreenenter"",""1"",""1265""
","
","
","""event"",""trial"",""time""
""fullscreenenter"",""1"",""1265""
","
","","","-1","","","25","11363","165","n","elianto","#3366ff99","-1","-1","1","0","[]","0","2","","","11363","129","9","2","win","no-go","1"
"pit-trial","248","1566554","0.0-134.0","battery-v0.2","","""event"",""trial"",""time""
""fullscreenenter"",""1"",""1265""
","
","
","""event"",""trial"",""time""
""fullscreenenter"",""1"",""1265""
","
","","","-1","","","25","11363","165","f","elianto","#3366ff99","-1","-1","1","0","[]","0","2","","","11363","130","8","2","win","no-go","1"
"pit-trial","249","1571413","0.0-135.0","battery-v0.2","","""event"",""trial"",""time""
""fullscreenenter"",""1"",""1265""
","
","
","""event"",""trial"",""time""
""fullscreenenter"",""1"",""1265""
","
","","","-1","","","25","11363","165","b","elianto","#f73b6a7A","-1","-1","1","0","[]","0","2","","","11363","131","6","4","lose","no-go","0"
"pit-trial","250","1575224","0.0-136.0","battery-v0.2","","""event"",""trial"",""time""
""fullscreenenter"",""1"",""1265""
","
","
","""event"",""trial"",""time""
""fullscreenenter"",""1"",""1265""
","
","","","954.8000000715256","","","25","11363","165","t","elianto","#f73b6a7A"," "," ","1","0","[1806.6000000238419]","1","2","","","11363","132","7","3","lose","go","0"
"pit-trial","251","1580086","0.0-137.0","battery-v0.2","","""event"",""trial"",""time""
""fullscreenenter"",""1"",""1265""
","
","
","""event"",""trial"",""time""
""fullscreenenter"",""1"",""1265""
","
","","","-1","","","25","11363","165","n","elianto","#3366ff99","-1","-1","1","0","[]","0","2","","","11363","133","9","2","win","no-go","1"
"pit-trial","252","1583647","0.0-138.0","battery-v0.2","","""event"",""trial"",""time""
""fullscreenenter"",""1"",""1265""
","
","
","""event"",""trial"",""time""
""fullscreenenter"",""1"",""1265""
","
","","","703.0999999046326","","","25","11363","165","t","elianto","#f73b6a7A"," "," ","1","0","[1554.7000000476837]","1","2","","","11363","134","7","3","lose","go","0"
"pit-trial","253","1588509","0.0-139.0","battery-v0.2","","""event"",""trial"",""time""
""fullscreenenter"",""1"",""1265""
","
","
","""event"",""trial"",""time""
""fullscreenenter"",""1"",""1265""
","
","","","-1","","","25","11363","165","b","elianto","#f73b6a7A","-1","-1","1","0","[]","0","2","","","11363","135","6","4","lose","no-go","0"
"pit-trial","254","1593374","0.0-140.0","battery-v0.2","","""event"",""trial"",""time""
""fullscreenenter"",""1"",""1265""
","
","
","""event"",""trial"",""time""
""fullscreenenter"",""1"",""1265""
","
","","","-1","","","25","11363","165","f","elianto","#3366ff99","-1","-1","1","+10","[]","0","2","","","11363","136","8","2","win","no-go","0"
"pit-trial","255","1598234","0.0-141.0","battery-v0.2","","""event"",""trial"",""time""
""fullscreenenter"",""1"",""1265""
","
","
","""event"",""trial"",""time""
""fullscreenenter"",""1"",""1265""
","
","","","-1","","","25","11363","165","f","elianto","#3366ff99","-1","-1","1","+10","[]","0","2","","","11363","137","8","2","win","no-go","0"
"pit-trial","256","1602970","0.0-142.0","battery-v0.2","","""event"",""trial"",""time""
""fullscreenenter"",""1"",""1265""
","
","
","""event"",""trial"",""time""
""fullscreenenter"",""1"",""1265""
","
","","","1875.8000000715256","","","25","11363","165","t","elianto","#f73b6a7A"," "," ","1","0","[2727.3000000715256]","1","2","","","11363","138","7","3","lose","go","0"
"pit-trial","257","1607834","0.0-143.0","battery-v0.2","","""event"",""trial"",""time""
""fullscreenenter"",""1"",""1265""
","
","
","""event"",""trial"",""time""
""fullscreenenter"",""1"",""1265""
","
","","","-1","","","25","11363","165","n","elianto","#3366ff99","-1","-1","1","+10","[]","0","2","","","11363","139","9","2","win","no-go","0"
"pit-trial","258","1612696","0.0-144.0","battery-v0.2","","""event"",""trial"",""time""
""fullscreenenter"",""1"",""1265""
","
","
","""event"",""trial"",""time""
""fullscreenenter"",""1"",""1265""
","
","","","-1","","","25","11363","165","b","elianto","#f73b6a7A","-1","-1","1","0","[]","0","2","","","11363","140","6","4","lose","no-go","0"
"pit-instructions","259","1633089","0.0-145.0","battery-v0.2","","""event"",""trial"",""time""
""fullscreenenter"",""1"",""1265""
","
","
","""event"",""trial"",""time""
""fullscreenenter"",""1"",""1265""
","
","","[{""page_index"":0,""viewing_time"":11026.5},{""page_index"":1,""viewing_time"":9365.799999952316}]","20392.700000047684","","","","","","","","","","","","","","","","","","","","","","","",""
"pit-trial","260","1637957","0.0-146.0","battery-v0.2","","""event"",""trial"",""time""
""fullscreenenter"",""1"",""1265""
","
","
","""event"",""trial"",""time""
""fullscreenenter"",""1"",""1265""
","
","","","-1","","","25","11363","165","e","elianto","#f73b6a7A"," ","-1","0","0","[2938.2999999523163]","1","3","","","11363","141","2","3","lose","go","1"
"pit-trial","261","1641750","0.0-147.0","battery-v0.2","","""event"",""trial"",""time""
""fullscreenenter"",""1"",""1265""
","
","
","""event"",""trial"",""time""
""fullscreenenter"",""1"",""1265""
","
","","","934","","","25","11363","165","d","elianto","#3366ff99","-1"," ","0","0","[1786]","1","3","","","11363","142","1","2","win","no-go","0"
"pit-trial","262","1645281","0.0-148.0","battery-v0.2","","""event"",""trial"",""time""
""fullscreenenter"",""1"",""1265""
","
","
","""event"",""trial"",""time""
""fullscreenenter"",""1"",""1265""
","
","","","672.2000000476837","","","25","11363","165","j","elianto","#f73b6a7A"," "," ","1","0","[1523.5]","1","3","","","11363","143","0","3","lose","go","0"
"pit-trial","263","1648879","0.0-149.0","battery-v0.2","","""event"",""trial"",""time""
""fullscreenenter"",""1"",""1265""
","
","
","""event"",""trial"",""time""
""fullscreenenter"",""1"",""1265""
","
","","","742.5","","","25","11363","165","w","elianto","#f73b6a7A","-1"," ","0","-10","[1595]","1","3","","","11363","144","3","4","lose","no-go","0"
"pit-trial","264","1653740","0.0-150.0","battery-v0.2","","""event"",""trial"",""time""
""fullscreenenter"",""1"",""1265""
","
","
","""event"",""trial"",""time""
""fullscreenenter"",""1"",""1265""
","
","","","-1","","","25","11363","165","w","elianto","#f73b6a7A","-1","-1","1","0","[]","0","3","","","11363","145","3","4","lose","no-go","0"
"pit-trial","265","1658086","0.0-151.0","battery-v0.2","","""event"",""trial"",""time""
""fullscreenenter"",""1"",""1265""
","
","
","""event"",""trial"",""time""
""fullscreenenter"",""1"",""1265""
","
","","","1485.5","","","25","11363","165","e","elianto","#f73b6a7A"," "," ","1","0","[2338.7999999523163]","1","3","","","11363","146","2","3","lose","go","0"
"pit-trial","266","1662184","0.0-152.0","battery-v0.2","","""event"",""trial"",""time""
""fullscreenenter"",""1"",""1265""
","
","
","""event"",""trial"",""time""
""fullscreenenter"",""1"",""1265""
","
","","","1238.3999999761581","","","25","11363","165","j","elianto","#f73b6a7A"," "," ","1","0","[2089.399999976158]","1","3","","","11363","147","0","3","lose","go","0"
"pit-trial","267","1667048","0.0-153.0","battery-v0.2","","""event"",""trial"",""time""
""fullscreenenter"",""1"",""1265""
","
","
","""event"",""trial"",""time""
""fullscreenenter"",""1"",""1265""
","
","","","-1","","","25","11363","165","d","elianto","#3366ff99","-1","-1","1","+10","[]","0","3","","","11363","148","1","2","win","no-go","0"
"pit-trial","268","1670834","0.0-154.0","battery-v0.2","","""event"",""trial"",""time""
