"trial_type","trial_index","time_elapsed","internal_node_id","task_version","subject_id","interactions","blur_events","focus_events","fullscreenenter_events","fullscreenexit_events","success","view_history","rt","responses","num_errors","age","subject","participantId","rune","rune_set","hex","correct","choice","accuracy","outcome","keys","total_keys","block","practice","value","sub","trial","stimulus","robot","valence","action","sham"
"pavlovia","0","8","0.0-0.0","battery-v0.2","","""event"",""trial"",""time""
""fullscreenenter"",""1"",""3064""
","
","
","""event"",""trial"",""time""
""fullscreenenter"",""1"",""3064""
","
","","","","","","","","","","","","","","","","","","","","","","","","","","",""
"fullscreen","1","4034","0.0-1.0","battery-v0.2","","""event"",""trial"",""time""
""fullscreenenter"",""1"",""3064""
","
","
","""event"",""trial"",""time""
""fullscreenenter"",""1"",""3064""
","
","true","","","","","","","","","","","","","","","","","","","","","","","","","",""
"pit-instructions","2","11660","0.0-2.0-0.0","battery-v0.2","","""event"",""trial"",""time""
""fullscreenenter"",""1"",""3064""
","
","
","""event"",""trial"",""time""
""fullscreenenter"",""1"",""3064""
","
","","[{""page_index"":0,""viewing_time"":7621.099999904633}]","7621.5","","","","","","","","","","","","","","","","","","","","","","","",""
"pit-comprehension","3","18687","0.0-2.0-1.0-0.0","battery-v0.2","","""event"",""trial"",""time""
""fullscreenenter"",""1"",""3064""
","
","
","""event"",""trial"",""time""
""fullscreenenter"",""1"",""3064""
","
","","","7019.299999952316","[""shark""]","0","12","10129","4701","","","","","","","","","","","","","","","","","","",""
"pit-instructions","4","20077","0.0-2.0-1.0-1.0","battery-v0.2","","""event"",""trial"",""time""
""fullscreenenter"",""1"",""3064""
","
","
","""event"",""trial"",""time""
""fullscreenenter"",""1"",""3064""
","
","","[{""page_index"":0,""viewing_time"":1379.0999999046326}]","1379.4000000953674","","","","","","","","","","","","","","","","","","","","","","","",""
"pit-comprehension","5","43449","0.0-2.0-2.0-0.0","battery-v0.2","","""event"",""trial"",""time""
""fullscreenenter"",""1"",""3064""
","
","
","""event"",""trial"",""time""
""fullscreenenter"",""1"",""3064""
","
","","","23366.5","[""turtle""]","1","12","10129","4701","","","","","","","","","","","","","","","","","","",""
"pit-instructions","6","45352","0.0-2.0-2.0-1.0","battery-v0.2","","""event"",""trial"",""time""
""fullscreenenter"",""1"",""3064""
","
","
","""event"",""trial"",""time""
""fullscreenenter"",""1"",""3064""
","
","","[{""page_index"":0,""viewing_time"":1896.2000000476837}]","1896.5","","","","","","","","","","","","","","","","","","","","","","","",""
"pit-instructions","7","46231","0.0-2.0-2.0-2.0-0.0","battery-v0.2","","""event"",""trial"",""time""
""fullscreenenter"",""1"",""3064""
","
","
","""event"",""trial"",""time""
""fullscreenenter"",""1"",""3064""
","
","","[{""page_index"":0,""viewing_time"":875.7999999523163}]","875.9000000953674","","","","","","","","","","","","","","","","","","","","","","","",""
"pit-comprehension","8","56980","0.0-2.0-2.1-0.1","battery-v0.2","","""event"",""trial"",""time""
""fullscreenenter"",""1"",""3064""
","
","
","""event"",""trial"",""time""
""fullscreenenter"",""1"",""3064""
","
","","","10745.699999809265","[""tiger""]","0","12","10129","4701","","","","","","","","","","","","","","","","","","",""
"pit-instructions","9","58384","0.0-2.0-2.1-1.1","battery-v0.2","","""event"",""trial"",""time""
""fullscreenenter"",""1"",""3064""
","
","
","""event"",""trial"",""time""
""fullscreenenter"",""1"",""3064""
","
","","[{""page_index"":0,""viewing_time"":1398.7000000476837}]","1398.9000000953674","","","","","","","","","","","","","","","","","","","","","","","",""
"pit-instructions","10","166971","0.0-2.0-3.0","battery-v0.2","","""event"",""trial"",""time""
""fullscreenenter"",""1"",""3064""
","
","
","""event"",""trial"",""time""
""fullscreenenter"",""1"",""3064""
","
","","[{""page_index"":0,""viewing_time"":8550.299999952316},{""page_index"":1,""viewing_time"":6536.799999952316},{""page_index"":2,""viewing_time"":7621.5},{""page_index"":3,""viewing_time"":5253.5},{""page_index"":4,""viewing_time"":5112.299999952316},{""page_index"":5,""viewing_time"":5947.400000095367},{""page_index"":6,""viewing_time"":22837.200000047684},{""page_index"":7,""viewing_time"":6845.399999856949},{""page_index"":8,""viewing_time"":6328.100000143051},{""page_index"":9,""viewing_time"":7517.200000047684},{""page_index"":10,""viewing_time"":8285.599999904633},{""page_index"":11,""viewing_time"":6725.799999952316},{""page_index"":12,""viewing_time"":6642.299999952316},{""page_index"":13,""viewing_time"":4379.900000095367}]","108583.79999995232","","","","","","","","","","","","","","","","","","","","","","","",""
"pit-trial","11","170391","0.0-2.0-4.0-0.0","battery-v0.2","","""event"",""trial"",""time""
""fullscreenenter"",""1"",""3064""
","
","
","""event"",""trial"",""time""
""fullscreenenter"",""1"",""3064""
","
","","","557.7999999523163","","","12","10129","4701","&#9784;","elianto","#FFFFF080"," "," ","1","&#10004","[1409.1999998092651,3100.2999999523163]","2","0","0","","","","","","","",""
"pit-trial","12","173897","0.0-2.0-4.1-0.1","battery-v0.2","","""event"",""trial"",""time""
""fullscreenenter"",""1"",""3064""
","
","
","""event"",""trial"",""time""
""fullscreenenter"",""1"",""3064""
","
","","","634.5999999046326","","","12","10129","4701","&#9784;","elianto","#FFFFF080"," "," ","1","&#10004","[1493.3999998569489]","1","0","0","","","","","","","",""
"pit-trial","13","178141","0.0-2.0-4.2-0.2","battery-v0.2","","""event"",""trial"",""time""
""fullscreenenter"",""1"",""3064""
","
","
","""event"",""trial"",""time""
""fullscreenenter"",""1"",""3064""
","
","","","1376.5999999046326","","","12","10129","4701","&#9784;","elianto","#FFFFF080"," "," ","1","&#10004","[2231]","1","0","0","","","","","","","",""
"pit-trial","14","181766","0.0-2.0-4.3-0.3","battery-v0.2","","""event"",""trial"",""time""
""fullscreenenter"",""1"",""3064""
","
","
","""event"",""trial"",""time""
""fullscreenenter"",""1"",""3064""
","
","","","760.2000000476837","","","12","10129","4701","&#9784;","elianto","#FFFFF080"," "," ","1","&#10004","[1610.6000001430511]","1","0","0","","","","","","","",""
"pit-trial","15","185917","0.0-2.0-4.4-0.4","battery-v0.2","","""event"",""trial"",""time""
""fullscreenenter"",""1"",""3064""
","
","
","""event"",""trial"",""time""
""fullscreenenter"",""1"",""3064""
","
","","","1285.1000001430511","","","12","10129","4701","&#9784;","elianto","#FFFFF080"," "," ","1","&#10004","[2142.2999999523163,4035.2000000476837]","2","0","0","","","","","","","",""
"pit-instructions","16","206742","0.0-2.0-5.0","battery-v0.2","","""event"",""trial"",""time""
""fullscreenenter"",""1"",""3064""
","
","
","""event"",""trial"",""time""
""fullscreenenter"",""1"",""3064""
","
","","[{""page_index"":0,""viewing_time"":5145.900000095367},{""page_index"":1,""viewing_time"":5263.299999952316},{""page_index"":2,""viewing_time"":4438.900000095367},{""page_index"":3,""viewing_time"":5970.799999952316}]","20819.200000047684","","","","","","","","","","","","","","","","","","","","","","","",""
"pit-trial","17","211607","0.0-2.0-6.0-0.0","battery-v0.2","","""event"",""trial"",""time""
""fullscreenenter"",""1"",""3064""
","
","
","""event"",""trial"",""time""
""fullscreenenter"",""1"",""3064""
","
","","","-1","","","12","10129","4701","&#9854;","elianto","#FFFFF080","-1","-1","1","&#10004","[]","0","0","1","","","","","","","",""
"pit-trial","18","216481","0.0-2.0-6.1-0.1","battery-v0.2","","""event"",""trial"",""time""
""fullscreenenter"",""1"",""3064""
","
","
","""event"",""trial"",""time""
""fullscreenenter"",""1"",""3064""
","
","","","-1","","","12","10129","4701","&#9854;","elianto","#FFFFF080","-1","-1","1","&#10004","[]","0","0","1","","","","","","","",""
"pit-trial","19","221353","0.0-2.0-6.2-0.2","battery-v0.2","","""event"",""trial"",""time""
""fullscreenenter"",""1"",""3064""
","
","
","""event"",""trial"",""time""
""fullscreenenter"",""1"",""3064""
","
","","","-1","","","12","10129","4701","&#9854;","elianto","#FFFFF080","-1","-1","1","&#10004","[]","0","0","1","","","","","","","",""
"pit-trial","20","226224","0.0-2.0-6.3-0.3","battery-v0.2","","""event"",""trial"",""time""
""fullscreenenter"",""1"",""3064""
","
","
","""event"",""trial"",""time""
""fullscreenenter"",""1"",""3064""
","
","","","-1","","","12","10129","4701","&#9854;","elianto","#FFFFF080","-1","-1","1","&#10004","[]","0","0","1","","","","","","","",""
"pit-trial","21","231097","0.0-2.0-6.4-0.4","battery-v0.2","","""event"",""trial"",""time""
""fullscreenenter"",""1"",""3064""
","
","
","""event"",""trial"",""time""
""fullscreenenter"",""1"",""3064""
","
","","","-1","","","12","10129","4701","&#9854;","elianto","#FFFFF080","-1","-1","1","&#10004","[]","0","0","1","","","","","","","",""
"pit-instructions","22","355810","0.0-2.0-7.0","battery-v0.2","","""event"",""trial"",""time""
""fullscreenenter"",""1"",""3064""
","
","
","""event"",""trial"",""time""
""fullscreenenter"",""1"",""3064""
","
","","[{""page_index"":0,""viewing_time"":8964.899999856949},{""page_index"":1,""viewing_time"":7005.200000047684},{""page_index"":2,""viewing_time"":6264.400000095367},{""page_index"":3,""viewing_time"":7695.299999952316},{""page_index"":4,""viewing_time"":7049.5},{""page_index"":5,""viewing_time"":5713},{""page_index"":6,""viewing_time"":5110.099999904633},{""page_index"":7,""viewing_time"":7633.5},{""page_index"":8,""viewing_time"":8727.700000047684},{""page_index"":9,""viewing_time"":5876.599999904633},{""page_index"":10,""viewing_time"":6013.200000047684},{""page_index"":11,""viewing_time"":4109.5},{""page_index"":12,""viewing_time"":7699.700000047684},{""page_index"":13,""viewing_time"":6832.700000047684},{""page_index"":14,""viewing_time"":9944.799999952316},{""page_index"":15,""viewing_time"":7398.700000047684},{""page_index"":16,""viewing_time"":6057.599999904633},{""page_index"":17,""viewing_time"":6612.700000047684}]","124709.5","","","","","","","","","","","","","","","","","","","","","","","",""
"pit-trial","23","359262","0.0-2.0-8.0-0.0","battery-v0.2","","""event"",""trial"",""time""
""fullscreenenter"",""1"",""3064""
","
","
","""event"",""trial"",""time""
""fullscreenenter"",""1"",""3064""
","
","","","582.7999999523163","","","12","10129","4701","&#9776;","elianto","#3366ff99"," "," ","1","+10","[595.4000000953674,1439.7000000476837]","2","0","1","","","","","","","",""
"pit-trial","24","362583","0.0-2.0-8.0-1.0","battery-v0.2","","""event"",""trial"",""time""
""fullscreenenter"",""1"",""3064""
","
","
","""event"",""trial"",""time""
""fullscreenenter"",""1"",""3064""
","
","","","451","","","12","10129","4701","&#9776;","elianto","#3366ff99"," "," ","1","+10","[1307.7999999523163]","1","0","1","","","","","","","",""
"pit-trial","25","366043","0.0-2.0-8.0-2.0","battery-v0.2","","""event"",""trial"",""time""
""fullscreenenter"",""1"",""3064""
","
","
","""event"",""trial"",""time""
""fullscreenenter"",""1"",""3064""
","
","","","600.5999999046326","","","12","10129","4701","&#9776;","elianto","#3366ff99"," "," ","1","+10","[1451.5]","1","0","1","","","","","","","",""
"pit-trial","26","368979","0.0-2.0-8.0-3.0","battery-v0.2","","""event"",""trial"",""time""
""fullscreenenter"",""1"",""3064""
","
","
","""event"",""trial"",""time""
""fullscreenenter"",""1"",""3064""
","
","","","70.29999995231628","","","12","10129","4701","&#9776;","elianto","#3366ff99"," "," ","1","0","[923,2352]","2","0","1","","","","","","","",""
"pit-trial","27","371963","0.0-2.0-8.0-4.0","battery-v0.2","","""event"",""trial"",""time""
""fullscreenenter"",""1"",""3064""
","
","
","""event"",""trial"",""time""
""fullscreenenter"",""1"",""3064""
","
","","","117.70000004768372","","","12","10129","4701","&#9776;","elianto","#3366ff99"," "," ","1","+10","[204.5,620.1000001430511,972.2000000476837,1335.7000000476837,1581.2000000476837,1823.9000000953674,2049.2000000476837,2283,2513.2000000476837,2789.4000000953674]","10","0","1","","","","","","","",""
"pit-trial","28","374926","0.0-2.0-8.1-0.1","battery-v0.2","","""event"",""trial"",""time""
""fullscreenenter"",""1"",""3064""
","
","
","""event"",""trial"",""time""
""fullscreenenter"",""1"",""3064""
","
","","","98.89999985694885","","","12","10129","4701","&#9776;","elianto","#3366ff99"," "," ","1","+10","[65.5,449,695.5,954.1999998092651,1207.3999998569489,1473.3999998569489,1753.0999999046326,2009.5999999046326,2287.5999999046326,2532.899999856949,2803.5]","11","0","1","","","","","","","",""
"pit-trial","29","377914","0.0-2.0-8.1-1.1","battery-v0.2","","""event"",""trial"",""time""
""fullscreenenter"",""1"",""3064""
","
","
","""event"",""trial"",""time""
""fullscreenenter"",""1"",""3064""
","
","","","121.79999995231628","","","12","10129","4701","&#9776;","elianto","#3366ff99"," "," ","1","+10","[177.79999995231628,355.7000000476837,619.4000000953674,978.2000000476837,1694.4000000953674,1928.9000000953674,2147.5,2394,2625,2877.100000143051]","10","0","1","","","","","","","",""
"pit-trial","30","380842","0.0-2.0-8.1-2.1","battery-v0.2","","""event"",""trial"",""time""
""fullscreenenter"",""1"",""3064""
","
","
","""event"",""trial"",""time""
""fullscreenenter"",""1"",""3064""
","
","","","68","","","12","10129","4701","&#9776;","elianto","#3366ff99"," "," ","1","+10","[167.29999995231628,399.40000009536743,633.5999999046326,923.0999999046326,1177.7999999523163,1438.5999999046326,1723.7000000476837,1989,2262.4000000953674,2437.0999999046326,2672.0999999046326,2896.5999999046326]","12","0","1","","","","","","","",""
"pit-trial","31","383715","0.0-2.0-8.1-3.1","battery-v0.2","","""event"",""trial"",""time""
""fullscreenenter"",""1"",""3064""
","
","
","""event"",""trial"",""time""
""fullscreenenter"",""1"",""3064""
","
","","","13.799999952316284","","","12","10129","4701","&#9776;","elianto","#3366ff99"," "," ","1","0","[220.29999995231628,442.5,652.2000000476837,869.0999999046326,1087.4000000953674,1943.7000000476837,2210.0999999046326,2469.2999999523163,2716.4000000953674]","9","0","1","","","","","","","",""
"pit-trial","32","386763","0.0-2.0-8.1-4.1","battery-v0.2","","""event"",""trial"",""time""
""fullscreenenter"",""1"",""3064""
","
","
","""event"",""trial"",""time""
""fullscreenenter"",""1"",""3064""
","
","","","182.80000019073486","","","12","10129","4701","&#9776;","elianto","#3366ff99"," "," ","1","+10","[119.09999990463257,336.09999990463257,582.8999998569489,818.2000000476837,1038.0999999046326,1271.5999999046326,1508,1792.5,3016.2999999523163]","9","0","1","","","","","","","",""
"pit-trial","33","389750","0.0-2.0-8.2-0.2","battery-v0.2","","""event"",""trial"",""time""
""fullscreenenter"",""1"",""3064""
","
","
","""event"",""trial"",""time""
""fullscreenenter"",""1"",""3064""
","
","","","122.20000004768372","","","12","10129","4701","&#9776;","elianto","#3366ff99"," "," ","1","+10","[336.5,664.2000000476837,976.2000000476837,1260.3999998569489,1515.7999999523163,1766.7999999523163,2011.0999999046326]","7","0","1","","","","","","","",""
"pit-trial","34","392667","0.0-2.0-8.2-1.2","battery-v0.2","","""event"",""trial"",""time""
""fullscreenenter"",""1"",""3064""
","
","
","""event"",""trial"",""time""
""fullscreenenter"",""1"",""3064""
","
","","","58.69999980926514","","","12","10129","4701","&#9776;","elianto","#3366ff99"," "," ","1","+10","[555.2999999523163,909.3999998569489,1452.8999998569489,1808.8999998569489,2129,2396.899999856949,2651.7000000476837,2891.0999999046326]","8","0","1","","","","","","","",""
"pit-trial","35","395605","0.0-2.0-8.2-2.2","battery-v0.2","","""event"",""trial"",""time""
""fullscreenenter"",""1"",""3064""
","
","
","""event"",""trial"",""time""
""fullscreenenter"",""1"",""3064""
","
","","","72.40000009536743","","","12","10129","4701","&#9776;","elianto","#3366ff99"," "," ","1","+10","[211.59999990463257,429.2000000476837,926.5999999046326,1194.2000000476837,1468.2999999523163,1969.4000000953674,2185.2999999523163,2891.5999999046326]","8","0","1","","","","","","","",""
"pit-trial","36","400475","0.0-2.0-8.2-3.2","battery-v0.2","","""event"",""trial"",""time""
""fullscreenenter"",""1"",""3064""
","
","
","""event"",""trial"",""time""
""fullscreenenter"",""1"",""3064""
","
","","","-1","","","12","10129","4701","&#9776;","elianto","#3366ff99"," ","-1","0","+10","[]","0","0","1","","","","","","","",""
"pit-trial","37","404747","0.0-2.0-8.2-4.2","battery-v0.2","","""event"",""trial"",""time""
""fullscreenenter"",""1"",""3064""
","
","
","""event"",""trial"",""time""
""fullscreenenter"",""1"",""3064""
","
","","","1409.2999999523163","","","12","10129","4701","&#9776;","elianto","#3366ff99"," "," ","1","+10","[2263.100000143051,3536.7000000476837]","2","0","1","","","","","","","",""
"call-function","38","404750","0.0-2.0-9.0","battery-v0.2","","""event"",""trial"",""time""
""fullscreenenter"",""1"",""3064""
","
","
","""event"",""trial"",""time""
""fullscreenenter"",""1"",""3064""
","
","","","","","","","","","","","","","","","","","","","","","","","","","","",""
"pit-instructions","39","450370","0.0-2.0-10.0","battery-v0.2","","""event"",""trial"",""time""
""fullscreenenter"",""1"",""3064""
","
","
","""event"",""trial"",""time""
""fullscreenenter"",""1"",""3064""
","
","","[{""page_index"":0,""viewing_time"":8749.300000190735},{""page_index"":1,""viewing_time"":7591.699999809265},{""page_index"":2,""viewing_time"":11833.200000047684},{""page_index"":3,""viewing_time"":10428.200000047684},{""page_index"":4,""viewing_time"":7015.900000095367}]","45618.90000009537","","","","","","","","","","","","","","","","","","","","","","","",""
"pit-trial","40","455238","0.0-2.0-11.0-0.0","battery-v0.2","","""event"",""trial"",""time""
""fullscreenenter"",""1"",""3064""
","
","
","""event"",""trial"",""time""
""fullscreenenter"",""1"",""3064""
","
","","","-1","","","12","10129","4701","&#9761;","elianto","#3366ff99","-1","-1","1","+10","[]","0","0","2","","","","","","","",""
"pit-trial","41","460108","0.0-2.0-11.0-1.0","battery-v0.2","","""event"",""trial"",""time""
""fullscreenenter"",""1"",""3064""
","
","
","""event"",""trial"",""time""
""fullscreenenter"",""1"",""3064""
","
","","","-1","","","12","10129","4701","&#9761;","elianto","#3366ff99","-1","-1","1","+10","[]","0","0","2","","","","","","","",""
"pit-trial","42","464979","0.0-2.0-11.0-2.0","battery-v0.2","","""event"",""trial"",""time""
""fullscreenenter"",""1"",""3064""
","
","
","""event"",""trial"",""time""
""fullscreenenter"",""1"",""3064""
","
","","","-1","","","12","10129","4701","&#9761;","elianto","#3366ff99","-1","-1","1","+10","[]","0","0","2","","","","","","","",""
"pit-trial","43","469845","0.0-2.0-11.0-3.0","battery-v0.2","","""event"",""trial"",""time""
""fullscreenenter"",""1"",""3064""
","
","
","""event"",""trial"",""time""
""fullscreenenter"",""1"",""3064""
","
","","","-1","","","12","10129","4701","&#9761;","elianto","#3366ff99","-1","-1","1","0","[]","0","0","2","","","","","","","",""
"pit-trial","44","474714","0.0-2.0-11.0-4.0","battery-v0.2","","""event"",""trial"",""time""
""fullscreenenter"",""1"",""3064""
","
","
","""event"",""trial"",""time""
""fullscreenenter"",""1"",""3064""
","
","","","-1","","","12","10129","4701","&#9761;","elianto","#3366ff99","-1","-1","1","+10","[]","0","0","2","","","","","","","",""
"pit-trial","45","479581","0.0-2.0-11.1-0.1","battery-v0.2","","""event"",""trial"",""time""
""fullscreenenter"",""1"",""3064""
","
","
","""event"",""trial"",""time""
""fullscreenenter"",""1"",""3064""
","
","","","-1","","","12","10129","4701","&#9761;","elianto","#3366ff99","-1","-1","1","+10","[]","0","0","2","","","","","","","",""
"pit-trial","46","484453","0.0-2.0-11.1-1.1","battery-v0.2","","""event"",""trial"",""time""
""fullscreenenter"",""1"",""3064""
","
","
","""event"",""trial"",""time""
""fullscreenenter"",""1"",""3064""
","
","","","-1","","","12","10129","4701","&#9761;","elianto","#3366ff99","-1","-1","1","+10","[]","0","0","2","","","","","","","",""
"pit-trial","47","489323","0.0-2.0-11.1-2.1","battery-v0.2","","""event"",""trial"",""time""
""fullscreenenter"",""1"",""3064""
","
","
","""event"",""trial"",""time""
""fullscreenenter"",""1"",""3064""
","
","","","-1","","","12","10129","4701","&#9761;","elianto","#3366ff99","-1","-1","1","+10","[]","0","0","2","","","","","","","",""
"pit-trial","48","494187","0.0-2.0-11.1-3.1","battery-v0.2","","""event"",""trial"",""time""
""fullscreenenter"",""1"",""3064""
","
","
","""event"",""trial"",""time""
""fullscreenenter"",""1"",""3064""
","
","","","-1","","","12","10129","4701","&#9761;","elianto","#3366ff99","-1","-1","1","0","[]","0","0","2","","","","","","","",""
"pit-trial","49","499051","0.0-2.0-11.1-4.1","battery-v0.2","","""event"",""trial"",""time""
""fullscreenenter"",""1"",""3064""
","
","
","""event"",""trial"",""time""
""fullscreenenter"",""1"",""3064""
","
","","","-1","","","12","10129","4701","&#9761;","elianto","#3366ff99","-1","-1","1","+10","[]","0","0","2","","","","","","","",""
"pit-trial","50","503915","0.0-2.0-11.2-0.2","battery-v0.2","","""event"",""trial"",""time""
""fullscreenenter"",""1"",""3064""
","
","
","""event"",""trial"",""time""
""fullscreenenter"",""1"",""3064""
","
","","","-1","","","12","10129","4701","&#9761;","elianto","#3366ff99","-1","-1","1","+10","[]","0","0","2","","","","","","","",""
"pit-trial","51","508779","0.0-2.0-11.2-1.2","battery-v0.2","","""event"",""trial"",""time""
""fullscreenenter"",""1"",""3064""
","
","
","""event"",""trial"",""time""
""fullscreenenter"",""1"",""3064""
","
","","","-1","","","12","10129","4701","&#9761;","elianto","#3366ff99","-1","-1","1","+10","[]","0","0","2","","","","","","","",""
"pit-trial","52","513642","0.0-2.0-11.2-2.2","battery-v0.2","","""event"",""trial"",""time""
""fullscreenenter"",""1"",""3064""
","
","
","""event"",""trial"",""time""
""fullscreenenter"",""1"",""3064""
","
","","","-1","","","12","10129","4701","&#9761;","elianto","#3366ff99","-1","-1","1","+10","[]","0","0","2","","","","","","","",""
"pit-trial","53","518506","0.0-2.0-11.2-3.2","battery-v0.2","","""event"",""trial"",""time""
""fullscreenenter"",""1"",""3064""
","
","
","""event"",""trial"",""time""
""fullscreenenter"",""1"",""3064""
","
","","","-1","","","12","10129","4701","&#9761;","elianto","#3366ff99","-1","-1","1","0","[]","0","0","2","","","","","","","",""
"pit-trial","54","523370","0.0-2.0-11.2-4.2","battery-v0.2","","""event"",""trial"",""time""
""fullscreenenter"",""1"",""3064""
","
","
","""event"",""trial"",""time""
""fullscreenenter"",""1"",""3064""
","
","","","-1","","","12","10129","4701","&#9761;","elianto","#3366ff99","-1","-1","1","+10","[]","0","0","2","","","","","","","",""
"pit-trial","55","528234","0.0-2.0-11.3-0.3","battery-v0.2","","""event"",""trial"",""time""
""fullscreenenter"",""1"",""3064""
","
","
","""event"",""trial"",""time""
""fullscreenenter"",""1"",""3064""
","
","","","-1","","","12","10129","4701","&#9761;","elianto","#3366ff99","-1","-1","1","+10","[]","0","0","2","","","","","","","",""
"pit-trial","56","533098","0.0-2.0-11.3-1.3","battery-v0.2","","""event"",""trial"",""time""
""fullscreenenter"",""1"",""3064""
","
","
","""event"",""trial"",""time""
""fullscreenenter"",""1"",""3064""
","
","","","-1","","","12","10129","4701","&#9761;","elianto","#3366ff99","-1","-1","1","+10","[]","0","0","2","","","","","","","",""
"pit-trial","57","537962","0.0-2.0-11.3-2.3","battery-v0.2","","""event"",""trial"",""time""
""fullscreenenter"",""1"",""3064""
","
","
","""event"",""trial"",""time""
""fullscreenenter"",""1"",""3064""
","
","","","-1","","","12","10129","4701","&#9761;","elianto","#3366ff99","-1","-1","1","+10","[]","0","0","2","","","","","","","",""
"pit-trial","58","542826","0.0-2.0-11.3-3.3","battery-v0.2","","""event"",""trial"",""time""
""fullscreenenter"",""1"",""3064""
","
","
","""event"",""trial"",""time""
""fullscreenenter"",""1"",""3064""
","
","","","-1","","","12","10129","4701","&#9761;","elianto","#3366ff99","-1","-1","1","0","[]","0","0","2","","","","","","","",""
"pit-trial","59","547690","0.0-2.0-11.3-4.3","battery-v0.2","","""event"",""trial"",""time""
""fullscreenenter"",""1"",""3064""
","
","
","""event"",""trial"",""time""
""fullscreenenter"",""1"",""3064""
","
","","","-1","","","12","10129","4701","&#9761;","elianto","#3366ff99","-1","-1","1","+10","[]","0","0","2","","","","","","","",""
"call-function","60","547694","0.0-2.0-12.0","battery-v0.2","","""event"",""trial"",""time""
""fullscreenenter"",""1"",""3064""
","
","
","""event"",""trial"",""time""
""fullscreenenter"",""1"",""3064""
","
","","","","","","","","","","","","","","","","","","","","","","","","","","",""
"pit-instructions","61","577749","0.0-2.0-13.0","battery-v0.2","","""event"",""trial"",""time""
""fullscreenenter"",""1"",""3064""
","
","
","""event"",""trial"",""time""
""fullscreenenter"",""1"",""3064""
","
","","[{""page_index"":0,""viewing_time"":4804.799999952316},{""page_index"":1,""viewing_time"":6075.900000095367},{""page_index"":2,""viewing_time"":3627.5},{""page_index"":3,""viewing_time"":10116.900000095367},{""page_index"":4,""viewing_time"":5429.5}]","30055","","","","","","","","","","","","","","","","","","","","","","","",""
"pit-trial","62","581804","0.0-2.0-14.0-0.0","battery-v0.2","","""event"",""trial"",""time""
""fullscreenenter"",""1"",""3064""
","
","
","""event"",""trial"",""time""
""fullscreenenter"",""1"",""3064""
","
","","","1196.2000000476837","","","12","10129","4701","&#9826;","elianto","#f73b6a7A","-1"," ","0","-10","[2046.7000000476837,2589.9000000953674]","2","0","3","","","","","","","",""
"pit-trial","63","586674","0.0-2.0-14.0-1.0","battery-v0.2","","""event"",""trial"",""time""
""fullscreenenter"",""1"",""3064""
","
","
","""event"",""trial"",""time""
""fullscreenenter"",""1"",""3064""
","
","","","-1","","","12","10129","4701","&#9826;","elianto","#f73b6a7A","-1","-1","1","0","[]","0","0","3","","","","","","","",""
"pit-trial","64","591539","0.0-2.0-14.0-2.0","battery-v0.2","","""event"",""trial"",""time""
""fullscreenenter"",""1"",""3064""
","
","
","""event"",""trial"",""time""
""fullscreenenter"",""1"",""3064""
","
","","","-1","","","12","10129","4701","&#9826;","elianto","#f73b6a7A","-1","-1","1","0","[]","0","0","3","","","","","","","",""
"pit-trial","65","596410","0.0-2.0-14.0-3.0","battery-v0.2","","""event"",""trial"",""time""
""fullscreenenter"",""1"",""3064""
","
","
","""event"",""trial"",""time""
""fullscreenenter"",""1"",""3064""
","
","","","-1","","","12","10129","4701","&#9826;","elianto","#f73b6a7A","-1","-1","1","-10","[]","0","0","3","","","","","","","",""
"pit-trial","66","601274","0.0-2.0-14.0-4.0","battery-v0.2","","""event"",""trial"",""time""
""fullscreenenter"",""1"",""3064""
","
","
","""event"",""trial"",""time""
""fullscreenenter"",""1"",""3064""
","
","","","-1","","","12","10129","4701","&#9826;","elianto","#f73b6a7A","-1","-1","1","0","[]","0","0","3","","","","","","","",""
"pit-trial","67","606138","0.0-2.0-14.1-0.1","battery-v0.2","","""event"",""trial"",""time""
""fullscreenenter"",""1"",""3064""
","
","
","""event"",""trial"",""time""
""fullscreenenter"",""1"",""3064""
","
","","","-1","","","12","10129","4701","&#9826;","elianto","#f73b6a7A","-1","-1","1","0","[]","0","0","3","","","","","","","",""
"pit-trial","68","611004","0.0-2.0-14.1-1.1","battery-v0.2","","""event"",""trial"",""time""
""fullscreenenter"",""1"",""3064""
","
","
","""event"",""trial"",""time""
""fullscreenenter"",""1"",""3064""
","
","","","-1","","","12","10129","4701","&#9826;","elianto","#f73b6a7A","-1","-1","1","0","[]","0","0","3","","","","","","","",""
"pit-trial","69","615873","0.0-2.0-14.1-2.1","battery-v0.2","","""event"",""trial"",""time""
""fullscreenenter"",""1"",""3064""
","
","
","""event"",""trial"",""time""
""fullscreenenter"",""1"",""3064""
","
","","","-1","","","12","10129","4701","&#9826;","elianto","#f73b6a7A","-1","-1","1","0","[]","0","0","3","","","","","","","",""
"pit-trial","70","620737","0.0-2.0-14.1-3.1","battery-v0.2","","""event"",""trial"",""time""
""fullscreenenter"",""1"",""3064""
","
","
","""event"",""trial"",""time""
""fullscreenenter"",""1"",""3064""
","
","","","-1","","","12","10129","4701","&#9826;","elianto","#f73b6a7A","-1","-1","1","-10","[]","0","0","3","","","","","","","",""
"pit-trial","71","625601","0.0-2.0-14.1-4.1","battery-v0.2","","""event"",""trial"",""time""
""fullscreenenter"",""1"",""3064""
","
","
","""event"",""trial"",""time""
""fullscreenenter"",""1"",""3064""
","
","","","-1","","","12","10129","4701","&#9826;","elianto","#f73b6a7A","-1","-1","1","0","[]","0","0","3","","","","","","","",""
"pit-trial","72","630465","0.0-2.0-14.2-0.2","battery-v0.2","","""event"",""trial"",""time""
""fullscreenenter"",""1"",""3064""
","
","
","""event"",""trial"",""time""
""fullscreenenter"",""1"",""3064""
","
","","","-1","","","12","10129","4701","&#9826;","elianto","#f73b6a7A","-1","-1","1","0","[]","0","0","3","","","","","","","",""
"pit-trial","73","635329","0.0-2.0-14.2-1.2","battery-v0.2","","""event"",""trial"",""time""
""fullscreenenter"",""1"",""3064""
","
","
","""event"",""trial"",""time""
""fullscreenenter"",""1"",""3064""
","
","","","-1","","","12","10129","4701","&#9826;","elianto","#f73b6a7A","-1","-1","1","0","[]","0","0","3","","","","","","","",""
"pit-trial","74","640193","0.0-2.0-14.2-2.2","battery-v0.2","","""event"",""trial"",""time""
""fullscreenenter"",""1"",""3064""
","
","
","""event"",""trial"",""time""
""fullscreenenter"",""1"",""3064""
","
","","","-1","","","12","10129","4701","&#9826;","elianto","#f73b6a7A","-1","-1","1","0","[]","0","0","3","","","","","","","",""
"pit-trial","75","645060","0.0-2.0-14.2-3.2","battery-v0.2","","""event"",""trial"",""time""
""fullscreenenter"",""1"",""3064""
","
","
","""event"",""trial"",""time""
""fullscreenenter"",""1"",""3064""
","
","","","-1","","","12","10129","4701","&#9826;","elianto","#f73b6a7A","-1","-1","1","-10","[]","0","0","3","","","","","","","",""
"pit-trial","76","649932","0.0-2.0-14.2-4.2","battery-v0.2","","""event"",""trial"",""time""
""fullscreenenter"",""1"",""3064""
","
","
","""event"",""trial"",""time""
""fullscreenenter"",""1"",""3064""
","
","","","-1","","","12","10129","4701","&#9826;","elianto","#f73b6a7A","-1","-1","1","0","[]","0","0","3","","","","","","","",""
"pit-trial","77","654801","0.0-2.0-14.3-0.3","battery-v0.2","","""event"",""trial"",""time""
""fullscreenenter"",""1"",""3064""
","
","
","""event"",""trial"",""time""
""fullscreenenter"",""1"",""3064""
","
","","","-1","","","12","10129","4701","&#9826;","elianto","#f73b6a7A","-1","-1","1","0","[]","0","0","3","","","","","","","",""
"pit-trial","78","659665","0.0-2.0-14.3-1.3","battery-v0.2","","""event"",""trial"",""time""
""fullscreenenter"",""1"",""3064""
","
","
","""event"",""trial"",""time""
""fullscreenenter"",""1"",""3064""
","
","","","-1","","","12","10129","4701","&#9826;","elianto","#f73b6a7A","-1","-1","1","0","[]","0","0","3","","","","","","","",""
"pit-trial","79","664529","0.0-2.0-14.3-2.3","battery-v0.2","","""event"",""trial"",""time""
""fullscreenenter"",""1"",""3064""
","
","
","""event"",""trial"",""time""
""fullscreenenter"",""1"",""3064""
","
","","","-1","","","12","10129","4701","&#9826;","elianto","#f73b6a7A","-1","-1","1","0","[]","0","0","3","","","","","","","",""
"pit-trial","80","669393","0.0-2.0-14.3-3.3","battery-v0.2","","""event"",""trial"",""time""
""fullscreenenter"",""1"",""3064""
","
","
","""event"",""trial"",""time""
""fullscreenenter"",""1"",""3064""
","
","","","-1","","","12","10129","4701","&#9826;","elianto","#f73b6a7A","-1","-1","1","-10","[]","0","0","3","","","","","","","",""
"pit-trial","81","674257","0.0-2.0-14.3-4.3","battery-v0.2","","""event"",""trial"",""time""
""fullscreenenter"",""1"",""3064""
","
","
","""event"",""trial"",""time""
""fullscreenenter"",""1"",""3064""
","
","","","-1","","","12","10129","4701","&#9826;","elianto","#f73b6a7A","-1","-1","1","0","[]","0","0","3","","","","","","","",""
"call-function","82","674261","0.0-2.0-15.0","battery-v0.2","","""event"",""trial"",""time""
""fullscreenenter"",""1"",""3064""
","
","
","""event"",""trial"",""time""
""fullscreenenter"",""1"",""3064""
","
","","","","","","","","","","","","","","","","","","","","","","","","","","",""
"pit-instructions","83","698607","0.0-2.0-16.0","battery-v0.2","","""event"",""trial"",""time""
""fullscreenenter"",""1"",""3064""
","
","
","""event"",""trial"",""time""
""fullscreenenter"",""1"",""3064""
","
","","[{""page_index"":0,""viewing_time"":6717.799999952316},{""page_index"":1,""viewing_time"":8662},{""page_index"":2,""viewing_time"":4544.100000143051},{""page_index"":3,""viewing_time"":4422.199999809265}]","24346.200000047684","","","","","","","","","","","","","","","","","","","","","","","",""
"pit-trial","84","703473","0.0-2.0-17.0-0.0","battery-v0.2","","""event"",""trial"",""time""
""fullscreenenter"",""1"",""3064""
","
","
","""event"",""trial"",""time""
""fullscreenenter"",""1"",""3064""
","
","","","-1","","","12","10129","4701","&#9789;","elianto","#f73b6a7A"," ","-1","0","-10","[3131.4000000953674,3758.2999999523163,3995,4180.900000095367,4397.600000143051,4634.5,4846.700000047684]","7","0","4","","","","","","","",""
"pit-trial","85","706385","0.0-2.0-17.0-1.0","battery-v0.2","","""event"",""trial"",""time""
""fullscreenenter"",""1"",""3064""
","
","
","""event"",""trial"",""time""
""fullscreenenter"",""1"",""3064""
","
","","","48.69999980926514","","","12","10129","4701","&#9789;","elianto","#f73b6a7A"," "," ","1","0","[214.60000014305115,441.60000014305115,689.7999999523163,903.7000000476837,1118.9000000953674,1328.1000001430511,1534.2000000476837,2524.2999999523163,2758.7999999523163]","9","0","4","","","","","","","",""
"pit-trial","86","709281","0.0-2.0-17.0-2.0","battery-v0.2","","""event"",""trial"",""time""
""fullscreenenter"",""1"",""3064""
","
","
","""event"",""trial"",""time""
""fullscreenenter"",""1"",""3064""
","
","","","38.200000047683716","","","12","10129","4701","&#9789;","elianto","#f73b6a7A"," "," ","1","0","[86.70000004768372,253.5,480.2999999523163,684.7000000476837,889.1000001430511,1076.7999999523163,1271.9000000953674,1494,1693.9000000953674,1928.5,2165.9000000953674,2370.7000000476837,2615.9000000953674,2811.100000143051]","14","0","4","","","","","","","",""
"pit-trial","87","712290","0.0-2.0-17.0-3.0","battery-v0.2","","""event"",""trial"",""time""
""fullscreenenter"",""1"",""3064""
","
","
","""event"",""trial"",""time""
""fullscreenenter"",""1"",""3064""
","
","","","149.20000004768372","","","12","10129","4701","&#9789;","elianto","#f73b6a7A"," "," ","1","-10","[138.5,350.7999999523163,584.5,839.2000000476837,1001.4000000953674,1206.2999999523163,1429.6000001430511,1666.4000000953674,1885.2999999523163,2092.9000000953674,2297.600000143051,2522.2000000476837]","12","0","4","","","","","","","",""
"pit-trial","88","715438","0.0-2.0-17.0-4.0","battery-v0.2","","""event"",""trial"",""time""
""fullscreenenter"",""1"",""3064""
","
","
","""event"",""trial"",""time""
""fullscreenenter"",""1"",""3064""
","
","","","283.09999990463257","","","12","10129","4701","&#9789;","elianto","#f73b6a7A"," "," ","1","0","[1137.8999998569489,1397.8999998569489,2000.5,2237.5999999046326,2940.199999809265,3143.399999856949]","6","0","4","","","","","","","",""
"pit-trial","89","718665","0.0-2.0-17.1-0.1","battery-v0.2","","""event"",""trial"",""time""
""fullscreenenter"",""1"",""3064""
","
","
","""event"",""trial"",""time""
""fullscreenenter"",""1"",""3064""
","
","","","362.7999999523163","","","12","10129","4701","&#9789;","elianto","#f73b6a7A"," "," ","1","0","[706.3000001907349,1218.1000001430511,1527.2000000476837,1855.6000001430511,2219.800000190735,2527.800000190735,2761.300000190735,3013.2000000476837]","8","0","4","","","","","","","",""
"pit-trial","90","721745","0.0-2.0-17.1-1.1","battery-v0.2","","""event"",""trial"",""time""
""fullscreenenter"",""1"",""3064""
","
","
","""event"",""trial"",""time""
""fullscreenenter"",""1"",""3064""
","
","","","207.5","","","12","10129","4701","&#9789;","elianto","#f73b6a7A"," "," ","1","0","[57.700000047683716,772.5,1066.4000000953674,1556.7000000476837,2037.0999999046326,2518,2829.2000000476837]","7","0","4","","","","","","","",""
"pit-trial","91","724849","0.0-2.0-17.1-2.1","battery-v0.2","","""event"",""trial"",""time""
""fullscreenenter"",""1"",""3064""
","
","
","""event"",""trial"",""time""
""fullscreenenter"",""1"",""3064""
","
","","","246.10000014305115","","","12","10129","4701","&#9789;","elianto","#f73b6a7A"," "," ","1","0","[74.80000019073486,561.3000001907349,1097.2000000476837,2219,2704.600000143051]","5","0","4","","","","","","","",""
"pit-trial","92","727916","0.0-2.0-17.1-3.1","battery-v0.2","","""event"",""trial"",""time""
""fullscreenenter"",""1"",""3064""
","
","
","""event"",""trial"",""time""
""fullscreenenter"",""1"",""3064""
","
","","","200.10000014305115","","","12","10129","4701","&#9789;","elianto","#f73b6a7A"," "," ","1","-10","[108.40000009536743,349.2000000476837,769.7999999523163,1050.2000000476837,1398,1646.2000000476837,2103.4000000953674,2456.7999999523163,2680.2999999523163,2886.5]","10","0","4","","","","","","","",""
"pit-trial","93","731601","0.0-2.0-17.1-4.1","battery-v0.2","","""event"",""trial"",""time""
""fullscreenenter"",""1"",""3064""
","
","
","""event"",""trial"",""time""
""fullscreenenter"",""1"",""3064""
","
","","","815.2000000476837","","","12","10129","4701","&#9789;","elianto","#f73b6a7A"," "," ","1","0","[142,578.5,1671.5,2030.7999999523163,2292,2505.2000000476837,2754.2000000476837,3518.2999999523163]","8","0","4","","","","","","","",""
"pit-trial","94","734492","0.0-2.0-17.2-0.2","battery-v0.2","","""event"",""trial"",""time""
""fullscreenenter"",""1"",""3064""
","
","
","""event"",""trial"",""time""
""fullscreenenter"",""1"",""3064""
","
","","","20.399999856948853","","","12","10129","4701","&#9789;","elianto","#f73b6a7A"," "," ","1","0","[78,348.2000000476837,608,879.7000000476837,1130.8000001907349,1348.4000000953674,1652.9000000953674,2283.100000143051,2555.600000143051,2875.7000000476837]","10","0","4","","","","","","","",""
"pit-trial","95","738252","0.0-2.0-17.2-1.2","battery-v0.2","","""event"",""trial"",""time""
""fullscreenenter"",""1"",""3064""
","
","
","""event"",""trial"",""time""
""fullscreenenter"",""1"",""3064""
","
","","","892.8000001907349","","","12","10129","4701","&#9789;","elianto","#f73b6a7A"," "," ","1","0","[288.59999990463257,536.2999999523163,1746.7000000476837,2252.5,2456.2999999523163,2795.5,3520]","7","0","4","","","","","","","",""
"pit-trial","96","741275","0.0-2.0-17.2-2.2","battery-v0.2","","""event"",""trial"",""time""
""fullscreenenter"",""1"",""3064""
","
","
","""event"",""trial"",""time""
""fullscreenenter"",""1"",""3064""
","
","","","148","","","12","10129","4701","&#9789;","elianto","#f73b6a7A"," "," ","1","0","[329.59999990463257,729.7999999523163,1008,1341.1999998092651,2089.199999809265,2732.899999856949]","6","0","4","","","","","","","",""
"pit-trial","97","744209","0.0-2.0-17.2-3.2","battery-v0.2","","""event"",""trial"",""time""
""fullscreenenter"",""1"",""3064""
","
","
","""event"",""trial"",""time""
""fullscreenenter"",""1"",""3064""
","
","","","72.79999995231628","","","12","10129","4701","&#9789;","elianto","#f73b6a7A"," "," ","1","-10","[460.60000014305115,925.2999999523163,1526.1000001430511,1852.9000000953674,2202.4000000953674,2557.9000000953674,2915.9000000953674]","7","0","4","","","","","","","",""
"pit-trial","98","747153","0.0-2.0-17.2-4.2","battery-v0.2","","""event"",""trial"",""time""
""fullscreenenter"",""1"",""3064""
","
","
","""event"",""trial"",""time""
""fullscreenenter"",""1"",""3064""
","
","","","82.5","","","12","10129","4701","&#9789;","elianto","#f73b6a7A"," "," ","1","0","[269.09999990463257,934.9000000953674,1196,1647.2000000476837,2180.4000000953674,2545.2000000476837,2799.2999999523163]","7","0","4","","","","","","","",""
"pit-trial","99","750112","0.0-2.0-17.3-0.3","battery-v0.2","","""event"",""trial"",""time""
""fullscreenenter"",""1"",""3064""
","
","
","""event"",""trial"",""time""
""fullscreenenter"",""1"",""3064""
","
","","","88.5","","","12","10129","4701","&#9789;","elianto","#f73b6a7A"," "," ","1","0","[218.5,594.9000000953674,947.1000001430511,1243.1000001430511,1680.3000001907349,2304.9000000953674,2773]","7","0","4","","","","","","","",""
"pit-trial","100","753195","0.0-2.0-17.3-1.3","battery-v0.2","","""event"",""trial"",""time""
""fullscreenenter"",""1"",""3064""
","
","
","""event"",""trial"",""time""
""fullscreenenter"",""1"",""3064""
","
","","","222.70000004768372","","","12","10129","4701","&#9789;","elianto","#f73b6a7A"," "," ","1","0","[348,1073.2000000476837,1416.5,2433]","4","0","4","","","","","","","",""
"pit-trial","101","756129","0.0-2.0-17.3-2.3","battery-v0.2","","""event"",""trial"",""time""
""fullscreenenter"",""1"",""3064""
","
","
","""event"",""trial"",""time""
""fullscreenenter"",""1"",""3064""
","
","","","75.90000009536743","","","12","10129","4701","&#9789;","elianto","#f73b6a7A"," "," ","1","0","[208.40000009536743,439.90000009536743,925.9000000953674,1385.5,1784.7999999523163,2179.100000143051,2486.2000000476837,2795.4000000953674]","8","0","4","","","","","","","",""
"pit-trial","102","759100","0.0-2.0-17.3-3.3","battery-v0.2","","""event"",""trial"",""time""
""fullscreenenter"",""1"",""3064""
","
","
","""event"",""trial"",""time""
""fullscreenenter"",""1"",""3064""
","
","","","104.29999995231628","","","12","10129","4701","&#9789;","elianto","#f73b6a7A"," "," ","1","-10","[446.2999999523163,959.3999998569489,1444,1699.0999999046326,2061.199999809265]","5","0","4","","","","","","","",""
"pit-trial","103","762476","0.0-2.0-17.3-4.3","battery-v0.2","","""event"",""trial"",""time""
""fullscreenenter"",""1"",""3064""
","
","
","""event"",""trial"",""time""
""fullscreenenter"",""1"",""3064""
","
","","","502.7999999523163","","","12","10129","4701","&#9789;","elianto","#f73b6a7A"," "," ","1","0","[1363,1533.3000001907349,1960.9000000953674,2653.2000000476837,3117.100000143051]","5","0","4","","","","","","","",""
"call-function","104","762480","0.0-2.0-18.0","battery-v0.2","","""event"",""trial"",""time""
""fullscreenenter"",""1"",""3064""
","
","
","""event"",""trial"",""time""
""fullscreenenter"",""1"",""3064""
","
","","","","","","","","","","","","","","","","","","","","","","","","","","",""
"pit-instructions","105","863098","0.0-2.0-19.0","battery-v0.2","","""event"",""trial"",""time""
""fullscreenenter"",""1"",""3064""
","
","
","""event"",""trial"",""time""
""fullscreenenter"",""1"",""3064""
","
","","[{""page_index"":0,""viewing_time"":13703},{""page_index"":1,""viewing_time"":34430.5},{""page_index"":2,""viewing_time"":13901.800000190735},{""page_index"":3,""viewing_time"":5194.699999809265},{""page_index"":4,""viewing_time"":7139.100000143051},{""page_index"":5,""viewing_time"":8901.899999856949},{""page_index"":6,""viewing_time"":4140.900000095367},{""page_index"":7,""viewing_time"":7578},{""page_index"":8,""viewing_time"":5628.099999904633}]","100618.40000009537","","","","","","","","","","","","","","","","","","","","","","","",""
"pit-comprehension","106","869291","0.0-2.0-20.0-0.0","battery-v0.2","","""event"",""trial"",""time""
""fullscreenenter"",""1"",""3064""
","
","
","""event"",""trial"",""time""
""fullscreenenter"",""1"",""3064""
","
","","","6185.700000047684","[""SPACE""]","0","12","10129","4701","","","","","","","","","","","","","","","","","","",""
"pit-instructions","107","871501","0.0-2.0-20.0-1.0","battery-v0.2","","""event"",""trial"",""time""
""fullscreenenter"",""1"",""3064""
","
","
","""event"",""trial"",""time""
""fullscreenenter"",""1"",""3064""
","
","","[{""page_index"":0,""viewing_time"":2153.7000000476837}]","2154.0999999046326","","","","","","","","","","","","","","","","","","","","","","","",""
"pit-comprehension","108","879807","0.0-2.0-21.0-0.0","battery-v0.2","","""event"",""trial"",""time""
""fullscreenenter"",""1"",""3064""
","
","
","""event"",""trial"",""time""
""fullscreenenter"",""1"",""3064""
","
","","","8301","[""10""]","0","12","10129","4701","","","","","","","","","","","","","","","","","","",""
"pit-instructions","109","883192","0.0-2.0-21.0-1.0","battery-v0.2","","""event"",""trial"",""time""
""fullscreenenter"",""1"",""3064""
","
","
","""event"",""trial"",""time""
""fullscreenenter"",""1"",""3064""
","
","","[{""page_index"":0,""viewing_time"":3338.7999999523163}]","3339.2000000476837","","","","","","","","","","","","","","","","","","","","","","","",""
"pit-comprehension","110","896284","0.0-2.0-22.0-0.0","battery-v0.2","","""event"",""trial"",""time""
""fullscreenenter"",""1"",""3064""
","
","
","""event"",""trial"",""time""
""fullscreenenter"",""1"",""3064""
","
","","","13085.299999952316","[""0""]","0","12","10129","4701","","","","","","","","","","","","","","","","","","",""
"pit-instructions","111","897909","0.0-2.0-22.0-1.0","battery-v0.2","","""event"",""trial"",""time""
""fullscreenenter"",""1"",""3064""
","
","
","""event"",""trial"",""time""
""fullscreenenter"",""1"",""3064""
","
","","[{""page_index"":0,""viewing_time"":1570.7000000476837}]","1571.1000001430511","","","","","","","","","","","","","","","","","","","","","","","",""
"pit-comprehension","112","910549","0.0-2.0-23.0-0.0","battery-v0.2","","""event"",""trial"",""time""
""fullscreenenter"",""1"",""3064""
","
","
","""event"",""trial"",""time""
""fullscreenenter"",""1"",""3064""
","
","","","12634.600000143051","[""True""]","0","12","10129","4701","","","","","","","","","","","","","","","","","","",""
"pit-instructions","113","922407","0.0-2.0-23.0-1.0","battery-v0.2","","""event"",""trial"",""time""
""fullscreenenter"",""1"",""3064""
","
","
","""event"",""trial"",""time""
""fullscreenenter"",""1"",""3064""
","
","","[{""page_index"":0,""viewing_time"":11813.699999809265}]","11814","","","","","","","","","","","","","","","","","","","","","","","",""
"pit-comprehension","114","934099","0.0-2.0-24.0-0.0","battery-v0.2","","""event"",""trial"",""time""
""fullscreenenter"",""1"",""3064""
","
","
","""event"",""trial"",""time""
""fullscreenenter"",""1"",""3064""
","
","","","11686.399999856949","[""True""]","0","12","10129","4701","","","","","","","","","","","","","","","","","","",""
"pit-instructions","115","936843","0.0-2.0-24.0-1.0","battery-v0.2","","""event"",""trial"",""time""
""fullscreenenter"",""1"",""3064""
","
","
","""event"",""trial"",""time""
""fullscreenenter"",""1"",""3064""
","
","","[{""page_index"":0,""viewing_time"":2698.2999999523163}]","2698.699999809265","","","","","","","","","","","","","","","","","","","","","","","",""
"pit-comprehension","116","945654","0.0-2.0-25.0-0.0","battery-v0.2","","""event"",""trial"",""time""
""fullscreenenter"",""1"",""3064""
","
","
","""event"",""trial"",""time""
""fullscreenenter"",""1"",""3064""
","
","","","8805.099999904633","[""True""]","0","12","10129","4701","","","","","","","","","","","","","","","","","","",""
"pit-instructions","117","947104","0.0-2.0-25.0-1.0","battery-v0.2","","""event"",""trial"",""time""
""fullscreenenter"",""1"",""3064""
","
","
","""event"",""trial"",""time""
""fullscreenenter"",""1"",""3064""
","
","","[{""page_index"":0,""viewing_time"":1406.5}]","1406.8000001907349","","","","","","","","","","","","","","","","","","","","","","","",""
"pit-comprehension","118","953198","0.0-2.0-26.0-0.0","battery-v0.2","","""event"",""trial"",""time""
""fullscreenenter"",""1"",""3064""
","
","
","""event"",""trial"",""time""
""fullscreenenter"",""1"",""3064""
","
","","","6091.099999904633","[""False""]","0","12","10129","4701","","","","","","","","","","","","","","","","","","",""
"pit-instructions","119","954407","0.0-2.0-26.0-1.0","battery-v0.2","","""event"",""trial"",""time""
""fullscreenenter"",""1"",""3064""
","
","
","""event"",""trial"",""time""
""fullscreenenter"",""1"",""3064""
","
","","[{""page_index"":0,""viewing_time"":1162.0999999046326}]","1162.3999998569489","","","","","","","","","","","","","","","","","","","","","","","",""
"pit-instructions","120","972629","0.0-3.0","battery-v0.2","","""event"",""trial"",""time""
""fullscreenenter"",""1"",""3064""
","
","
","""event"",""trial"",""time""
""fullscreenenter"",""1"",""3064""
","
","","[{""page_index"":0,""viewing_time"":5790.099999904633},{""page_index"":1,""viewing_time"":6244.400000095367},{""page_index"":2,""viewing_time"":6184.099999904633}]","18218.89999985695","","","","","","","","","","","","","","","","","","","","","","","",""
"pit-trial","121","977490","0.0-4.0","battery-v0.2","","""event"",""trial"",""time""
""fullscreenenter"",""1"",""3064""
","
","
","""event"",""trial"",""time""
""fullscreenenter"",""1"",""3064""
","
","","","1985.2000000476837","","","12","10129","4701","&#9752;","elianto","#f73b6a7A"," "," ","1","0","[2839.2999999523163,4041.9000000953674,4656.600000143051]","3","1","","","10129","1","3","3","lose","go","0"
"pit-trial","122","980410","0.0-5.0","battery-v0.2","","""event"",""trial"",""time""
""fullscreenenter"",""1"",""3064""
","
","
","""event"",""trial"",""time""
""fullscreenenter"",""1"",""3064""
","
","","","55.60000014305115","","","12","10129","4701","&#9728;","elianto","#f73b6a7A","-1"," ","0","-10","[101.89999985694885,394.7000000476837,622.2999999523163,905.8999998569489]","4","1","","","10129","2","0","4","lose","no-go","0"
"pit-trial","123","984039","0.0-6.0","battery-v0.2","","""event"",""trial"",""time""
""fullscreenenter"",""1"",""3064""
","
","
","""event"",""trial"",""time""
""fullscreenenter"",""1"",""3064""
","
","","","764.5","","","12","10129","4701","&#9730;","elianto","#3366ff99"," "," ","1","+10","[1620.6999998092651]","1","1","","","10129","3","1","1","win","go","0"
"pit-trial","124","987674","0.0-7.0","battery-v0.2","","""event"",""trial"",""time""
""fullscreenenter"",""1"",""3064""
","
","
","""event"",""trial"",""time""
""fullscreenenter"",""1"",""3064""
","
","","","773.5999999046326","","","12","10129","4701","&#9733;","elianto","#3366ff99","-1"," ","0","0","[1624.5]","1","1","","","10129","4","2","2","win","no-go","0"
"pit-trial","125","992546","0.0-8.0","battery-v0.2","","""event"",""trial"",""time""
""fullscreenenter"",""1"",""3064""
","
","
","""event"",""trial"",""time""
""fullscreenenter"",""1"",""3064""
","
","","","-1","","","12","10129","4701","&#9733;","elianto","#3366ff99","-1","-1","1","+10","[]","0","1","","","10129","5","2","2","win","no-go","0"
"pit-trial","126","996791","0.0-9.0","battery-v0.2","","""event"",""trial"",""time""
""fullscreenenter"",""1"",""3064""
","
","
","""event"",""trial"",""time""
""fullscreenenter"",""1"",""3064""
","
","","","1375.2000000476837","","","12","10129","4701","&#9752;","elianto","#f73b6a7A"," "," ","1","0","[2233.2000000476837]","1","1","","","10129","6","3","3","lose","go","0"
"pit-trial","127","1000509","0.0-10.0","battery-v0.2","","""event"",""trial"",""time""
""fullscreenenter"",""1"",""3064""
","
","
","""event"",""trial"",""time""
""fullscreenenter"",""1"",""3064""
","
","","","859.6999998092651","","","12","10129","4701","&#9730;","elianto","#3366ff99"," "," ","1","+10","[1710.3999998569489]","1","1","","","10129","7","1","1","win","go","0"
"pit-trial","128","1005376","0.0-11.0","battery-v0.2","","""event"",""trial"",""time""
""fullscreenenter"",""1"",""3064""
","
","
","""event"",""trial"",""time""
""fullscreenenter"",""1"",""3064""
","
","","","-1","","","12","10129","4701","&#9728;","elianto","#f73b6a7A","-1","-1","1","0","[]","0","1","","","10129","8","0","4","lose","no-go","0"
"pit-trial","129","1010245","0.0-12.0","battery-v0.2","","""event"",""trial"",""time""
""fullscreenenter"",""1"",""3064""
","
","
","""event"",""trial"",""time""
""fullscreenenter"",""1"",""3064""
","
","","","-1","","","12","10129","4701","&#9728;","elianto","#f73b6a7A","-1","-1","1","0","[]","0","1","","","10129","9","0","4","lose","no-go","0"
"pit-trial","130","1013877","0.0-13.0","battery-v0.2","","""event"",""trial"",""time""
""fullscreenenter"",""1"",""3064""
","
","
","""event"",""trial"",""time""
""fullscreenenter"",""1"",""3064""
","
","","","768.5","","","12","10129","4701","&#9730;","elianto","#3366ff99"," "," ","1","+10","[1621]","1","1","","","10129","10","1","1","win","go","0"
"pit-trial","131","1017269","0.0-14.0","battery-v0.2","","""event"",""trial"",""time""
""fullscreenenter"",""1"",""3064""
","
","
","""event"",""trial"",""time""
""fullscreenenter"",""1"",""3064""
","
","","","528.2000000476837","","","12","10129","4701","&#9733;","elianto","#3366ff99","-1"," ","0","0","[1384.7999999523163]","1","1","","","10129","11","2","2","win","no-go","0"
"pit-trial","132","1021365","0.0-15.0","battery-v0.2","","""event"",""trial"",""time""
""fullscreenenter"",""1"",""3064""
","
","
","""event"",""trial"",""time""
""fullscreenenter"",""1"",""3064""
","
","","","1237.1000001430511","","","12","10129","4701","&#9752;","elianto","#f73b6a7A"," "," ","1","0","[2089.600000143051]","1","1","","","10129","12","3","3","lose","go","0"
"pit-trial","133","1025654","0.0-16.0","battery-v0.2","","""event"",""trial"",""time""
""fullscreenenter"",""1"",""3064""
","
","
","""event"",""trial"",""time""
""fullscreenenter"",""1"",""3064""
","
","","","1427.0999999046326","","","12","10129","4701","&#9752;","elianto","#f73b6a7A"," "," ","1","0","[2281.5999999046326]","1","1","","","10129","13","3","3","lose","go","0"
"pit-trial","134","1030517","0.0-17.0","battery-v0.2","","""event"",""trial"",""time""
""fullscreenenter"",""1"",""3064""
","
","
","""event"",""trial"",""time""
""fullscreenenter"",""1"",""3064""
","
","","","-1","","","12","10129","4701","&#9733;","elianto","#3366ff99","-1","-1","1","0","[4452.099999904633]","1","1","","","10129","14","2","2","win","no-go","1"
"pit-trial","135","1035381","0.0-18.0","battery-v0.2","","""event"",""trial"",""time""
""fullscreenenter"",""1"",""3064""
","
","
","""event"",""trial"",""time""
""fullscreenenter"",""1"",""3064""
","
","","","-1","","","12","10129","4701","&#9728;","elianto","#f73b6a7A","-1","-1","1","0","[3002.9000000953674]","1","1","","","10129","15","0","4","lose","no-go","0"
"pit-trial","136","1038976","0.0-19.0","battery-v0.2","","""event"",""trial"",""time""
""fullscreenenter"",""1"",""3064""
","
","
","""event"",""trial"",""time""
""fullscreenenter"",""1"",""3064""
","
","","","727.4000000953674","","","12","10129","4701","&#9730;","elianto","#3366ff99"," "," ","1","+10","[1583.7000000476837,2571.300000190735,3207]","3","1","","","10129","16","1","1","win","go","0"
"pit-trial","137","1043845","0.0-20.0","battery-v0.2","","""event"",""trial"",""time""
""fullscreenenter"",""1"",""3064""
","
","
","""event"",""trial"",""time""
""fullscreenenter"",""1"",""3064""
","
","","","-1","","","12","10129","4701","&#9728;","elianto","#f73b6a7A","-1","-1","1","0","[]","0","1","","","10129","17","0","4","lose","no-go","0"
"pit-trial","138","1047301","0.0-21.0","battery-v0.2","","""event"",""trial"",""time""
""fullscreenenter"",""1"",""3064""
","
","
","""event"",""trial"",""time""
""fullscreenenter"",""1"",""3064""
","
","","","593.3999998569489","","","12","10129","4701","&#9733;","elianto","#3366ff99","-1"," ","0","+10","[1447.8999998569489]","1","1","","","10129","18","2","2","win","no-go","1"
"pit-trial","139","1052170","0.0-22.0","battery-v0.2","","""event"",""trial"",""time""
""fullscreenenter"",""1"",""3064""
","
","
","""event"",""trial"",""time""
""fullscreenenter"",""1"",""3064""
","
","","","-1","","","12","10129","4701","&#9752;","elianto","#f73b6a7A"," ","-1","0","-10","[4352.300000190735]","1","1","","","10129","19","3","3","lose","go","0"
"pit-trial","140","1055488","0.0-23.0","battery-v0.2","","""event"",""trial"",""time""
""fullscreenenter"",""1"",""3064""
","
","
","""event"",""trial"",""time""
""fullscreenenter"",""1"",""3064""
","
","","","457.90000009536743","","","12","10129","4701","&#9730;","elianto","#3366ff99"," "," ","1","+10","[1309.9000000953674]","1","1","","","10129","20","1","1","win","go","0"
"pit-instructions","141","1068917","0.0-24.0","battery-v0.2","","""event"",""trial"",""time""
""fullscreenenter"",""1"",""3064""
","
","
","""event"",""trial"",""time""
""fullscreenenter"",""1"",""3064""
","
","","[{""page_index"":0,""viewing_time"":6025.5},{""page_index"":1,""viewing_time"":7400.299999952316}]","13426.099999904633","","","","","","","","","","","","","","","","","","","","","","","",""
"pit-trial","142","1073657","0.0-25.0","battery-v0.2","","""event"",""trial"",""time""
""fullscreenenter"",""1"",""3064""
","
","
","""event"",""trial"",""time""
""fullscreenenter"",""1"",""3064""
","
","","","1875.7999999523163","","","12","10129","4701","l","elianto","#3366ff99"," "," ","1","+10","[2728.7999999523163]","1","2","","","10129","21","1","1","win","go","0"
"pit-trial","143","1078527","0.0-26.0","battery-v0.2","","""event"",""trial"",""time""
""fullscreenenter"",""1"",""3064""
","
","
","""event"",""trial"",""time""
""fullscreenenter"",""1"",""3064""
","
","","","-1","","","12","10129","4701","a","elianto","#f73b6a7A","-1","-1","1","0","[]","0","2","","","10129","22","2","4","lose","no-go","0"
"pit-trial","144","1082943","0.0-27.0","battery-v0.2","","""event"",""trial"",""time""
""fullscreenenter"",""1"",""3064""
","
","
","""event"",""trial"",""time""
""fullscreenenter"",""1"",""3064""
","
","","","1544.1000001430511","","","12","10129","4701","u","elianto","#f73b6a7A","-1"," ","0","-10","[2402.4000000953674]","1","2","","","10129","23","0","4","lose","no-go","0"
"pit-trial","145","1087597","0.0-28.0","battery-v0.2","","""event"",""trial"",""time""
""fullscreenenter"",""1"",""3064""
","
","
","""event"",""trial"",""time""
""fullscreenenter"",""1"",""3064""
","
","","","1782.7999999523163","","","12","10129","4701","g","elianto","#f73b6a7A"," "," ","1","0","[2643.0999999046326]","1","2","","","10129","24","3","3","lose","go","0"
"pit-trial","146","1091617","0.0-29.0","battery-v0.2","","""event"",""trial"",""time""
""fullscreenenter"",""1"",""3064""
","
","
","""event"",""trial"",""time""
""fullscreenenter"",""1"",""3064""
","
","","","1154.5","","","12","10129","4701","a","elianto","#f73b6a7A","-1"," ","0","0","[2010.2000000476837]","1","2","","","10129","25","2","4","lose","no-go","1"
"pit-trial","147","1095405","0.0-30.0","battery-v0.2","","""event"",""trial"",""time""
""fullscreenenter"",""1"",""3064""
","
","
","""event"",""trial"",""time""
""fullscreenenter"",""1"",""3064""
","
","","","922.7999999523163","","","12","10129","4701","l","elianto","#3366ff99"," "," ","1","+10","[1778]","1","2","","","10129","26","1","1","win","go","0"
"pit-trial","148","1098965","0.0-31.0","battery-v0.2","","""event"",""trial"",""time""
""fullscreenenter"",""1"",""3064""
","
","
","""event"",""trial"",""time""
""fullscreenenter"",""1"",""3064""
","
","","","702.8999998569489","","","12","10129","4701","u","elianto","#f73b6a7A","-1"," ","0","-10","[1553.5]","1","2","","","10129","27","0","4","lose","no-go","0"
"pit-trial","149","1103829","0.0-32.0","battery-v0.2","","""event"",""trial"",""time""
""fullscreenenter"",""1"",""3064""
","
","
","""event"",""trial"",""time""
""fullscreenenter"",""1"",""3064""
","
","","","-1","","","12","10129","4701","g","elianto","#f73b6a7A"," ","-1","0","0","[2858.7000000476837]","1","2","","","10129","28","3","3","lose","go","1"
"pit-trial","150","1108692","0.0-33.0","battery-v0.2","","""event"",""trial"",""time""
""fullscreenenter"",""1"",""3064""
","
","
","""event"",""trial"",""time""
""fullscreenenter"",""1"",""3064""
","
","","","-1","","","12","10129","4701","u","elianto","#f73b6a7A","-1","-1","1","0","[]","0","2","","","10129","29","0","4","lose","no-go","0"
"pit-trial","151","1112373","0.0-34.0","battery-v0.2","","""event"",""trial"",""time""
""fullscreenenter"",""1"",""3064""
","
","
","""event"",""trial"",""time""
""fullscreenenter"",""1"",""3064""
","
","","","815.3999998569489","","","12","10129","4701","l","elianto","#3366ff99"," "," ","1","0","[1670.5999999046326]","1","2","","","10129","30","1","1","win","go","1"
"pit-trial","152","1116751","0.0-35.0","battery-v0.2","","""event"",""trial"",""time""
""fullscreenenter"",""1"",""3064""
","
","
","""event"",""trial"",""time""
""fullscreenenter"",""1"",""3064""
","
","","","1515.7000000476837","","","12","10129","4701","a","elianto","#f73b6a7A","-1"," ","0","-10","[2370.2999999523163]","1","2","","","10129","31","2","4","lose","no-go","0"
"pit-trial","153","1121230","0.0-36.0","battery-v0.2","","""event"",""trial"",""time""
""fullscreenenter"",""1"",""3064""
","
","
","""event"",""trial"",""time""
""fullscreenenter"",""1"",""3064""
","
","","","1618.5","","","12","10129","4701","g","elianto","#f73b6a7A"," "," ","1","-10","[2469.699999809265]","1","2","","","10129","32","3","3","lose","go","1"
"pit-trial","154","1125134","0.0-37.0","battery-v0.2","","""event"",""trial"",""time""
""fullscreenenter"",""1"",""3064""
","
","
","""event"",""trial"",""time""
""fullscreenenter"",""1"",""3064""
","
","","","1037.4000000953674","","","12","10129","4701","u","elianto","#f73b6a7A","-1"," ","0","-10","[1894.7999999523163,3332.4000000953674,3553.2999999523163,3786.9000000953674]","4","2","","","10129","33","0","4","lose","no-go","0"
"pit-trial","155","1128197","0.0-38.0","battery-v0.2","","""event"",""trial"",""time""
""fullscreenenter"",""1"",""3064""
","
","
","""event"",""trial"",""time""
""fullscreenenter"",""1"",""3064""
","
","","","201.59999990463257","","","12","10129","4701","g","elianto","#f73b6a7A"," "," ","1","0","[117.79999995231628,344.19999980926514,609.3999998569489,811.1999998092651,1052.8999998569489,1293.7999999523163,1572.0999999046326,1829.0999999046326,2085.0999999046326,2369.199999809265,2742.0999999046326]","11","2","","","10129","34","3","3","lose","go","0"
"pit-trial","156","1131455","0.0-39.0","battery-v0.2","","""event"",""trial"",""time""
""fullscreenenter"",""1"",""3064""
","
","
","""event"",""trial"",""time""
""fullscreenenter"",""1"",""3064""
","
","","","391.80000019073486","","","12","10129","4701","a","elianto","#f73b6a7A","-1"," ","0","-10","[66.5,495.89999985694885,826.7999999523163,1245.7999999523163,1598,1914.7999999523163,2217.7999999523163,2603.899999856949,2893.5,3160.199999809265]","10","2","","","10129","35","2","4","lose","no-go","0"
"pit-trial","157","1134501","0.0-40.0","battery-v0.2","","""event"",""trial"",""time""
""fullscreenenter"",""1"",""3064""
","
","
","""event"",""trial"",""time""
""fullscreenenter"",""1"",""3064""
","
","","","182.69999980926514","","","12","10129","4701","l","elianto","#3366ff99"," "," ","1","0","[197.09999990463257,556.3999998569489,803.0999999046326,1040.0999999046326,1299.1999998092651,1539.5,1790.1999998092651,2037.6999998092651,2316.2999999523163,2752.399999856949]","10","2","","","10129","36","1","1","win","go","1"
"pit-trial","158","1137679","0.0-41.0","battery-v0.2","","""event"",""trial"",""time""
""fullscreenenter"",""1"",""3064""
","
","
","""event"",""trial"",""time""
""fullscreenenter"",""1"",""3064""
","
","","","314.7999999523163","","","12","10129","4701","g","elianto","#f73b6a7A"," "," ","1","0","[4.5,273,852.2000000476837,1168.3999998569489,1592.2000000476837]","5","2","","","10129","37","3","3","lose","go","0"
"pit-trial","159","1141301","0.0-42.0","battery-v0.2","","""event"",""trial"",""time""
""fullscreenenter"",""1"",""3064""
","
","
","""event"",""trial"",""time""
""fullscreenenter"",""1"",""3064""
","
","","","756.2999999523163","","","12","10129","4701","a","elianto","#f73b6a7A","-1"," ","0","-10","[1612.2999999523163]","1","2","","","10129","38","2","4","lose","no-go","0"
"pit-trial","160","1144837","0.0-43.0","battery-v0.2","","""event"",""trial"",""time""
""fullscreenenter"",""1"",""3064""
","
","
","""event"",""trial"",""time""
""fullscreenenter"",""1"",""3064""
","
","","","671.6999998092651","","","12","10129","4701","l","elianto","#3366ff99"," "," ","1","+10","[1522.7000000476837]","1","2","","","10129","39","1","1","win","go","0"
"pit-trial","161","1149700","0.0-44.0","battery-v0.2","","""event"",""trial"",""time""
""fullscreenenter"",""1"",""3064""
","
","
","""event"",""trial"",""time""
""fullscreenenter"",""1"",""3064""
","
","","","-1","","","12","10129","4701","u","elianto","#f73b6a7A","-1","-1","1","0","[]","0","2","","","10129","40","0","4","lose","no-go","0"
"pit-trial","162","1154228","0.0-45.0","battery-v0.2","","""event"",""trial"",""time""
""fullscreenenter"",""1"",""3064""
","
","
","""event"",""trial"",""time""
""fullscreenenter"",""1"",""3064""
","
","","","1667.2999999523163","","","12","10129","4701","a","elianto","#f73b6a7A","-1"," ","0","-10","[2519]","1","2","","","10129","41","2","4","lose","no-go","0"
"pit-trial","163","1157791","0.0-46.0","battery-v0.2","","""event"",""trial"",""time""
""fullscreenenter"",""1"",""3064""
","
","
","""event"",""trial"",""time""
""fullscreenenter"",""1"",""3064""
","
","","","695.3999998569489","","","12","10129","4701","l","elianto","#3366ff99"," "," ","1","+10","[1550.0999999046326]","1","2","","","10129","42","1","1","win","go","0"
"pit-trial","164","1162660","0.0-47.0","battery-v0.2","","""event"",""trial"",""time""
""fullscreenenter"",""1"",""3064""
","
","
","""event"",""trial"",""time""
""fullscreenenter"",""1"",""3064""
","
","","","-1","","","12","10129","4701","g","elianto","#f73b6a7A"," ","-1","0","0","[]","0","2","","","10129","43","3","3","lose","go","1"
"pit-trial","165","1167524","0.0-48.0","battery-v0.2","","""event"",""trial"",""time""
""fullscreenenter"",""1"",""3064""
","
","
","""event"",""trial"",""time""
""fullscreenenter"",""1"",""3064""
","
","","","-1","","","12","10129","4701","u","elianto","#f73b6a7A","-1","-1","1","0","[]","0","2","","","10129","44","0","4","lose","no-go","0"
"pit-trial","166","1172388","0.0-49.0","battery-v0.2","","""event"",""trial"",""time""
""fullscreenenter"",""1"",""3064""
","
","
","""event"",""trial"",""time""
""fullscreenenter"",""1"",""3064""
","
","","","-1","","","12","10129","4701","a","elianto","#f73b6a7A","-1","-1","1","0","[]","0","2","","","10129","45","2","4","lose","no-go","0"
"pit-trial","167","1177252","0.0-50.0","battery-v0.2","","""event"",""trial"",""time""
""fullscreenenter"",""1"",""3064""
","
","
","""event"",""trial"",""time""
""fullscreenenter"",""1"",""3064""
","
","","","-1","","","12","10129","4701","g","elianto","#f73b6a7A"," ","-1","0","0","[]","0","2","","","10129","46","3","3","lose","go","1"
"pit-trial","168","1182116","0.0-51.0","battery-v0.2","","""event"",""trial"",""time""
""fullscreenenter"",""1"",""3064""
","
","
","""event"",""trial"",""time""
""fullscreenenter"",""1"",""3064""
","
","","","-1","","","12","10129","4701","u","elianto","#f73b6a7A","-1","-1","1","0","[]","0","2","","","10129","47","0","4","lose","no-go","0"
"pit-trial","169","1185951","0.0-52.0","battery-v0.2","","""event"",""trial"",""time""
""fullscreenenter"",""1"",""3064""
","
","
","""event"",""trial"",""time""
""fullscreenenter"",""1"",""3064""
","
","","","974.1000001430511","","","12","10129","4701","p","elianto","#3366ff99","-1"," ","0","0","[1825.6999998092651]","1","2","","","10129","48","4","2","win","no-go","0"
"pit-trial","170","1190820","0.0-53.0","battery-v0.2","","""event"",""trial"",""time""
""fullscreenenter"",""1"",""3064""
","
","
","""event"",""trial"",""time""
""fullscreenenter"",""1"",""3064""
","
","","","-1","","","12","10129","4701","p","elianto","#3366ff99","-1","-1","1","+10","[]","0","2","","","10129","49","4","2","win","no-go","0"
"pit-trial","171","1194740","0.0-54.0","battery-v0.2","","""event"",""trial"",""time""
""fullscreenenter"",""1"",""3064""
","
","
","""event"",""trial"",""time""
""fullscreenenter"",""1"",""3064""
","
","","","1063.2000000476837","","","12","10129","4701","l","elianto","#3366ff99"," "," ","1","+10","[1913.7000000476837]","1","2","","","10129","50","1","1","win","go","0"
"pit-trial","172","1199604","0.0-55.0","battery-v0.2","","""event"",""trial"",""time""
""fullscreenenter"",""1"",""3064""
","
","
","""event"",""trial"",""time""
""fullscreenenter"",""1"",""3064""
","
","","","-1","","","12","10129","4701","g","elianto","#f73b6a7A"," ","-1","0","-10","[]","0","2","","","10129","51","3","3","lose","go","0"
"pit-trial","173","1204468","0.0-56.0","battery-v0.2","","""event"",""trial"",""time""
""fullscreenenter"",""1"",""3064""
","
","
","""event"",""trial"",""time""
""fullscreenenter"",""1"",""3064""
","
","","","-1","","","12","10129","4701","u","elianto","#f73b6a7A","-1","-1","1","0","[]","0","2","","","10129","52","0","4","lose","no-go","0"
"pit-trial","174","1209331","0.0-57.0","battery-v0.2","","""event"",""trial"",""time""
""fullscreenenter"",""1"",""3064""
","
","
","""event"",""trial"",""time""
""fullscreenenter"",""1"",""3064""
","
","","","-1","","","12","10129","4701","u","elianto","#f73b6a7A","-1","-1","1","0","[]","0","2","","","10129","53","0","4","lose","no-go","0"
"pit-trial","175","1214196","0.0-58.0","battery-v0.2","","""event"",""trial"",""time""
""fullscreenenter"",""1"",""3064""
","
","
","""event"",""trial"",""time""
""fullscreenenter"",""1"",""3064""
","
","","","-1","","","12","10129","4701","p","elianto","#3366ff99","-1","-1","1","+10","[]","0","2","","","10129","54","4","2","win","no-go","0"
"pit-trial","176","1218350","0.0-59.0","battery-v0.2","","""event"",""trial"",""time""
""fullscreenenter"",""1"",""3064""
","
","
","""event"",""trial"",""time""
""fullscreenenter"",""1"",""3064""
","
","","","1287.5999999046326","","","12","10129","4701","l","elianto","#3366ff99"," "," ","1","+10","[2142]","1","2","","","10129","55","1","1","win","go","0"
"pit-trial","177","1223220","0.0-60.0","battery-v0.2","","""event"",""trial"",""time""
""fullscreenenter"",""1"",""3064""
","
","
","""event"",""trial"",""time""
""fullscreenenter"",""1"",""3064""
","
","","","-1","","","12","10129","4701","a","elianto","#f73b6a7A","-1","-1","1","0","[]","0","2","","","10129","56","2","4","lose","no-go","0"
"pit-trial","178","1228084","0.0-61.0","battery-v0.2","","""event"",""trial"",""time""
""fullscreenenter"",""1"",""3064""
","
","
","""event"",""trial"",""time""
""fullscreenenter"",""1"",""3064""
","
","","","-1","","","12","10129","4701","p","elianto","#3366ff99","-1","-1","1","+10","[]","0","2","","","10129","57","4","2","win","no-go","0"
"pit-trial","179","1232948","0.0-62.0","battery-v0.2","","""event"",""trial"",""time""
""fullscreenenter"",""1"",""3064""
","
","
","""event"",""trial"",""time""
""fullscreenenter"",""1"",""3064""
","
","","","-1","","","12","10129","4701","g","elianto","#f73b6a7A"," ","-1","0","-10","[]","0","2","","","10129","58","3","3","lose","go","0"
"pit-trial","180","1237812","0.0-63.0","battery-v0.2","","""event"",""trial"",""time""
""fullscreenenter"",""1"",""3064""
","
","
","""event"",""trial"",""time""
""fullscreenenter"",""1"",""3064""
","
","","","-1","","","12","10129","4701","u","elianto","#f73b6a7A","-1","-1","1","0","[]","0","2","","","10129","59","0","4","lose","no-go","0"
"pit-trial","181","1241902","0.0-64.0","battery-v0.2","","""event"",""trial"",""time""
""fullscreenenter"",""1"",""3064""
","
","
","""event"",""trial"",""time""
""fullscreenenter"",""1"",""3064""
","
","","","1222.0999999046326","","","12","10129","4701","l","elianto","#3366ff99"," "," ","1","+10","[2074.899999856949]","1","2","","","10129","60","1","1","win","go","0"
"pit-trial","182","1246772","0.0-65.0","battery-v0.2","","""event"",""trial"",""time""
""fullscreenenter"",""1"",""3064""
","
","
","""event"",""trial"",""time""
""fullscreenenter"",""1"",""3064""
","
","","","-1","","","12","10129","4701","a","elianto","#f73b6a7A","-1","-1","1","0","[]","0","2","","","10129","61","2","4","lose","no-go","0"
"pit-trial","183","1250612","0.0-66.0","battery-v0.2","","""event"",""trial"",""time""
""fullscreenenter"",""1"",""3064""
","
","
","""event"",""trial"",""time""
""fullscreenenter"",""1"",""3064""
","
","","","979.1000001430511","","","12","10129","4701","l","elianto","#3366ff99"," "," ","1","0","[1833.2000000476837]","1","2","","","10129","62","1","1","win","go","1"
"pit-trial","184","1255476","0.0-67.0","battery-v0.2","","""event"",""trial"",""time""
""fullscreenenter"",""1"",""3064""
","
","
","""event"",""trial"",""time""
""fullscreenenter"",""1"",""3064""
","
","","","-1","","","12","10129","4701","g","elianto","#f73b6a7A"," ","-1","0","0","[]","0","2","","","10129","63","3","3","lose","go","1"
"pit-trial","185","1259540","0.0-68.0","battery-v0.2","","""event"",""trial"",""time""
""fullscreenenter"",""1"",""3064""
","
","
","""event"",""trial"",""time""
""fullscreenenter"",""1"",""3064""
","
","","","1198.2999999523163","","","12","10129","4701","p","elianto","#3366ff99","-1"," ","0","0","[2053]","1","2","","","10129","64","4","2","win","no-go","0"
"pit-trial","186","1263460","0.0-69.0","battery-v0.2","","""event"",""trial"",""time""
""fullscreenenter"",""1"",""3064""
","
","
","""event"",""trial"",""time""
""fullscreenenter"",""1"",""3064""
","
","","","1060.2000000476837","","","12","10129","4701","l","elianto","#3366ff99"," "," ","1","+10","[1915.1000001430511]","1","2","","","10129","65","1","1","win","go","0"
"pit-trial","187","1268323","0.0-70.0","battery-v0.2","","""event"",""trial"",""time""
""fullscreenenter"",""1"",""3064""
","
","
","""event"",""trial"",""time""
""fullscreenenter"",""1"",""3064""
","
","","","-1","","","12","10129","4701","a","elianto","#f73b6a7A","-1","-1","1","0","[]","0","2","","","10129","66","2","4","lose","no-go","0"
"pit-trial","188","1273187","0.0-71.0","battery-v0.2","","""event"",""trial"",""time""
""fullscreenenter"",""1"",""3064""
","
","
","""event"",""trial"",""time""
""fullscreenenter"",""1"",""3064""
","
","","","-1","","","12","10129","4701","g","elianto","#f73b6a7A"," ","-1","0","-10","[]","0","2","","","10129","67","3","3","lose","go","0"
"pit-trial","189","1278051","0.0-72.0","battery-v0.2","","""event"",""trial"",""time""
""fullscreenenter"",""1"",""3064""
","
","
","""event"",""trial"",""time""
""fullscreenenter"",""1"",""3064""
","
","","","-1","","","12","10129","4701","p","elianto","#3366ff99","-1","-1","1","+10","[]","0","2","","","10129","68","4","2","win","no-go","0"
"pit-trial","190","1282915","0.0-73.0","battery-v0.2","","""event"",""trial"",""time""
""fullscreenenter"",""1"",""3064""
","
","
","""event"",""trial"",""time""
""fullscreenenter"",""1"",""3064""
","
","","","-1","","","12","10129","4701","g","elianto","#f73b6a7A"," ","-1","0","-10","[]","0","2","","","10129","69","3","3","lose","go","0"
"pit-trial","191","1287011","0.0-74.0","battery-v0.2","","""event"",""trial"",""time""
""fullscreenenter"",""1"",""3064""
","
","
","""event"",""trial"",""time""
""fullscreenenter"",""1"",""3064""
","
","","","1235.5","","","12","10129","4701","s","elianto","#3366ff99"," "," ","1","+10","[2087.7999999523163]","1","2","","","10129","70","5","1","win","go","0"
"pit-trial","192","1290941","0.0-75.0","battery-v0.2","","""event"",""trial"",""time""
""fullscreenenter"",""1"",""3064""
","
","
","""event"",""trial"",""time""
""fullscreenenter"",""1"",""3064""
","
","","","1067.7999999523163","","","12","10129","4701","l","elianto","#3366ff99"," "," ","1","+10","[1920.7999999523163]","1","2","","","10129","71","1","1","win","go","0"
"pit-trial","193","1295811","0.0-76.0","battery-v0.2","","""event"",""trial"",""time""
""fullscreenenter"",""1"",""3064""
","
","
","""event"",""trial"",""time""
""fullscreenenter"",""1"",""3064""
","
","","","-1","","","12","10129","4701","p","elianto","#3366ff99","-1","-1","1","+10","[]","0","2","","","10129","72","4","2","win","no-go","0"
"pit-trial","194","1300675","0.0-77.0","battery-v0.2","","""event"",""trial"",""time""
""fullscreenenter"",""1"",""3064""
","
","
","""event"",""trial"",""time""
""fullscreenenter"",""1"",""3064""
","
","","","-1","","","12","10129","4701","p","elianto","#3366ff99","-1","-1","1","+10","[]","0","2","","","10129","73","4","2","win","no-go","0"
"pit-trial","195","1305540","0.0-78.0","battery-v0.2","","""event"",""trial"",""time""
""fullscreenenter"",""1"",""3064""
","
","
","""event"",""trial"",""time""
""fullscreenenter"",""1"",""3064""
","
","","","-1","","","12","10129","4701","s","elianto","#3366ff99"," ","-1","0","0","[]","0","2","","","10129","74","5","1","win","go","0"
"pit-trial","196","1310403","0.0-79.0","battery-v0.2","","""event"",""trial"",""time""
""fullscreenenter"",""1"",""3064""
","
","
","""event"",""trial"",""time""
""fullscreenenter"",""1"",""3064""
","
","","","-1","","","12","10129","4701","g","elianto","#f73b6a7A"," ","-1","0","-10","[]","0","2","","","10129","75","3","3","lose","go","0"
"pit-trial","197","1314371","0.0-80.0","battery-v0.2","","""event"",""trial"",""time""
""fullscreenenter"",""1"",""3064""
","
","
","""event"",""trial"",""time""
""fullscreenenter"",""1"",""3064""
","
","","","1101.2000000476837","","","12","10129","4701","l","elianto","#3366ff99"," "," ","1","+10","[1955.8999998569489]","1","2","","","10129","76","1","1","win","go","0"
"pit-trial","198","1319234","0.0-81.0","battery-v0.2","","""event"",""trial"",""time""
""fullscreenenter"",""1"",""3064""
","
","
","""event"",""trial"",""time""
""fullscreenenter"",""1"",""3064""
","
","","","-1","","","12","10129","4701","g","elianto","#f73b6a7A"," ","-1","0","-10","[]","0","2","","","10129","77","3","3","lose","go","0"
"pit-trial","199","1324099","0.0-82.0","battery-v0.2","","""event"",""trial"",""time""
""fullscreenenter"",""1"",""3064""
","
","
","""event"",""trial"",""time""
""fullscreenenter"",""1"",""3064""
","
","","","-1","","","12","10129","4701","w","elianto","#f73b6a7A","-1","-1","1","-10","[]","0","2","","","10129","78","6","4","lose","no-go","1"
"pit-trial","200","1328967","0.0-83.0","battery-v0.2","","""event"",""trial"",""time""
""fullscreenenter"",""1"",""3064""
","
","
","""event"",""trial"",""time""
""fullscreenenter"",""1"",""3064""
","
","","","-1","","","12","10129","4701","p","elianto","#3366ff99","-1","-1","1","+10","[]","0","2","","","10129","79","4","2","win","no-go","0"
"pit-trial","201","1333838","0.0-84.0","battery-v0.2","","""event"",""trial"",""time""
""fullscreenenter"",""1"",""3064""
","
","
","""event"",""trial"",""time""
""fullscreenenter"",""1"",""3064""
","
","","","-1","","","12","10129","4701","s","elianto","#3366ff99"," ","-1","0","0","[]","0","2","","","10129","80","5","1","win","go","0"
"pit-trial","202","1338707","0.0-85.0","battery-v0.2","","""event"",""trial"",""time""
""fullscreenenter"",""1"",""3064""
","
","
","""event"",""trial"",""time""
""fullscreenenter"",""1"",""3064""
","
","","","-1","","","12","10129","4701","p","elianto","#3366ff99","-1","-1","1","+10","[]","0","2","","","10129","81","4","2","win","no-go","0"
"pit-trial","203","1343571","0.0-86.0","battery-v0.2","","""event"",""trial"",""time""
""fullscreenenter"",""1"",""3064""
","
","
","""event"",""trial"",""time""
""fullscreenenter"",""1"",""3064""
","
","","","-1","","","12","10129","4701","s","elianto","#3366ff99"," ","-1","0","0","[]","0","2","","","10129","82","5","1","win","go","0"
"pit-trial","204","1348435","0.0-87.0","battery-v0.2","","""event"",""trial"",""time""
""fullscreenenter"",""1"",""3064""
","
","
","""event"",""trial"",""time""
""fullscreenenter"",""1"",""3064""
","
","","","-1","","","12","10129","4701","w","elianto","#f73b6a7A","-1","-1","1","0","[]","0","2","","","10129","83","6","4","lose","no-go","0"
"pit-trial","205","1353246","0.0-88.0","battery-v0.2","","""event"",""trial"",""time""
""fullscreenenter"",""1"",""3064""
","
","
","""event"",""trial"",""time""
""fullscreenenter"",""1"",""3064""
","
","","","1946","","","12","10129","4701","e","elianto","#f73b6a7A"," "," ","1","0","[2800.4000000953674]","1","2","","","10129","84","7","3","lose","go","0"
"pit-trial","206","1358115","0.0-89.0","battery-v0.2","","""event"",""trial"",""time""
""fullscreenenter"",""1"",""3064""
","
","
","""event"",""trial"",""time""
""fullscreenenter"",""1"",""3064""
","
","","","-1","","","12","10129","4701","w","elianto","#f73b6a7A","-1","-1","1","0","[]","0","2","","","10129","85","6","4","lose","no-go","0"
"pit-trial","207","1362323","0.0-90.0","battery-v0.2","","""event"",""trial"",""time""
""fullscreenenter"",""1"",""3064""
","
","
","""event"",""trial"",""time""
""fullscreenenter"",""1"",""3064""
","
","","","1344.9000000953674","","","12","10129","4701","s","elianto","#3366ff99"," "," ","1","+10","[2196.5]","1","2","","","10129","86","5","1","win","go","0"
"pit-trial","208","1367187","0.0-91.0","battery-v0.2","","""event"",""trial"",""time""
""fullscreenenter"",""1"",""3064""
","
","
","""event"",""trial"",""time""
""fullscreenenter"",""1"",""3064""
","
","","","-1","","","12","10129","4701","e","elianto","#f73b6a7A"," ","-1","0","-10","[]","0","2","","","10129","87","7","3","lose","go","0"
"pit-trial","209","1371341","0.0-92.0","battery-v0.2","","""event"",""trial"",""time""
""fullscreenenter"",""1"",""3064""
","
","
","""event"",""trial"",""time""
""fullscreenenter"",""1"",""3064""
","
","","","1288.2999999523163","","","12","10129","4701","p","elianto","#3366ff99","-1"," ","0","0","[2142.0999999046326]","1","2","","","10129","88","4","2","win","no-go","0"
"pit-trial","210","1376211","0.0-93.0","battery-v0.2","","""event"",""trial"",""time""
""fullscreenenter"",""1"",""3064""
","
","
","""event"",""trial"",""time""
""fullscreenenter"",""1"",""3064""
","
","","","-1","","","12","10129","4701","p","elianto","#3366ff99","-1","-1","1","+10","[]","0","2","","","10129","89","4","2","win","no-go","0"
"pit-trial","211","1380371","0.0-94.0","battery-v0.2","","""event"",""trial"",""time""
""fullscreenenter"",""1"",""3064""
","
","
","""event"",""trial"",""time""
""fullscreenenter"",""1"",""3064""
","
","","","1299","","","12","10129","4701","s","elianto","#3366ff99"," "," ","1","+10","[2153.9000000953674]","1","2","","","10129","90","5","1","win","go","0"
"pit-trial","212","1385234","0.0-95.0","battery-v0.2","","""event"",""trial"",""time""
""fullscreenenter"",""1"",""3064""
","
","
","""event"",""trial"",""time""
""fullscreenenter"",""1"",""3064""
","
","","","-1","","","12","10129","4701","e","elianto","#f73b6a7A"," ","-1","0","-10","[]","0","2","","","10129","91","7","3","lose","go","0"
"pit-trial","213","1390098","0.0-96.0","battery-v0.2","","""event"",""trial"",""time""
""fullscreenenter"",""1"",""3064""
","
","
","""event"",""trial"",""time""
""fullscreenenter"",""1"",""3064""
","
","","","-1","","","12","10129","4701","w","elianto","#f73b6a7A","-1","-1","1","0","[]","0","2","","","10129","92","6","4","lose","no-go","0"
"pit-trial","214","1394770","0.0-97.0","battery-v0.2","","""event"",""trial"",""time""
""fullscreenenter"",""1"",""3064""
","
","
","""event"",""trial"",""time""
""fullscreenenter"",""1"",""3064""
","
","","","1809.9000000953674","","","12","10129","4701","s","elianto","#3366ff99"," "," ","1","+10","[2663.600000143051]","1","2","","","10129","93","5","1","win","go","0"
"pit-trial","215","1399634","0.0-98.0","battery-v0.2","","""event"",""trial"",""time""
""fullscreenenter"",""1"",""3064""
","
","
","""event"",""trial"",""time""
""fullscreenenter"",""1"",""3064""
","
","","","-1","","","12","10129","4701","d","elianto","#3366ff99","-1","-1","1","+10","[]","0","2","","","10129","94","8","2","win","no-go","0"
"pit-trial","216","1404498","0.0-99.0","battery-v0.2","","""event"",""trial"",""time""
""fullscreenenter"",""1"",""3064""
","
","
","""event"",""trial"",""time""
""fullscreenenter"",""1"",""3064""
","
","","","-1","","","12","10129","4701","w","elianto","#f73b6a7A","-1","-1","1","-10","[]","0","2","","","10129","95","6","4","lose","no-go","1"
"pit-trial","217","1409362","0.0-100.0","battery-v0.2","","""event"",""trial"",""time""
""fullscreenenter"",""1"",""3064""
","
","
","""event"",""trial"",""time""
""fullscreenenter"",""1"",""3064""
","
","","","-1","","","12","10129","4701","e","elianto","#f73b6a7A"," ","-1","0","-10","[]","0","2","","","10129","96","7","3","lose","go","0"
"pit-trial","218","1414226","0.0-101.0","battery-v0.2","","""event"",""trial"",""time""
""fullscreenenter"",""1"",""3064""
","
","
","""event"",""trial"",""time""
""fullscreenenter"",""1"",""3064""
","
","","","-1","","","12","10129","4701","e","elianto","#f73b6a7A"," ","-1","0","0","[]","0","2","","","10129","97","7","3","lose","go","1"
"pit-trial","219","1419090","0.0-102.0","battery-v0.2","","""event"",""trial"",""time""
""fullscreenenter"",""1"",""3064""
","
","
","""event"",""trial"",""time""
""fullscreenenter"",""1"",""3064""
","
","","","-1","","","12","10129","4701","d","elianto","#3366ff99","-1","-1","1","+10","[]","0","2","","","10129","98","8","2","win","no-go","0"
"pit-trial","220","1423954","0.0-103.0","battery-v0.2","","""event"",""trial"",""time""
""fullscreenenter"",""1"",""3064""
","
","
","""event"",""trial"",""time""
""fullscreenenter"",""1"",""3064""
","
","","","-1","","","12","10129","4701","s","elianto","#3366ff99"," ","-1","0","0","[]","0","2","","","10129","99","5","1","win","go","0"
"pit-trial","221","1428818","0.0-104.0","battery-v0.2","","""event"",""trial"",""time""
""fullscreenenter"",""1"",""3064""
","
","
","""event"",""trial"",""time""
""fullscreenenter"",""1"",""3064""
","
","","","-1","","","12","10129","4701","w","elianto","#f73b6a7A","-1","-1","1","0","[]","0","2","","","10129","100","6","4","lose","no-go","0"
"pit-trial","222","1433682","0.0-105.0","battery-v0.2","","""event"",""trial"",""time""
""fullscreenenter"",""1"",""3064""
","
","
","""event"",""trial"",""time""
""fullscreenenter"",""1"",""3064""
","
","","","-1","","","12","10129","4701","j","elianto","#3366ff99","-1","-1","1","+10","[]","0","2","","","10129","101","9","2","win","no-go","0"
"pit-trial","223","1438546","0.0-106.0","battery-v0.2","","""event"",""trial"",""time""
""fullscreenenter"",""1"",""3064""
","
","
","""event"",""trial"",""time""
""fullscreenenter"",""1"",""3064""
","
","","","-1","","","12","10129","4701","s","elianto","#3366ff99"," ","-1","0","0","[]","0","2","","","10129","102","5","1","win","go","0"
"pit-trial","224","1443410","0.0-107.0","battery-v0.2","","""event"",""trial"",""time""
""fullscreenenter"",""1"",""3064""
","
","
","""event"",""trial"",""time""
""fullscreenenter"",""1"",""3064""
","
","","","-1","","","12","10129","4701","d","elianto","#3366ff99","-1","-1","1","+10","[]","0","2","","","10129","103","8","2","win","no-go","0"
"pit-trial","225","1448276","0.0-108.0","battery-v0.2","","""event"",""trial"",""time""
""fullscreenenter"",""1"",""3064""
","
","
","""event"",""trial"",""time""
""fullscreenenter"",""1"",""3064""
","
","","","-1","","","12","10129","4701","w","elianto","#f73b6a7A","-1","-1","1","0","[]","0","2","","","10129","104","6","4","lose","no-go","0"
"pit-trial","226","1453138","0.0-109.0","battery-v0.2","","""event"",""trial"",""time""
""fullscreenenter"",""1"",""3064""
","
","
","""event"",""trial"",""time""
""fullscreenenter"",""1"",""3064""
","
","","","-1","","","12","10129","4701","d","elianto","#3366ff99","-1","-1","1","+10","[]","0","2","","","10129","105","8","2","win","no-go","0"
"pit-trial","227","1458004","0.0-110.0","battery-v0.2","","""event"",""trial"",""time""
""fullscreenenter"",""1"",""3064""
","
","
","""event"",""trial"",""time""
""fullscreenenter"",""1"",""3064""
","
","","","-1","","","12","10129","4701","s","elianto","#3366ff99"," ","-1","0","0","[]","0","2","","","10129","106","5","1","win","go","0"
"pit-trial","228","1462877","0.0-111.0","battery-v0.2","","""event"",""trial"",""time""
""fullscreenenter"",""1"",""3064""
","
","
","""event"",""trial"",""time""
""fullscreenenter"",""1"",""3064""
","
","","","-1","","","12","10129","4701","j","elianto","#3366ff99","-1","-1","1","+10","[]","0","2","","","10129","107","9","2","win","no-go","0"
"pit-trial","229","1467746","0.0-112.0","battery-v0.2","","""event"",""trial"",""time""
""fullscreenenter"",""1"",""3064""
","
","
","""event"",""trial"",""time""
""fullscreenenter"",""1"",""3064""
","
","","","-1","","","12","10129","4701","w","elianto","#f73b6a7A","-1","-1","1","0","[]","0","2","","","10129","108","6","4","lose","no-go","0"
"pit-trial","230","1472610","0.0-113.0","battery-v0.2","","""event"",""trial"",""time""
""fullscreenenter"",""1"",""3064""
","
","
","""event"",""trial"",""time""
""fullscreenenter"",""1"",""3064""
","
","","","-1","","","12","10129","4701","w","elianto","#f73b6a7A","-1","-1","1","0","[]","0","2","","","10129","109","6","4","lose","no-go","0"
"pit-trial","231","1477477","0.0-114.0","battery-v0.2","","""event"",""trial"",""time""
""fullscreenenter"",""1"",""3064""
","
","
","""event"",""trial"",""time""
""fullscreenenter"",""1"",""3064""
","
","","","-1","","","12","10129","4701","d","elianto","#3366ff99","-1","-1","1","+10","[]","0","2","","","10129","110","8","2","win","no-go","0"
"pit-trial","232","1482348","0.0-115.0","battery-v0.2","","""event"",""trial"",""time""
""fullscreenenter"",""1"",""3064""
","
","
","""event"",""trial"",""time""
""fullscreenenter"",""1"",""3064""
","
","","","-1","","","12","10129","4701","j","elianto","#3366ff99","-1","-1","1","+10","[]","0","2","","","10129","111","9","2","win","no-go","0"
"pit-trial","233","1487218","0.0-116.0","battery-v0.2","","""event"",""trial"",""time""
""fullscreenenter"",""1"",""3064""
","
","
","""event"",""trial"",""time""
""fullscreenenter"",""1"",""3064""
","
","","","-1","","","12","10129","4701","s","elianto","#3366ff99"," ","-1","0","+10","[]","0","2","","","10129","112","5","1","win","go","1"
"pit-trial","234","1492082","0.0-117.0","battery-v0.2","","""event"",""trial"",""time""
""fullscreenenter"",""1"",""3064""
","
","
","""event"",""trial"",""time""
""fullscreenenter"",""1"",""3064""
","
","","","-1","","","12","10129","4701","s","elianto","#3366ff99"," ","-1","0","0","[]","0","2","","","10129","113","5","1","win","go","0"
"pit-trial","235","1496945","0.0-118.0","battery-v0.2","","""event"",""trial"",""time""
""fullscreenenter"",""1"",""3064""
","
","
","""event"",""trial"",""time""
""fullscreenenter"",""1"",""3064""
","
","","","-1","","","12","10129","4701","j","elianto","#3366ff99","-1","-1","1","+10","[]","0","2","","","10129","114","9","2","win","no-go","0"
"pit-trial","236","1501810","0.0-119.0","battery-v0.2","","""event"",""trial"",""time""
""fullscreenenter"",""1"",""3064""
","
","
","""event"",""trial"",""time""
""fullscreenenter"",""1"",""3064""
","
","","","-1","","","12","10129","4701","e","elianto","#f73b6a7A"," ","-1","0","-10","[]","0","2","","","10129","115","7","3","lose","go","0"
"pit-trial","237","1506674","0.0-120.0","battery-v0.2","","""event"",""trial"",""time""
""fullscreenenter"",""1"",""3064""
","
","
","""event"",""trial"",""time""
""fullscreenenter"",""1"",""3064""
","
","","","-1","","","12","10129","4701","d","elianto","#3366ff99","-1","-1","1","0","[]","0","2","","","10129","116","8","2","win","no-go","1"
"pit-trial","238","1511537","0.0-121.0","battery-v0.2","","""event"",""trial"",""time""
""fullscreenenter"",""1"",""3064""
","
","
","""event"",""trial"",""time""
""fullscreenenter"",""1"",""3064""
","
","","","-1","","","12","10129","4701","w","elianto","#f73b6a7A","-1","-1","1","0","[]","0","2","","","10129","117","6","4","lose","no-go","0"
"pit-trial","239","1516401","0.0-122.0","battery-v0.2","","""event"",""trial"",""time""
""fullscreenenter"",""1"",""3064""
","
","
","""event"",""trial"",""time""
""fullscreenenter"",""1"",""3064""
","
","","","-1","","","12","10129","4701","d","elianto","#3366ff99","-1","-1","1","+10","[]","0","2","","","10129","118","8","2","win","no-go","0"
"pit-trial","240","1521265","0.0-123.0","battery-v0.2","","""event"",""trial"",""time""
""fullscreenenter"",""1"",""3064""
","
","
","""event"",""trial"",""time""
""fullscreenenter"",""1"",""3064""
","
","","","-1","","","12","10129","4701","j","elianto","#3366ff99","-1","-1","1","+10","[]","0","2","","","10129","119","9","2","win","no-go","0"
"pit-trial","241","1526129","0.0-124.0","battery-v0.2","","""event"",""trial"",""time""
""fullscreenenter"",""1"",""3064""
","
","
","""event"",""trial"",""time""
""fullscreenenter"",""1"",""3064""
","
","","","-1","","","12","10129","4701","s","elianto","#3366ff99"," ","-1","0","+10","[]","0","2","","","10129","120","5","1","win","go","1"
"pit-trial","242","1530993","0.0-125.0","battery-v0.2","","""event"",""trial"",""time""
""fullscreenenter"",""1"",""3064""
","
","
","""event"",""trial"",""time""
""fullscreenenter"",""1"",""3064""
","
","","","-1","","","12","10129","4701","e","elianto","#f73b6a7A"," ","-1","0","-10","[]","0","2","","","10129","121","7","3","lose","go","0"
"pit-trial","243","1535857","0.0-126.0","battery-v0.2","","""event"",""trial"",""time""
""fullscreenenter"",""1"",""3064""
","
","
","""event"",""trial"",""time""
""fullscreenenter"",""1"",""3064""
","
","","","-1","","","12","10129","4701","s","elianto","#3366ff99"," ","-1","0","0","[]","0","2","","","10129","122","5","1","win","go","0"
"pit-trial","244","1540721","0.0-127.0","battery-v0.2","","""event"",""trial"",""time""
""fullscreenenter"",""1"",""3064""
","
","
","""event"",""trial"",""time""
""fullscreenenter"",""1"",""3064""
","
","","","-1","","","12","10129","4701","d","elianto","#3366ff99","-1","-1","1","+10","[]","0","2","","","10129","123","8","2","win","no-go","0"
"pit-trial","245","1545585","0.0-128.0","battery-v0.2","","""event"",""trial"",""time""
""fullscreenenter"",""1"",""3064""
","
","
","""event"",""trial"",""time""
""fullscreenenter"",""1"",""3064""
","
","","","-1","","","12","10129","4701","j","elianto","#3366ff99","-1","-1","1","0","[]","0","2","","","10129","124","9","2","win","no-go","1"
"pit-trial","246","1550449","0.0-129.0","battery-v0.2","","""event"",""trial"",""time""
""fullscreenenter"",""1"",""3064""
","
","
","""event"",""trial"",""time""
""fullscreenenter"",""1"",""3064""
","
","","","-1","","","12","10129","4701","w","elianto","#f73b6a7A","-1","-1","1","0","[]","0","2","","","10129","125","6","4","lose","no-go","0"
"pit-trial","247","1555313","0.0-130.0","battery-v0.2","","""event"",""trial"",""time""
""fullscreenenter"",""1"",""3064""
","
","
","""event"",""trial"",""time""
""fullscreenenter"",""1"",""3064""
","
","","","-1","","","12","10129","4701","d","elianto","#3366ff99","-1","-1","1","+10","[]","0","2","","","10129","126","8","2","win","no-go","0"
"pit-trial","248","1560177","0.0-131.0","battery-v0.2","","""event"",""trial"",""time""
""fullscreenenter"",""1"",""3064""
","
","
","""event"",""trial"",""time""
""fullscreenenter"",""1"",""3064""
","
","","","-1","","","12","10129","4701","e","elianto","#f73b6a7A"," ","-1","0","-10","[]","0","2","","","10129","127","7","3","lose","go","0"
"pit-trial","249","1565041","0.0-132.0","battery-v0.2","","""event"",""trial"",""time""
""fullscreenenter"",""1"",""3064""
","
","
","""event"",""trial"",""time""
""fullscreenenter"",""1"",""3064""
","
","","","-1","","","12","10129","4701","j","elianto","#3366ff99","-1","-1","1","0","[]","0","2","","","10129","128","9","2","win","no-go","1"
"pit-trial","250","1569905","0.0-133.0","battery-v0.2","","""event"",""trial"",""time""
""fullscreenenter"",""1"",""3064""
","
","
","""event"",""trial"",""time""
""fullscreenenter"",""1"",""3064""
","
","","","-1","","","12","10129","4701","d","elianto","#3366ff99","-1","-1","1","0","[]","0","2","","","10129","129","8","2","win","no-go","1"
"pit-trial","251","1574769","0.0-134.0","battery-v0.2","","""event"",""trial"",""time""
""fullscreenenter"",""1"",""3064""
","
","
","""event"",""trial"",""time""
""fullscreenenter"",""1"",""3064""
","
","","","-1","","","12","10129","4701","e","elianto","#f73b6a7A"," ","-1","0","0","[]","0","2","","","10129","130","7","3","lose","go","1"
"pit-trial","252","1579633","0.0-135.0","battery-v0.2","","""event"",""trial"",""time""
""fullscreenenter"",""1"",""3064""
","
","
","""event"",""trial"",""time""
""fullscreenenter"",""1"",""3064""
","
","","","-1","","","12","10129","4701","j","elianto","#3366ff99","-1","-1","1","+10","[]","0","2","","","10129","131","9","2","win","no-go","0"
"pit-trial","253","1584496","0.0-136.0","battery-v0.2","","""event"",""trial"",""time""
""fullscreenenter"",""1"",""3064""
","
","
","""event"",""trial"",""time""
""fullscreenenter"",""1"",""3064""
","
","","","-1","","","12","10129","4701","w","elianto","#f73b6a7A","-1","-1","1","0","[]","0","2","","","10129","132","6","4","lose","no-go","0"
"pit-trial","254","1589361","0.0-137.0","battery-v0.2","","""event"",""trial"",""time""
""fullscreenenter"",""1"",""3064""
","
","
","""event"",""trial"",""time""
""fullscreenenter"",""1"",""3064""
","
","","","-1","","","12","10129","4701","e","elianto","#f73b6a7A"," ","-1","0","0","[]","0","2","","","10129","133","7","3","lose","go","1"
"pit-trial","255","1594225","0.0-138.0","battery-v0.2","","""event"",""trial"",""time""
""fullscreenenter"",""1"",""3064""
","
","
","""event"",""trial"",""time""
""fullscreenenter"",""1"",""3064""
","
","","","-1","","","12","10129","4701","j","elianto","#3366ff99","-1","-1","1","+10","[]","0","2","","","10129","134","9","2","win","no-go","0"
"pit-trial","256","1599088","0.0-139.0","battery-v0.2","","""event"",""trial"",""time""
""fullscreenenter"",""1"",""3064""
","
","
","""event"",""trial"",""time""
""fullscreenenter"",""1"",""3064""
","
","","","-1","","","12","10129","4701","w","elianto","#f73b6a7A","-1","-1","1","0","[]","0","2","","","10129","135","6","4","lose","no-go","0"
"pit-trial","257","1603953","0.0-140.0","battery-v0.2","","""event"",""trial"",""time""
""fullscreenenter"",""1"",""3064""
","
","
","""event"",""trial"",""time""
""fullscreenenter"",""1"",""3064""
","
