"trial_type","trial_index","time_elapsed","internal_node_id","task_version","subject_id","interactions","blur_events","focus_events","fullscreenenter_events","fullscreenexit_events","success","view_history","rt","responses","num_errors","age","subject","participantId","rune","rune_set","hex","correct","choice","accuracy","outcome","keys","total_keys","block","practice","value","sub","trial","stimulus","robot","valence","action","sham"
"pavlovia","0","21","0.0-0.0","battery-v0.2","","""event"",""trial"",""time""
""fullscreenenter"",""1"",""3210""
","
","
","""event"",""trial"",""time""
""fullscreenenter"",""1"",""3210""
","
","","","","","","","","","","","","","","","","","","","","","","","","","","",""
"fullscreen","1","4171","0.0-1.0","battery-v0.2","","""event"",""trial"",""time""
""fullscreenenter"",""1"",""3210""
","
","
","""event"",""trial"",""time""
""fullscreenenter"",""1"",""3210""
","
","true","","","","","","","","","","","","","","","","","","","","","","","","","",""
"pit-instructions","2","13247","0.0-2.0-0.0","battery-v0.2","","""event"",""trial"",""time""
""fullscreenenter"",""1"",""3210""
","
","
","""event"",""trial"",""time""
""fullscreenenter"",""1"",""3210""
","
","","[{""page_index"":0,""viewing_time"":9066}]","9066.800000000745","","","","","","","","","","","","","","","","","","","","","","","",""
"pit-comprehension","3","17528","0.0-2.0-1.0-0.0","battery-v0.2","","""event"",""trial"",""time""
""fullscreenenter"",""1"",""3210""
","
","
","""event"",""trial"",""time""
""fullscreenenter"",""1"",""3210""
","
","","","4270.199999999255","[""shark""]","0","10","20349","3178","","","","","","","","","","","","","","","","","","",""
"pit-instructions","4","19468","0.0-2.0-1.0-1.0","battery-v0.2","","""event"",""trial"",""time""
""fullscreenenter"",""1"",""3210""
","
","
","""event"",""trial"",""time""
""fullscreenenter"",""1"",""3210""
","
","","[{""page_index"":0,""viewing_time"":1926.9000000003725}]","1928","","","","","","","","","","","","","","","","","","","","","","","",""
"pit-comprehension","5","23187","0.0-2.0-2.0-0.0","battery-v0.2","","""event"",""trial"",""time""
""fullscreenenter"",""1"",""3210""
","
","
","""event"",""trial"",""time""
""fullscreenenter"",""1"",""3210""
","
","","","3710.60000000149","[""tiger""]","0","10","20349","3178","","","","","","","","","","","","","","","","","","",""
"pit-instructions","6","24417","0.0-2.0-2.0-1.0","battery-v0.2","","""event"",""trial"",""time""
""fullscreenenter"",""1"",""3210""
","
","
","""event"",""trial"",""time""
""fullscreenenter"",""1"",""3210""
","
","","[{""page_index"":0,""viewing_time"":1221.7999999988824}]","1222.5","","","","","","","","","","","","","","","","","","","","","","","",""
"pit-instructions","7","145481","0.0-2.0-3.0","battery-v0.2","","""event"",""trial"",""time""
""fullscreenenter"",""1"",""3210""
","
","
","""event"",""trial"",""time""
""fullscreenenter"",""1"",""3210""
","
","","[{""page_index"":0,""viewing_time"":8838.299999998882},{""page_index"":1,""viewing_time"":7060.4000000003725},{""page_index"":2,""viewing_time"":6253.0999999996275},{""page_index"":3,""viewing_time"":5965.60000000149},{""page_index"":4,""viewing_time"":7300.699999999255},{""page_index"":5,""viewing_time"":7108.5},{""page_index"":6,""viewing_time"":8101.300000000745},{""page_index"":7,""viewing_time"":13113.599999999627},{""page_index"":8,""viewing_time"":12227.199999999255},{""page_index"":9,""viewing_time"":11595.200000001118},{""page_index"":10,""viewing_time"":10729.299999998882},{""page_index"":11,""viewing_time"":10522.300000000745},{""page_index"":12,""viewing_time"":6494.799999998882},{""page_index"":13,""viewing_time"":5747.60000000149}]","121058.5","","","","","","","","","","","","","","","","","","","","","","","",""
"pit-trial","8","148486","0.0-2.0-4.0-0.0","battery-v0.2","","""event"",""trial"",""time""
""fullscreenenter"",""1"",""3210""
","
","
","""event"",""trial"",""time""
""fullscreenenter"",""1"",""3210""
","
","","","148.10000000149012","","","10","20349","3178","&#9784;","elianto","#FFFFF080"," "," ","1","&#10004","[998.4000000003725]","1","0","0","","","","","","","",""
"pit-trial","9","151764","0.0-2.0-4.1-0.1","battery-v0.2","","""event"",""trial"",""time""
""fullscreenenter"",""1"",""3210""
","
","
","""event"",""trial"",""time""
""fullscreenenter"",""1"",""3210""
","
","","","422.5","","","10","20349","3178","&#9784;","elianto","#FFFFF080"," "," ","1","&#10004","[147.59999999962747,1272.5999999996275]","2","0","0","","","","","","","",""
"pit-trial","10","154699","0.0-2.0-4.2-0.2","battery-v0.2","","""event"",""trial"",""time""
""fullscreenenter"",""1"",""3210""
","
","
","""event"",""trial"",""time""
""fullscreenenter"",""1"",""3210""
","
","","","80.5","","","10","20349","3178","&#9784;","elianto","#FFFFF080"," "," ","1","&#10004","[930.5999999996275]","1","0","0","","","","","","","",""
"pit-trial","11","157607","0.0-2.0-4.3-0.3","battery-v0.2","","""event"",""trial"",""time""
""fullscreenenter"",""1"",""3210""
","
","
","""event"",""trial"",""time""
""fullscreenenter"",""1"",""3210""
","
","","","52.69999999925494","","","10","20349","3178","&#9784;","elianto","#FFFFF080"," "," ","1","&#10004","[904.0999999996275]","1","0","0","","","","","","","",""
"pit-trial","12","162247","0.0-2.0-4.4-0.4","battery-v0.2","","""event"",""trial"",""time""
""fullscreenenter"",""1"",""3210""
","
","
","""event"",""trial"",""time""
""fullscreenenter"",""1"",""3210""
","
","","","1785","","","10","20349","3178","&#9784;","elianto","#FFFFF080"," "," ","1","&#10004","[818.5999999996275,2635.199999999255]","2","0","0","","","","","","","",""
"pit-instructions","13","191564","0.0-2.0-5.0","battery-v0.2","","""event"",""trial"",""time""
""fullscreenenter"",""1"",""3210""
","
","
","""event"",""trial"",""time""
""fullscreenenter"",""1"",""3210""
","
","","[{""page_index"":0,""viewing_time"":6237},{""page_index"":1,""viewing_time"":11396.900000000373},{""page_index"":2,""viewing_time"":6265.199999999255},{""page_index"":3,""viewing_time"":5412}]","29311.900000000373","","","","","","","","","","","","","","","","","","","","","","","",""
"pit-trial","14","196421","0.0-2.0-6.0-0.0","battery-v0.2","","""event"",""trial"",""time""
""fullscreenenter"",""1"",""3210""
","
","
","""event"",""trial"",""time""
""fullscreenenter"",""1"",""3210""
","
","","","-1","","","10","20349","3178","&#9854;","elianto","#FFFFF080","-1","-1","1","&#10004","[]","0","0","1","","","","","","","",""
"pit-trial","15","201276","0.0-2.0-6.1-0.1","battery-v0.2","","""event"",""trial"",""time""
""fullscreenenter"",""1"",""3210""
","
","
","""event"",""trial"",""time""
""fullscreenenter"",""1"",""3210""
","
","","","-1","","","10","20349","3178","&#9854;","elianto","#FFFFF080","-1","-1","1","&#10004","[]","0","0","1","","","","","","","",""
"pit-trial","16","206131","0.0-2.0-6.2-0.2","battery-v0.2","","""event"",""trial"",""time""
""fullscreenenter"",""1"",""3210""
","
","
","""event"",""trial"",""time""
""fullscreenenter"",""1"",""3210""
","
","","","-1","","","10","20349","3178","&#9854;","elianto","#FFFFF080","-1","-1","1","&#10004","[]","0","0","1","","","","","","","",""
"pit-trial","17","210987","0.0-2.0-6.3-0.3","battery-v0.2","","""event"",""trial"",""time""
""fullscreenenter"",""1"",""3210""
","
","
","""event"",""trial"",""time""
""fullscreenenter"",""1"",""3210""
","
","","","-1","","","10","20349","3178","&#9854;","elianto","#FFFFF080","-1","-1","1","&#10004","[]","0","0","1","","","","","","","",""
"pit-trial","18","215843","0.0-2.0-6.4-0.4","battery-v0.2","","""event"",""trial"",""time""
""fullscreenenter"",""1"",""3210""
","
","
","""event"",""trial"",""time""
""fullscreenenter"",""1"",""3210""
","
","","","-1","","","10","20349","3178","&#9854;","elianto","#FFFFF080","-1","-1","1","&#10004","[]","0","0","1","","","","","","","",""
"pit-instructions","19","345087","0.0-2.0-7.0","battery-v0.2","","""event"",""trial"",""time""
""fullscreenenter"",""1"",""3210""
","
","
","""event"",""trial"",""time""
""fullscreenenter"",""1"",""3210""
","
","","[{""page_index"":0,""viewing_time"":5986.700000001118},{""page_index"":1,""viewing_time"":8644.199999999255},{""page_index"":2,""viewing_time"":6700.800000000745},{""page_index"":3,""viewing_time"":7605},{""page_index"":4,""viewing_time"":6557.4000000003725},{""page_index"":5,""viewing_time"":9683.599999999627},{""page_index"":6,""viewing_time"":8780.400000000373},{""page_index"":7,""viewing_time"":9515.5},{""page_index"":8,""viewing_time"":6287.699999999255},{""page_index"":9,""viewing_time"":5443.800000000745},{""page_index"":10,""viewing_time"":6117.5999999996275},{""page_index"":11,""viewing_time"":4717.9000000003725},{""page_index"":12,""viewing_time"":7268.0999999996275},{""page_index"":13,""viewing_time"":7884.799999998882},{""page_index"":14,""viewing_time"":7150.200000001118},{""page_index"":15,""viewing_time"":6587.9000000003725},{""page_index"":16,""viewing_time"":7269.299999998882},{""page_index"":17,""viewing_time"":7037.800000000745}]","129239.5","","","","","","","","","","","","","","","","","","","","","","","",""
"pit-trial","20","348959","0.0-2.0-8.0-0.0","battery-v0.2","","""event"",""trial"",""time""
""fullscreenenter"",""1"",""3210""
","
","
","""event"",""trial"",""time""
""fullscreenenter"",""1"",""3210""
","
","","","1016.5999999996275","","","10","20349","3178","&#9776;","elianto","#3366ff99"," "," ","1","+10","[1865.9000000003725]","1","0","1","","","","","","","",""
"pit-trial","21","352292","0.0-2.0-8.0-1.0","battery-v0.2","","""event"",""trial"",""time""
""fullscreenenter"",""1"",""3210""
","
","
","""event"",""trial"",""time""
""fullscreenenter"",""1"",""3210""
","
","","","478.90000000037253","","","10","20349","3178","&#9776;","elianto","#3366ff99"," "," ","1","+10","[1329]","1","0","1","","","","","","","",""
"pit-trial","22","355737","0.0-2.0-8.0-2.0","battery-v0.2","","""event"",""trial"",""time""
""fullscreenenter"",""1"",""3210""
","
","
","""event"",""trial"",""time""
""fullscreenenter"",""1"",""3210""
","
","","","588.8000000007451","","","10","20349","3178","&#9776;","elianto","#3366ff99"," "," ","1","+10","[1443.1000000014901]","1","0","1","","","","","","","",""
"pit-trial","23","359139","0.0-2.0-8.0-3.0","battery-v0.2","","""event"",""trial"",""time""
""fullscreenenter"",""1"",""3210""
","
","
","""event"",""trial"",""time""
""fullscreenenter"",""1"",""3210""
","
","","","547.2999999988824","","","10","20349","3178","&#9776;","elianto","#3366ff99"," "," ","1","0","[1397.4000000003725]","1","0","1","","","","","","","",""
"pit-trial","24","362531","0.0-2.0-8.0-4.0","battery-v0.2","","""event"",""trial"",""time""
""fullscreenenter"",""1"",""3210""
","
","
","""event"",""trial"",""time""
""fullscreenenter"",""1"",""3210""
","
","","","537.6999999992549","","","10","20349","3178","&#9776;","elianto","#3366ff99"," "," ","1","+10","[1387.9000000003725]","1","0","1","","","","","","","",""
"pit-trial","25","365865","0.0-2.0-8.1-0.1","battery-v0.2","","""event"",""trial"",""time""
""fullscreenenter"",""1"",""3210""
","
","
","""event"",""trial"",""time""
""fullscreenenter"",""1"",""3210""
","
","","","477.19999999925494","","","10","20349","3178","&#9776;","elianto","#3366ff99"," "," ","1","+10","[1327.7000000011176]","1","0","1","","","","","","","",""
"pit-trial","26","369208","0.0-2.0-8.1-1.1","battery-v0.2","","""event"",""trial"",""time""
""fullscreenenter"",""1"",""3210""
","
","
","""event"",""trial"",""time""
""fullscreenenter"",""1"",""3210""
","
","","","488.5","","","10","20349","3178","&#9776;","elianto","#3366ff99"," "," ","1","+10","[1338.4000000003725]","1","0","1","","","","","","","",""
"pit-trial","27","372365","0.0-2.0-8.1-2.1","battery-v0.2","","""event"",""trial"",""time""
""fullscreenenter"",""1"",""3210""
","
","
","""event"",""trial"",""time""
""fullscreenenter"",""1"",""3210""
","
","","","300.8999999985099","","","10","20349","3178","&#9776;","elianto","#3366ff99"," "," ","1","+10","[1152.699999999255]","1","0","1","","","","","","","",""
"pit-trial","28","375460","0.0-2.0-8.1-3.1","battery-v0.2","","""event"",""trial"",""time""
""fullscreenenter"",""1"",""3210""
","
","
","""event"",""trial"",""time""
""fullscreenenter"",""1"",""3210""
","
","","","241.7999999988824","","","10","20349","3178","&#9776;","elianto","#3366ff99"," "," ","1","0","[1092.0999999996275]","1","0","1","","","","","","","",""
"pit-trial","29","378609","0.0-2.0-8.1-4.1","battery-v0.2","","""event"",""trial"",""time""
""fullscreenenter"",""1"",""3210""
","
","
","""event"",""trial"",""time""
""fullscreenenter"",""1"",""3210""
","
","","","295.7000000011176","","","10","20349","3178","&#9776;","elianto","#3366ff99"," "," ","1","+10","[1145.9000000003725]","1","0","1","","","","","","","",""
"pit-trial","30","381736","0.0-2.0-8.2-0.2","battery-v0.2","","""event"",""trial"",""time""
""fullscreenenter"",""1"",""3210""
","
","
","""event"",""trial"",""time""
""fullscreenenter"",""1"",""3210""
","
","","","272.90000000037253","","","10","20349","3178","&#9776;","elianto","#3366ff99"," "," ","1","+10","[1122.699999999255]","1","0","1","","","","","","","",""
"pit-trial","31","384874","0.0-2.0-8.2-1.2","battery-v0.2","","""event"",""trial"",""time""
""fullscreenenter"",""1"",""3210""
","
","
","""event"",""trial"",""time""
""fullscreenenter"",""1"",""3210""
","
","","","283.90000000037253","","","10","20349","3178","&#9776;","elianto","#3366ff99"," "," ","1","+10","[1134.199999999255]","1","0","1","","","","","","","",""
"pit-trial","32","387959","0.0-2.0-8.2-2.2","battery-v0.2","","""event"",""trial"",""time""
""fullscreenenter"",""1"",""3210""
","
","
","""event"",""trial"",""time""
""fullscreenenter"",""1"",""3210""
","
","","","231.2000000011176","","","10","20349","3178","&#9776;","elianto","#3366ff99"," "," ","1","+10","[1081.4000000003725]","1","0","1","","","","","","","",""
"pit-trial","33","391206","0.0-2.0-8.2-3.2","battery-v0.2","","""event"",""trial"",""time""
""fullscreenenter"",""1"",""3210""
","
","
","""event"",""trial"",""time""
""fullscreenenter"",""1"",""3210""
","
","","","392","","","10","20349","3178","&#9776;","elianto","#3366ff99"," "," ","1","0","[1243.9000000003725]","1","0","1","","","","","","","",""
"pit-trial","34","394874","0.0-2.0-8.2-4.2","battery-v0.2","","""event"",""trial"",""time""
""fullscreenenter"",""1"",""3210""
","
","
","""event"",""trial"",""time""
""fullscreenenter"",""1"",""3210""
","
","","","812.4000000003725","","","10","20349","3178","&#9776;","elianto","#3366ff99"," "," ","1","+10","[1663.7999999988824]","1","0","1","","","","","","","",""
"call-function","35","394876","0.0-2.0-9.0","battery-v0.2","","""event"",""trial"",""time""
""fullscreenenter"",""1"",""3210""
","
","
","""event"",""trial"",""time""
""fullscreenenter"",""1"",""3210""
","
","","","","","","","","","","","","","","","","","","","","","","","","","","",""
"pit-instructions","36","441900","0.0-2.0-10.0","battery-v0.2","","""event"",""trial"",""time""
""fullscreenenter"",""1"",""3210""
","
","
","""event"",""trial"",""time""
""fullscreenenter"",""1"",""3210""
","
","","[{""page_index"":0,""viewing_time"":7503.0999999996275},{""page_index"":1,""viewing_time"":10059.900000000373},{""page_index"":2,""viewing_time"":10178.799999998882},{""page_index"":3,""viewing_time"":10459.60000000149},{""page_index"":4,""viewing_time"":8820.299999998882}]","47022.29999999888","","","","","","","","","","","","","","","","","","","","","","","",""
"pit-trial","37","446550","0.0-2.0-11.0-0.0","battery-v0.2","","""event"",""trial"",""time""
""fullscreenenter"",""1"",""3210""
","
","
","""event"",""trial"",""time""
""fullscreenenter"",""1"",""3210""
","
","","","1794.2000000011176","","","10","20349","3178","&#9761;","elianto","#3366ff99","-1"," ","0","0","[2644.300000000745]","1","0","2","","","","","","","",""
"pit-trial","38","451404","0.0-2.0-11.0-1.0","battery-v0.2","","""event"",""trial"",""time""
""fullscreenenter"",""1"",""3210""
","
","
","""event"",""trial"",""time""
""fullscreenenter"",""1"",""3210""
","
","","","-1","","","10","20349","3178","&#9761;","elianto","#3366ff99","-1","-1","1","+10","[]","0","0","2","","","","","","","",""
"pit-trial","39","454666","0.0-2.0-11.0-2.0","battery-v0.2","","""event"",""trial"",""time""
""fullscreenenter"",""1"",""3210""
","
","
","""event"",""trial"",""time""
""fullscreenenter"",""1"",""3210""
","
","","","409.40000000037253","","","10","20349","3178","&#9761;","elianto","#3366ff99","-1"," ","0","0","[1259.6000000014901]","1","0","2","","","","","","","",""
"pit-trial","40","457948","0.0-2.0-11.0-3.0","battery-v0.2","","""event"",""trial"",""time""
""fullscreenenter"",""1"",""3210""
","
","
","""event"",""trial"",""time""
""fullscreenenter"",""1"",""3210""
","
","","","427.90000000037253","","","10","20349","3178","&#9761;","elianto","#3366ff99","-1"," ","0","+10","[1278.0999999996275]","1","0","2","","","","","","","",""
"pit-trial","41","462801","0.0-2.0-11.0-4.0","battery-v0.2","","""event"",""trial"",""time""
""fullscreenenter"",""1"",""3210""
","
","
","""event"",""trial"",""time""
""fullscreenenter"",""1"",""3210""
","
","","","-1","","","10","20349","3178","&#9761;","elianto","#3366ff99","-1","-1","1","+10","[]","0","0","2","","","","","","","",""
"pit-trial","42","466152","0.0-2.0-11.1-0.1","battery-v0.2","","""event"",""trial"",""time""
""fullscreenenter"",""1"",""3210""
","
","
","""event"",""trial"",""time""
""fullscreenenter"",""1"",""3210""
","
","","","495.7000000011176","","","10","20349","3178","&#9761;","elianto","#3366ff99","-1"," ","0","0","[1346]","1","0","2","","","","","","","",""
"pit-trial","43","471006","0.0-2.0-11.1-1.1","battery-v0.2","","""event"",""trial"",""time""
""fullscreenenter"",""1"",""3210""
","
","
","""event"",""trial"",""time""
""fullscreenenter"",""1"",""3210""
","
","","","-1","","","10","20349","3178","&#9761;","elianto","#3366ff99","-1","-1","1","+10","[]","0","0","2","","","","","","","",""
"pit-trial","44","475860","0.0-2.0-11.1-2.1","battery-v0.2","","""event"",""trial"",""time""
""fullscreenenter"",""1"",""3210""
","
","
","""event"",""trial"",""time""
""fullscreenenter"",""1"",""3210""
","
","","","-1","","","10","20349","3178","&#9761;","elianto","#3366ff99","-1","-1","1","+10","[]","0","0","2","","","","","","","",""
"pit-trial","45","478933","0.0-2.0-11.1-3.1","battery-v0.2","","""event"",""trial"",""time""
""fullscreenenter"",""1"",""3210""
","
","
","""event"",""trial"",""time""
""fullscreenenter"",""1"",""3210""
","
","","","219","","","10","20349","3178","&#9761;","elianto","#3366ff99","-1"," ","0","+10","[1069.199999999255,2133.699999999255]","2","0","2","","","","","","","",""
"pit-trial","46","482343","0.0-2.0-11.1-4.1","battery-v0.2","","""event"",""trial"",""time""
""fullscreenenter"",""1"",""3210""
","
","
","""event"",""trial"",""time""
""fullscreenenter"",""1"",""3210""
","
","","","556.7999999988824","","","10","20349","3178","&#9761;","elianto","#3366ff99","-1"," ","0","0","[1407,2262.4000000003725,2517,2807.7000000011176,3080.2000000011176]","5","0","2","","","","","","","",""
"pit-trial","47","485353","0.0-2.0-11.2-0.2","battery-v0.2","","""event"",""trial"",""time""
""fullscreenenter"",""1"",""3210""
","
","
","""event"",""trial"",""time""
""fullscreenenter"",""1"",""3210""
","
","","","155.2999999988824","","","10","20349","3178","&#9761;","elianto","#3366ff99","-1"," ","0","0","[1005.3000000007451]","1","0","2","","","","","","","",""
"pit-trial","48","488567","0.0-2.0-11.2-1.2","battery-v0.2","","""event"",""trial"",""time""
""fullscreenenter"",""1"",""3210""
","
","
","""event"",""trial"",""time""
""fullscreenenter"",""1"",""3210""
","
","","","360","","","10","20349","3178","&#9761;","elianto","#3366ff99","-1"," ","0","0","[30,1210]","2","0","2","","","","","","","",""
"pit-trial","49","492050","0.0-2.0-11.2-2.2","battery-v0.2","","""event"",""trial"",""time""
""fullscreenenter"",""1"",""3210""
","
","
","""event"",""trial"",""time""
""fullscreenenter"",""1"",""3210""
","
","","","629.0999999996275","","","10","20349","3178","&#9761;","elianto","#3366ff99","-1"," ","0","0","[1479.0999999996275]","1","0","2","","","","","","","",""
"pit-trial","50","495350","0.0-2.0-11.2-3.2","battery-v0.2","","""event"",""trial"",""time""
""fullscreenenter"",""1"",""3210""
","
","
","""event"",""trial"",""time""
""fullscreenenter"",""1"",""3210""
","
","","","446.80000000074506","","","10","20349","3178","&#9761;","elianto","#3366ff99","-1"," ","0","+10","[1296.699999999255]","1","0","2","","","","","","","",""
"pit-trial","51","500204","0.0-2.0-11.2-4.2","battery-v0.2","","""event"",""trial"",""time""
""fullscreenenter"",""1"",""3210""
","
","
","""event"",""trial"",""time""
""fullscreenenter"",""1"",""3210""
","
","","","-1","","","10","20349","3178","&#9761;","elianto","#3366ff99","-1","-1","1","+10","[3330.9000000003725,4694]","2","0","2","","","","","","","",""
"pit-trial","52","503707","0.0-2.0-11.3-0.3","battery-v0.2","","""event"",""trial"",""time""
""fullscreenenter"",""1"",""3210""
","
","
","""event"",""trial"",""time""
""fullscreenenter"",""1"",""3210""
","
","","","649.0999999996275","","","10","20349","3178","&#9761;","elianto","#3366ff99","-1"," ","0","0","[127.90000000037253,375.19999999925494,1499.2999999988824,2189.9000000003725,2484.4000000003725]","5","0","2","","","","","","","",""
"pit-trial","53","507729","0.0-2.0-11.3-1.3","battery-v0.2","","""event"",""trial"",""time""
""fullscreenenter"",""1"",""3210""
","
","
","""event"",""trial"",""time""
""fullscreenenter"",""1"",""3210""
","
","","","1167","","","10","20349","3178","&#9761;","elianto","#3366ff99","-1"," ","0","0","[2017]","1","0","2","","","","","","","",""
"pit-trial","54","511398","0.0-2.0-11.3-2.3","battery-v0.2","","""event"",""trial"",""time""
""fullscreenenter"",""1"",""3210""
","
","
","""event"",""trial"",""time""
""fullscreenenter"",""1"",""3210""
","
","","","814.2000000011176","","","10","20349","3178","&#9761;","elianto","#3366ff99","-1"," ","0","0","[214.7999999988824,1665.3999999985099]","2","0","2","","","","","","","",""
"pit-trial","55","514469","0.0-2.0-11.3-3.3","battery-v0.2","","""event"",""trial"",""time""
""fullscreenenter"",""1"",""3210""
","
","
","""event"",""trial"",""time""
""fullscreenenter"",""1"",""3210""
","
","","","217.2000000011176","","","10","20349","3178","&#9761;","elianto","#3366ff99","-1"," ","0","+10","[1067.2000000011176]","1","0","2","","","","","","","",""
"pit-trial","56","518835","0.0-2.0-11.3-4.3","battery-v0.2","","""event"",""trial"",""time""
""fullscreenenter"",""1"",""3210""
","
","
","""event"",""trial"",""time""
""fullscreenenter"",""1"",""3210""
","
","","","1511.5999999996275","","","10","20349","3178","&#9761;","elianto","#3366ff99","-1"," ","0","0","[2361.9000000003725,3179.800000000745]","2","0","2","","","","","","","",""
"call-function","57","518839","0.0-2.0-12.0","battery-v0.2","","""event"",""trial"",""time""
""fullscreenenter"",""1"",""3210""
","
","
","""event"",""trial"",""time""
""fullscreenenter"",""1"",""3210""
","
","","","","","","","","","","","","","","","","","","","","","","","","","","",""
"pit-instructions","58","558290","0.0-2.0-13.0","battery-v0.2","","""event"",""trial"",""time""
""fullscreenenter"",""1"",""3210""
","
","
","""event"",""trial"",""time""
""fullscreenenter"",""1"",""3210""
","
","","[{""page_index"":0,""viewing_time"":7558.699999999255},{""page_index"":1,""viewing_time"":9412.699999999255},{""page_index"":2,""viewing_time"":4468.9000000003725},{""page_index"":3,""viewing_time"":13236.200000001118},{""page_index"":4,""viewing_time"":4772.0999999996275}]","39450.39999999851","","","","","","","","","","","","","","","","","","","","","","","",""
"pit-trial","59","562321","0.0-2.0-14.0-0.0","battery-v0.2","","""event"",""trial"",""time""
""fullscreenenter"",""1"",""3210""
","
","
","""event"",""trial"",""time""
""fullscreenenter"",""1"",""3210""
","
","","","1176.199999999255","","","10","20349","3178","&#9826;","elianto","#f73b6a7A","-1"," ","0","-10","[2026.199999999255,3652]","2","0","3","","","","","","","",""
"pit-trial","60","567174","0.0-2.0-14.0-1.0","battery-v0.2","","""event"",""trial"",""time""
""fullscreenenter"",""1"",""3210""
","
","
","""event"",""trial"",""time""
""fullscreenenter"",""1"",""3210""
","
","","","-1","","","10","20349","3178","&#9826;","elianto","#f73b6a7A","-1","-1","1","0","[]","0","0","3","","","","","","","",""
"pit-trial","61","570450","0.0-2.0-14.0-2.0","battery-v0.2","","""event"",""trial"",""time""
""fullscreenenter"",""1"",""3210""
","
","
","""event"",""trial"",""time""
""fullscreenenter"",""1"",""3210""
","
","","","422.90000000037253","","","10","20349","3178","&#9826;","elianto","#f73b6a7A","-1"," ","0","-10","[1272.5999999996275]","1","0","3","","","","","","","",""
"pit-trial","62","573554","0.0-2.0-14.0-3.0","battery-v0.2","","""event"",""trial"",""time""
""fullscreenenter"",""1"",""3210""
","
","
","""event"",""trial"",""time""
""fullscreenenter"",""1"",""3210""
","
","","","248.89999999850988","","","10","20349","3178","&#9826;","elianto","#f73b6a7A","-1"," ","0","0","[1099.0999999996275]","1","0","3","","","","","","","",""
"pit-trial","63","578408","0.0-2.0-14.0-4.0","battery-v0.2","","""event"",""trial"",""time""
""fullscreenenter"",""1"",""3210""
","
","
","""event"",""trial"",""time""
""fullscreenenter"",""1"",""3210""
","
","","","-1","","","10","20349","3178","&#9826;","elianto","#f73b6a7A","-1","-1","1","0","[334.2000000011176]","1","0","3","","","","","","","",""
"pit-trial","64","583033","0.0-2.0-14.1-0.1","battery-v0.2","","""event"",""trial"",""time""
""fullscreenenter"",""1"",""3210""
","
","
","""event"",""trial"",""time""
""fullscreenenter"",""1"",""3210""
","
","","","1769","","","10","20349","3178","&#9826;","elianto","#f73b6a7A","-1"," ","0","-10","[2619.2999999988824]","1","0","3","","","","","","","",""
"pit-trial","65","586059","0.0-2.0-14.1-1.1","battery-v0.2","","""event"",""trial"",""time""
""fullscreenenter"",""1"",""3210""
","
","
","""event"",""trial"",""time""
""fullscreenenter"",""1"",""3210""
","
","","","170.80000000074506","","","10","20349","3178","&#9826;","elianto","#f73b6a7A","-1"," ","0","-10","[1022.6000000014901]","1","0","3","","","","","","","",""
"pit-trial","66","589183","0.0-2.0-14.1-2.1","battery-v0.2","","""event"",""trial"",""time""
""fullscreenenter"",""1"",""3210""
","
","
","""event"",""trial"",""time""
""fullscreenenter"",""1"",""3210""
","
","","","271.5","","","10","20349","3178","&#9826;","elianto","#f73b6a7A","-1"," ","0","-10","[1121.9000000003725]","1","0","3","","","","","","","",""
"pit-trial","67","592421","0.0-2.0-14.1-3.1","battery-v0.2","","""event"",""trial"",""time""
""fullscreenenter"",""1"",""3210""
","
","
","""event"",""trial"",""time""
""fullscreenenter"",""1"",""3210""
","
","","","385.69999999925494","","","10","20349","3178","&#9826;","elianto","#f73b6a7A","-1"," ","0","0","[1235.800000000745]","1","0","3","","","","","","","",""
"pit-trial","68","595500","0.0-2.0-14.1-4.1","battery-v0.2","","""event"",""trial"",""time""
""fullscreenenter"",""1"",""3210""
","
","
","""event"",""trial"",""time""
""fullscreenenter"",""1"",""3210""
","
","","","224.30000000074506","","","10","20349","3178","&#9826;","elianto","#f73b6a7A","-1"," ","0","-10","[1074.5,1632]","2","0","3","","","","","","","",""
"pit-trial","69","598480","0.0-2.0-14.2-0.2","battery-v0.2","","""event"",""trial"",""time""
""fullscreenenter"",""1"",""3210""
","
","
","""event"",""trial"",""time""
""fullscreenenter"",""1"",""3210""
","
","","","126.30000000074506","","","10","20349","3178","&#9826;","elianto","#f73b6a7A","-1"," ","0","-10","[976.5,2754.699999999255]","2","0","3","","","","","","","",""
"pit-trial","70","601872","0.0-2.0-14.2-1.2","battery-v0.2","","""event"",""trial"",""time""
""fullscreenenter"",""1"",""3210""
","
","
","""event"",""trial"",""time""
""fullscreenenter"",""1"",""3210""
","
","","","538.0999999996275","","","10","20349","3178","&#9826;","elianto","#f73b6a7A","-1"," ","0","-10","[1388.3999999985099]","1","0","3","","","","","","","",""
"pit-trial","71","605190","0.0-2.0-14.2-2.2","battery-v0.2","","""event"",""trial"",""time""
""fullscreenenter"",""1"",""3210""
","
","
","""event"",""trial"",""time""
""fullscreenenter"",""1"",""3210""
","
","","","464.8999999985099","","","10","20349","3178","&#9826;","elianto","#f73b6a7A","-1"," ","0","-10","[1315.2999999988824]","1","0","3","","","","","","","",""
"pit-trial","72","608467","0.0-2.0-14.2-3.2","battery-v0.2","","""event"",""trial"",""time""
""fullscreenenter"",""1"",""3210""
","
","
","""event"",""trial"",""time""
""fullscreenenter"",""1"",""3210""
","
","","","423.5","","","10","20349","3178","&#9826;","elianto","#f73b6a7A","-1"," ","0","0","[1273.6000000014901]","1","0","3","","","","","","","",""
"pit-trial","73","612852","0.0-2.0-14.2-4.2","battery-v0.2","","""event"",""trial"",""time""
""fullscreenenter"",""1"",""3210""
","
","
","""event"",""trial"",""time""
""fullscreenenter"",""1"",""3210""
","
","","","1532.0999999996275","","","10","20349","3178","&#9826;","elianto","#f73b6a7A","-1"," ","0","-10","[2382.2999999988824]","1","0","3","","","","","","","",""
"pit-trial","74","617707","0.0-2.0-14.3-0.3","battery-v0.2","","""event"",""trial"",""time""
""fullscreenenter"",""1"",""3210""
","
","
","""event"",""trial"",""time""
""fullscreenenter"",""1"",""3210""
","
","","","-1","","","10","20349","3178","&#9826;","elianto","#f73b6a7A","-1","-1","1","0","[775.5,3940.5999999996275]","2","0","3","","","","","","","",""
"pit-trial","75","621238","0.0-2.0-14.3-1.3","battery-v0.2","","""event"",""trial"",""time""
""fullscreenenter"",""1"",""3210""
","
","
","""event"",""trial"",""time""
""fullscreenenter"",""1"",""3210""
","
","","","677.5","","","10","20349","3178","&#9826;","elianto","#f73b6a7A","-1"," ","0","-10","[1527.7000000011176]","1","0","3","","","","","","","",""
"pit-trial","76","624547","0.0-2.0-14.3-2.3","battery-v0.2","","""event"",""trial"",""time""
""fullscreenenter"",""1"",""3210""
","
","
","""event"",""trial"",""time""
""fullscreenenter"",""1"",""3210""
","
","","","454.90000000037253","","","10","20349","3178","&#9826;","elianto","#f73b6a7A","-1"," ","0","-10","[796,1307]","2","0","3","","","","","","","",""
"pit-trial","77","628226","0.0-2.0-14.3-3.3","battery-v0.2","","""event"",""trial"",""time""
""fullscreenenter"",""1"",""3210""
","
","
","""event"",""trial"",""time""
""fullscreenenter"",""1"",""3210""
","
","","","822.6999999992549","","","10","20349","3178","&#9826;","elianto","#f73b6a7A","-1"," ","0","0","[1675.199999999255]","1","0","3","","","","","","","",""
"pit-trial","78","631378","0.0-2.0-14.3-4.3","battery-v0.2","","""event"",""trial"",""time""
""fullscreenenter"",""1"",""3210""
","
","
","""event"",""trial"",""time""
""fullscreenenter"",""1"",""3210""
","
","","","298.8999999985099","","","10","20349","3178","&#9826;","elianto","#f73b6a7A","-1"," ","0","-10","[1149]","1","0","3","","","","","","","",""
"call-function","79","631380","0.0-2.0-15.0","battery-v0.2","","""event"",""trial"",""time""
""fullscreenenter"",""1"",""3210""
","
","
","""event"",""trial"",""time""
""fullscreenenter"",""1"",""3210""
","
","","","","","","","","","","","","","","","","","","","","","","","","","","",""
"pit-instructions","80","680069","0.0-2.0-16.0","battery-v0.2","","""event"",""trial"",""time""
""fullscreenenter"",""1"",""3210""
","
","
","""event"",""trial"",""time""
""fullscreenenter"",""1"",""3210""
","
","","[{""page_index"":0,""viewing_time"":8881.299999998882},{""page_index"":1,""viewing_time"":22622.200000001118},{""page_index"":2,""viewing_time"":6243.699999999255},{""page_index"":3,""viewing_time"":10940.599999999627}]","48688.40000000037","","","","","","","","","","","","","","","","","","","","","","","",""
"pit-trial","81","684924","0.0-2.0-17.0-0.0","battery-v0.2","","""event"",""trial"",""time""
""fullscreenenter"",""1"",""3210""
","
","
","""event"",""trial"",""time""
""fullscreenenter"",""1"",""3210""
","
","","","-1","","","10","20349","3178","&#9789;","elianto","#f73b6a7A"," ","-1","0","-10","[]","0","0","4","","","","","","","",""
"pit-trial","82","688418","0.0-2.0-17.0-1.0","battery-v0.2","","""event"",""trial"",""time""
""fullscreenenter"",""1"",""3210""
","
","
","""event"",""trial"",""time""
""fullscreenenter"",""1"",""3210""
","
","","","640.5","","","10","20349","3178","&#9789;","elianto","#f73b6a7A"," "," ","1","0","[1490.7000000011176]","1","0","4","","","","","","","",""
"pit-trial","83","693273","0.0-2.0-17.0-2.0","battery-v0.2","","""event"",""trial"",""time""
""fullscreenenter"",""1"",""3210""
","
","
","""event"",""trial"",""time""
""fullscreenenter"",""1"",""3210""
","
","","","-1","","","10","20349","3178","&#9789;","elianto","#f73b6a7A"," ","-1","0","-10","[]","0","0","4","","","","","","","",""
"pit-trial","84","696467","0.0-2.0-17.0-3.0","battery-v0.2","","""event"",""trial"",""time""
""fullscreenenter"",""1"",""3210""
","
","
","""event"",""trial"",""time""
""fullscreenenter"",""1"",""3210""
","
","","","340.7000000011176","","","10","20349","3178","&#9789;","elianto","#f73b6a7A"," "," ","1","-10","[1191.2000000011176]","1","0","4","","","","","","","",""
"pit-trial","85","701321","0.0-2.0-17.0-4.0","battery-v0.2","","""event"",""trial"",""time""
""fullscreenenter"",""1"",""3210""
","
","
","""event"",""trial"",""time""
""fullscreenenter"",""1"",""3210""
","
","","","-1","","","10","20349","3178","&#9789;","elianto","#f73b6a7A"," ","-1","0","-10","[]","0","0","4","","","","","","","",""
"pit-trial","86","706176","0.0-2.0-17.1-0.1","battery-v0.2","","""event"",""trial"",""time""
""fullscreenenter"",""1"",""3210""
","
","
","""event"",""trial"",""time""
""fullscreenenter"",""1"",""3210""
","
","","","-1","","","10","20349","3178","&#9789;","elianto","#f73b6a7A"," ","-1","0","-10","[]","0","0","4","","","","","","","",""
"pit-trial","87","711030","0.0-2.0-17.1-1.1","battery-v0.2","","""event"",""trial"",""time""
""fullscreenenter"",""1"",""3210""
","
","
","""event"",""trial"",""time""
""fullscreenenter"",""1"",""3210""
","
","","","-1","","","10","20349","3178","&#9789;","elianto","#f73b6a7A"," ","-1","0","-10","[]","0","0","4","","","","","","","",""
"pit-trial","88","715884","0.0-2.0-17.1-2.1","battery-v0.2","","""event"",""trial"",""time""
""fullscreenenter"",""1"",""3210""
","
","
","""event"",""trial"",""time""
""fullscreenenter"",""1"",""3210""
","
","","","-1","","","10","20349","3178","&#9789;","elianto","#f73b6a7A"," ","-1","0","-10","[]","0","0","4","","","","","","","",""
"pit-trial","89","720738","0.0-2.0-17.1-3.1","battery-v0.2","","""event"",""trial"",""time""
""fullscreenenter"",""1"",""3210""
","
","
","""event"",""trial"",""time""
""fullscreenenter"",""1"",""3210""
","
","","","-1","","","10","20349","3178","&#9789;","elianto","#f73b6a7A"," ","-1","0","0","[]","0","0","4","","","","","","","",""
"pit-trial","90","725591","0.0-2.0-17.1-4.1","battery-v0.2","","""event"",""trial"",""time""
""fullscreenenter"",""1"",""3210""
","
","
","""event"",""trial"",""time""
""fullscreenenter"",""1"",""3210""
","
","","","-1","","","10","20349","3178","&#9789;","elianto","#f73b6a7A"," ","-1","0","-10","[]","0","0","4","","","","","","","",""
"pit-trial","91","730446","0.0-2.0-17.2-0.2","battery-v0.2","","""event"",""trial"",""time""
""fullscreenenter"",""1"",""3210""
","
","
","""event"",""trial"",""time""
""fullscreenenter"",""1"",""3210""
","
","","","-1","","","10","20349","3178","&#9789;","elianto","#f73b6a7A"," ","-1","0","-10","[]","0","0","4","","","","","","","",""
"pit-trial","92","735300","0.0-2.0-17.2-1.2","battery-v0.2","","""event"",""trial"",""time""
""fullscreenenter"",""1"",""3210""
","
","
","""event"",""trial"",""time""
""fullscreenenter"",""1"",""3210""
","
","","","-1","","","10","20349","3178","&#9789;","elianto","#f73b6a7A"," ","-1","0","-10","[]","0","0","4","","","","","","","",""
"pit-trial","93","740154","0.0-2.0-17.2-2.2","battery-v0.2","","""event"",""trial"",""time""
""fullscreenenter"",""1"",""3210""
","
","
","""event"",""trial"",""time""
""fullscreenenter"",""1"",""3210""
","
","","","-1","","","10","20349","3178","&#9789;","elianto","#f73b6a7A"," ","-1","0","-10","[]","0","0","4","","","","","","","",""
"pit-trial","94","745008","0.0-2.0-17.2-3.2","battery-v0.2","","""event"",""trial"",""time""
""fullscreenenter"",""1"",""3210""
","
","
","""event"",""trial"",""time""
""fullscreenenter"",""1"",""3210""
","
","","","-1","","","10","20349","3178","&#9789;","elianto","#f73b6a7A"," ","-1","0","0","[]","0","0","4","","","","","","","",""
"pit-trial","95","749862","0.0-2.0-17.2-4.2","battery-v0.2","","""event"",""trial"",""time""
""fullscreenenter"",""1"",""3210""
","
","
","""event"",""trial"",""time""
""fullscreenenter"",""1"",""3210""
","
","","","-1","","","10","20349","3178","&#9789;","elianto","#f73b6a7A"," ","-1","0","-10","[]","0","0","4","","","","","","","",""
"pit-trial","96","754717","0.0-2.0-17.3-0.3","battery-v0.2","","""event"",""trial"",""time""
""fullscreenenter"",""1"",""3210""
","
","
","""event"",""trial"",""time""
""fullscreenenter"",""1"",""3210""
","
","","","-1","","","10","20349","3178","&#9789;","elianto","#f73b6a7A"," ","-1","0","-10","[]","0","0","4","","","","","","","",""
"pit-trial","97","759571","0.0-2.0-17.3-1.3","battery-v0.2","","""event"",""trial"",""time""
""fullscreenenter"",""1"",""3210""
","
","
","""event"",""trial"",""time""
""fullscreenenter"",""1"",""3210""
","
","","","-1","","","10","20349","3178","&#9789;","elianto","#f73b6a7A"," ","-1","0","-10","[]","0","0","4","","","","","","","",""
"pit-trial","98","764424","0.0-2.0-17.3-2.3","battery-v0.2","","""event"",""trial"",""time""
""fullscreenenter"",""1"",""3210""
","
","
","""event"",""trial"",""time""
""fullscreenenter"",""1"",""3210""
","
","","","-1","","","10","20349","3178","&#9789;","elianto","#f73b6a7A"," ","-1","0","-10","[]","0","0","4","","","","","","","",""
"pit-trial","99","769278","0.0-2.0-17.3-3.3","battery-v0.2","","""event"",""trial"",""time""
""fullscreenenter"",""1"",""3210""
","
","
","""event"",""trial"",""time""
""fullscreenenter"",""1"",""3210""
","
","","","-1","","","10","20349","3178","&#9789;","elianto","#f73b6a7A"," ","-1","0","0","[]","0","0","4","","","","","","","",""
"pit-trial","100","774132","0.0-2.0-17.3-4.3","battery-v0.2","","""event"",""trial"",""time""
""fullscreenenter"",""1"",""3210""
","
","
","""event"",""trial"",""time""
""fullscreenenter"",""1"",""3210""
","
","","","-1","","","10","20349","3178","&#9789;","elianto","#f73b6a7A"," ","-1","0","-10","[]","0","0","4","","","","","","","",""
"call-function","101","774134","0.0-2.0-18.0","battery-v0.2","","""event"",""trial"",""time""
""fullscreenenter"",""1"",""3210""
","
","
","""event"",""trial"",""time""
""fullscreenenter"",""1"",""3210""
","
","","","","","","","","","","","","","","","","","","","","","","","","","","",""
"pit-instructions","102","870907","0.0-2.0-19.0","battery-v0.2","","""event"",""trial"",""time""
""fullscreenenter"",""1"",""3210""
","
","
","""event"",""trial"",""time""
""fullscreenenter"",""1"",""3210""
","
","","[{""page_index"":0,""viewing_time"":7002},{""page_index"":1,""viewing_time"":10347.099999999627},{""page_index"":2,""viewing_time"":16223.900000000373},{""page_index"":3,""viewing_time"":13610.5},{""page_index"":4,""viewing_time"":12714.400000000373},{""page_index"":5,""viewing_time"":8364.300000000745},{""page_index"":6,""viewing_time"":15178.599999999627},{""page_index"":7,""viewing_time"":8091.199999999255},{""page_index"":8,""viewing_time"":5239.0999999996275}]","96772","","","","","","","","","","","","","","","","","","","","","","","",""
"pit-comprehension","103","877465","0.0-2.0-20.0-0.0","battery-v0.2","","""event"",""trial"",""time""
""fullscreenenter"",""1"",""3210""
","
","
","""event"",""trial"",""time""
""fullscreenenter"",""1"",""3210""
","
","","","6551.300000000745","[""SPACE""]","0","10","20349","3178","","","","","","","","","","","","","","","","","","",""
"pit-instructions","104","880471","0.0-2.0-20.0-1.0","battery-v0.2","","""event"",""trial"",""time""
""fullscreenenter"",""1"",""3210""
","
","
","""event"",""trial"",""time""
""fullscreenenter"",""1"",""3210""
","
","","[{""page_index"":0,""viewing_time"":2962.7000000011176}]","2963.4000000003725","","","","","","","","","","","","","","","","","","","","","","","",""
"pit-comprehension","105","890076","0.0-2.0-21.0-0.0","battery-v0.2","","""event"",""trial"",""time""
""fullscreenenter"",""1"",""3210""
","
","
","""event"",""trial"",""time""
""fullscreenenter"",""1"",""3210""
","
","","","9594.89999999851","[""10""]","0","10","20349","3178","","","","","","","","","","","","","","","","","","",""
"pit-instructions","106","891841","0.0-2.0-21.0-1.0","battery-v0.2","","""event"",""trial"",""time""
""fullscreenenter"",""1"",""3210""
","
","
","""event"",""trial"",""time""
""fullscreenenter"",""1"",""3210""
","
","","[{""page_index"":0,""viewing_time"":1730.9000000003725}]","1731.5999999996275","","","","","","","","","","","","","","","","","","","","","","","",""
"pit-comprehension","107","904574","0.0-2.0-22.0-0.0","battery-v0.2","","""event"",""trial"",""time""
""fullscreenenter"",""1"",""3210""
","
","
","""event"",""trial"",""time""
""fullscreenenter"",""1"",""3210""
","
","","","12725.199999999255","[""-10""]","1","10","20349","3178","","","","","","","","","","","","","","","","","","",""
"pit-instructions","108","911400","0.0-2.0-22.0-1.0","battery-v0.2","","""event"",""trial"",""time""
""fullscreenenter"",""1"",""3210""
","
","
","""event"",""trial"",""time""
""fullscreenenter"",""1"",""3210""
","
","","[{""page_index"":0,""viewing_time"":6781.0999999996275}]","6782.0999999996275","","","","","","","","","","","","","","","","","","","","","","","",""
"pit-instructions","109","915255","0.0-2.0-22.0-2.0-0.0","battery-v0.2","","""event"",""trial"",""time""
""fullscreenenter"",""1"",""3210""
","
","
","""event"",""trial"",""time""
""fullscreenenter"",""1"",""3210""
","
","","[{""page_index"":0,""viewing_time"":3850.10000000149}]","3851","","","","","","","","","","","","","","","","","","","","","","","",""
"pit-comprehension","110","925179","0.0-2.0-22.1-0.1","battery-v0.2","","""event"",""trial"",""time""
""fullscreenenter"",""1"",""3210""
","
","
","""event"",""trial"",""time""
""fullscreenenter"",""1"",""3210""
","
","","","9917.699999999255","[""0""]","0","10","20349","3178","","","","","","","","","","","","","","","","","","",""
"pit-instructions","111","926818","0.0-2.0-22.1-1.1","battery-v0.2","","""event"",""trial"",""time""
""fullscreenenter"",""1"",""3210""
","
","
","""event"",""trial"",""time""
""fullscreenenter"",""1"",""3210""
","
","","[{""page_index"":0,""viewing_time"":1585.4000000003725}]","1586.5999999996275","","","","","","","","","","","","","","","","","","","","","","","",""
"pit-comprehension","112","938646","0.0-2.0-23.0-0.0","battery-v0.2","","""event"",""trial"",""time""
""fullscreenenter"",""1"",""3210""
","
","
","""event"",""trial"",""time""
""fullscreenenter"",""1"",""3210""
","
","","","11821.39999999851","[""True""]","0","10","20349","3178","","","","","","","","","","","","","","","","","","",""
"pit-instructions","113","941251","0.0-2.0-23.0-1.0","battery-v0.2","","""event"",""trial"",""time""
""fullscreenenter"",""1"",""3210""
","
","
","""event"",""trial"",""time""
""fullscreenenter"",""1"",""3210""
","
","","[{""page_index"":0,""viewing_time"":2555.9000000003725}]","2556.800000000745","","","","","","","","","","","","","","","","","","","","","","","",""
"pit-comprehension","114","958422","0.0-2.0-24.0-0.0","battery-v0.2","","""event"",""trial"",""time""
""fullscreenenter"",""1"",""3210""
","
","
","""event"",""trial"",""time""
""fullscreenenter"",""1"",""3210""
","
","","","17162.89999999851","[""True""]","0","10","20349","3178","","","","","","","","","","","","","","","","","","",""
"pit-instructions","115","959594","0.0-2.0-24.0-1.0","battery-v0.2","","""event"",""trial"",""time""
""fullscreenenter"",""1"",""3210""
","
","
","""event"",""trial"",""time""
""fullscreenenter"",""1"",""3210""
","
","","[{""page_index"":0,""viewing_time"":1112.699999999255}]","1113","","","","","","","","","","","","","","","","","","","","","","","",""
"pit-comprehension","116","970617","0.0-2.0-25.0-0.0","battery-v0.2","","""event"",""trial"",""time""
""fullscreenenter"",""1"",""3210""
","
","
","""event"",""trial"",""time""
""fullscreenenter"",""1"",""3210""
","
","","","11019.299999998882","[""True""]","0","10","20349","3178","","","","","","","","","","","","","","","","","","",""
"pit-instructions","117","972222","0.0-2.0-25.0-1.0","battery-v0.2","","""event"",""trial"",""time""
""fullscreenenter"",""1"",""3210""
","
","
","""event"",""trial"",""time""
""fullscreenenter"",""1"",""3210""
","
","","[{""page_index"":0,""viewing_time"":1553.800000000745}]","1554.800000000745","","","","","","","","","","","","","","","","","","","","","","","",""
"pit-comprehension","118","987041","0.0-2.0-26.0-0.0","battery-v0.2","","""event"",""trial"",""time""
""fullscreenenter"",""1"",""3210""
","
","
","""event"",""trial"",""time""
""fullscreenenter"",""1"",""3210""
","
","","","14812.900000000373","[""False""]","0","10","20349","3178","","","","","","","","","","","","","","","","","","",""
"pit-instructions","119","988623","0.0-2.0-26.0-1.0","battery-v0.2","","""event"",""trial"",""time""
""fullscreenenter"",""1"",""3210""
","
","
","""event"",""trial"",""time""
""fullscreenenter"",""1"",""3210""
","
","","[{""page_index"":0,""viewing_time"":1526.5}]","1527.5999999996275","","","","","","","","","","","","","","","","","","","","","","","",""
"pit-instructions","120","1007879","0.0-3.0","battery-v0.2","","""event"",""trial"",""time""
""fullscreenenter"",""1"",""3210""
","
","
","""event"",""trial"",""time""
""fullscreenenter"",""1"",""3210""
","
","","[{""page_index"":0,""viewing_time"":4744.799999998882},{""page_index"":1,""viewing_time"":6261.0999999996275},{""page_index"":2,""viewing_time"":8245.5}]","19252","","","","","","","","","","","","","","","","","","","","","","","",""
"pit-trial","121","1012284","0.0-4.0","battery-v0.2","","""event"",""trial"",""time""
""fullscreenenter"",""1"",""3210""
","
","
","""event"",""trial"",""time""
""fullscreenenter"",""1"",""3210""
","
","","","1544.4000000003725","","","10","20349","3178","&#9733;","elianto","#3366ff99","-1"," ","0","+10","[2395.5]","1","1","","","20349","1","2","2","win","no-go","1"
"pit-trial","122","1015525","0.0-5.0","battery-v0.2","","""event"",""trial"",""time""
""fullscreenenter"",""1"",""3210""
","
","
","""event"",""trial"",""time""
""fullscreenenter"",""1"",""3210""
","
","","","387.19999999925494","","","10","20349","3178","&#9728;","elianto","#f73b6a7A","-1"," ","0","-10","[1237.300000000745]","1","1","","","20349","2","0","4","lose","no-go","0"
"pit-trial","123","1020379","0.0-6.0","battery-v0.2","","""event"",""trial"",""time""
""fullscreenenter"",""1"",""3210""
","
","
","""event"",""trial"",""time""
""fullscreenenter"",""1"",""3210""
","
","","","-1","","","10","20349","3178","&#9752;","elianto","#f73b6a7A"," ","-1","0","-10","[]","0","1","","","20349","3","3","3","lose","go","0"
"pit-trial","124","1023769","0.0-7.0","battery-v0.2","","""event"",""trial"",""time""
""fullscreenenter"",""1"",""3210""
","
","
","""event"",""trial"",""time""
""fullscreenenter"",""1"",""3210""
","
","","","536.3999999985099","","","10","20349","3178","&#9730;","elianto","#3366ff99"," "," ","1","+10","[1386.699999999255]","1","1","","","20349","4","1","1","win","go","0"
"pit-trial","125","1027917","0.0-8.0","battery-v0.2","","""event"",""trial"",""time""
""fullscreenenter"",""1"",""3210""
","
","
","""event"",""trial"",""time""
""fullscreenenter"",""1"",""3210""
","
","","","1290.800000000745","","","10","20349","3178","&#9730;","elianto","#3366ff99"," "," ","1","+10","[2143.39999999851]","1","1","","","20349","5","1","1","win","go","0"
"pit-trial","126","1031299","0.0-9.0","battery-v0.2","","""event"",""trial"",""time""
""fullscreenenter"",""1"",""3210""
","
","
","""event"",""trial"",""time""
""fullscreenenter"",""1"",""3210""
","
","","","527.1999999992549","","","10","20349","3178","&#9733;","elianto","#3366ff99","-1"," ","0","+10","[1377.4000000003725]","1","1","","","20349","6","2","2","win","no-go","1"
"pit-trial","127","1036154","0.0-10.0","battery-v0.2","","""event"",""trial"",""time""
""fullscreenenter"",""1"",""3210""
","
","
","""event"",""trial"",""time""
""fullscreenenter"",""1"",""3210""
","
","","","-1","","","10","20349","3178","&#9728;","elianto","#f73b6a7A","-1","-1","1","0","[]","0","1","","","20349","7","0","4","lose","no-go","0"
"pit-trial","128","1041007","0.0-11.0","battery-v0.2","","""event"",""trial"",""time""
""fullscreenenter"",""1"",""3210""
","
","
","""event"",""trial"",""time""
""fullscreenenter"",""1"",""3210""
","
","","","-1","","","10","20349","3178","&#9752;","elianto","#f73b6a7A"," ","-1","0","-10","[]","0","1","","","20349","8","3","3","lose","go","0"
"pit-trial","129","1044361","0.0-12.0","battery-v0.2","","""event"",""trial"",""time""
""fullscreenenter"",""1"",""3210""
","
","
","""event"",""trial"",""time""
""fullscreenenter"",""1"",""3210""
","
","","","499.40000000037253","","","10","20349","3178","&#9733;","elianto","#3366ff99","-1"," ","0","0","[1349.7999999988824]","1","1","","","20349","9","2","2","win","no-go","0"
"pit-trial","130","1048082","0.0-13.0","battery-v0.2","","""event"",""trial"",""time""
""fullscreenenter"",""1"",""3210""
","
","
","""event"",""trial"",""time""
""fullscreenenter"",""1"",""3210""
","
","","","867.3000000007451","","","10","20349","3178","&#9730;","elianto","#3366ff99"," "," ","1","+10","[1717.5999999996275]","1","1","","","20349","10","1","1","win","go","0"
"pit-trial","131","1052936","0.0-14.0","battery-v0.2","","""event"",""trial"",""time""
""fullscreenenter"",""1"",""3210""
","
","
","""event"",""trial"",""time""
""fullscreenenter"",""1"",""3210""
","
","","","-1","","","10","20349","3178","&#9728;","elianto","#f73b6a7A","-1","-1","1","-10","[]","0","1","","","20349","11","0","4","lose","no-go","1"
"pit-trial","132","1057171","0.0-15.0","battery-v0.2","","""event"",""trial"",""time""
""fullscreenenter"",""1"",""3210""
","
","
","""event"",""trial"",""time""
""fullscreenenter"",""1"",""3210""
","
","","","1381.199999999255","","","10","20349","3178","&#9752;","elianto","#f73b6a7A"," "," ","1","0","[2231.4000000003725]","1","1","","","20349","12","3","3","lose","go","0"
"pit-trial","133","1062025","0.0-16.0","battery-v0.2","","""event"",""trial"",""time""
""fullscreenenter"",""1"",""3210""
","
","
","""event"",""trial"",""time""
""fullscreenenter"",""1"",""3210""
","
","","","-1","","","10","20349","3178","&#9752;","elianto","#f73b6a7A"," ","-1","0","-10","[]","0","1","","","20349","13","3","3","lose","go","0"
"pit-trial","134","1065489","0.0-17.0","battery-v0.2","","""event"",""trial"",""time""
""fullscreenenter"",""1"",""3210""
","
","
","""event"",""trial"",""time""
""fullscreenenter"",""1"",""3210""
","
","","","609.8000000007451","","","10","20349","3178","&#9733;","elianto","#3366ff99","-1"," ","0","+10","[1460]","1","1","","","20349","14","2","2","win","no-go","1"
"pit-trial","135","1069769","0.0-18.0","battery-v0.2","","""event"",""trial"",""time""
""fullscreenenter"",""1"",""3210""
","
","
","""event"",""trial"",""time""
""fullscreenenter"",""1"",""3210""
","
","","","1423.8999999985099","","","10","20349","3178","&#9730;","elianto","#3366ff99"," "," ","1","+10","[2276.0999999996275]","1","1","","","20349","15","1","1","win","go","0"
"pit-trial","136","1074623","0.0-19.0","battery-v0.2","","""event"",""trial"",""time""
""fullscreenenter"",""1"",""3210""
","
","
","""event"",""trial"",""time""
""fullscreenenter"",""1"",""3210""
","
","","","-1","","","10","20349","3178","&#9728;","elianto","#f73b6a7A","-1","-1","1","0","[]","0","1","","","20349","16","0","4","lose","no-go","0"
"pit-trial","137","1079211","0.0-20.0","battery-v0.2","","""event"",""trial"",""time""
""fullscreenenter"",""1"",""3210""
","
","
","""event"",""trial"",""time""
""fullscreenenter"",""1"",""3210""
","
","","","1733.5","","","10","20349","3178","&#9733;","elianto","#3366ff99","-1"," ","0","0","[2583.699999999255]","1","1","","","20349","17","2","2","win","no-go","0"
"pit-trial","138","1083477","0.0-21.0","battery-v0.2","","""event"",""trial"",""time""
""fullscreenenter"",""1"",""3210""
","
","
","""event"",""trial"",""time""
""fullscreenenter"",""1"",""3210""
","
","","","1412.9000000003725","","","10","20349","3178","&#9730;","elianto","#3366ff99"," "," ","1","+10","[2263.0999999996275]","1","1","","","20349","18","1","1","win","go","0"
"pit-trial","139","1088035","0.0-22.0","battery-v0.2","","""event"",""trial"",""time""
""fullscreenenter"",""1"",""3210""
","
","
","""event"",""trial"",""time""
""fullscreenenter"",""1"",""3210""
","
","","","1703.3999999985099","","","10","20349","3178","&#9752;","elianto","#f73b6a7A"," "," ","1","-10","[2553.5999999996275]","1","1","","","20349","19","3","3","lose","go","1"
"pit-trial","140","1092889","0.0-23.0","battery-v0.2","","""event"",""trial"",""time""
""fullscreenenter"",""1"",""3210""
","
","
","""event"",""trial"",""time""
""fullscreenenter"",""1"",""3210""
","
","","","-1","","","10","20349","3178","&#9728;","elianto","#f73b6a7A","-1","-1","1","0","[3526.9000000003725,4176.10000000149,4517.5,4697.5]","4","1","","","20349","20","0","4","lose","no-go","0"
"pit-instructions","141","1124253","0.0-24.0","battery-v0.2","","""event"",""trial"",""time""
""fullscreenenter"",""1"",""3210""
","
","
","""event"",""trial"",""time""
""fullscreenenter"",""1"",""3210""
","
","","[{""page_index"":0,""viewing_time"":11017.400000000373},{""page_index"":1,""viewing_time"":20343.199999999255}]","31361.599999999627","","","","","","","","","","","","","","","","","","","","","","","",""
"pit-trial","142","1128355","0.0-25.0","battery-v0.2","","""event"",""trial"",""time""
""fullscreenenter"",""1"",""3210""
","
","
","""event"",""trial"",""time""
""fullscreenenter"",""1"",""3210""
","
","","","1243","","","10","20349","3178","r","elianto","#3366ff99","-1"," ","0","0","[2093.300000000745]","1","2","","","20349","21","1","2","win","no-go","0"
"pit-trial","143","1133209","0.0-26.0","battery-v0.2","","""event"",""trial"",""time""
""fullscreenenter"",""1"",""3210""
","
","
","""event"",""trial"",""time""
""fullscreenenter"",""1"",""3210""
","
","","","-1","","","10","20349","3178","y","elianto","#f73b6a7A"," ","-1","0","-10","[]","0","2","","","20349","22","2","3","lose","go","0"
"pit-trial","144","1138063","0.0-27.0","battery-v0.2","","""event"",""trial"",""time""
""fullscreenenter"",""1"",""3210""
","
","
","""event"",""trial"",""time""
""fullscreenenter"",""1"",""3210""
","
","","","-1","","","10","20349","3178","h","elianto","#f73b6a7A","-1","-1","1","0","[3719.7000000011176]","1","2","","","20349","23","3","4","lose","no-go","0"
"pit-trial","145","1142917","0.0-28.0","battery-v0.2","","""event"",""trial"",""time""
""fullscreenenter"",""1"",""3210""
","
","
","""event"",""trial"",""time""
""fullscreenenter"",""1"",""3210""
","
","","","-1","","","10","20349","3178","m","elianto","#f73b6a7A"," ","-1","0","-10","[41.09999999962747,316.59999999962747,3150.0999999996275]","3","2","","","20349","24","0","3","lose","go","0"
"pit-trial","146","1147159","0.0-29.0","battery-v0.2","","""event"",""trial"",""time""
""fullscreenenter"",""1"",""3210""
","
","
","""event"",""trial"",""time""
""fullscreenenter"",""1"",""3210""
","
","","","1388.4000000003725","","","10","20349","3178","r","elianto","#3366ff99","-1"," ","0","+10","[2238.300000000745]","1","2","","","20349","25","1","2","win","no-go","1"
"pit-trial","147","1152012","0.0-30.0","battery-v0.2","","""event"",""trial"",""time""
""fullscreenenter"",""1"",""3210""
","
","
","""event"",""trial"",""time""
""fullscreenenter"",""1"",""3210""
","
","","","-1","","","10","20349","3178","m","elianto","#f73b6a7A"," ","-1","0","-10","[3102.9000000003725]","1","2","","","20349","26","0","3","lose","go","0"
"pit-trial","148","1156866","0.0-31.0","battery-v0.2","","""event"",""trial"",""time""
""fullscreenenter"",""1"",""3210""
","
","
","""event"",""trial"",""time""
""fullscreenenter"",""1"",""3210""
","
","","","-1","","","10","20349","3178","h","elianto","#f73b6a7A","-1","-1","1","0","[3114,3946.7000000011176,4189,4386.700000001118,4557.700000001118,4766.700000001118]","6","2","","","20349","27","3","4","lose","no-go","0"
"pit-trial","149","1161720","0.0-32.0","battery-v0.2","","""event"",""trial"",""time""
""fullscreenenter"",""1"",""3210""
","
","
","""event"",""trial"",""time""
""fullscreenenter"",""1"",""3210""
","
","","","-1","","","10","20349","3178","y","elianto","#f73b6a7A"," ","-1","0","0","[137.80000000074506,318,3255.10000000149,3539.800000000745,3755.5,4157.4000000003725,4377.200000001118]","7","2","","","20349","28","2","3","lose","go","1"
"pit-trial","150","1166255","0.0-33.0","battery-v0.2","","""event"",""trial"",""time""
""fullscreenenter"",""1"",""3210""
","
","
","""event"",""trial"",""time""
""fullscreenenter"",""1"",""3210""
","
","","","1681.5","","","10","20349","3178","r","elianto","#3366ff99","-1"," ","0","0","[173.69999999925494,2531.5]","2","2","","","20349","29","1","2","win","no-go","0"
"pit-trial","151","1171108","0.0-34.0","battery-v0.2","","""event"",""trial"",""time""
""fullscreenenter"",""1"",""3210""
","
","
","""event"",""trial"",""time""
""fullscreenenter"",""1"",""3210""
","
","","","-1","","","10","20349","3178","m","elianto","#f73b6a7A"," ","-1","0","-10","[3068.5,3588.2999999988824]","2","2","","","20349","30","0","3","lose","go","0"
"pit-trial","152","1175962","0.0-35.0","battery-v0.2","","""event"",""trial"",""time""
""fullscreenenter"",""1"",""3210""
","
","
","""event"",""trial"",""time""
""fullscreenenter"",""1"",""3210""
","
","","","-1","","","10","20349","3178","h","elianto","#f73b6a7A","-1","-1","1","0","[3112.5999999996275]","1","2","","","20349","31","3","4","lose","no-go","0"
"pit-trial","153","1180816","0.0-36.0","battery-v0.2","","""event"",""trial"",""time""
""fullscreenenter"",""1"",""3210""
","
","
","""event"",""trial"",""time""
""fullscreenenter"",""1"",""3210""
","
","","","-1","","","10","20349","3178","y","elianto","#f73b6a7A"," ","-1","0","-10","[]","0","2","","","20349","32","2","3","lose","go","0"
"pit-trial","154","1185669","0.0-37.0","battery-v0.2","","""event"",""trial"",""time""
""fullscreenenter"",""1"",""3210""
","
","
","""event"",""trial"",""time""
""fullscreenenter"",""1"",""3210""
","
","","","-1","","","10","20349","3178","m","elianto","#f73b6a7A"," ","-1","0","-10","[]","0","2","","","20349","33","0","3","lose","go","0"
"pit-trial","155","1190047","0.0-38.0","battery-v0.2","","""event"",""trial"",""time""
""fullscreenenter"",""1"",""3210""
","
","
","""event"",""trial"",""time""
""fullscreenenter"",""1"",""3210""
","
","","","1521.5","","","10","20349","3178","h","elianto","#f73b6a7A","-1"," ","0","0","[2373.7999999988824]","1","2","","","20349","34","3","4","lose","no-go","1"
"pit-trial","156","1194901","0.0-39.0","battery-v0.2","","""event"",""trial"",""time""
""fullscreenenter"",""1"",""3210""
","
","
","""event"",""trial"",""time""
""fullscreenenter"",""1"",""3210""
","
","","","-1","","","10","20349","3178","y","elianto","#f73b6a7A"," ","-1","0","-10","[]","0","2","","","20349","35","2","3","lose","go","0"
"pit-trial","157","1198746","0.0-40.0","battery-v0.2","","""event"",""trial"",""time""
""fullscreenenter"",""1"",""3210""
","
","
","""event"",""trial"",""time""
""fullscreenenter"",""1"",""3210""
","
","","","991","","","10","20349","3178","r","elianto","#3366ff99","-1"," ","0","0","[1841.300000000745]","1","2","","","20349","36","1","2","win","no-go","0"
"pit-trial","158","1203600","0.0-41.0","battery-v0.2","","""event"",""trial"",""time""
""fullscreenenter"",""1"",""3210""
","
","
","""event"",""trial"",""time""
""fullscreenenter"",""1"",""3210""
","
","","","-1","","","10","20349","3178","r","elianto","#3366ff99","-1","-1","1","+10","[3117.4000000003725]","1","2","","","20349","37","1","2","win","no-go","0"
"pit-trial","159","1207231","0.0-42.0","battery-v0.2","","""event"",""trial"",""time""
""fullscreenenter"",""1"",""3210""
","
","
","""event"",""trial"",""time""
""fullscreenenter"",""1"",""3210""
","
","","","776.2999999988824","","","10","20349","3178","h","elianto","#f73b6a7A","-1"," ","0","-10","[1626.4000000003725]","1","2","","","20349","38","3","4","lose","no-go","0"
"pit-trial","160","1212084","0.0-43.0","battery-v0.2","","""event"",""trial"",""time""
""fullscreenenter"",""1"",""3210""
","
","
","""event"",""trial"",""time""
""fullscreenenter"",""1"",""3210""
","
","","","-1","","","10","20349","3178","m","elianto","#f73b6a7A"," ","-1","0","-10","[2861.0999999996275,2998.2999999988824]","2","2","","","20349","39","0","3","lose","go","0"
"pit-trial","161","1216938","0.0-44.0","battery-v0.2","","""event"",""trial"",""time""
""fullscreenenter"",""1"",""3210""
","
","
","""event"",""trial"",""time""
""fullscreenenter"",""1"",""3210""
","
","","","-1","","","10","20349","3178","y","elianto","#f73b6a7A"," ","-1","0","-10","[]","0","2","","","20349","40","2","3","lose","go","0"
"pit-trial","162","1221791","0.0-45.0","battery-v0.2","","""event"",""trial"",""time""
""fullscreenenter"",""1"",""3210""
","
","
","""event"",""trial"",""time""
""fullscreenenter"",""1"",""3210""
","
","","","-1","","","10","20349","3178","r","elianto","#3366ff99","-1","-1","1","+10","[3525.60000000149,3824.800000000745,4086.9000000003725,4565.9000000003725]","4","2","","","20349","41","1","2","win","no-go","0"
"pit-trial","163","1226646","0.0-46.0","battery-v0.2","","""event"",""trial"",""time""
""fullscreenenter"",""1"",""3210""
","
","
","""event"",""trial"",""time""
""fullscreenenter"",""1"",""3210""
","
","","","-1","","","10","20349","3178","m","elianto","#f73b6a7A"," ","-1","0","0","[386.5,3852.5999999996275]","2","2","","","20349","42","0","3","lose","go","1"
"pit-trial","164","1231407","0.0-47.0","battery-v0.2","","""event"",""trial"",""time""
""fullscreenenter"",""1"",""3210""
","
","
","""event"",""trial"",""time""
""fullscreenenter"",""1"",""3210""
","
","","","1907.9000000003725","","","10","20349","3178","h","elianto","#f73b6a7A","-1"," ","0","-10","[252.5,2758]","2","2","","","20349","43","3","4","lose","no-go","0"
"pit-trial","165","1236261","0.0-48.0","battery-v0.2","","""event"",""trial"",""time""
""fullscreenenter"",""1"",""3210""
","
","
","""event"",""trial"",""time""
""fullscreenenter"",""1"",""3210""
","
","","","-1","","","10","20349","3178","y","elianto","#f73b6a7A"," ","-1","0","0","[3840.7000000011176,4243.5999999996275,4481.9000000003725]","3","2","","","20349","44","2","3","lose","go","1"
"pit-trial","166","1241114","0.0-49.0","battery-v0.2","","""event"",""trial"",""time""
""fullscreenenter"",""1"",""3210""
","
","
","""event"",""trial"",""time""
""fullscreenenter"",""1"",""3210""
","
","","","-1","","","10","20349","3178","m","elianto","#f73b6a7A"," ","-1","0","-10","[]","0","2","","","20349","45","0","3","lose","go","0"
"pit-trial","167","1245379","0.0-50.0","battery-v0.2","","""event"",""trial"",""time""
""fullscreenenter"",""1"",""3210""
","
","
","""event"",""trial"",""time""
""fullscreenenter"",""1"",""3210""
","
","","","1412.2999999988824","","","10","20349","3178","r","elianto","#3366ff99","-1"," ","0","0","[2262.5]","1","2","","","20349","46","1","2","win","no-go","0"
"pit-trial","168","1250233","0.0-51.0","battery-v0.2","","""event"",""trial"",""time""
""fullscreenenter"",""1"",""3210""
","
","
","""event"",""trial"",""time""
""fullscreenenter"",""1"",""3210""
","
","","","-1","","","10","20349","3178","y","elianto","#f73b6a7A"," ","-1","0","-10","[3188.7000000011176]","1","2","","","20349","47","2","3","lose","go","0"
"pit-trial","169","1255087","0.0-52.0","battery-v0.2","","""event"",""trial"",""time""
""fullscreenenter"",""1"",""3210""
","
","
","""event"",""trial"",""time""
""fullscreenenter"",""1"",""3210""
","
","","","-1","","","10","20349","3178","h","elianto","#f73b6a7A","-1","-1","1","0","[3500.5,4148.89999999851,4419.5999999996275,4689.199999999255]","4","2","","","20349","48","3","4","lose","no-go","0"
"pit-trial","170","1259941","0.0-53.0","battery-v0.2","","""event"",""trial"",""time""
""fullscreenenter"",""1"",""3210""
","
","
","""event"",""trial"",""time""
""fullscreenenter"",""1"",""3210""
","
","","","-1","","","10","20349","3178","m","elianto","#f73b6a7A"," ","-1","0","-10","[]","0","2","","","20349","49","0","3","lose","go","0"
"pit-trial","171","1264747","0.0-54.0","battery-v0.2","","""event"",""trial"",""time""
""fullscreenenter"",""1"",""3210""
","
","
","""event"",""trial"",""time""
""fullscreenenter"",""1"",""3210""
","
","","","1948.800000000745","","","10","20349","3178","r","elianto","#3366ff99","-1"," ","0","0","[231.10000000149012,2800.60000000149]","2","2","","","20349","50","1","2","win","no-go","0"
"pit-trial","172","1269014","0.0-55.0","battery-v0.2","","""event"",""trial"",""time""
""fullscreenenter"",""1"",""3210""
","
","
","""event"",""trial"",""time""
""fullscreenenter"",""1"",""3210""
","
","","","1413.2999999988824","","","10","20349","3178","h","elianto","#f73b6a7A","-1"," ","0","-10","[2263.4000000003725]","1","2","","","20349","51","3","4","lose","no-go","0"
"pit-trial","173","1273867","0.0-56.0","battery-v0.2","","""event"",""trial"",""time""
""fullscreenenter"",""1"",""3210""
","
","
","""event"",""trial"",""time""
""fullscreenenter"",""1"",""3210""
","
","","","-1","","","10","20349","3178","y","elianto","#f73b6a7A"," ","-1","0","-10","[]","0","2","","","20349","52","2","3","lose","go","0"
"pit-trial","174","1278721","0.0-57.0","battery-v0.2","","""event"",""trial"",""time""
""fullscreenenter"",""1"",""3210""
","
","
","""event"",""trial"",""time""
""fullscreenenter"",""1"",""3210""
","
","","","-1","","","10","20349","3178","h","elianto","#f73b6a7A","-1","-1","1","0","[]","0","2","","","20349","53","3","4","lose","no-go","0"
"pit-trial","175","1282904","0.0-58.0","battery-v0.2","","""event"",""trial"",""time""
""fullscreenenter"",""1"",""3210""
","
","
","""event"",""trial"",""time""
""fullscreenenter"",""1"",""3210""
","
","","","1328.6000000014901","","","10","20349","3178","r","elianto","#3366ff99","-1"," ","0","0","[2178.800000000745]","1","2","","","20349","54","1","2","win","no-go","0"
"pit-trial","176","1287758","0.0-59.0","battery-v0.2","","""event"",""trial"",""time""
""fullscreenenter"",""1"",""3210""
","
","
","""event"",""trial"",""time""
""fullscreenenter"",""1"",""3210""
","
","","","-1","","","10","20349","3178","m","elianto","#f73b6a7A"," ","-1","0","0","[]","0","2","","","20349","55","0","3","lose","go","1"
"pit-trial","177","1292612","0.0-60.0","battery-v0.2","","""event"",""trial"",""time""
""fullscreenenter"",""1"",""3210""
","
","
","""event"",""trial"",""time""
""fullscreenenter"",""1"",""3210""
","
","","","-1","","","10","20349","3178","y","elianto","#f73b6a7A"," ","-1","0","-10","[]","0","2","","","20349","56","2","3","lose","go","0"
"pit-trial","178","1297466","0.0-61.0","battery-v0.2","","""event"",""trial"",""time""
""fullscreenenter"",""1"",""3210""
","
","
","""event"",""trial"",""time""
""fullscreenenter"",""1"",""3210""
","
","","","-1","","","10","20349","3178","z","elianto","#3366ff99"," ","-1","0","0","[]","0","2","","","20349","57","4","1","win","go","0"
"pit-trial","179","1302320","0.0-62.0","battery-v0.2","","""event"",""trial"",""time""
""fullscreenenter"",""1"",""3210""
","
","
","""event"",""trial"",""time""
""fullscreenenter"",""1"",""3210""
","
","","","-1","","","10","20349","3178","y","elianto","#f73b6a7A"," ","-1","0","-10","[]","0","2","","","20349","58","2","3","lose","go","0"
"pit-trial","180","1307173","0.0-63.0","battery-v0.2","","""event"",""trial"",""time""
""fullscreenenter"",""1"",""3210""
","
","
","""event"",""trial"",""time""
""fullscreenenter"",""1"",""3210""
","
","","","-1","","","10","20349","3178","h","elianto","#f73b6a7A","-1","-1","1","0","[]","0","2","","","20349","59","3","4","lose","no-go","0"
"pit-trial","181","1312026","0.0-64.0","battery-v0.2","","""event"",""trial"",""time""
""fullscreenenter"",""1"",""3210""
","
","
","""event"",""trial"",""time""
""fullscreenenter"",""1"",""3210""
","
","","","-1","","","10","20349","3178","m","elianto","#f73b6a7A"," ","-1","0","-10","[]","0","2","","","20349","60","0","3","lose","go","0"
"pit-trial","182","1316880","0.0-65.0","battery-v0.2","","""event"",""trial"",""time""
""fullscreenenter"",""1"",""3210""
","
","
","""event"",""trial"",""time""
""fullscreenenter"",""1"",""3210""
","
","","","-1","","","10","20349","3178","r","elianto","#3366ff99","-1","-1","1","+10","[]","0","2","","","20349","61","1","2","win","no-go","0"
"pit-trial","183","1321734","0.0-66.0","battery-v0.2","","""event"",""trial"",""time""
""fullscreenenter"",""1"",""3210""
","
","
","""event"",""trial"",""time""
""fullscreenenter"",""1"",""3210""
","
","","","-1","","","10","20349","3178","h","elianto","#f73b6a7A","-1","-1","1","0","[4270.300000000745]","1","2","","","20349","62","3","4","lose","no-go","0"
"pit-trial","184","1326588","0.0-67.0","battery-v0.2","","""event"",""trial"",""time""
""fullscreenenter"",""1"",""3210""
","
","
","""event"",""trial"",""time""
""fullscreenenter"",""1"",""3210""
","
","","","-1","","","10","20349","3178","y","elianto","#f73b6a7A"," ","-1","0","-10","[]","0","2","","","20349","63","2","3","lose","go","0"
"pit-trial","185","1330197","0.0-68.0","battery-v0.2","","""event"",""trial"",""time""
""fullscreenenter"",""1"",""3210""
","
","
","""event"",""trial"",""time""
""fullscreenenter"",""1"",""3210""
","
","","","755.1999999992549","","","10","20349","3178","z","elianto","#3366ff99"," "," ","1","0","[1606.199999999255]","1","2","","","20349","64","4","1","win","go","1"
"pit-trial","186","1333952","0.0-69.0","battery-v0.2","","""event"",""trial"",""time""
""fullscreenenter"",""1"",""3210""
","
","
","""event"",""trial"",""time""
""fullscreenenter"",""1"",""3210""
","
","","","901.7000000011176","","","10","20349","3178","c","elianto","#3366ff99","-1"," ","0","0","[1751.699999999255]","1","2","","","20349","65","5","2","win","no-go","0"
"pit-trial","187","1338629","0.0-70.0","battery-v0.2","","""event"",""trial"",""time""
""fullscreenenter"",""1"",""3210""
","
","
","""event"",""trial"",""time""
""fullscreenenter"",""1"",""3210""
","
","","","1823","","","10","20349","3178","h","elianto","#f73b6a7A","-1"," ","0","-10","[2673.2000000011176]","1","2","","","20349","66","3","4","lose","no-go","0"
"pit-trial","188","1343432","0.0-71.0","battery-v0.2","","""event"",""trial"",""time""
""fullscreenenter"",""1"",""3210""
","
","
","""event"",""trial"",""time""
""fullscreenenter"",""1"",""3210""
","
","","","1948.199999999255","","","10","20349","3178","z","elianto","#3366ff99"," "," ","1","+10","[2798.10000000149]","1","2","","","20349","67","4","1","win","go","0"
"pit-trial","189","1348286","0.0-72.0","battery-v0.2","","""event"",""trial"",""time""
""fullscreenenter"",""1"",""3210""
","
","
","""event"",""trial"",""time""
""fullscreenenter"",""1"",""3210""
","
","","","-1","","","10","20349","3178","r","elianto","#3366ff99","-1","-1","1","+10","[3236.0999999996275]","1","2","","","20349","68","1","2","win","no-go","0"
"pit-trial","190","1352245","0.0-73.0","battery-v0.2","","""event"",""trial"",""time""
""fullscreenenter"",""1"",""3210""
","
","
","""event"",""trial"",""time""
""fullscreenenter"",""1"",""3210""
","
","","","1104.2000000011176","","","10","20349","3178","c","elianto","#3366ff99","-1"," ","0","+10","[1954.300000000745]","1","2","","","20349","69","5","2","win","no-go","1"
"pit-trial","191","1356017","0.0-74.0","battery-v0.2","","""event"",""trial"",""time""
""fullscreenenter"",""1"",""3210""
","
","
","""event"",""trial"",""time""
""fullscreenenter"",""1"",""3210""
","
","","","918.1000000014901","","","10","20349","3178","z","elianto","#3366ff99"," "," ","1","+10","[1768.300000000745]","1","2","","","20349","70","4","1","win","go","0"
"pit-trial","192","1359358","0.0-75.0","battery-v0.2","","""event"",""trial"",""time""
""fullscreenenter"",""1"",""3210""
","
","
","""event"",""trial"",""time""
""fullscreenenter"",""1"",""3210""
","
","","","483.69999999925494","","","10","20349","3178","r","elianto","#3366ff99","-1"," ","0","0","[1336.2999999988824]","1","2","","","20349","71","1","2","win","no-go","0"
"pit-trial","193","1364212","0.0-76.0","battery-v0.2","","""event"",""trial"",""time""
""fullscreenenter"",""1"",""3210""
","
","
","""event"",""trial"",""time""
""fullscreenenter"",""1"",""3210""
","
","","","-1","","","10","20349","3178","y","elianto","#f73b6a7A"," ","-1","0","-10","[]","0","2","","","20349","72","2","3","lose","go","0"
"pit-trial","194","1368369","0.0-77.0","battery-v0.2","","""event"",""trial"",""time""
""fullscreenenter"",""1"",""3210""
","
","
","""event"",""trial"",""time""
""fullscreenenter"",""1"",""3210""
","
","","","1304.199999999255","","","10","20349","3178","c","elianto","#3366ff99","-1"," ","0","+10","[2154.199999999255]","1","2","","","20349","73","5","2","win","no-go","1"
"pit-trial","195","1372213","0.0-78.0","battery-v0.2","","""event"",""trial"",""time""
""fullscreenenter"",""1"",""3210""
","
","
","""event"",""trial"",""time""
""fullscreenenter"",""1"",""3210""
","
","","","984","","","10","20349","3178","r","elianto","#3366ff99","-1"," ","0","0","[1840.5999999996275,2547.0999999996275]","2","2","","","20349","74","1","2","win","no-go","0"
"pit-trial","196","1377067","0.0-79.0","battery-v0.2","","""event"",""trial"",""time""
""fullscreenenter"",""1"",""3210""
","
","
","""event"",""trial"",""time""
""fullscreenenter"",""1"",""3210""
","
","","","-1","","","10","20349","3178","h","elianto","#f73b6a7A","-1","-1","1","0","[4076.300000000745,4715.4000000003725]","2","2","","","20349","75","3","4","lose","no-go","0"
"pit-trial","197","1380120","0.0-80.0","battery-v0.2","","""event"",""trial"",""time""
""fullscreenenter"",""1"",""3210""
","
","
","""event"",""trial"",""time""
""fullscreenenter"",""1"",""3210""
","
","","","199.09999999962747","","","10","20349","3178","z","elianto","#3366ff99"," "," ","1","+10","[125.79999999888241,385.90000000037253,1049.2999999988824,1645.4000000003725,1912.199999999255,2355.0999999996275,2606.5,2803.5999999996275,3005.7999999988824]","9","2","","","20349","76","4","1","win","go","0"
"pit-trial","198","1383320","0.0-81.0","battery-v0.2","","""event"",""trial"",""time""
""fullscreenenter"",""1"",""3210""
","
","
","""event"",""trial"",""time""
""fullscreenenter"",""1"",""3210""
","
","","","346.19999999925494","","","10","20349","3178","c","elianto","#3366ff99","-1"," ","0","0","[162.5,1196.4000000003725]","2","2","","","20349","77","5","2","win","no-go","0"
"pit-trial","199","1387015","0.0-82.0","battery-v0.2","","""event"",""trial"",""time""
""fullscreenenter"",""1"",""3210""
","
","
","""event"",""trial"",""time""
""fullscreenenter"",""1"",""3210""
","
","","","841.9000000003725","","","10","20349","3178","z","elianto","#3366ff99"," "," ","1","0","[1691.9000000003725]","1","2","","","20349","78","4","1","win","go","1"
"pit-trial","200","1391376","0.0-83.0","battery-v0.2","","""event"",""trial"",""time""
""fullscreenenter"",""1"",""3210""
","
","
","""event"",""trial"",""time""
""fullscreenenter"",""1"",""3210""
","
","","","1505.5999999996275","","","10","20349","3178","h","elianto","#f73b6a7A","-1"," ","0","-10","[2355.800000000745,3121.60000000149]","2","2","","","20349","79","3","4","lose","no-go","0"
"pit-trial","201","1395330","0.0-84.0","battery-v0.2","","""event"",""trial"",""time""
""fullscreenenter"",""1"",""3210""
","
","
","""event"",""trial"",""time""
""fullscreenenter"",""1"",""3210""
","
","","","1102","","","10","20349","3178","z","elianto","#3366ff99"," "," ","1","+10","[1952.300000000745]","1","2","","","20349","80","4","1","win","go","0"
"pit-trial","202","1399284","0.0-85.0","battery-v0.2","","""event"",""trial"",""time""
""fullscreenenter"",""1"",""3210""
","
","
","""event"",""trial"",""time""
""fullscreenenter"",""1"",""3210""
","
","","","1102.199999999255","","","10","20349","3178","c","elianto","#3366ff99","-1"," ","0","0","[1952.4000000003725]","1","2","","","20349","81","5","2","win","no-go","0"
"pit-trial","203","1404138","0.0-86.0","battery-v0.2","","""event"",""trial"",""time""
""fullscreenenter"",""1"",""3210""
","
","
","""event"",""trial"",""time""
""fullscreenenter"",""1"",""3210""
","
","","","-1","","","10","20349","3178","t","elianto","#f73b6a7A","-1","-1","1","0","[2982.2000000011176]","1","2","","","20349","82","7","4","lose","no-go","0"
"pit-trial","204","1408992","0.0-87.0","battery-v0.2","","""event"",""trial"",""time""
""fullscreenenter"",""1"",""3210""
","
","
","""event"",""trial"",""time""
""fullscreenenter"",""1"",""3210""
","
","","","-1","","","10","20349","3178","h","elianto","#f73b6a7A","-1","-1","1","0","[3417.199999999255]","1","2","","","20349","83","3","4","lose","no-go","0"
"pit-trial","205","1413055","0.0-88.0","battery-v0.2","","""event"",""trial"",""time""
""fullscreenenter"",""1"",""3210""
","
","
","""event"",""trial"",""time""
""fullscreenenter"",""1"",""3210""
","
","","","1208.6000000014901","","","10","20349","3178","z","elianto","#3366ff99"," "," ","1","+10","[2058.800000000745]","1","2","","","20349","84","4","1","win","go","0"
"pit-trial","206","1417133","0.0-89.0","battery-v0.2","","""event"",""trial"",""time""
""fullscreenenter"",""1"",""3210""
","
","
","""event"",""trial"",""time""
""fullscreenenter"",""1"",""3210""
","
","","","1225.800000000745","","","10","20349","3178","c","elianto","#3366ff99","-1"," ","0","0","[2075.800000000745]","1","2","","","20349","85","5","2","win","no-go","0"
"pit-trial","207","1421986","0.0-90.0","battery-v0.2","","""event"",""trial"",""time""
""fullscreenenter"",""1"",""3210""
","
","
","""event"",""trial"",""time""
""fullscreenenter"",""1"",""3210""
","
","","","-1","","","10","20349","3178","t","elianto","#f73b6a7A","-1","-1","1","0","[4049.5999999996275]","1","2","","","20349","86","7","4","lose","no-go","0"
"pit-trial","208","1426840","0.0-91.0","battery-v0.2","","""event"",""trial"",""time""
""fullscreenenter"",""1"",""3210""
","
","
","""event"",""trial"",""time""
""fullscreenenter"",""1"",""3210""
","
","","","-1","","","10","20349","3178","b","elianto","#f73b6a7A"," ","-1","0","-10","[22.09999999962747]","1","2","","","20349","87","6","3","lose","go","0"
"pit-trial","209","1430209","0.0-92.0","battery-v0.2","","""event"",""trial"",""time""
""fullscreenenter"",""1"",""3210""
","
","
","""event"",""trial"",""time""
""fullscreenenter"",""1"",""3210""
","
","","","515","","","10","20349","3178","z","elianto","#3366ff99"," "," ","1","+10","[1365.300000000745]","1","2","","","20349","88","4","1","win","go","0"
"pit-trial","210","1433407","0.0-93.0","battery-v0.2","","""event"",""trial"",""time""
""fullscreenenter"",""1"",""3210""
","
","
","""event"",""trial"",""time""
""fullscreenenter"",""1"",""3210""
","
","","","344.5","","","10","20349","3178","b","elianto","#f73b6a7A"," "," ","1","0","[1194.699999999255,1542.2999999988824]","2","2","","","20349","89","6","3","lose","go","0"
"pit-trial","211","1437402","0.0-94.0","battery-v0.2","","""event"",""trial"",""time""
""fullscreenenter"",""1"",""3210""
","
","
","""event"",""trial"",""time""
""fullscreenenter"",""1"",""3210""
","
","","","1140.800000000745","","","10","20349","3178","z","elianto","#3366ff99"," "," ","1","+10","[1990.800000000745]","1","2","","","20349","90","4","1","win","go","0"
"pit-trial","212","1441108","0.0-95.0","battery-v0.2","","""event"",""trial"",""time""
""fullscreenenter"",""1"",""3210""
","
","
","""event"",""trial"",""time""
""fullscreenenter"",""1"",""3210""
","
","","","851.6999999992549","","","10","20349","3178","t","elianto","#f73b6a7A","-1"," ","0","-10","[1701.9000000003725]","1","2","","","20349","91","7","4","lose","no-go","0"
"pit-trial","213","1445253","0.0-96.0","battery-v0.2","","""event"",""trial"",""time""
""fullscreenenter"",""1"",""3210""
","
","
","""event"",""trial"",""time""
""fullscreenenter"",""1"",""3210""
","
","","","1291.800000000745","","","10","20349","3178","c","elianto","#3366ff99","-1"," ","0","+10","[2141.7999999988824]","1","2","","","20349","92","5","2","win","no-go","1"
"pit-trial","214","1449719","0.0-97.0","battery-v0.2","","""event"",""trial"",""time""
""fullscreenenter"",""1"",""3210""
","
","
","""event"",""trial"",""time""
""fullscreenenter"",""1"",""3210""
","
","","","1611.699999999255","","","10","20349","3178","c","elianto","#3366ff99","-1"," ","0","0","[2461.9000000003725]","1","2","","","20349","93","5","2","win","no-go","0"
"pit-trial","215","1454573","0.0-98.0","battery-v0.2","","""event"",""trial"",""time""
""fullscreenenter"",""1"",""3210""
","
","
","""event"",""trial"",""time""
""fullscreenenter"",""1"",""3210""
","
","","","-1","","","10","20349","3178","f","elianto","#3366ff99"," ","-1","0","0","[]","0","2","","","20349","94","8","1","win","go","0"
"pit-trial","216","1459427","0.0-99.0","battery-v0.2","","""event"",""trial"",""time""
""fullscreenenter"",""1"",""3210""
","
","
","""event"",""trial"",""time""
""fullscreenenter"",""1"",""3210""
","
","","","-1","","","10","20349","3178","t","elianto","#f73b6a7A","-1","-1","1","-10","[]","0","2","","","20349","95","7","4","lose","no-go","1"
"pit-trial","217","1464280","0.0-100.0","battery-v0.2","","""event"",""trial"",""time""
""fullscreenenter"",""1"",""3210""
","
","
","""event"",""trial"",""time""
""fullscreenenter"",""1"",""3210""
","
","","","-1","","","10","20349","3178","b","elianto","#f73b6a7A"," ","-1","0","-10","[]","0","2","","","20349","96","6","3","lose","go","0"
"pit-trial","218","1468455","0.0-101.0","battery-v0.2","","""event"",""trial"",""time""
""fullscreenenter"",""1"",""3210""
","
","
","""event"",""trial"",""time""
""fullscreenenter"",""1"",""3210""
","
","","","1319.9000000003725","","","10","20349","3178","f","elianto","#3366ff99"," "," ","1","0","[2170.199999999255]","1","2","","","20349","97","8","1","win","go","1"
"pit-trial","219","1473309","0.0-102.0","battery-v0.2","","""event"",""trial"",""time""
""fullscreenenter"",""1"",""3210""
","
","
","""event"",""trial"",""time""
""fullscreenenter"",""1"",""3210""
","
","","","-1","","","10","20349","3178","c","elianto","#3366ff99","-1","-1","1","+10","[]","0","2","","","20349","98","5","2","win","no-go","0"
"pit-trial","220","1477620","0.0-103.0","battery-v0.2","","""event"",""trial"",""time""
""fullscreenenter"",""1"",""3210""
","
","
","""event"",""trial"",""time""
""fullscreenenter"",""1"",""3210""
","
","","","1457.199999999255","","","10","20349","3178","t","elianto","#f73b6a7A","-1"," ","0","0","[2307.5]","1","2","","","20349","99","7","4","lose","no-go","1"
"pit-trial","221","1482336","0.0-104.0","battery-v0.2","","""event"",""trial"",""time""
""fullscreenenter"",""1"",""3210""
","
","
","""event"",""trial"",""time""
""fullscreenenter"",""1"",""3210""
","
","","","1862.0999999996275","","","10","20349","3178","b","elianto","#f73b6a7A"," "," ","1","0","[2712.300000000745,3037.0999999996275,3931.2000000011176]","3","2","","","20349","100","6","3","lose","go","0"
"pit-trial","222","1485969","0.0-105.0","battery-v0.2","","""event"",""trial"",""time""
""fullscreenenter"",""1"",""3210""
","
","
","""event"",""trial"",""time""
""fullscreenenter"",""1"",""3210""
","
","","","779.3999999985099","","","10","20349","3178","t","elianto","#f73b6a7A","-1"," ","0","-10","[1629.4000000003725]","1","2","","","20349","101","7","4","lose","no-go","0"
"pit-trial","223","1488865","0.0-106.0","battery-v0.2","","""event"",""trial"",""time""
""fullscreenenter"",""1"",""3210""
","
","
","""event"",""trial"",""time""
""fullscreenenter"",""1"",""3210""
","
","","","42.899999998509884","","","10","20349","3178","f","elianto","#3366ff99"," "," ","1","+10","[892.9000000003725,1760.5,2497.60000000149,2869]","4","2","","","20349","102","8","1","win","go","0"
"pit-trial","224","1492047","0.0-107.0","battery-v0.2","","""event"",""trial"",""time""
""fullscreenenter"",""1"",""3210""
","
","
","""event"",""trial"",""time""
""fullscreenenter"",""1"",""3210""
","
","","","328.19999999925494","","","10","20349","3178","c","elianto","#3366ff99","-1"," ","0","0","[1178.4000000003725,2253.800000000745]","2","2","","","20349","103","5","2","win","no-go","0"
"pit-trial","225","1495572","0.0-108.0","battery-v0.2","","""event"",""trial"",""time""
""fullscreenenter"",""1"",""3210""
","
","
","""event"",""trial"",""time""
""fullscreenenter"",""1"",""3210""
","
","","","670.1999999992549","","","10","20349","3178","n","elianto","#3366ff99"," "," ","1","0","[1520.5,2499.0999999996275,3443.0999999996275]","3","2","","","20349","104","9","1","win","go","1"
"pit-trial","226","1500301","0.0-109.0","battery-v0.2","","""event"",""trial"",""time""
""fullscreenenter"",""1"",""3210""
","
","
","""event"",""trial"",""time""
""fullscreenenter"",""1"",""3210""
","
","","","1874.5999999996275","","","10","20349","3178","b","elianto","#f73b6a7A"," "," ","1","-10","[2724.699999999255]","1","2","","","20349","105","6","3","lose","go","1"
"pit-trial","227","1505154","0.0-110.0","battery-v0.2","","""event"",""trial"",""time""
""fullscreenenter"",""1"",""3210""
","
","
","""event"",""trial"",""time""
""fullscreenenter"",""1"",""3210""
","
","","","-1","","","10","20349","3178","z","elianto","#3366ff99"," ","-1","0","0","[3127.9000000003725]","1","2","","","20349","106","4","1","win","go","0"
"pit-trial","228","1510008","0.0-111.0","battery-v0.2","","""event"",""trial"",""time""
""fullscreenenter"",""1"",""3210""
","
","
","""event"",""trial"",""time""
""fullscreenenter"",""1"",""3210""
","
","","","-1","","","10","20349","3178","f","elianto","#3366ff99"," ","-1","0","0","[3126]","1","2","","","20349","107","8","1","win","go","0"
"pit-trial","229","1514293","0.0-112.0","battery-v0.2","","""event"",""trial"",""time""
""fullscreenenter"",""1"",""3210""
","
","
","""event"",""trial"",""time""
""fullscreenenter"",""1"",""3210""
","
","","","1430.2999999988824","","","10","20349","3178","n","elianto","#3366ff99"," "," ","1","+10","[2280.4000000003725]","1","2","","","20349","108","9","1","win","go","0"
"pit-trial","230","1518153","0.0-113.0","battery-v0.2","","""event"",""trial"",""time""
""fullscreenenter"",""1"",""3210""
","
","
","""event"",""trial"",""time""
""fullscreenenter"",""1"",""3210""
","
","","","1006.6999999992549","","","10","20349","3178","n","elianto","#3366ff99"," "," ","1","0","[1856.800000000745]","1","2","","","20349","109","9","1","win","go","1"
"pit-trial","231","1523007","0.0-114.0","battery-v0.2","","""event"",""trial"",""time""
""fullscreenenter"",""1"",""3210""
","
","
","""event"",""trial"",""time""
""fullscreenenter"",""1"",""3210""
","
","","","-1","","","10","20349","3178","f","elianto","#3366ff99"," ","-1","0","0","[]","0","2","","","20349","110","8","1","win","go","0"
"pit-trial","232","1527860","0.0-115.0","battery-v0.2","","""event"",""trial"",""time""
""fullscreenenter"",""1"",""3210""
","
","
","""event"",""trial"",""time""
""fullscreenenter"",""1"",""3210""
","
","","","-1","","","10","20349","3178","b","elianto","#f73b6a7A"," ","-1","0","-10","[2966.2000000011176]","1","2","","","20349","111","6","3","lose","go","0"
"pit-trial","233","1532714","0.0-116.0","battery-v0.2","","""event"",""trial"",""time""
""fullscreenenter"",""1"",""3210""
","
","
","""event"",""trial"",""time""
""fullscreenenter"",""1"",""3210""
","
","","","-1","","","10","20349","3178","c","elianto","#3366ff99","-1","-1","1","+10","[]","0","2","","","20349","112","5","2","win","no-go","0"
"pit-trial","234","1537569","0.0-117.0","battery-v0.2","","""event"",""trial"",""time""
""fullscreenenter"",""1"",""3210""
","
","
","""event"",""trial"",""time""
""fullscreenenter"",""1"",""3210""
","
","","","-1","","","10","20349","3178","n","elianto","#3366ff99"," ","-1","0","0","[]","0","2","","","20349","113","9","1","win","go","0"
"pit-trial","235","1542423","0.0-118.0","battery-v0.2","","""event"",""trial"",""time""
""fullscreenenter"",""1"",""3210""
","
","
","""event"",""trial"",""time""
""fullscreenenter"",""1"",""3210""
","
","","","-1","","","10","20349","3178","f","elianto","#3366ff99"," ","-1","0","+10","[]","0","2","","","20349","114","8","1","win","go","1"
"pit-trial","236","1546644","0.0-119.0","battery-v0.2","","""event"",""trial"",""time""
""fullscreenenter"",""1"",""3210""
","
","
","""event"",""trial"",""time""
""fullscreenenter"",""1"",""3210""
","
","","","1366.5999999996275","","","10","20349","3178","b","elianto","#f73b6a7A"," "," ","1","0","[2216.7999999988824]","1","2","","","20349","115","6","3","lose","go","0"
"pit-trial","237","1551498","0.0-120.0","battery-v0.2","","""event"",""trial"",""time""
""fullscreenenter"",""1"",""3210""
","
","
","""event"",""trial"",""time""
""fullscreenenter"",""1"",""3210""
","
","","","-1","","","10","20349","3178","c","elianto","#3366ff99","-1","-1","1","0","[2890.9000000003725]","1","2","","","20349","116","5","2","win","no-go","1"
"pit-trial","238","1556352","0.0-121.0","battery-v0.2","","""event"",""trial"",""time""
""fullscreenenter"",""1"",""3210""
","
","
","""event"",""trial"",""time""
""fullscreenenter"",""1"",""3210""
","
","","","-1","","","10","20349","3178","n","elianto","#3366ff99"," ","-1","0","+10","[3841.7999999988824,4069,4307.799999998882,4518.5,4813.799999998882]","5","2","","","20349","117","9","1","win","go","1"
"pit-trial","239","1561206","0.0-122.0","battery-v0.2","","""event"",""trial"",""time""
""fullscreenenter"",""1"",""3210""
","
","
","""event"",""trial"",""time""
""fullscreenenter"",""1"",""3210""
","
","","","-1","","","10","20349","3178","f","elianto","#3366ff99"," ","-1","0","0","[3082.800000000745,3387.4000000003725]","2","2","","","20349","118","8","1","win","go","0"
"pit-trial","240","1566060","0.0-123.0","battery-v0.2","","""event"",""trial"",""time""
""fullscreenenter"",""1"",""3210""
","
","
","""event"",""trial"",""time""
""fullscreenenter"",""1"",""3210""
","
","","","-1","","","10","20349","3178","b","elianto","#f73b6a7A"," ","-1","0","-10","[2968.2999999988824]","1","2","","","20349","119","6","3","lose","go","0"
"pit-trial","241","1570914","0.0-124.0","battery-v0.2","","""event"",""trial"",""time""
""fullscreenenter"",""1"",""3210""
","
","
","""event"",""trial"",""time""
""fullscreenenter"",""1"",""3210""
","
","","","-1","","","10","20349","3178","c","elianto","#3366ff99","-1","-1","1","+10","[3196.800000000745,3952.800000000745,4460.200000001118]","3","2","","","20349","120","5","2","win","no-go","0"
"pit-trial","242","1574369","0.0-125.0","battery-v0.2","","""event"",""trial"",""time""
""fullscreenenter"",""1"",""3210""
","
","
","""event"",""trial"",""time""
""fullscreenenter"",""1"",""3210""
","
","","","601.0999999996275","","","10","20349","3178","b","elianto","#f73b6a7A"," "," ","1","0","[80.20000000111759,530.8000000007451,1451.300000000745,2005.300000000745,2251.5999999996275,2453.2000000011176,3226.4000000003725]","7","2","","","20349","121","6","3","lose","go","0"
"pit-trial","243","1579223","0.0-126.0","battery-v0.2","","""event"",""trial"",""time""
""fullscreenenter"",""1"",""3210""
","
","
","""event"",""trial"",""time""
""fullscreenenter"",""1"",""3210""
","
","","","-1","","","10","20349","3178","t","elianto","#f73b6a7A","-1","-1","1","0","[]","0","2","","","20349","122","7","4","lose","no-go","0"
"pit-trial","244","1584077","0.0-127.0","battery-v0.2","","""event"",""trial"",""time""
""fullscreenenter"",""1"",""3210""
","
","
","""event"",""trial"",""time""
""fullscreenenter"",""1"",""3210""
","
","","","-1","","","10","20349","3178","f","elianto","#3366ff99"," ","-1","0","0","[]","0","2","","","20349","123","8","1","win","go","0"
"pit-trial","245","1588931","0.0-128.0","battery-v0.2","","""event"",""trial"",""time""
""fullscreenenter"",""1"",""3210""
","
","
","""event"",""trial"",""time""
""fullscreenenter"",""1"",""3210""
","
","","","-1","","","10","20349","3178","n","elianto","#3366ff99"," ","-1","0","0","[]","0","2","","","20349","124","9","1","win","go","0"
"pit-trial","246","1592327","0.0-129.0","battery-v0.2","","""event"",""trial"",""time""
""fullscreenenter"",""1"",""3210""
","
","
","""event"",""trial"",""time""
""fullscreenenter"",""1"",""3210""
","
","","","541.7999999988824","","","10","20349","3178","t","elianto","#f73b6a7A","-1"," ","0","0","[1391.9000000003725,1549.4000000003725,2160.60000000149]","3","2","","","20349","125","7","4","lose","no-go","1"
"pit-trial","247","1596177","0.0-130.0","battery-v0.2","","""event"",""trial"",""time""
""fullscreenenter"",""1"",""3210""
","
","
","""event"",""trial"",""time""
""fullscreenenter"",""1"",""3210""
","
","","","997.0999999996275","","","10","20349","3178","f","elianto","#3366ff99"," "," ","1","+10","[1847.0999999996275]","1","2","","","20349","126","8","1","win","go","0"
"pit-trial","248","1600482","0.0-131.0","battery-v0.2","","""event"",""trial"",""time""
""fullscreenenter"",""1"",""3210""
","
","
","""event"",""trial"",""time""
""fullscreenenter"",""1"",""3210""
","
","","","1451","","","10","20349","3178","b","elianto","#f73b6a7A"," "," ","1","-10","[2301.0999999996275]","1","2","","","20349","127","6","3","lose","go","1"
"pit-trial","249","1605336","0.0-132.0","battery-v0.2","","""event"",""trial"",""time""
""fullscreenenter"",""1"",""3210""
","
","
","""event"",""trial"",""time""
""fullscreenenter"",""1"",""3210""
","
","","","-1","","","10","20349","3178","n","elianto","#3366ff99"," ","-1","0","0","[2857.199999999255]","1","2","","","20349","128","9","1","win","go","0"
"pit-trial","250","1609766","0.0-133.0","battery-v0.2","","""event"",""trial"",""time""
""fullscreenenter"",""1"",""3210""
","
","
","""event"",""trial"",""time""
""fullscreenenter"",""1"",""3210""
","
","","","1575.7000000011176","","","10","20349","3178","n","elianto","#3366ff99"," "," ","1","+10","[2425.7999999988824]","1","2","","","20349","129","9","1","win","go","0"
"pit-trial","251","1614620","0.0-134.0","battery-v0.2","","""event"",""trial"",""time""
""fullscreenenter"",""1"",""3210""
","
","
","""event"",""trial"",""time""
""fullscreenenter"",""1"",""3210""
","
","","","-1","","","10","20349","3178","t","elianto","#f73b6a7A","-1","-1","1","0","[]","0","2","","","20349","130","7","4","lose","no-go","0"
"pit-trial","252","1619082","0.0-135.0","battery-v0.2","","""event"",""trial"",""time""
""fullscreenenter"",""1"",""3210""
","
","
","""event"",""trial"",""time""
""fullscreenenter"",""1"",""3210""
","
","","","1606.5999999996275","","","10","20349","3178","f","elianto","#3366ff99"," "," ","1","+10","[2458.800000000745,3356.4000000003725]","2","2","","","20349","131","8","1","win","go","0"
"pit-trial","253","1623872","0.0-136.0","battery-v0.2","","""event"",""trial"",""time""
""fullscreenenter"",""1"",""3210""
","
","
","""event"",""trial"",""time""
""fullscreenenter"",""1"",""3210""
","
","","","1935.300000000745","","","10","20349","3178","b","elianto","#f73b6a7A"," "," ","1","0","[2786.300000000745,4779.700000001118]","2","2","","","20349","132","6","3","lose","go","0"
"pit-trial","254","1627447","0.0-137.0","battery-v0.2","","""event"",""trial"",""time""
""fullscreenenter"",""1"",""3210""
","
","
","""event"",""trial"",""time""
""fullscreenenter"",""1"",""3210""
","
","","","720.8999999985099","","","10","20349","3178","b","elianto","#f73b6a7A"," "," ","1","0","[1570.9000000003725]","1","2","","","20349","133","6","3","lose","go","0"
"pit-trial","255","1632061","0.0-138.0","battery-v0.2","","""event"",""trial"",""time""
""fullscreenenter"",""1"",""3210""
","
","
","""event"",""trial"",""time""
""fullscreenenter"",""1"",""3210""
","
","","","1759.199999999255","","","10","20349","3178","t","elianto","#f73b6a7A","-1"," ","0","-10","[2609.2999999988824]","1","2","","","20349","134","7","4","lose","no-go","0"
"pit-trial","256","1636194","0.0-139.0","battery-v0.2","","""event"",""trial"",""time""
""fullscreenenter"",""1"",""3210""
","
","
","""event"",""trial"",""time""
""fullscreenenter"",""1"",""3210""
","
","","","1279.800000000745","","","10","20349","3178","f","elianto","#3366ff99"," "," ","1","+10","[2129.5999999996275]","1","2","","","20349","135","8","1","win","go","0"
"pit-trial","257","1640618","0.0-140.0","battery-v0.2","","""event"",""trial"",""time""
""fullscreenenter"",""1"",""3210""
","
","
","""event"",""trial"",""time""
""fullscreenenter"",""1"",""3210""
","
","","","1569.7999999988824","","","10","20349","3178","n","elianto","#3366ff99"," "," ","1","+10","[2419.800000000745]","1","2","","","20349","136","9","1","win","go","0"
"pit-trial","258","1645427","0.0-141.0","battery-v0.2","","""event"",""trial"",""time""
""fullscreenenter"",""1"",""3210""
","
","
","""event"",""trial"",""time""
""fullscreenenter"",""1"",""3210""
","
","","","1955.0999999996275","","","10","20349","3178","f","elianto","#3366ff99"," "," ","1","+10","[2805]","1","2","","","20349","137","8","1","win","go","0"
"pit-trial","259","1650281","0.0-142.0","battery-v0.2","","""event"",""trial"",""time""
""fullscreenenter"",""1"",""3210""
","
","
","""event"",""trial"",""time""
""fullscreenenter"",""1"",""3210""
","
","","","-1","","","10","20349","3178","n","elianto","#3366ff99"," ","-1","0","0","[]","0","2","","","20349","138","9","1","win","go","0"
"pit-trial","260","1654782","0.0-143.0","battery-v0.2","","""event"",""trial"",""time""
""fullscreenenter"",""1"",""3210""
","
","
","""event"",""trial"",""time""
""fullscreenenter"",""1"",""3210""
","
","","","1645.5","","","10","20349","3178","b","elianto","#f73b6a7A"," "," ","1","-10","[2495.7000000011176]","1","2","","","20349","139","6","3","lose","go","1"
"pit-trial","261","1659600","0.0-144.0","battery-v0.2","","""event"",""trial"",""time""
