"trial_type","trial_index","time_elapsed","internal_node_id","task_version","subject_id","interactions","blur_events","focus_events","fullscreenenter_events","fullscreenexit_events","success","view_history","rt","responses","num_errors","age","subject","participantId","rune","rune_set","hex","correct","choice","accuracy","outcome","keys","total_keys","block","practice","value","sub","trial","stimulus","robot","valence","action","sham"
"pavlovia","0","8","0.0-0.0","battery-v0.2","","""event"",""trial"",""time""
""fullscreenenter"",""1"",""28760""
","
","
","""event"",""trial"",""time""
""fullscreenenter"",""1"",""28760""
","
","","","","","","","","","","","","","","","","","","","","","","","","","","",""
"fullscreen","1","29682","0.0-1.0","battery-v0.2","","""event"",""trial"",""time""
""fullscreenenter"",""1"",""28760""
","
","
","""event"",""trial"",""time""
""fullscreenenter"",""1"",""28760""
","
","true","","","","","","","","","","","","","","","","","","","","","","","","","",""
"pit-instructions","2","37720","0.0-2.0-0.0","battery-v0.2","","""event"",""trial"",""time""
""fullscreenenter"",""1"",""28760""
","
","
","""event"",""trial"",""time""
""fullscreenenter"",""1"",""28760""
","
","","[{""page_index"":0,""viewing_time"":8032.999999999996}]","8032.999999999996","","","","","","","","","","","","","","","","","","","","","","","",""
"pit-comprehension","3","42208","0.0-2.0-1.0-0.0","battery-v0.2","","""event"",""trial"",""time""
""fullscreenenter"",""1"",""28760""
","
","
","""event"",""trial"",""time""
""fullscreenenter"",""1"",""28760""
","
","","","4482","[""shark""]","0","17","11525","5307","","","","","","","","","","","","","","","","","","",""
"pit-instructions","4","43707","0.0-2.0-1.0-1.0","battery-v0.2","","""event"",""trial"",""time""
""fullscreenenter"",""1"",""28760""
","
","
","""event"",""trial"",""time""
""fullscreenenter"",""1"",""28760""
","
","","[{""page_index"":0,""viewing_time"":1488}]","1488","","","","","","","","","","","","","","","","","","","","","","","",""
"pit-comprehension","5","45892","0.0-2.0-2.0-0.0","battery-v0.2","","""event"",""trial"",""time""
""fullscreenenter"",""1"",""28760""
","
","
","""event"",""trial"",""time""
""fullscreenenter"",""1"",""28760""
","
","","","2179","[""tiger""]","0","17","11525","5307","","","","","","","","","","","","","","","","","","",""
"pit-instructions","6","46854","0.0-2.0-2.0-1.0","battery-v0.2","","""event"",""trial"",""time""
""fullscreenenter"",""1"",""28760""
","
","
","""event"",""trial"",""time""
""fullscreenenter"",""1"",""28760""
","
","","[{""page_index"":0,""viewing_time"":957}]","957","","","","","","","","","","","","","","","","","","","","","","","",""
"pit-instructions","7","226758","0.0-2.0-3.0","battery-v0.2","","""event"",""trial"",""time""
""fullscreenenter"",""1"",""28760""
","
","
","""event"",""trial"",""time""
""fullscreenenter"",""1"",""28760""
","
","","[{""page_index"":0,""viewing_time"":15663},{""page_index"":1,""viewing_time"":10099},{""page_index"":2,""viewing_time"":66799},{""page_index"":3,""viewing_time"":6787},{""page_index"":4,""viewing_time"":6962},{""page_index"":5,""viewing_time"":6663},{""page_index"":6,""viewing_time"":7989},{""page_index"":7,""viewing_time"":7949},{""page_index"":8,""viewing_time"":9428},{""page_index"":9,""viewing_time"":13615},{""page_index"":10,""viewing_time"":7051.000000000029},{""page_index"":11,""viewing_time"":8048.999999999971},{""page_index"":12,""viewing_time"":6251},{""page_index"":13,""viewing_time"":6599.000000000029}]","179904.00000000003","","","","","","","","","","","","","","","","","","","","","","","",""
"pit-trial","8","230202","0.0-2.0-4.0-0.0","battery-v0.2","","""event"",""trial"",""time""
""fullscreenenter"",""1"",""28760""
","
","
","""event"",""trial"",""time""
""fullscreenenter"",""1"",""28760""
","
","","","589","","","17","11525","5307","&#9784;","elianto","#FFFFF080"," "," ","1","&#10004","[1440]","1","0","0","","","","","","","",""
"pit-trial","9","233590","0.0-2.0-4.1-0.1","battery-v0.2","","""event"",""trial"",""time""
""fullscreenenter"",""1"",""28760""
","
","
","""event"",""trial"",""time""
""fullscreenenter"",""1"",""28760""
","
","","","532","","","17","11525","5307","&#9784;","elianto","#FFFFF080"," "," ","1","&#10004","[1382]","1","0","0","","","","","","","",""
"pit-trial","10","236937","0.0-2.0-4.2-0.2","battery-v0.2","","""event"",""trial"",""time""
""fullscreenenter"",""1"",""28760""
","
","
","""event"",""trial"",""time""
""fullscreenenter"",""1"",""28760""
","
","","","491","","","17","11525","5307","&#9784;","elianto","#FFFFF080"," "," ","1","&#10004","[1341]","1","0","0","","","","","","","",""
"pit-trial","11","240299","0.0-2.0-4.3-0.3","battery-v0.2","","""event"",""trial"",""time""
""fullscreenenter"",""1"",""28760""
","
","
","""event"",""trial"",""time""
""fullscreenenter"",""1"",""28760""
","
","","","508","","","17","11525","5307","&#9784;","elianto","#FFFFF080"," "," ","1","&#10004","[1358]","1","0","0","","","","","","","",""
"pit-trial","12","243553","0.0-2.0-4.4-0.4","battery-v0.2","","""event"",""trial"",""time""
""fullscreenenter"",""1"",""28760""
","
","
","""event"",""trial"",""time""
""fullscreenenter"",""1"",""28760""
","
","","","398","","","17","11525","5307","&#9784;","elianto","#FFFFF080"," "," ","1","&#10004","[1248]","1","0","0","","","","","","","",""
"pit-instructions","13","271838","0.0-2.0-5.0","battery-v0.2","","""event"",""trial"",""time""
""fullscreenenter"",""1"",""28760""
","
","
","""event"",""trial"",""time""
""fullscreenenter"",""1"",""28760""
","
","","[{""page_index"":0,""viewing_time"":6991},{""page_index"":1,""viewing_time"":9119},{""page_index"":2,""viewing_time"":5865},{""page_index"":3,""viewing_time"":6304}]","28279","","","","","","","","","","","","","","","","","","","","","","","",""
"pit-trial","14","276693","0.0-2.0-6.0-0.0","battery-v0.2","","""event"",""trial"",""time""
""fullscreenenter"",""1"",""28760""
","
","
","""event"",""trial"",""time""
""fullscreenenter"",""1"",""28760""
","
","","","-1","","","17","11525","5307","&#9854;","elianto","#FFFFF080","-1","-1","1","&#10004","[]","0","0","1","","","","","","","",""
"pit-trial","15","281549","0.0-2.0-6.1-0.1","battery-v0.2","","""event"",""trial"",""time""
""fullscreenenter"",""1"",""28760""
","
","
","""event"",""trial"",""time""
""fullscreenenter"",""1"",""28760""
","
","","","-1","","","17","11525","5307","&#9854;","elianto","#FFFFF080","-1","-1","1","&#10004","[]","0","0","1","","","","","","","",""
"pit-trial","16","286405","0.0-2.0-6.2-0.2","battery-v0.2","","""event"",""trial"",""time""
""fullscreenenter"",""1"",""28760""
","
","
","""event"",""trial"",""time""
""fullscreenenter"",""1"",""28760""
","
","","","-1","","","17","11525","5307","&#9854;","elianto","#FFFFF080","-1","-1","1","&#10004","[]","0","0","1","","","","","","","",""
"pit-trial","17","291261","0.0-2.0-6.3-0.3","battery-v0.2","","""event"",""trial"",""time""
""fullscreenenter"",""1"",""28760""
","
","
","""event"",""trial"",""time""
""fullscreenenter"",""1"",""28760""
","
","","","-1","","","17","11525","5307","&#9854;","elianto","#FFFFF080","-1","-1","1","&#10004","[]","0","0","1","","","","","","","",""
"pit-trial","18","296116","0.0-2.0-6.4-0.4","battery-v0.2","","""event"",""trial"",""time""
""fullscreenenter"",""1"",""28760""
","
","
","""event"",""trial"",""time""
""fullscreenenter"",""1"",""28760""
","
","","","-1","","","17","11525","5307","&#9854;","elianto","#FFFFF080","-1","-1","1","&#10004","[]","0","0","1","","","","","","","",""
"pit-instructions","19","472701","0.0-2.0-7.0","battery-v0.2","","""event"",""trial"",""time""
""fullscreenenter"",""1"",""28760""
","
","
","""event"",""trial"",""time""
""fullscreenenter"",""1"",""28760""
","
","","[{""page_index"":0,""viewing_time"":8701},{""page_index"":1,""viewing_time"":6265},{""page_index"":2,""viewing_time"":8307},{""page_index"":3,""viewing_time"":9495},{""page_index"":4,""viewing_time"":7869.000000000058},{""page_index"":5,""viewing_time"":6682.999999999942},{""page_index"":6,""viewing_time"":7874},{""page_index"":7,""viewing_time"":9312},{""page_index"":8,""viewing_time"":7056},{""page_index"":9,""viewing_time"":7829},{""page_index"":10,""viewing_time"":7561.000000000058},{""page_index"":11,""viewing_time"":6623.999999999942},{""page_index"":12,""viewing_time"":13072},{""page_index"":13,""viewing_time"":26395},{""page_index"":14,""viewing_time"":12701},{""page_index"":15,""viewing_time"":12920},{""page_index"":16,""viewing_time"":8827},{""page_index"":17,""viewing_time"":9069.000000000058}]","176560.00000000006","","","","","","","","","","","","","","","","","","","","","","","",""
"pit-trial","20","477047","0.0-2.0-8.0-0.0","battery-v0.2","","""event"",""trial"",""time""
""fullscreenenter"",""1"",""28760""
","
","
","""event"",""trial"",""time""
""fullscreenenter"",""1"",""28760""
","
","","","1490","","","17","11525","5307","&#9776;","elianto","#3366ff99"," "," ","1","+10","[2339.999999999942]","1","0","1","","","","","","","",""
"pit-trial","21","480519","0.0-2.0-8.0-1.0","battery-v0.2","","""event"",""trial"",""time""
""fullscreenenter"",""1"",""28760""
","
","
","""event"",""trial"",""time""
""fullscreenenter"",""1"",""28760""
","
","","","618","","","17","11525","5307","&#9776;","elianto","#3366ff99"," "," ","1","+10","[1468]","1","0","1","","","","","","","",""
"pit-trial","22","483901","0.0-2.0-8.0-2.0","battery-v0.2","","""event"",""trial"",""time""
""fullscreenenter"",""1"",""28760""
","
","
","""event"",""trial"",""time""
""fullscreenenter"",""1"",""28760""
","
","","","525","","","17","11525","5307","&#9776;","elianto","#3366ff99"," "," ","1","+10","[1375]","1","0","1","","","","","","","",""
"pit-trial","23","487579","0.0-2.0-8.0-3.0","battery-v0.2","","""event"",""trial"",""time""
""fullscreenenter"",""1"",""28760""
","
","
","""event"",""trial"",""time""
""fullscreenenter"",""1"",""28760""
","
","","","823","","","17","11525","5307","&#9776;","elianto","#3366ff99"," "," ","1","0","[1674]","1","0","1","","","","","","","",""
"pit-trial","24","491259","0.0-2.0-8.0-4.0","battery-v0.2","","""event"",""trial"",""time""
""fullscreenenter"",""1"",""28760""
","
","
","""event"",""trial"",""time""
""fullscreenenter"",""1"",""28760""
","
","","","823","","","17","11525","5307","&#9776;","elianto","#3366ff99"," "," ","1","+10","[1673]","1","0","1","","","","","","","",""
"pit-trial","25","495465","0.0-2.0-8.1-0.1","battery-v0.2","","""event"",""trial"",""time""
""fullscreenenter"",""1"",""28760""
","
","
","""event"",""trial"",""time""
""fullscreenenter"",""1"",""28760""
","
","","","1350","","","17","11525","5307","&#9776;","elianto","#3366ff99"," "," ","1","+10","[2201]","1","0","1","","","","","","","",""
"pit-trial","26","499233","0.0-2.0-8.1-1.1","battery-v0.2","","""event"",""trial"",""time""
""fullscreenenter"",""1"",""28760""
","
","
","""event"",""trial"",""time""
""fullscreenenter"",""1"",""28760""
","
","","","911","","","17","11525","5307","&#9776;","elianto","#3366ff99"," "," ","1","+10","[1761]","1","0","1","","","","","","","",""
"pit-trial","27","502778","0.0-2.0-8.1-2.1","battery-v0.2","","""event"",""trial"",""time""
""fullscreenenter"",""1"",""28760""
","
","
","""event"",""trial"",""time""
""fullscreenenter"",""1"",""28760""
","
","","","690","","","17","11525","5307","&#9776;","elianto","#3366ff99"," "," ","1","+10","[1540]","1","0","1","","","","","","","",""
"pit-trial","28","507634","0.0-2.0-8.1-3.1","battery-v0.2","","""event"",""trial"",""time""
""fullscreenenter"",""1"",""28760""
","
","
","""event"",""trial"",""time""
""fullscreenenter"",""1"",""28760""
","
","","","-1","","","17","11525","5307","&#9776;","elianto","#3366ff99"," ","-1","0","+10","[668]","1","0","1","","","","","","","",""
"pit-trial","29","510931","0.0-2.0-8.1-4.1","battery-v0.2","","""event"",""trial"",""time""
""fullscreenenter"",""1"",""28760""
","
","
","""event"",""trial"",""time""
""fullscreenenter"",""1"",""28760""
","
","","","441","","","17","11525","5307","&#9776;","elianto","#3366ff99"," "," ","1","+10","[1291]","1","0","1","","","","","","","",""
"pit-trial","30","514330","0.0-2.0-8.2-0.2","battery-v0.2","","""event"",""trial"",""time""
""fullscreenenter"",""1"",""28760""
","
","
","""event"",""trial"",""time""
""fullscreenenter"",""1"",""28760""
","
","","","543.0000000000582","","","17","11525","5307","&#9776;","elianto","#3366ff99"," "," ","1","+10","[1394.0000000000582]","1","0","1","","","","","","","",""
"pit-trial","31","518818","0.0-2.0-8.2-1.2","battery-v0.2","","""event"",""trial"",""time""
""fullscreenenter"",""1"",""28760""
","
","
","""event"",""trial"",""time""
""fullscreenenter"",""1"",""28760""
","
","","","1632.9999999999418","","","17","11525","5307","&#9776;","elianto","#3366ff99"," "," ","1","+10","[2483.999999999942]","1","0","1","","","","","","","",""
"pit-trial","32","523629","0.0-2.0-8.2-2.2","battery-v0.2","","""event"",""trial"",""time""
""fullscreenenter"",""1"",""28760""
","
","
","""event"",""trial"",""time""
""fullscreenenter"",""1"",""28760""
","
","","","1956","","","17","11525","5307","&#9776;","elianto","#3366ff99"," "," ","1","+10","[2806]","1","0","1","","","","","","","",""
"pit-trial","33","527666","0.0-2.0-8.2-3.2","battery-v0.2","","""event"",""trial"",""time""
""fullscreenenter"",""1"",""28760""
","
","
","""event"",""trial"",""time""
""fullscreenenter"",""1"",""28760""
","
","","","1183","","","17","11525","5307","&#9776;","elianto","#3366ff99"," "," ","1","0","[2033]","1","0","1","","","","","","","",""
"pit-trial","34","532377","0.0-2.0-8.2-4.2","battery-v0.2","","""event"",""trial"",""time""
""fullscreenenter"",""1"",""28760""
","
","
","""event"",""trial"",""time""
""fullscreenenter"",""1"",""28760""
","
","","","1855","","","17","11525","5307","&#9776;","elianto","#3366ff99"," "," ","1","+10","[2705]","1","0","1","","","","","","","",""
"call-function","35","532381","0.0-2.0-9.0","battery-v0.2","","""event"",""trial"",""time""
""fullscreenenter"",""1"",""28760""
","
","
","""event"",""trial"",""time""
""fullscreenenter"",""1"",""28760""
","
","","","","","","","","","","","","","","","","","","","","","","","","","","",""
"pit-instructions","36","578144","0.0-2.0-10.0","battery-v0.2","","""event"",""trial"",""time""
""fullscreenenter"",""1"",""28760""
","
","
","""event"",""trial"",""time""
""fullscreenenter"",""1"",""28760""
","
","","[{""page_index"":0,""viewing_time"":5636},{""page_index"":1,""viewing_time"":7394},{""page_index"":2,""viewing_time"":9951},{""page_index"":3,""viewing_time"":13995},{""page_index"":4,""viewing_time"":8788}]","45765","","","","","","","","","","","","","","","","","","","","","","","",""
"pit-trial","37","582612","0.0-2.0-11.0-0.0","battery-v0.2","","""event"",""trial"",""time""
""fullscreenenter"",""1"",""28760""
","
","
","""event"",""trial"",""time""
""fullscreenenter"",""1"",""28760""
","
","","","1612","","","17","11525","5307","&#9761;","elianto","#3366ff99","-1"," ","0","0","[2462.9999999998836]","1","0","2","","","","","","","",""
"pit-trial","38","585666","0.0-2.0-11.0-1.0","battery-v0.2","","""event"",""trial"",""time""
""fullscreenenter"",""1"",""28760""
","
","
","""event"",""trial"",""time""
""fullscreenenter"",""1"",""28760""
","
","","","199","","","17","11525","5307","&#9761;","elianto","#3366ff99","-1"," ","0","0","[1049]","1","0","2","","","","","","","",""
"pit-trial","39","588625","0.0-2.0-11.0-2.0","battery-v0.2","","""event"",""trial"",""time""
""fullscreenenter"",""1"",""28760""
","
","
","""event"",""trial"",""time""
""fullscreenenter"",""1"",""28760""
","
","","","104","","","17","11525","5307","&#9761;","elianto","#3366ff99","-1"," ","0","0","[955]","1","0","2","","","","","","","",""
"pit-trial","40","593481","0.0-2.0-11.0-3.0","battery-v0.2","","""event"",""trial"",""time""
""fullscreenenter"",""1"",""28760""
","
","
","""event"",""trial"",""time""
""fullscreenenter"",""1"",""28760""
","
","","","-1","","","17","11525","5307","&#9761;","elianto","#3366ff99","-1","-1","1","0","[]","0","0","2","","","","","","","",""
"pit-trial","41","598337","0.0-2.0-11.0-4.0","battery-v0.2","","""event"",""trial"",""time""
""fullscreenenter"",""1"",""28760""
","
","
","""event"",""trial"",""time""
""fullscreenenter"",""1"",""28760""
","
","","","-1","","","17","11525","5307","&#9761;","elianto","#3366ff99","-1","-1","1","+10","[]","0","0","2","","","","","","","",""
"pit-trial","42","603194","0.0-2.0-11.1-0.1","battery-v0.2","","""event"",""trial"",""time""
""fullscreenenter"",""1"",""28760""
","
","
","""event"",""trial"",""time""
""fullscreenenter"",""1"",""28760""
","
","","","-1","","","17","11525","5307","&#9761;","elianto","#3366ff99","-1","-1","1","+10","[]","0","0","2","","","","","","","",""
"pit-trial","43","606235","0.0-2.0-11.1-1.1","battery-v0.2","","""event"",""trial"",""time""
""fullscreenenter"",""1"",""28760""
","
","
","""event"",""trial"",""time""
""fullscreenenter"",""1"",""28760""
","
","","","186","","","17","11525","5307","&#9761;","elianto","#3366ff99","-1"," ","0","0","[454,1036]","2","0","2","","","","","","","",""
"pit-trial","44","609646","0.0-2.0-11.1-2.1","battery-v0.2","","""event"",""trial"",""time""
""fullscreenenter"",""1"",""28760""
","
","
","""event"",""trial"",""time""
""fullscreenenter"",""1"",""28760""
","
","","","556.9999999998836","","","17","11525","5307","&#9761;","elianto","#3366ff99","-1"," ","0","0","[1406]","1","0","2","","","","","","","",""
"pit-trial","45","614502","0.0-2.0-11.1-3.1","battery-v0.2","","""event"",""trial"",""time""
""fullscreenenter"",""1"",""28760""
","
","
","""event"",""trial"",""time""
""fullscreenenter"",""1"",""28760""
","
","","","-1","","","17","11525","5307","&#9761;","elianto","#3366ff99","-1","-1","1","0","[]","0","0","2","","","","","","","",""
"pit-trial","46","619357","0.0-2.0-11.1-4.1","battery-v0.2","","""event"",""trial"",""time""
""fullscreenenter"",""1"",""28760""
","
","
","""event"",""trial"",""time""
""fullscreenenter"",""1"",""28760""
","
","","","-1","","","17","11525","5307","&#9761;","elianto","#3366ff99","-1","-1","1","+10","[]","0","0","2","","","","","","","",""
"pit-trial","47","624212","0.0-2.0-11.2-0.2","battery-v0.2","","""event"",""trial"",""time""
""fullscreenenter"",""1"",""28760""
","
","
","""event"",""trial"",""time""
""fullscreenenter"",""1"",""28760""
","
","","","-1","","","17","11525","5307","&#9761;","elianto","#3366ff99","-1","-1","1","+10","[]","0","0","2","","","","","","","",""
"pit-trial","48","628081","0.0-2.0-11.2-1.2","battery-v0.2","","""event"",""trial"",""time""
""fullscreenenter"",""1"",""28760""
","
","
","""event"",""trial"",""time""
""fullscreenenter"",""1"",""28760""
","
","","","1014","","","17","11525","5307","&#9761;","elianto","#3366ff99","-1"," ","0","0","[1865]","1","0","2","","","","","","","",""
"pit-trial","49","632937","0.0-2.0-11.2-2.2","battery-v0.2","","""event"",""trial"",""time""
""fullscreenenter"",""1"",""28760""
","
","
","""event"",""trial"",""time""
""fullscreenenter"",""1"",""28760""
","
","","","-1","","","17","11525","5307","&#9761;","elianto","#3366ff99","-1","-1","1","+10","[]","0","0","2","","","","","","","",""
"pit-trial","50","637792","0.0-2.0-11.2-3.2","battery-v0.2","","""event"",""trial"",""time""
""fullscreenenter"",""1"",""28760""
","
","
","""event"",""trial"",""time""
""fullscreenenter"",""1"",""28760""
","
","","","-1","","","17","11525","5307","&#9761;","elianto","#3366ff99","-1","-1","1","0","[]","0","0","2","","","","","","","",""
"pit-trial","51","642648","0.0-2.0-11.2-4.2","battery-v0.2","","""event"",""trial"",""time""
""fullscreenenter"",""1"",""28760""
","
","
","""event"",""trial"",""time""
""fullscreenenter"",""1"",""28760""
","
","","","-1","","","17","11525","5307","&#9761;","elianto","#3366ff99","-1","-1","1","+10","[]","0","0","2","","","","","","","",""
"pit-trial","52","647503","0.0-2.0-11.3-0.3","battery-v0.2","","""event"",""trial"",""time""
""fullscreenenter"",""1"",""28760""
","
","
","""event"",""trial"",""time""
""fullscreenenter"",""1"",""28760""
","
","","","-1","","","17","11525","5307","&#9761;","elianto","#3366ff99","-1","-1","1","+10","[210]","1","0","2","","","","","","","",""
"pit-trial","53","652358","0.0-2.0-11.3-1.3","battery-v0.2","","""event"",""trial"",""time""
""fullscreenenter"",""1"",""28760""
","
","
","""event"",""trial"",""time""
""fullscreenenter"",""1"",""28760""
","
","","","-1","","","17","11525","5307","&#9761;","elianto","#3366ff99","-1","-1","1","+10","[]","0","0","2","","","","","","","",""
"pit-trial","54","657213","0.0-2.0-11.3-2.3","battery-v0.2","","""event"",""trial"",""time""
""fullscreenenter"",""1"",""28760""
","
","
","""event"",""trial"",""time""
""fullscreenenter"",""1"",""28760""
","
","","","-1","","","17","11525","5307","&#9761;","elianto","#3366ff99","-1","-1","1","+10","[4385.999999999884]","1","0","2","","","","","","","",""
"pit-trial","55","660918","0.0-2.0-11.3-3.3","battery-v0.2","","""event"",""trial"",""time""
""fullscreenenter"",""1"",""28760""
","
","
","""event"",""trial"",""time""
""fullscreenenter"",""1"",""28760""
","
","","","850","","","17","11525","5307","&#9761;","elianto","#3366ff99","-1"," ","0","+10","[1701]","1","0","2","","","","","","","",""
"pit-trial","56","665773","0.0-2.0-11.3-4.3","battery-v0.2","","""event"",""trial"",""time""
""fullscreenenter"",""1"",""28760""
","
","
","""event"",""trial"",""time""
""fullscreenenter"",""1"",""28760""
","
","","","-1","","","17","11525","5307","&#9761;","elianto","#3366ff99","-1","-1","1","+10","[4193]","1","0","2","","","","","","","",""
"call-function","57","665776","0.0-2.0-12.0","battery-v0.2","","""event"",""trial"",""time""
""fullscreenenter"",""1"",""28760""
","
","
","""event"",""trial"",""time""
""fullscreenenter"",""1"",""28760""
","
","","","","","","","","","","","","","","","","","","","","","","","","","","",""
"pit-instructions","58","768580","0.0-2.0-13.0","battery-v0.2","","""event"",""trial"",""time""
""fullscreenenter"",""1"",""28760""
","
","
","""event"",""trial"",""time""
""fullscreenenter"",""1"",""28760""
","
","","[{""page_index"":0,""viewing_time"":7721},{""page_index"":1,""viewing_time"":55673},{""page_index"":2,""viewing_time"":9434},{""page_index"":3,""viewing_time"":21879},{""page_index"":4,""viewing_time"":8100}]","102807","","","","","","","","","","","","","","","","","","","","","","","",""
"pit-trial","59","772746","0.0-2.0-14.0-0.0","battery-v0.2","","""event"",""trial"",""time""
""fullscreenenter"",""1"",""28760""
","
","
","""event"",""trial"",""time""
""fullscreenenter"",""1"",""28760""
","
","","","1309.9999999998836","","","17","11525","5307","&#9826;","elianto","#f73b6a7A","-1"," ","0","-10","[2160]","1","0","3","","","","","","","",""
"pit-trial","60","777343","0.0-2.0-14.0-1.0","battery-v0.2","","""event"",""trial"",""time""
""fullscreenenter"",""1"",""28760""
","
","
","""event"",""trial"",""time""
""fullscreenenter"",""1"",""28760""
","
","","","1741","","","17","11525","5307","&#9826;","elianto","#f73b6a7A","-1"," ","0","-10","[2592]","1","0","3","","","","","","","",""
"pit-trial","61","782198","0.0-2.0-14.0-2.0","battery-v0.2","","""event"",""trial"",""time""
""fullscreenenter"",""1"",""28760""
","
","
","""event"",""trial"",""time""
""fullscreenenter"",""1"",""28760""
","
","","","-1","","","17","11525","5307","&#9826;","elianto","#f73b6a7A","-1","-1","1","0","[]","0","0","3","","","","","","","",""
"pit-trial","62","787054","0.0-2.0-14.0-3.0","battery-v0.2","","""event"",""trial"",""time""
""fullscreenenter"",""1"",""28760""
","
","
","""event"",""trial"",""time""
""fullscreenenter"",""1"",""28760""
","
","","","-1","","","17","11525","5307","&#9826;","elianto","#f73b6a7A","-1","-1","1","-10","[]","0","0","3","","","","","","","",""
"pit-trial","63","791909","0.0-2.0-14.0-4.0","battery-v0.2","","""event"",""trial"",""time""
""fullscreenenter"",""1"",""28760""
","
","
","""event"",""trial"",""time""
""fullscreenenter"",""1"",""28760""
","
","","","-1","","","17","11525","5307","&#9826;","elianto","#f73b6a7A","-1","-1","1","0","[]","0","0","3","","","","","","","",""
"pit-trial","64","796765","0.0-2.0-14.1-0.1","battery-v0.2","","""event"",""trial"",""time""
""fullscreenenter"",""1"",""28760""
","
","
","""event"",""trial"",""time""
""fullscreenenter"",""1"",""28760""
","
","","","-1","","","17","11525","5307","&#9826;","elianto","#f73b6a7A","-1","-1","1","0","[]","0","0","3","","","","","","","",""
"pit-trial","65","801621","0.0-2.0-14.1-1.1","battery-v0.2","","""event"",""trial"",""time""
""fullscreenenter"",""1"",""28760""
","
","
","""event"",""trial"",""time""
""fullscreenenter"",""1"",""28760""
","
","","","-1","","","17","11525","5307","&#9826;","elianto","#f73b6a7A","-1","-1","1","0","[]","0","0","3","","","","","","","",""
"pit-trial","66","806477","0.0-2.0-14.1-2.1","battery-v0.2","","""event"",""trial"",""time""
""fullscreenenter"",""1"",""28760""
","
","
","""event"",""trial"",""time""
""fullscreenenter"",""1"",""28760""
","
","","","-1","","","17","11525","5307","&#9826;","elianto","#f73b6a7A","-1","-1","1","0","[]","0","0","3","","","","","","","",""
"pit-trial","67","811332","0.0-2.0-14.1-3.1","battery-v0.2","","""event"",""trial"",""time""
""fullscreenenter"",""1"",""28760""
","
","
","""event"",""trial"",""time""
""fullscreenenter"",""1"",""28760""
","
","","","-1","","","17","11525","5307","&#9826;","elianto","#f73b6a7A","-1","-1","1","-10","[]","0","0","3","","","","","","","",""
"pit-trial","68","816189","0.0-2.0-14.1-4.1","battery-v0.2","","""event"",""trial"",""time""
""fullscreenenter"",""1"",""28760""
","
","
","""event"",""trial"",""time""
""fullscreenenter"",""1"",""28760""
","
","","","-1","","","17","11525","5307","&#9826;","elianto","#f73b6a7A","-1","-1","1","0","[]","0","0","3","","","","","","","",""
"pit-trial","69","821046","0.0-2.0-14.2-0.2","battery-v0.2","","""event"",""trial"",""time""
""fullscreenenter"",""1"",""28760""
","
","
","""event"",""trial"",""time""
""fullscreenenter"",""1"",""28760""
","
","","","-1","","","17","11525","5307","&#9826;","elianto","#f73b6a7A","-1","-1","1","0","[]","0","0","3","","","","","","","",""
"pit-trial","70","825902","0.0-2.0-14.2-1.2","battery-v0.2","","""event"",""trial"",""time""
""fullscreenenter"",""1"",""28760""
","
","
","""event"",""trial"",""time""
""fullscreenenter"",""1"",""28760""
","
","","","-1","","","17","11525","5307","&#9826;","elianto","#f73b6a7A","-1","-1","1","0","[]","0","0","3","","","","","","","",""
"pit-trial","71","830758","0.0-2.0-14.2-2.2","battery-v0.2","","""event"",""trial"",""time""
""fullscreenenter"",""1"",""28760""
","
","
","""event"",""trial"",""time""
""fullscreenenter"",""1"",""28760""
","
","","","-1","","","17","11525","5307","&#9826;","elianto","#f73b6a7A","-1","-1","1","0","[]","0","0","3","","","","","","","",""
"pit-trial","72","835614","0.0-2.0-14.2-3.2","battery-v0.2","","""event"",""trial"",""time""
""fullscreenenter"",""1"",""28760""
","
","
","""event"",""trial"",""time""
""fullscreenenter"",""1"",""28760""
","
","","","-1","","","17","11525","5307","&#9826;","elianto","#f73b6a7A","-1","-1","1","-10","[]","0","0","3","","","","","","","",""
"pit-trial","73","840468","0.0-2.0-14.2-4.2","battery-v0.2","","""event"",""trial"",""time""
""fullscreenenter"",""1"",""28760""
","
","
","""event"",""trial"",""time""
""fullscreenenter"",""1"",""28760""
","
","","","-1","","","17","11525","5307","&#9826;","elianto","#f73b6a7A","-1","-1","1","0","[]","0","0","3","","","","","","","",""
"pit-trial","74","845323","0.0-2.0-14.3-0.3","battery-v0.2","","""event"",""trial"",""time""
""fullscreenenter"",""1"",""28760""
","
","
","""event"",""trial"",""time""
""fullscreenenter"",""1"",""28760""
","
","","","-1","","","17","11525","5307","&#9826;","elianto","#f73b6a7A","-1","-1","1","0","[]","0","0","3","","","","","","","",""
"pit-trial","75","850179","0.0-2.0-14.3-1.3","battery-v0.2","","""event"",""trial"",""time""
""fullscreenenter"",""1"",""28760""
","
","
","""event"",""trial"",""time""
""fullscreenenter"",""1"",""28760""
","
","","","-1","","","17","11525","5307","&#9826;","elianto","#f73b6a7A","-1","-1","1","0","[]","0","0","3","","","","","","","",""
"pit-trial","76","855035","0.0-2.0-14.3-2.3","battery-v0.2","","""event"",""trial"",""time""
""fullscreenenter"",""1"",""28760""
","
","
","""event"",""trial"",""time""
""fullscreenenter"",""1"",""28760""
","
","","","-1","","","17","11525","5307","&#9826;","elianto","#f73b6a7A","-1","-1","1","0","[]","0","0","3","","","","","","","",""
"pit-trial","77","859890","0.0-2.0-14.3-3.3","battery-v0.2","","""event"",""trial"",""time""
""fullscreenenter"",""1"",""28760""
","
","
","""event"",""trial"",""time""
""fullscreenenter"",""1"",""28760""
","
","","","-1","","","17","11525","5307","&#9826;","elianto","#f73b6a7A","-1","-1","1","-10","[]","0","0","3","","","","","","","",""
"pit-trial","78","864745","0.0-2.0-14.3-4.3","battery-v0.2","","""event"",""trial"",""time""
""fullscreenenter"",""1"",""28760""
","
","
","""event"",""trial"",""time""
""fullscreenenter"",""1"",""28760""
","
","","","-1","","","17","11525","5307","&#9826;","elianto","#f73b6a7A","-1","-1","1","0","[]","0","0","3","","","","","","","",""
"call-function","79","864749","0.0-2.0-15.0","battery-v0.2","","""event"",""trial"",""time""
""fullscreenenter"",""1"",""28760""
","
","
","""event"",""trial"",""time""
""fullscreenenter"",""1"",""28760""
","
","","","","","","","","","","","","","","","","","","","","","","","","","","",""
"pit-instructions","80","911646","0.0-2.0-16.0","battery-v0.2","","""event"",""trial"",""time""
""fullscreenenter"",""1"",""28760""
","
","
","""event"",""trial"",""time""
""fullscreenenter"",""1"",""28760""
","
","","[{""page_index"":0,""viewing_time"":29345},{""page_index"":1,""viewing_time"":8090},{""page_index"":2,""viewing_time"":5310},{""page_index"":3,""viewing_time"":4152.000000000116}]","46897.00000000012","","","","","","","","","","","","","","","","","","","","","","","",""
"pit-trial","81","914701","0.0-2.0-17.0-0.0","battery-v0.2","","""event"",""trial"",""time""
""fullscreenenter"",""1"",""28760""
","
","
","""event"",""trial"",""time""
""fullscreenenter"",""1"",""28760""
","
","","","199","","","17","11525","5307","&#9789;","elianto","#f73b6a7A"," "," ","1","0","[1050,1223]","2","0","4","","","","","","","",""
"pit-trial","82","917759","0.0-2.0-17.0-1.0","battery-v0.2","","""event"",""trial"",""time""
""fullscreenenter"",""1"",""28760""
","
","
","""event"",""trial"",""time""
""fullscreenenter"",""1"",""28760""
","
","","","201","","","17","11525","5307","&#9789;","elianto","#f73b6a7A"," "," ","1","0","[827,1052,2065.0000000001164]","3","0","4","","","","","","","",""
"pit-trial","83","920679","0.0-2.0-17.0-2.0","battery-v0.2","","""event"",""trial"",""time""
""fullscreenenter"",""1"",""28760""
","
","
","""event"",""trial"",""time""
""fullscreenenter"",""1"",""28760""
","
","","","65","","","17","11525","5307","&#9789;","elianto","#f73b6a7A"," "," ","1","0","[120,451,675,916,1543,1758.0000000001164,2309,2497,2760]","9","0","4","","","","","","","",""
"pit-trial","84","923608","0.0-2.0-17.0-3.0","battery-v0.2","","""event"",""trial"",""time""
""fullscreenenter"",""1"",""28760""
","
","
","""event"",""trial"",""time""
""fullscreenenter"",""1"",""28760""
","
","","","73.00000000011642","","","17","11525","5307","&#9789;","elianto","#f73b6a7A"," "," ","1","-10","[73.00000000011642,208,323.0000000001164,490,651,819,924.0000000001164,1077]","8","0","4","","","","","","","",""
"pit-trial","85","928463","0.0-2.0-17.0-4.0","battery-v0.2","","""event"",""trial"",""time""
""fullscreenenter"",""1"",""28760""
","
","
","""event"",""trial"",""time""
""fullscreenenter"",""1"",""28760""
","
","","","-1","","","17","11525","5307","&#9789;","elianto","#f73b6a7A"," ","-1","0","-10","[]","0","0","4","","","","","","","",""
"pit-trial","86","933319","0.0-2.0-17.1-0.1","battery-v0.2","","""event"",""trial"",""time""
""fullscreenenter"",""1"",""28760""
","
","
","""event"",""trial"",""time""
""fullscreenenter"",""1"",""28760""
","
","","","-1","","","17","11525","5307","&#9789;","elianto","#f73b6a7A"," ","-1","0","-10","[]","0","0","4","","","","","","","",""
"pit-trial","87","938174","0.0-2.0-17.1-1.1","battery-v0.2","","""event"",""trial"",""time""
""fullscreenenter"",""1"",""28760""
","
","
","""event"",""trial"",""time""
""fullscreenenter"",""1"",""28760""
","
","","","-1","","","17","11525","5307","&#9789;","elianto","#f73b6a7A"," ","-1","0","-10","[]","0","0","4","","","","","","","",""
"pit-trial","88","943029","0.0-2.0-17.1-2.1","battery-v0.2","","""event"",""trial"",""time""
""fullscreenenter"",""1"",""28760""
","
","
","""event"",""trial"",""time""
""fullscreenenter"",""1"",""28760""
","
","","","-1","","","17","11525","5307","&#9789;","elianto","#f73b6a7A"," ","-1","0","-10","[]","0","0","4","","","","","","","",""
"pit-trial","89","947885","0.0-2.0-17.1-3.1","battery-v0.2","","""event"",""trial"",""time""
""fullscreenenter"",""1"",""28760""
","
","
","""event"",""trial"",""time""
""fullscreenenter"",""1"",""28760""
","
","","","-1","","","17","11525","5307","&#9789;","elianto","#f73b6a7A"," ","-1","0","0","[]","0","0","4","","","","","","","",""
"pit-trial","90","952740","0.0-2.0-17.1-4.1","battery-v0.2","","""event"",""trial"",""time""
""fullscreenenter"",""1"",""28760""
","
","
","""event"",""trial"",""time""
""fullscreenenter"",""1"",""28760""
","
","","","-1","","","17","11525","5307","&#9789;","elianto","#f73b6a7A"," ","-1","0","-10","[]","0","0","4","","","","","","","",""
"pit-trial","91","957595","0.0-2.0-17.2-0.2","battery-v0.2","","""event"",""trial"",""time""
""fullscreenenter"",""1"",""28760""
","
","
","""event"",""trial"",""time""
""fullscreenenter"",""1"",""28760""
","
","","","-1","","","17","11525","5307","&#9789;","elianto","#f73b6a7A"," ","-1","0","-10","[]","0","0","4","","","","","","","",""
"pit-trial","92","962451","0.0-2.0-17.2-1.2","battery-v0.2","","""event"",""trial"",""time""
""fullscreenenter"",""1"",""28760""
","
","
","""event"",""trial"",""time""
""fullscreenenter"",""1"",""28760""
","
","","","-1","","","17","11525","5307","&#9789;","elianto","#f73b6a7A"," ","-1","0","-10","[]","0","0","4","","","","","","","",""
"pit-trial","93","967306","0.0-2.0-17.2-2.2","battery-v0.2","","""event"",""trial"",""time""
""fullscreenenter"",""1"",""28760""
","
","
","""event"",""trial"",""time""
""fullscreenenter"",""1"",""28760""
","
","","","-1","","","17","11525","5307","&#9789;","elianto","#f73b6a7A"," ","-1","0","-10","[]","0","0","4","","","","","","","",""
"pit-trial","94","972161","0.0-2.0-17.2-3.2","battery-v0.2","","""event"",""trial"",""time""
""fullscreenenter"",""1"",""28760""
","
","
","""event"",""trial"",""time""
""fullscreenenter"",""1"",""28760""
","
","","","-1","","","17","11525","5307","&#9789;","elianto","#f73b6a7A"," ","-1","0","0","[]","0","0","4","","","","","","","",""
"pit-trial","95","977017","0.0-2.0-17.2-4.2","battery-v0.2","","""event"",""trial"",""time""
""fullscreenenter"",""1"",""28760""
","
","
","""event"",""trial"",""time""
""fullscreenenter"",""1"",""28760""
","
","","","-1","","","17","11525","5307","&#9789;","elianto","#f73b6a7A"," ","-1","0","-10","[]","0","0","4","","","","","","","",""
"pit-trial","96","981872","0.0-2.0-17.3-0.3","battery-v0.2","","""event"",""trial"",""time""
""fullscreenenter"",""1"",""28760""
","
","
","""event"",""trial"",""time""
""fullscreenenter"",""1"",""28760""
","
","","","-1","","","17","11525","5307","&#9789;","elianto","#f73b6a7A"," ","-1","0","-10","[]","0","0","4","","","","","","","",""
"pit-trial","97","986728","0.0-2.0-17.3-1.3","battery-v0.2","","""event"",""trial"",""time""
""fullscreenenter"",""1"",""28760""
","
","
","""event"",""trial"",""time""
""fullscreenenter"",""1"",""28760""
","
","","","-1","","","17","11525","5307","&#9789;","elianto","#f73b6a7A"," ","-1","0","-10","[]","0","0","4","","","","","","","",""
"pit-trial","98","991582","0.0-2.0-17.3-2.3","battery-v0.2","","""event"",""trial"",""time""
""fullscreenenter"",""1"",""28760""
","
","
","""event"",""trial"",""time""
""fullscreenenter"",""1"",""28760""
","
","","","-1","","","17","11525","5307","&#9789;","elianto","#f73b6a7A"," ","-1","0","-10","[]","0","0","4","","","","","","","",""
"pit-trial","99","996438","0.0-2.0-17.3-3.3","battery-v0.2","","""event"",""trial"",""time""
""fullscreenenter"",""1"",""28760""
","
","
","""event"",""trial"",""time""
""fullscreenenter"",""1"",""28760""
","
","","","-1","","","17","11525","5307","&#9789;","elianto","#f73b6a7A"," ","-1","0","0","[]","0","0","4","","","","","","","",""
"pit-trial","100","1001294","0.0-2.0-17.3-4.3","battery-v0.2","","""event"",""trial"",""time""
""fullscreenenter"",""1"",""28760""
","
","
","""event"",""trial"",""time""
""fullscreenenter"",""1"",""28760""
","
","","","-1","","","17","11525","5307","&#9789;","elianto","#f73b6a7A"," ","-1","0","-10","[]","0","0","4","","","","","","","",""
"call-function","101","1001297","0.0-2.0-18.0","battery-v0.2","","""event"",""trial"",""time""
""fullscreenenter"",""1"",""28760""
","
","
","""event"",""trial"",""time""
""fullscreenenter"",""1"",""28760""
","
","","","","","","","","","","","","","","","","","","","","","","","","","","",""
"pit-instructions","102","1085542","0.0-2.0-19.0","battery-v0.2","","""event"",""trial"",""time""
""fullscreenenter"",""1"",""28760""
","
","
","""event"",""trial"",""time""
""fullscreenenter"",""1"",""28760""
","
","","[{""page_index"":0,""viewing_time"":9614},{""page_index"":1,""viewing_time"":7929},{""page_index"":2,""viewing_time"":16670.000000000116},{""page_index"":3,""viewing_time"":10128.999999999884},{""page_index"":4,""viewing_time"":9298},{""page_index"":5,""viewing_time"":8570},{""page_index"":6,""viewing_time"":11529},{""page_index"":7,""viewing_time"":6513},{""page_index"":8,""viewing_time"":3995}]","84247","","","","","","","","","","","","","","","","","","","","","","","",""
"pit-comprehension","103","1089693","0.0-2.0-20.0-0.0","battery-v0.2","","""event"",""trial"",""time""
""fullscreenenter"",""1"",""28760""
","
","
","""event"",""trial"",""time""
""fullscreenenter"",""1"",""28760""
","
","","","4145","[""SPACE""]","0","17","11525","5307","","","","","","","","","","","","","","","","","","",""
"pit-instructions","104","1093034","0.0-2.0-20.0-1.0","battery-v0.2","","""event"",""trial"",""time""
""fullscreenenter"",""1"",""28760""
","
","
","""event"",""trial"",""time""
""fullscreenenter"",""1"",""28760""
","
","","[{""page_index"":0,""viewing_time"":3302}]","3302","","","","","","","","","","","","","","","","","","","","","","","",""
"pit-comprehension","105","1098303","0.0-2.0-21.0-0.0","battery-v0.2","","""event"",""trial"",""time""
""fullscreenenter"",""1"",""28760""
","
","
","""event"",""trial"",""time""
""fullscreenenter"",""1"",""28760""
","
","","","5262","[""10""]","0","17","11525","5307","","","","","","","","","","","","","","","","","","",""
"pit-instructions","106","1104735","0.0-2.0-21.0-1.0","battery-v0.2","","""event"",""trial"",""time""
""fullscreenenter"",""1"",""28760""
","
","
","""event"",""trial"",""time""
""fullscreenenter"",""1"",""28760""
","
","","[{""page_index"":0,""viewing_time"":6393}]","6394","","","","","","","","","","","","","","","","","","","","","","","",""
"pit-comprehension","107","1113007","0.0-2.0-22.0-0.0","battery-v0.2","","""event"",""trial"",""time""
""fullscreenenter"",""1"",""28760""
","
","
","""event"",""trial"",""time""
""fullscreenenter"",""1"",""28760""
","
","","","8265.000000000233","[""-10""]","1","17","11525","5307","","","","","","","","","","","","","","","","","","",""
"pit-instructions","108","1119869","0.0-2.0-22.0-1.0","battery-v0.2","","""event"",""trial"",""time""
""fullscreenenter"",""1"",""28760""
","
","
","""event"",""trial"",""time""
""fullscreenenter"",""1"",""28760""
","
","","[{""page_index"":0,""viewing_time"":6819}]","6819","","","","","","","","","","","","","","","","","","","","","","","",""
"pit-instructions","109","1121163","0.0-2.0-22.0-2.0-0.0","battery-v0.2","","""event"",""trial"",""time""
""fullscreenenter"",""1"",""28760""
","
","
","""event"",""trial"",""time""
""fullscreenenter"",""1"",""28760""
","
","","[{""page_index"":0,""viewing_time"":1290}]","1291","","","","","","","","","","","","","","","","","","","","","","","",""
"pit-comprehension","110","1127359","0.0-2.0-22.1-0.1","battery-v0.2","","""event"",""trial"",""time""
""fullscreenenter"",""1"",""28760""
","
","
","""event"",""trial"",""time""
""fullscreenenter"",""1"",""28760""
","
","","","6191","[""0""]","0","17","11525","5307","","","","","","","","","","","","","","","","","","",""
"pit-instructions","111","1131912","0.0-2.0-22.1-1.1","battery-v0.2","","""event"",""trial"",""time""
""fullscreenenter"",""1"",""28760""
","
","
","""event"",""trial"",""time""
""fullscreenenter"",""1"",""28760""
","
","","[{""page_index"":0,""viewing_time"":4508}]","4508","","","","","","","","","","","","","","","","","","","","","","","",""
"pit-comprehension","112","1140734","0.0-2.0-23.0-0.0","battery-v0.2","","""event"",""trial"",""time""
""fullscreenenter"",""1"",""28760""
","
","
","""event"",""trial"",""time""
""fullscreenenter"",""1"",""28760""
","
","","","8814.999999999767","[""False""]","1","17","11525","5307","","","","","","","","","","","","","","","","","","",""
"pit-instructions","113","1145869","0.0-2.0-23.0-1.0","battery-v0.2","","""event"",""trial"",""time""
""fullscreenenter"",""1"",""28760""
","
","
","""event"",""trial"",""time""
""fullscreenenter"",""1"",""28760""
","
","","[{""page_index"":0,""viewing_time"":5094}]","5094","","","","","","","","","","","","","","","","","","","","","","","",""
"pit-instructions","114","1148293","0.0-2.0-23.0-2.0-0.0","battery-v0.2","","""event"",""trial"",""time""
""fullscreenenter"",""1"",""28760""
","
","
","""event"",""trial"",""time""
""fullscreenenter"",""1"",""28760""
","
","","[{""page_index"":0,""viewing_time"":2420.000000000233}]","2420.000000000233","","","","","","","","","","","","","","","","","","","","","","","",""
"pit-comprehension","115","1156556","0.0-2.0-23.1-0.1","battery-v0.2","","""event"",""trial"",""time""
""fullscreenenter"",""1"",""28760""
","
","
","""event"",""trial"",""time""
""fullscreenenter"",""1"",""28760""
","
","","","8258","[""True""]","0","17","11525","5307","","","","","","","","","","","","","","","","","","",""
"pit-instructions","116","1159956","0.0-2.0-23.1-1.1","battery-v0.2","","""event"",""trial"",""time""
""fullscreenenter"",""1"",""28760""
","
","
","""event"",""trial"",""time""
""fullscreenenter"",""1"",""28760""
","
","","[{""page_index"":0,""viewing_time"":3358}]","3359.000000000233","","","","","","","","","","","","","","","","","","","","","","","",""
"pit-comprehension","117","1167685","0.0-2.0-24.0-0.0","battery-v0.2","","""event"",""trial"",""time""
""fullscreenenter"",""1"",""28760""
","
","
","""event"",""trial"",""time""
""fullscreenenter"",""1"",""28760""
","
","","","7721","[""True""]","0","17","11525","5307","","","","","","","","","","","","","","","","","","",""
"pit-instructions","118","1170815","0.0-2.0-24.0-1.0","battery-v0.2","","""event"",""trial"",""time""
""fullscreenenter"",""1"",""28760""
","
","
","""event"",""trial"",""time""
""fullscreenenter"",""1"",""28760""
","
","","[{""page_index"":0,""viewing_time"":3087}]","3087","","","","","","","","","","","","","","","","","","","","","","","",""
"pit-comprehension","119","1177256","0.0-2.0-25.0-0.0","battery-v0.2","","""event"",""trial"",""time""
""fullscreenenter"",""1"",""28760""
","
","
","""event"",""trial"",""time""
""fullscreenenter"",""1"",""28760""
","
","","","6434.999999999767","[""True""]","0","17","11525","5307","","","","","","","","","","","","","","","","","","",""
"pit-instructions","120","1184226","0.0-2.0-25.0-1.0","battery-v0.2","","""event"",""trial"",""time""
""fullscreenenter"",""1"",""28760""
","
","
","""event"",""trial"",""time""
""fullscreenenter"",""1"",""28760""
","
","","[{""page_index"":0,""viewing_time"":6925}]","6925","","","","","","","","","","","","","","","","","","","","","","","",""
"pit-comprehension","121","1189739","0.0-2.0-26.0-0.0","battery-v0.2","","""event"",""trial"",""time""
""fullscreenenter"",""1"",""28760""
","
","
","""event"",""trial"",""time""
""fullscreenenter"",""1"",""28760""
","
","","","5507","[""False""]","0","17","11525","5307","","","","","","","","","","","","","","","","","","",""
"pit-instructions","122","1197407","0.0-2.0-26.0-1.0","battery-v0.2","","""event"",""trial"",""time""
""fullscreenenter"",""1"",""28760""
","
","
","""event"",""trial"",""time""
""fullscreenenter"",""1"",""28760""
","
","","[{""page_index"":0,""viewing_time"":7625}]","7625","","","","","","","","","","","","","","","","","","","","","","","",""
"pit-instructions","123","1216834","0.0-3.0","battery-v0.2","","""event"",""trial"",""time""
""fullscreenenter"",""1"",""28760""
","
","
","""event"",""trial"",""time""
""fullscreenenter"",""1"",""28760""
","
","","[{""page_index"":0,""viewing_time"":5697},{""page_index"":1,""viewing_time"":6046},{""page_index"":2,""viewing_time"":7681}]","19424","","","","","","","","","","","","","","","","","","","","","","","",""
"pit-trial","124","1220444","0.0-4.0","battery-v0.2","","""event"",""trial"",""time""
""fullscreenenter"",""1"",""28760""
","
","
","""event"",""trial"",""time""
""fullscreenenter"",""1"",""28760""
","
","","","749","","","17","11525","5307","&#9733;","elianto","#3366ff99","-1"," ","0","0","[1601]","1","1","","","11525","1","2","2","win","no-go","0"
"pit-trial","125","1223932","0.0-5.0","battery-v0.2","","""event"",""trial"",""time""
""fullscreenenter"",""1"",""28760""
","
","
","""event"",""trial"",""time""
""fullscreenenter"",""1"",""28760""
","
","","","633","","","17","11525","5307","&#9730;","elianto","#3366ff99"," "," ","1","0","[1483]","1","1","","","11525","2","1","1","win","go","1"
"pit-trial","126","1228788","0.0-6.0","battery-v0.2","","""event"",""trial"",""time""
""fullscreenenter"",""1"",""28760""
","
","
","""event"",""trial"",""time""
""fullscreenenter"",""1"",""28760""
","
","","","-1","","","17","11525","5307","&#9728;","elianto","#f73b6a7A","-1","-1","1","0","[]","0","1","","","11525","3","0","4","lose","no-go","0"
"pit-trial","127","1232291","0.0-7.0","battery-v0.2","","""event"",""trial"",""time""
""fullscreenenter"",""1"",""28760""
","
","
","""event"",""trial"",""time""
""fullscreenenter"",""1"",""28760""
","
","","","649.0000000002328","","","17","11525","5307","&#9752;","elianto","#f73b6a7A"," "," ","1","-10","[1499.0000000002328]","1","1","","","11525","4","3","3","lose","go","1"
"pit-trial","128","1237148","0.0-8.0","battery-v0.2","","""event"",""trial"",""time""
""fullscreenenter"",""1"",""28760""
","
","
","""event"",""trial"",""time""
""fullscreenenter"",""1"",""28760""
","
","","","-1","","","17","11525","5307","&#9728;","elianto","#f73b6a7A","-1","-1","1","0","[]","0","1","","","11525","5","0","4","lose","no-go","0"
"pit-trial","129","1242005","0.0-9.0","battery-v0.2","","""event"",""trial"",""time""
""fullscreenenter"",""1"",""28760""
","
","
","""event"",""trial"",""time""
""fullscreenenter"",""1"",""28760""
","
","","","-1","","","17","11525","5307","&#9752;","elianto","#f73b6a7A"," ","-1","0","-10","[]","0","1","","","11525","6","3","3","lose","go","0"
"pit-trial","130","1245427","0.0-10.0","battery-v0.2","","""event"",""trial"",""time""
""fullscreenenter"",""1"",""28760""
","
","
","""event"",""trial"",""time""
""fullscreenenter"",""1"",""28760""
","
","","","566","","","17","11525","5307","&#9733;","elianto","#3366ff99","-1"," ","0","+10","[1416]","1","1","","","11525","7","2","2","win","no-go","1"
"pit-trial","131","1248767","0.0-11.0","battery-v0.2","","""event"",""trial"",""time""
""fullscreenenter"",""1"",""28760""
","
","
","""event"",""trial"",""time""
""fullscreenenter"",""1"",""28760""
","
","","","483","","","17","11525","5307","&#9730;","elianto","#3366ff99"," "," ","1","+10","[1333]","1","1","","","11525","8","1","1","win","go","0"
"pit-trial","132","1251965","0.0-12.0","battery-v0.2","","""event"",""trial"",""time""
""fullscreenenter"",""1"",""28760""
","
","
","""event"",""trial"",""time""
""fullscreenenter"",""1"",""28760""
","
","","","342","","","17","11525","5307","&#9733;","elianto","#3366ff99","-1"," ","0","0","[1192]","1","1","","","11525","9","2","2","win","no-go","0"
"pit-trial","133","1255306","0.0-13.0","battery-v0.2","","""event"",""trial"",""time""
""fullscreenenter"",""1"",""28760""
","
","
","""event"",""trial"",""time""
""fullscreenenter"",""1"",""28760""
","
","","","481","","","17","11525","5307","&#9730;","elianto","#3366ff99"," "," ","1","+10","[1332]","1","1","","","11525","10","1","1","win","go","0"
"pit-trial","134","1260167","0.0-14.0","battery-v0.2","","""event"",""trial"",""time""
""fullscreenenter"",""1"",""28760""
","
","
","""event"",""trial"",""time""
""fullscreenenter"",""1"",""28760""
","
","","","-1","","","17","11525","5307","&#9752;","elianto","#f73b6a7A"," ","-1","0","-10","[]","0","1","","","11525","11","3","3","lose","go","0"
"pit-trial","135","1265026","0.0-15.0","battery-v0.2","","""event"",""trial"",""time""
""fullscreenenter"",""1"",""28760""
","
","
","""event"",""trial"",""time""
""fullscreenenter"",""1"",""28760""
","
","","","-1","","","17","11525","5307","&#9728;","elianto","#f73b6a7A","-1","-1","1","0","[]","0","1","","","11525","12","0","4","lose","no-go","0"
"pit-trial","136","1268414","0.0-16.0","battery-v0.2","","""event"",""trial"",""time""
""fullscreenenter"",""1"",""28760""
","
","
","""event"",""trial"",""time""
""fullscreenenter"",""1"",""28760""
","
","","","531","","","17","11525","5307","&#9730;","elianto","#3366ff99"," "," ","1","+10","[1382]","1","1","","","11525","13","1","1","win","go","0"
"pit-trial","137","1273272","0.0-17.0","battery-v0.2","","""event"",""trial"",""time""
""fullscreenenter"",""1"",""28760""
","
","
","""event"",""trial"",""time""
""fullscreenenter"",""1"",""28760""
","
","","","-1","","","17","11525","5307","&#9752;","elianto","#f73b6a7A"," ","-1","0","-10","[]","0","1","","","11525","14","3","3","lose","go","0"
"pit-trial","138","1278129","0.0-18.0","battery-v0.2","","""event"",""trial"",""time""
""fullscreenenter"",""1"",""28760""
","
","
","""event"",""trial"",""time""
""fullscreenenter"",""1"",""28760""
","
","","","-1","","","17","11525","5307","&#9728;","elianto","#f73b6a7A","-1","-1","1","0","[]","0","1","","","11525","15","0","4","lose","no-go","0"
"pit-trial","139","1281410","0.0-19.0","battery-v0.2","","""event"",""trial"",""time""
""fullscreenenter"",""1"",""28760""
","
","
","""event"",""trial"",""time""
""fullscreenenter"",""1"",""28760""
","
","","","422","","","17","11525","5307","&#9733;","elianto","#3366ff99","-1"," ","0","0","[1275]","1","1","","","11525","16","2","2","win","no-go","0"
"pit-trial","140","1286267","0.0-20.0","battery-v0.2","","""event"",""trial"",""time""
""fullscreenenter"",""1"",""28760""
","
","
","""event"",""trial"",""time""
""fullscreenenter"",""1"",""28760""
","
","","","-1","","","17","11525","5307","&#9752;","elianto","#f73b6a7A"," ","-1","0","-10","[]","0","1","","","11525","17","3","3","lose","go","0"
"pit-trial","141","1289600","0.0-21.0","battery-v0.2","","""event"",""trial"",""time""
""fullscreenenter"",""1"",""28760""
","
","
","""event"",""trial"",""time""
""fullscreenenter"",""1"",""28760""
","
","","","475","","","17","11525","5307","&#9730;","elianto","#3366ff99"," "," ","1","+10","[1325.9999999997672]","1","1","","","11525","18","1","1","win","go","0"
"pit-trial","142","1293672","0.0-22.0","battery-v0.2","","""event"",""trial"",""time""
""fullscreenenter"",""1"",""28760""
","
","
","""event"",""trial"",""time""
""fullscreenenter"",""1"",""28760""
","
","","","1214","","","17","11525","5307","&#9733;","elianto","#3366ff99","-1"," ","0","0","[2066]","1","1","","","11525","19","2","2","win","no-go","0"
"pit-trial","143","1298531","0.0-23.0","battery-v0.2","","""event"",""trial"",""time""
""fullscreenenter"",""1"",""28760""
","
","
","""event"",""trial"",""time""
""fullscreenenter"",""1"",""28760""
","
","","","-1","","","17","11525","5307","&#9728;","elianto","#f73b6a7A","-1","-1","1","0","[]","0","1","","","11525","20","0","4","lose","no-go","0"
"pit-instructions","144","1312972","0.0-24.0","battery-v0.2","","""event"",""trial"",""time""
""fullscreenenter"",""1"",""28760""
","
","
","""event"",""trial"",""time""
""fullscreenenter"",""1"",""28760""
","
","","[{""page_index"":0,""viewing_time"":7304},{""page_index"":1,""viewing_time"":7131}]","14435","","","","","","","","","","","","","","","","","","","","","","","",""
"pit-trial","145","1317832","0.0-25.0","battery-v0.2","","""event"",""trial"",""time""
""fullscreenenter"",""1"",""28760""
","
","
","""event"",""trial"",""time""
""fullscreenenter"",""1"",""28760""
","
","","","-1","","","17","11525","5307","g","elianto","#f73b6a7A","-1","-1","1","-10","[]","0","2","","","11525","21","3","4","lose","no-go","1"
"pit-trial","146","1322689","0.0-26.0","battery-v0.2","","""event"",""trial"",""time""
""fullscreenenter"",""1"",""28760""
","
","
","""event"",""trial"",""time""
""fullscreenenter"",""1"",""28760""
","
","","","-1","","","17","11525","5307","u","elianto","#f73b6a7A"," ","-1","0","0","[]","0","2","","","11525","22","0","3","lose","go","1"
"pit-trial","147","1326139","0.0-27.0","battery-v0.2","","""event"",""trial"",""time""
""fullscreenenter"",""1"",""28760""
","
","
","""event"",""trial"",""time""
""fullscreenenter"",""1"",""28760""
","
","","","594","","","17","11525","5307","l","elianto","#3366ff99","-1"," ","0","0","[817,1444]","2","2","","","11525","23","1","2","win","no-go","0"
"pit-trial","148","1330996","0.0-28.0","battery-v0.2","","""event"",""trial"",""time""
""fullscreenenter"",""1"",""28760""
","
","
","""event"",""trial"",""time""
""fullscreenenter"",""1"",""28760""
","
","","","-1","","","17","11525","5307","a","elianto","#f73b6a7A"," ","-1","0","-10","[]","0","2","","","11525","24","2","3","lose","go","0"
"pit-trial","149","1335852","0.0-29.0","battery-v0.2","","""event"",""trial"",""time""
""fullscreenenter"",""1"",""28760""
","
","
","""event"",""trial"",""time""
""fullscreenenter"",""1"",""28760""
","
","","","-1","","","17","11525","5307","g","elianto","#f73b6a7A","-1","-1","1","0","[]","0","2","","","11525","25","3","4","lose","no-go","0"
"pit-trial","150","1339209","0.0-30.0","battery-v0.2","","""event"",""trial"",""time""
""fullscreenenter"",""1"",""28760""
","
","
","""event"",""trial"",""time""
""fullscreenenter"",""1"",""28760""
","
","","","500","","","17","11525","5307","l","elianto","#3366ff99","-1"," ","0","0","[1351]","1","2","","","11525","26","1","2","win","no-go","0"
"pit-trial","151","1343264","0.0-31.0","battery-v0.2","","""event"",""trial"",""time""
""fullscreenenter"",""1"",""28760""
","
","
","""event"",""trial"",""time""
""fullscreenenter"",""1"",""28760""
","
","","","1197.0000000002328","","","17","11525","5307","u","elianto","#f73b6a7A"," "," ","1","-10","[2048]","1","2","","","11525","27","0","3","lose","go","1"
"pit-trial","152","1348121","0.0-32.0","battery-v0.2","","""event"",""trial"",""time""
""fullscreenenter"",""1"",""28760""
","
","
","""event"",""trial"",""time""
""fullscreenenter"",""1"",""28760""
","
","","","-1","","","17","11525","5307","a","elianto","#f73b6a7A"," ","-1","0","-10","[]","0","2","","","11525","28","2","3","lose","go","0"
"pit-trial","153","1351517","0.0-33.0","battery-v0.2","","""event"",""trial"",""time""
""fullscreenenter"",""1"",""28760""
","
","
","""event"",""trial"",""time""
""fullscreenenter"",""1"",""28760""
","
","","","538","","","17","11525","5307","l","elianto","#3366ff99","-1"," ","0","0","[1388.9999999997672]","1","2","","","11525","29","1","2","win","no-go","0"
"pit-trial","154","1356374","0.0-34.0","battery-v0.2","","""event"",""trial"",""time""
""fullscreenenter"",""1"",""28760""
","
","
","""event"",""trial"",""time""
""fullscreenenter"",""1"",""28760""
","
","","","-1","","","17","11525","5307","g","elianto","#f73b6a7A","-1","-1","1","0","[]","0","2","","","11525","30","3","4","lose","no-go","0"
"pit-trial","155","1361230","0.0-35.0","battery-v0.2","","""event"",""trial"",""time""
""fullscreenenter"",""1"",""28760""
","
","
","""event"",""trial"",""time""
""fullscreenenter"",""1"",""28760""
","
","","","-1","","","17","11525","5307","a","elianto","#f73b6a7A"," ","-1","0","-10","[]","0","2","","","11525","31","2","3","lose","go","0"
"pit-trial","156","1366088","0.0-36.0","battery-v0.2","","""event"",""trial"",""time""
""fullscreenenter"",""1"",""28760""
","
","
","""event"",""trial"",""time""
""fullscreenenter"",""1"",""28760""
","
","","","-1","","","17","11525","5307","u","elianto","#f73b6a7A"," ","-1","0","-10","[]","0","2","","","11525","32","0","3","lose","go","0"
"pit-trial","157","1370945","0.0-37.0","battery-v0.2","","""event"",""trial"",""time""
""fullscreenenter"",""1"",""28760""
","
","
","""event"",""trial"",""time""
""fullscreenenter"",""1"",""28760""
","
","","","-1","","","17","11525","5307","a","elianto","#f73b6a7A"," ","-1","0","-10","[]","0","2","","","11525","33","2","3","lose","go","0"
"pit-trial","158","1374308","0.0-38.0","battery-v0.2","","""event"",""trial"",""time""
""fullscreenenter"",""1"",""28760""
","
","
","""event"",""trial"",""time""
""fullscreenenter"",""1"",""28760""
","
","","","506","","","17","11525","5307","l","elianto","#3366ff99","-1"," ","0","+10","[1357]","1","2","","","11525","34","1","2","win","no-go","1"
"pit-trial","159","1379165","0.0-39.0","battery-v0.2","","""event"",""trial"",""time""
""fullscreenenter"",""1"",""28760""
","
","
","""event"",""trial"",""time""
""fullscreenenter"",""1"",""28760""
","
","","","-1","","","17","11525","5307","g","elianto","#f73b6a7A","-1","-1","1","0","[]","0","2","","","11525","35","3","4","lose","no-go","0"
"pit-trial","160","1384021","0.0-40.0","battery-v0.2","","""event"",""trial"",""time""
""fullscreenenter"",""1"",""28760""
","
","
","""event"",""trial"",""time""
""fullscreenenter"",""1"",""28760""
","
","","","-1","","","17","11525","5307","u","elianto","#f73b6a7A"," ","-1","0","-10","[]","0","2","","","11525","36","0","3","lose","go","0"
"pit-trial","161","1388878","0.0-41.0","battery-v0.2","","""event"",""trial"",""time""
""fullscreenenter"",""1"",""28760""
","
","
","""event"",""trial"",""time""
""fullscreenenter"",""1"",""28760""
","
","","","-1","","","17","11525","5307","a","elianto","#f73b6a7A"," ","-1","0","-10","[323]","1","2","","","11525","37","2","3","lose","go","0"
"pit-trial","162","1392216","0.0-42.0","battery-v0.2","","""event"",""trial"",""time""
""fullscreenenter"",""1"",""28760""
","
","
","""event"",""trial"",""time""
""fullscreenenter"",""1"",""28760""
","
","","","480","","","17","11525","5307","l","elianto","#3366ff99","-1"," ","0","0","[1331]","1","2","","","11525","38","1","2","win","no-go","0"
"pit-trial","163","1397073","0.0-43.0","battery-v0.2","","""event"",""trial"",""time""
""fullscreenenter"",""1"",""28760""
","
","
","""event"",""trial"",""time""
""fullscreenenter"",""1"",""28760""
","
","","","-1","","","17","11525","5307","u","elianto","#f73b6a7A"," ","-1","0","-10","[]","0","2","","","11525","39","0","3","lose","go","0"
"pit-trial","164","1401929","0.0-44.0","battery-v0.2","","""event"",""trial"",""time""
""fullscreenenter"",""1"",""28760""
","
","
","""event"",""trial"",""time""
""fullscreenenter"",""1"",""28760""
","
","","","-1","","","17","11525","5307","g","elianto","#f73b6a7A","-1","-1","1","0","[]","0","2","","","11525","40","3","4","lose","no-go","0"
"pit-trial","165","1406786","0.0-45.0","battery-v0.2","","""event"",""trial"",""time""
""fullscreenenter"",""1"",""28760""
","
","
","""event"",""trial"",""time""
""fullscreenenter"",""1"",""28760""
","
","","","-1","","","17","11525","5307","g","elianto","#f73b6a7A","-1","-1","1","-10","[]","0","2","","","11525","41","3","4","lose","no-go","1"
"pit-trial","166","1411644","0.0-46.0","battery-v0.2","","""event"",""trial"",""time""
""fullscreenenter"",""1"",""28760""
","
","
","""event"",""trial"",""time""
""fullscreenenter"",""1"",""28760""
","
","","","-1","","","17","11525","5307","u","elianto","#f73b6a7A"," ","-1","0","0","[]","0","2","","","11525","42","0","3","lose","go","1"
"pit-trial","167","1416502","0.0-47.0","battery-v0.2","","""event"",""trial"",""time""
""fullscreenenter"",""1"",""28760""
","
","
","""event"",""trial"",""time""
""fullscreenenter"",""1"",""28760""
","
","","","-1","","","17","11525","5307","a","elianto","#f73b6a7A"," ","-1","0","-10","[]","0","2","","","11525","43","2","3","lose","go","0"
"pit-trial","168","1420231","0.0-48.0","battery-v0.2","","""event"",""trial"",""time""
""fullscreenenter"",""1"",""28760""
","
","
","""event"",""trial"",""time""
""fullscreenenter"",""1"",""28760""
","
","","","873.0000000002328","","","17","11525","5307","l","elianto","#3366ff99","-1"," ","0","+10","[1723.0000000002328]","1","2","","","11525","44","1","2","win","no-go","1"
"pit-trial","169","1423733","0.0-49.0","battery-v0.2","","""event"",""trial"",""time""
""fullscreenenter"",""1"",""28760""
","
","
","""event"",""trial"",""time""
""fullscreenenter"",""1"",""28760""
","
","","","644","","","17","11525","5307","l","elianto","#3366ff99","-1"," ","0","0","[1496]","1","2","","","11525","45","1","2","win","no-go","0"
"pit-trial","170","1428589","0.0-50.0","battery-v0.2","","""event"",""trial"",""time""
""fullscreenenter"",""1"",""28760""
","
","
","""event"",""trial"",""time""
""fullscreenenter"",""1"",""28760""
","
","","","-1","","","17","11525","5307","a","elianto","#f73b6a7A"," ","-1","0","-10","[]","0","2","","","11525","46","2","3","lose","go","0"
"pit-trial","171","1433446","0.0-51.0","battery-v0.2","","""event"",""trial"",""time""
""fullscreenenter"",""1"",""28760""
","
","
","""event"",""trial"",""time""
""fullscreenenter"",""1"",""28760""
","
","","","-1","","","17","11525","5307","u","elianto","#f73b6a7A"," ","-1","0","0","[]","0","2","","","11525","47","0","3","lose","go","1"
"pit-trial","172","1438302","0.0-52.0","battery-v0.2","","""event"",""trial"",""time""
""fullscreenenter"",""1"",""28760""
","
","
","""event"",""trial"",""time""
""fullscreenenter"",""1"",""28760""
","
","","","-1","","","17","11525","5307","g","elianto","#f73b6a7A","-1","-1","1","0","[]","0","2","","","11525","48","3","4","lose","no-go","0"
"pit-trial","173","1443160","0.0-53.0","battery-v0.2","","""event"",""trial"",""time""
""fullscreenenter"",""1"",""28760""
","
","
","""event"",""trial"",""time""
""fullscreenenter"",""1"",""28760""
","
","","","-1","","","17","11525","5307","g","elianto","#f73b6a7A","-1","-1","1","0","[]","0","2","","","11525","49","3","4","lose","no-go","0"
"pit-trial","174","1446653","0.0-54.0","battery-v0.2","","""event"",""trial"",""time""
""fullscreenenter"",""1"",""28760""
","
","
","""event"",""trial"",""time""
""fullscreenenter"",""1"",""28760""
","
","","","636.0000000002328","","","17","11525","5307","l","elianto","#3366ff99","-1"," ","0","0","[1487.0000000002328,1733]","2","2","","","11525","50","1","2","win","no-go","0"
"pit-trial","175","1451510","0.0-55.0","battery-v0.2","","""event"",""trial"",""time""
""fullscreenenter"",""1"",""28760""
","
","
","""event"",""trial"",""time""
""fullscreenenter"",""1"",""28760""
","
","","","-1","","","17","11525","5307","a","elianto","#f73b6a7A"," ","-1","0","-10","[]","0","2","","","11525","51","2","3","lose","go","0"
"pit-trial","176","1456367","0.0-56.0","battery-v0.2","","""event"",""trial"",""time""
""fullscreenenter"",""1"",""28760""
","
","
","""event"",""trial"",""time""
""fullscreenenter"",""1"",""28760""
","
","","","-1","","","17","11525","5307","u","elianto","#f73b6a7A"," ","-1","0","-10","[]","0","2","","","11525","52","0","3","lose","go","0"
"pit-trial","177","1461224","0.0-57.0","battery-v0.2","","""event"",""trial"",""time""
""fullscreenenter"",""1"",""28760""
","
","
","""event"",""trial"",""time""
""fullscreenenter"",""1"",""28760""
","
","","","-1","","","17","11525","5307","u","elianto","#f73b6a7A"," ","-1","0","-10","[]","0","2","","","11525","53","0","3","lose","go","0"
"pit-trial","178","1466081","0.0-58.0","battery-v0.2","","""event"",""trial"",""time""
""fullscreenenter"",""1"",""28760""
","
","
","""event"",""trial"",""time""
""fullscreenenter"",""1"",""28760""
","
","","","-1","","","17","11525","5307","g","elianto","#f73b6a7A","-1","-1","1","0","[]","0","2","","","11525","54","3","4","lose","no-go","0"
"pit-trial","179","1469504","0.0-59.0","battery-v0.2","","""event"",""trial"",""time""
""fullscreenenter"",""1"",""28760""
","
","
","""event"",""trial"",""time""
""fullscreenenter"",""1"",""28760""
","
","","","567","","","17","11525","5307","l","elianto","#3366ff99","-1"," ","0","0","[1417]","1","2","","","11525","55","1","2","win","no-go","0"
"pit-trial","180","1474361","0.0-60.0","battery-v0.2","","""event"",""trial"",""time""
""fullscreenenter"",""1"",""28760""
","
","
","""event"",""trial"",""time""
""fullscreenenter"",""1"",""28760""
","
","","","-1","","","17","11525","5307","a","elianto","#f73b6a7A"," ","-1","0","0","[]","0","2","","","11525","56","2","3","lose","go","1"
"pit-trial","181","1479217","0.0-61.0","battery-v0.2","","""event"",""trial"",""time""
""fullscreenenter"",""1"",""28760""
","
","
","""event"",""trial"",""time""
""fullscreenenter"",""1"",""28760""
","
","","","-1","","","17","11525","5307","a","elianto","#f73b6a7A"," ","-1","0","-10","[]","0","2","","","11525","57","2","3","lose","go","0"
"pit-trial","182","1482657","0.0-62.0","battery-v0.2","","""event"",""trial"",""time""
""fullscreenenter"",""1"",""28760""
","
","
","""event"",""trial"",""time""
""fullscreenenter"",""1"",""28760""
","
","","","583","","","17","11525","5307","p","elianto","#3366ff99"," "," ","1","+10","[1434]","1","2","","","11525","58","4","1","win","go","0"
"pit-trial","183","1487513","0.0-63.0","battery-v0.2","","""event"",""trial"",""time""
""fullscreenenter"",""1"",""28760""
","
","
","""event"",""trial"",""time""
""fullscreenenter"",""1"",""28760""
","
","","","-1","","","17","11525","5307","g","elianto","#f73b6a7A","-1","-1","1","0","[]","0","2","","","11525","59","3","4","lose","no-go","0"
"pit-trial","184","1492371","0.0-64.0","battery-v0.2","","""event"",""trial"",""time""
""fullscreenenter"",""1"",""28760""
","
","
","""event"",""trial"",""time""
""fullscreenenter"",""1"",""28760""
","
","","","-1","","","17","11525","5307","u","elianto","#f73b6a7A"," ","-1","0","-10","[]","0","2","","","11525","60","0","3","lose","go","0"
"pit-trial","185","1495962","0.0-65.0","battery-v0.2","","""event"",""trial"",""time""
""fullscreenenter"",""1"",""28760""
","
","
","""event"",""trial"",""time""
""fullscreenenter"",""1"",""28760""
","
","","","733.9999999997672","","","17","11525","5307","l","elianto","#3366ff99","-1"," ","0","0","[1585]","1","2","","","11525","61","1","2","win","no-go","0"
"pit-trial","186","1500819","0.0-66.0","battery-v0.2","","""event"",""trial"",""time""
""fullscreenenter"",""1"",""28760""
","
","
","""event"",""trial"",""time""
""fullscreenenter"",""1"",""28760""
","
","","","-1","","","17","11525","5307","a","elianto","#f73b6a7A"," ","-1","0","-10","[]","0","2","","","11525","62","2","3","lose","go","0"
"pit-trial","187","1505677","0.0-67.0","battery-v0.2","","""event"",""trial"",""time""
""fullscreenenter"",""1"",""28760""
","
","
","""event"",""trial"",""time""
""fullscreenenter"",""1"",""28760""
","
","","","-1","","","17","11525","5307","g","elianto","#f73b6a7A","-1","-1","1","-10","[]","0","2","","","11525","63","3","4","lose","no-go","1"
"pit-trial","188","1509036","0.0-68.0","battery-v0.2","","""event"",""trial"",""time""
""fullscreenenter"",""1"",""28760""
","
","
","""event"",""trial"",""time""
""fullscreenenter"",""1"",""28760""
","
","","","501.00000000023283","","","17","11525","5307","p","elianto","#3366ff99"," "," ","1","+10","[1352.0000000002328]","1","2","","","11525","64","4","1","win","go","0"
"pit-trial","189","1512556","0.0-69.0","battery-v0.2","","""event"",""trial"",""time""
""fullscreenenter"",""1"",""28760""
","
","
","""event"",""trial"",""time""
""fullscreenenter"",""1"",""28760""
","
","","","664","","","17","11525","5307","l","elianto","#3366ff99","-1"," ","0","0","[1514]","1","2","","","11525","65","1","2","win","no-go","0"
"pit-trial","190","1516073","0.0-70.0","battery-v0.2","","""event"",""trial"",""time""
""fullscreenenter"",""1"",""28760""
","
","
","""event"",""trial"",""time""
""fullscreenenter"",""1"",""28760""
","
","","","661.0000000002328","","","17","11525","5307","p","elianto","#3366ff99"," "," ","1","+10","[1511.0000000002328]","1","2","","","11525","66","4","1","win","go","0"
"pit-trial","191","1520930","0.0-71.0","battery-v0.2","","""event"",""trial"",""time""
""fullscreenenter"",""1"",""28760""
","
","
","""event"",""trial"",""time""
""fullscreenenter"",""1"",""28760""
","
","","","-1","","","17","11525","5307","g","elianto","#f73b6a7A","-1","-1","1","0","[]","0","2","","","11525","67","3","4","lose","no-go","0"
"pit-trial","192","1524283","0.0-72.0","battery-v0.2","","""event"",""trial"",""time""
""fullscreenenter"",""1"",""28760""
","
","
","""event"",""trial"",""time""
""fullscreenenter"",""1"",""28760""
","
","","","496","","","17","11525","5307","s","elianto","#3366ff99","-1"," ","0","0","[1347]","1","2","","","11525","68","5","2","win","no-go","0"
"pit-trial","193","1527739","0.0-73.0","battery-v0.2","","""event"",""trial"",""time""
""fullscreenenter"",""1"",""28760""
","
","
","""event"",""trial"",""time""
""fullscreenenter"",""1"",""28760""
","
","","","598.9999999997672","","","17","11525","5307","p","elianto","#3366ff99"," "," ","1","+10","[1450]","1","2","","","11525","69","4","1","win","go","0"
"pit-trial","194","1532277","0.0-74.0","battery-v0.2","","""event"",""trial"",""time""
""fullscreenenter"",""1"",""28760""
","
","
","""event"",""trial"",""time""
""fullscreenenter"",""1"",""28760""
","
","","","1681","","","17","11525","5307","s","elianto","#3366ff99","-1"," ","0","0","[2531.999999999767]","1","2","","","11525","70","5","2","win","no-go","0"
"pit-trial","195","1535923","0.0-75.0","battery-v0.2","","""event"",""trial"",""time""
""fullscreenenter"",""1"",""28760""
","
","
","""event"",""trial"",""time""
""fullscreenenter"",""1"",""28760""
","
","","","789","","","17","11525","5307","l","elianto","#3366ff99","-1"," ","0","0","[1638.9999999997672]","1","2","","","11525","71","1","2","win","no-go","0"
"pit-trial","196","1540781","0.0-76.0","battery-v0.2","","""event"",""trial"",""time""
""fullscreenenter"",""1"",""28760""
","
","
","""event"",""trial"",""time""
""fullscreenenter"",""1"",""28760""
","
","","","-1","","","17","11525","5307","a","elianto","#f73b6a7A"," ","-1","0","0","[]","0","2","","","11525","72","2","3","lose","go","1"
"pit-trial","197","1544193","0.0-77.0","battery-v0.2","","""event"",""trial"",""time""
""fullscreenenter"",""1"",""28760""
","
","
","""event"",""trial"",""time""
""fullscreenenter"",""1"",""28760""
","
","","","556","","","17","11525","5307","s","elianto","#3366ff99","-1"," ","0","0","[1406]","1","2","","","11525","73","5","2","win","no-go","0"
"pit-trial","198","1549050","0.0-78.0","battery-v0.2","","""event"",""trial"",""time""
""fullscreenenter"",""1"",""28760""
","
","
","""event"",""trial"",""time""
""fullscreenenter"",""1"",""28760""
","
","","","-1","","","17","11525","5307","g","elianto","#f73b6a7A","-1","-1","1","0","[]","0","2","","","11525","74","3","4","lose","no-go","0"
"pit-trial","199","1552831","0.0-79.0","battery-v0.2","","""event"",""trial"",""time""
""fullscreenenter"",""1"",""28760""
","
","
","""event"",""trial"",""time""
""fullscreenenter"",""1"",""28760""
","
","","","922.9999999997672","","","17","11525","5307","l","elianto","#3366ff99","-1"," ","0","0","[1773]","1","2","","","11525","75","1","2","win","no-go","0"
"pit-trial","200","1556257","0.0-80.0","battery-v0.2","","""event"",""trial"",""time""
""fullscreenenter"",""1"",""28760""
","
","
","""event"",""trial"",""time""
""fullscreenenter"",""1"",""28760""
","
","","","568.9999999997672","","","17","11525","5307","p","elianto","#3366ff99"," "," ","1","+10","[1419]","1","2","","","11525","76","4","1","win","go","0"
"pit-trial","201","1561114","0.0-81.0","battery-v0.2","","""event"",""trial"",""time""
""fullscreenenter"",""1"",""28760""
","
","
","""event"",""trial"",""time""
""fullscreenenter"",""1"",""28760""
","
","","","-1","","","17","11525","5307","g","elianto","#f73b6a7A","-1","-1","1","0","[]","0","2","","","11525","77","3","4","lose","no-go","0"
"pit-trial","202","1564465","0.0-82.0","battery-v0.2","","""event"",""trial"",""time""
""fullscreenenter"",""1"",""28760""
","
","
","""event"",""trial"",""time""
""fullscreenenter"",""1"",""28760""
","
","","","491","","","17","11525","5307","p","elianto","#3366ff99"," "," ","1","+10","[1344]","1","2","","","11525","78","4","1","win","go","0"
"pit-trial","203","1568097","0.0-83.0","battery-v0.2","","""event"",""trial"",""time""
""fullscreenenter"",""1"",""28760""
","
","
","""event"",""trial"",""time""
""fullscreenenter"",""1"",""28760""
","
","","","776","","","17","11525","5307","p","elianto","#3366ff99"," "," ","1","+10","[1626]","1","2","","","11525","79","4","1","win","go","0"
"pit-trial","204","1571453","0.0-84.0","battery-v0.2","","""event"",""trial"",""time""
""fullscreenenter"",""1"",""28760""
","
","
","""event"",""trial"",""time""
""fullscreenenter"",""1"",""28760""
","
","","","500","","","17","11525","5307","s","elianto","#3366ff99","-1"," ","0","0","[1351]","1","2","","","11525","80","5","2","win","no-go","0"
"pit-trial","205","1574794","0.0-85.0","battery-v0.2","","""event"",""trial"",""time""
""fullscreenenter"",""1"",""28760""
","
","
","""event"",""trial"",""time""
""fullscreenenter"",""1"",""28760""
","
","","","484","","","17","11525","5307","s","elianto","#3366ff99","-1"," ","0","0","[1335]","1","2","","","11525","81","5","2","win","no-go","0"
"pit-trial","206","1579652","0.0-86.0","battery-v0.2","","""event"",""trial"",""time""
""fullscreenenter"",""1"",""28760""
","
","
","""event"",""trial"",""time""
""fullscreenenter"",""1"",""28760""
","
","","","-1","","","17","11525","5307","e","elianto","#f73b6a7A","-1","-1","1","-10","[]","0","2","","","11525","82","7","4","lose","no-go","1"
"pit-trial","207","1584509","0.0-87.0","battery-v0.2","","""event"",""trial"",""time""
""fullscreenenter"",""1"",""28760""
","
","
","""event"",""trial"",""time""
""fullscreenenter"",""1"",""28760""
","
","","","-1","","","17","11525","5307","g","elianto","#f73b6a7A","-1","-1","1","0","[]","0","2","","","11525","83","3","4","lose","no-go","0"
"pit-trial","208","1588134","0.0-88.0","battery-v0.2","","""event"",""trial"",""time""
""fullscreenenter"",""1"",""28760""
","
","
","""event"",""trial"",""time""
""fullscreenenter"",""1"",""28760""
","
","","","769","","","17","11525","5307","p","elianto","#3366ff99"," "," ","1","+10","[1620]","1","2","","","11525","84","4","1","win","go","0"
"pit-trial","209","1592991","0.0-89.0","battery-v0.2","","""event"",""trial"",""time""
""fullscreenenter"",""1"",""28760""
","
","
","""event"",""trial"",""time""
""fullscreenenter"",""1"",""28760""
","
","","","-1","","","17","11525","5307","w","elianto","#f73b6a7A"," ","-1","0","-10","[]","0","2","","","11525","85","6","3","lose","go","0"
"pit-trial","210","1597848","0.0-90.0","battery-v0.2","","""event"",""trial"",""time""
""fullscreenenter"",""1"",""28760""
","
","
","""event"",""trial"",""time""
""fullscreenenter"",""1"",""28760""
","
","","","-1","","","17","11525","5307","e","elianto","#f73b6a7A","-1","-1","1","0","[]","0","2","","","11525","86","7","4","lose","no-go","0"
"pit-trial","211","1601195","0.0-91.0","battery-v0.2","","""event"",""trial"",""time""
""fullscreenenter"",""1"",""28760""
","
","
","""event"",""trial"",""time""
""fullscreenenter"",""1"",""28760""
","
","","","490","","","17","11525","5307","p","elianto","#3366ff99"," "," ","1","0","[1341.0000000002328]","1","2","","","11525","87","4","1","win","go","1"
"pit-trial","212","1604604","0.0-92.0","battery-v0.2","","""event"",""trial"",""time""
""fullscreenenter"",""1"",""28760""
","
","
","""event"",""trial"",""time""
""fullscreenenter"",""1"",""28760""
","
","","","551","","","17","11525","5307","s","elianto","#3366ff99","-1"," ","0","+10","[1402]","1","2","","","11525","88","5","2","win","no-go","1"
"pit-trial","213","1609460","0.0-93.0","battery-v0.2","","""event"",""trial"",""time""
""fullscreenenter"",""1"",""28760""
","
","
","""event"",""trial"",""time""
""fullscreenenter"",""1"",""28760""
","
","","","-1","","","17","11525","5307","e","elianto","#f73b6a7A","-1","-1","1","0","[]","0","2","","","11525","89","7","4","lose","no-go","0"
"pit-trial","214","1612787","0.0-94.0","battery-v0.2","","""event"",""trial"",""time""
""fullscreenenter"",""1"",""28760""
","
","
","""event"",""trial"",""time""
""fullscreenenter"",""1"",""28760""
","
","","","470","","","17","11525","5307","p","elianto","#3366ff99"," "," ","1","0","[1321]","1","2","","","11525","90","4","1","win","go","1"
"pit-trial","215","1617643","0.0-95.0","battery-v0.2","","""event"",""trial"",""time""
""fullscreenenter"",""1"",""28760""
","
","
","""event"",""trial"",""time""
""fullscreenenter"",""1"",""28760""
","
","","","-1","","","17","11525","5307","w","elianto","#f73b6a7A"," ","-1","0","-10","[]","0","2","","","11525","91","6","3","lose","go","0"
"pit-trial","216","1621026","0.0-96.0","battery-v0.2","","""event"",""trial"",""time""
""fullscreenenter"",""1"",""28760""
","
","
","""event"",""trial"",""time""
""fullscreenenter"",""1"",""28760""
","
","","","525","","","17","11525","5307","s","elianto","#3366ff99","-1"," ","0","0","[1377]","1","2","","","11525","92","5","2","win","no-go","0"
"pit-trial","217","1624581","0.0-97.0","battery-v0.2","","""event"",""trial"",""time""
""fullscreenenter"",""1"",""28760""
","
","
","""event"",""trial"",""time""
""fullscreenenter"",""1"",""28760""
","
","","","699","","","17","11525","5307","s","elianto","#3366ff99","-1"," ","0","+10","[1549]","1","2","","","11525","93","5","2","win","no-go","1"
"pit-trial","218","1629438","0.0-98.0","battery-v0.2","","""event"",""trial"",""time""
""fullscreenenter"",""1"",""28760""
","
","
","""event"",""trial"",""time""
""fullscreenenter"",""1"",""28760""
","
","","","-1","","","17","11525","5307","w","elianto","#f73b6a7A"," ","-1","0","-10","[]","0","2","","","11525","94","6","3","lose","go","0"
"pit-trial","219","1634295","0.0-99.0","battery-v0.2","","""event"",""trial"",""time""
""fullscreenenter"",""1"",""28760""
","
","
","""event"",""trial"",""time""
""fullscreenenter"",""1"",""28760""
","
","","","-1","","","17","11525","5307","e","elianto","#f73b6a7A","-1","-1","1","0","[]","0","2","","","11525","95","7","4","lose","no-go","0"
"pit-trial","220","1638053","0.0-100.0","battery-v0.2","","""event"",""trial"",""time""
""fullscreenenter"",""1"",""28760""
","
","
","""event"",""trial"",""time""
""fullscreenenter"",""1"",""28760""
","
","","","903","","","17","11525","5307","d","elianto","#3366ff99"," "," ","1","+10","[1754]","1","2","","","11525","96","8","1","win","go","0"
"pit-trial","221","1642049","0.0-101.0","battery-v0.2","","""event"",""trial"",""time""
""fullscreenenter"",""1"",""28760""
","
","
","""event"",""trial"",""time""
""fullscreenenter"",""1"",""28760""
","
","","","1139.0000000002328","","","17","11525","5307","d","elianto","#3366ff99"," "," ","1","+10","[1988.9999999997672]","1","2","","","11525","97","8","1","win","go","0"
"pit-trial","222","1646906","0.0-102.0","battery-v0.2","","""event"",""trial"",""time""
""fullscreenenter"",""1"",""28760""
","
","
","""event"",""trial"",""time""
""fullscreenenter"",""1"",""28760""
","
","","","-1","","","17","11525","5307","w","elianto","#f73b6a7A"," ","-1","0","0","[]","0","2","","","11525","98","6","3","lose","go","1"
"pit-trial","223","1651764","0.0-103.0","battery-v0.2","","""event"",""trial"",""time""
""fullscreenenter"",""1"",""28760""
","
","
","""event"",""trial"",""time""
""fullscreenenter"",""1"",""28760""
","
","","","-1","","","17","11525","5307","e","elianto","#f73b6a7A","-1","-1","1","-10","[]","0","2","","","11525","99","7","4","lose","no-go","1"
"pit-trial","224","1655081","0.0-104.0","battery-v0.2","","""event"",""trial"",""time""
""fullscreenenter"",""1"",""28760""
","
","
","""event"",""trial"",""time""
""fullscreenenter"",""1"",""28760""
","
","","","460","","","17","11525","5307","s","elianto","#3366ff99","-1"," ","0","0","[1310.9999999997672]","1","2","","","11525","100","5","2","win","no-go","0"
"pit-trial","225","1659939","0.0-105.0","battery-v0.2","","""event"",""trial"",""time""
""fullscreenenter"",""1"",""28760""
","
","
","""event"",""trial"",""time""
""fullscreenenter"",""1"",""28760""
","
","","","-1","","","17","11525","5307","e","elianto","#f73b6a7A","-1","-1","1","0","[]","0","2","","","11525","101","7","4","lose","no-go","0"
"pit-trial","226","1663267","0.0-106.0","battery-v0.2","","""event"",""trial"",""time""
""fullscreenenter"",""1"",""28760""
","
","
","""event"",""trial"",""time""
""fullscreenenter"",""1"",""28760""
","
","","","471","","","17","11525","5307","d","elianto","#3366ff99"," "," ","1","+10","[1322]","1","2","","","11525","102","8","1","win","go","0"
"pit-trial","227","1666599","0.0-107.0","battery-v0.2","","""event"",""trial"",""time""
""fullscreenenter"",""1"",""28760""
","
","
","""event"",""trial"",""time""
""fullscreenenter"",""1"",""28760""
","
","","","475","","","17","11525","5307","s","elianto","#3366ff99","-1"," ","0","0","[1325]","1","2","","","11525","103","5","2","win","no-go","0"
"pit-trial","228","1669978","0.0-108.0","battery-v0.2","","""event"",""trial"",""time""
""fullscreenenter"",""1"",""28760""
","
","
","""event"",""trial"",""time""
""fullscreenenter"",""1"",""28760""
","
","","","521","","","17","11525","5307","j","elianto","#3366ff99"," "," ","1","+10","[1371.9999999997672]","1","2","","","11525","104","9","1","win","go","0"
"pit-trial","229","1673351","0.0-109.0","battery-v0.2","","""event"",""trial"",""time""
""fullscreenenter"",""1"",""28760""
","
","
","""event"",""trial"",""time""
""fullscreenenter"",""1"",""28760""
","
","","","517","","","17","11525","5307","d","elianto","#3366ff99"," "," ","1","+10","[1367]","1","2","","","11525","105","8","1","win","go","0"
"pit-trial","230","1678209","0.0-110.0","battery-v0.2","","""event"",""trial"",""time""
""fullscreenenter"",""1"",""28760""
","
","
","""event"",""trial"",""time""
""fullscreenenter"",""1"",""28760""
","
","","","-1","","","17","11525","5307","w","elianto","#f73b6a7A"," ","-1","0","-10","[]","0","2","","","11525","106","6","3","lose","go","0"
"pit-trial","231","1681536","0.0-111.0","battery-v0.2","","""event"",""trial"",""time""
""fullscreenenter"",""1"",""28760""
","
","
","""event"",""trial"",""time""
""fullscreenenter"",""1"",""28760""
","
","","","471","","","17","11525","5307","p","elianto","#3366ff99"," "," ","1","+10","[1322]","1","2","","","11525","107","4","1","win","go","0"
"pit-trial","232","1685875","0.0-112.0","battery-v0.2","","""event"",""trial"",""time""
""fullscreenenter"",""1"",""28760""
","
","
","""event"",""trial"",""time""
""fullscreenenter"",""1"",""28760""
","
","","","1482.0000000002328","","","17","11525","5307","j","elianto","#3366ff99"," "," ","1","0","[2332.000000000233]","1","2","","","11525","108","9","1","win","go","1"
"pit-trial","233","1690732","0.0-113.0","battery-v0.2","","""event"",""trial"",""time""
""fullscreenenter"",""1"",""28760""
","
","
","""event"",""trial"",""time""
""fullscreenenter"",""1"",""28760""
","
","","","-1","","","17","11525","5307","w","elianto","#f73b6a7A"," ","-1","0","0","[]","0","2","","","11525","109","6","3","lose","go","1"
"pit-trial","234","1694098","0.0-114.0","battery-v0.2","","""event"",""trial"",""time""
""fullscreenenter"",""1"",""28760""
","
","
","""event"",""trial"",""time""
""fullscreenenter"",""1"",""28760""
","
","","","510","","","17","11525","5307","j","elianto","#3366ff99"," "," ","1","+10","[1361]","1","2","","","11525","110","9","1","win","go","0"
"pit-trial","235","1698019","0.0-115.0","battery-v0.2","","""event"",""trial"",""time""
""fullscreenenter"",""1"",""28760""
","
","
","""event"",""trial"",""time""
""fullscreenenter"",""1"",""28760""
","
","","","1063.0000000002328","","","17","11525","5307","d","elianto","#3366ff99"," "," ","1","+10","[1915.0000000002328]","1","2","","","11525","111","8","1","win","go","0"
"pit-trial","236","1701318","0.0-116.0","battery-v0.2","","""event"",""trial"",""time""
""fullscreenenter"",""1"",""28760""
","
","
","""event"",""trial"",""time""
""fullscreenenter"",""1"",""28760""
","
","","","442","","","17","11525","5307","s","elianto","#3366ff99","-1"," ","0","0","[1294]","1","2","","","11525","112","5","2","win","no-go","0"
"pit-trial","237","1704736","0.0-117.0","battery-v0.2","","""event"",""trial"",""time""
""fullscreenenter"",""1"",""28760""
","
","
","""event"",""trial"",""time""
""fullscreenenter"",""1"",""28760""
","
","","","562","","","17","11525","5307","d","elianto","#3366ff99"," "," ","1","+10","[1412]","1","2","","","11525","113","8","1","win","go","0"
"pit-trial","238","1709593","0.0-118.0","battery-v0.2","","""event"",""trial"",""time""
""fullscreenenter"",""1"",""28760""
","
","
","""event"",""trial"",""time""
""fullscreenenter"",""1"",""28760""
","
","","","-1","","","17","11525","5307","w","elianto","#f73b6a7A"," ","-1","0","-10","[]","0","2","","","11525","114","6","3","lose","go","0"
"pit-trial","239","1712956","0.0-119.0","battery-v0.2","","""event"",""trial"",""time""
""fullscreenenter"",""1"",""28760""
","
","
","""event"",""trial"",""time""
""fullscreenenter"",""1"",""28760""
","
","","","505","","","17","11525","5307","j","elianto","#3366ff99"," "," ","1","+10","[1357]","1","2","","","11525","115","9","1","win","go","0"
"pit-trial","240","1716331","0.0-120.0","battery-v0.2","","""event"",""trial"",""time""
""fullscreenenter"",""1"",""28760""
","
","
","""event"",""trial"",""time""
""fullscreenenter"",""1"",""28760""
","
","","","519","","","17","11525","5307","s","elianto","#3366ff99","-1"," ","0","0","[1369]","1","2","","","11525","116","5","2","win","no-go","0"
"pit-trial","241","1719678","0.0-121.0","battery-v0.2","","""event"",""trial"",""time""
""fullscreenenter"",""1"",""28760""
","
","
","""event"",""trial"",""time""
""fullscreenenter"",""1"",""28760""
","
","","","491","","","17","11525","5307","s","elianto","#3366ff99","-1"," ","0","0","[1341]","1","2","","","11525","117","5","2","win","no-go","0"
"pit-trial","242","1722999","0.0-122.0","battery-v0.2","","""event"",""trial"",""time""
""fullscreenenter"",""1"",""28760""
","
","
","""event"",""trial"",""time""
""fullscreenenter"",""1"",""28760""
","
","","","464","","","17","11525","5307","j","elianto","#3366ff99"," "," ","1","+10","[1315]","1","2","","","11525","118","9","1","win","go","0"
"pit-trial","243","1727856","0.0-123.0","battery-v0.2","","""event"",""trial"",""time""
""fullscreenenter"",""1"",""28760""
","
","
","""event"",""trial"",""time""
""fullscreenenter"",""1"",""28760""
","
","","","-1","","","17","11525","5307","w","elianto","#f73b6a7A"," ","-1","0","-10","[]","0","2","","","11525","119","6","3","lose","go","0"
"pit-trial","244","1731372","0.0-124.0","battery-v0.2","","""event"",""trial"",""time""
""fullscreenenter"",""1"",""28760""
","
","
","""event"",""trial"",""time""
""fullscreenenter"",""1"",""28760""
","
","","","660.0000000002328","","","17","11525","5307","d","elianto","#3366ff99"," "," ","1","+10","[1510.0000000002328]","1","2","","","11525","120","8","1","win","go","0"
"pit-trial","245","1735471","0.0-125.0","battery-v0.2","","""event"",""trial"",""time""
""fullscreenenter"",""1"",""28760""
","
","
","""event"",""trial"",""time""
""fullscreenenter"",""1"",""28760""
","
","","","1241.9999999997672","","","17","11525","5307","j","elianto","#3366ff99"," "," ","1","0","[2093]","1","2","","","11525","121","9","1","win","go","1"
"pit-trial","246","1738779","0.0-126.0","battery-v0.2","","""event"",""trial"",""time""
""fullscreenenter"",""1"",""28760""
","
","
","""event"",""trial"",""time""
""fullscreenenter"",""1"",""28760""
","
","","","451","","","17","11525","5307","d","elianto","#3366ff99"," "," ","1","+10","[1302]","1","2","","","11525","122","8","1","win","go","0"
"pit-trial","247","1743637","0.0-127.0","battery-v0.2","","""event"",""trial"",""time""
""fullscreenenter"",""1"",""28760""
","
","
","""event"",""trial"",""time""
""fullscreenenter"",""1"",""28760""
","
","","","-1","","","17","11525","5307","e","elianto","#f73b6a7A","-1","-1","1","0","[]","0","2","","","11525","123","7","4","lose","no-go","0"
"pit-trial","248","1748494","0.0-128.0","battery-v0.2","","""event"",""trial"",""time""
""fullscreenenter"",""1"",""28760""
","
","
","""event"",""trial"",""time""
""fullscreenenter"",""1"",""28760""
","
","","","-1","","","17","11525","5307","w","elianto","#f73b6a7A"," ","-1","0","0","[]","0","2","","","11525","124","6","3","lose","go","1"
"pit-trial","249","1753350","0.0-129.0","battery-v0.2","","""event"",""trial"",""time""
""fullscreenenter"",""1"",""28760""
","
","
","""event"",""trial"",""time""
""fullscreenenter"",""1"",""28760""
","
","","","-1","","","17","11525","5307","w","elianto","#f73b6a7A"," ","-1","0","-10","[]","0","2","","","11525","125","6","3","lose","go","0"
"pit-trial","250","1758205","0.0-130.0","battery-v0.2","","""event"",""trial"",""time""
""fullscreenenter"",""1"",""28760""
","
","
","""event"",""trial"",""time""
""fullscreenenter"",""1"",""28760""
","
","","","-1","","","17","11525","5307","e","elianto","#f73b6a7A","-1","-1","1","-10","[]","0","2","","","11525","126","7","4","lose","no-go","1"
"pit-trial","251","1761548","0.0-131.0","battery-v0.2","","""event"",""trial"",""time""
""fullscreenenter"",""1"",""28760""
","
","
","""event"",""trial"",""time""
""fullscreenenter"",""1"",""28760""
","
","","","486","","","17","11525","5307","d","elianto","#3366ff99"," "," ","1","+10","[1337]","1","2","","","11525","127","8","1","win","go","0"
"pit-trial","252","1764833","0.0-132.0","battery-v0.2","","""event"",""trial"",""time""
""fullscreenenter"",""1"",""28760""
","
","
","""event"",""trial"",""time""
""fullscreenenter"",""1"",""28760""
","
","","","427.00000000023283","","","17","11525","5307","j","elianto","#3366ff99"," "," ","1","+10","[1278]","1","2","","","11525","128","9","1","win","go","0"
"pit-trial","253","1767724","0.0-133.0","battery-v0.2","","""event"",""trial"",""time""
""fullscreenenter"",""1"",""28760""
","
","
","""event"",""trial"",""time""
""fullscreenenter"",""1"",""28760""
","
","","","34","","","17","11525","5307","d","elianto","#3366ff99"," "," ","1","+10","[885]","1","2","","","11525","129","8","1","win","go","0"
"pit-trial","254","1772581","0.0-134.0","battery-v0.2","","""event"",""trial"",""time""
""fullscreenenter"",""1"",""28760""
","
","
","""event"",""trial"",""time""
""fullscreenenter"",""1"",""28760""
","
","","","-1","","","17","11525","5307","e","elianto","#f73b6a7A","-1","-1","1","0","[]","0","2","","","11525","130","7","4","lose","no-go","0"
"pit-trial","255","1775980","0.0-135.0","battery-v0.2","","""event"",""trial"",""time""
""fullscreenenter"",""1"",""28760""
","
","
","""event"",""trial"",""time""
""fullscreenenter"",""1"",""28760""
","
","","","542.9999999997672","","","17","11525","5307","j","elianto","#3366ff99"," "," ","1","+10","[1393]","1","2","","","11525","131","9","1","win","go","0"
"pit-trial","256","1779014","0.0-136.0","battery-v0.2","","""event"",""trial"",""time""
""fullscreenenter"",""1"",""28760""
","
","
","""event"",""trial"",""time""
""fullscreenenter"",""1"",""28760""
","
","","","177.00000000023283","","","17","11525","5307","w","elianto","#f73b6a7A"," "," ","1","0","[1029]","1","2","","","11525","132","6","3","lose","go","0"
"pit-trial","257","1783871","0.0-137.0","battery-v0.2","","""event"",""trial"",""time""
""fullscreenenter"",""1"",""28760""
","
","
","""event"",""trial"",""time""
""fullscreenenter"",""1"",""28760""
","
","","","-1","","","17","11525","5307","e","elianto","#f73b6a7A","-1","-1","1","-10","[]","0","2","","","11525","133","7","4","lose","no-go","1"
"pit-trial","258","1788728","0.0-138.0","battery-v0.2","","""event"",""trial"",""time""
""fullscreenenter"",""1"",""28760""
","
","
","""event"",""trial"",""time""
""fullscreenenter"",""1"",""28760""
","
","","","-1","","","17","11525","5307","w","elianto","#f73b6a7A"," ","-1","0","-10","[]","0","2","","","11525","134","6","3","lose","go","0"
"pit-trial","259","1792377","0.0-139.0","battery-v0.2","","""event"",""trial"",""time""
""fullscreenenter"",""1"",""28760""
","
","
","""event"",""trial"",""time""
""fullscreenenter"",""1"",""28760""
","
","","","793","","","17","11525","5307","j","elianto","#3366ff99"," "," ","1","+10","[1644]","1","2","","","11525","135","9","1","win","go","0"
"pit-trial","260","1795793","0.0-140.0","battery-v0.2","","""event"",""trial"",""time""
""fullscreenenter"",""1"",""28760""
","
","
","""event"",""trial"",""time""
""fullscreenenter"",""1"",""28760""
","
","","","559.0000000002328","","","17","11525","5307","d","elianto","#3366ff99"," "," ","1","+10","[1409.0000000002328]","1","2","","","11525","136","8","1","win","go","0"
"pit-trial","261","1799151","0.0-141.0","battery-v0.2","","""event"",""trial"",""time""
""fullscreenenter"",""1"",""28760""
","
","
","""event"",""trial"",""time""
""fullscreenenter"",""1"",""28760""
","
","","","501.99999999976717","","","17","11525","5307","j","elianto","#3366ff99"," "," ","1","+10","[1352]","1","2","","","11525","137","9","1","win","go","0"
"pit-trial","262","1804007","0.0-142.0","battery-v0.2","","""event"",""trial"",""time""
""fullscreenenter"",""1"",""28760""
","
","
","""event"",""trial"",""time""
""fullscreenenter"",""1"",""28760""
","
","","","-1","","","17","11525","5307","e","elianto","#f73b6a7A","-1","-1","1","0","[]","0","2","","","11525","138","7","4","lose","no-go","0"
"pit-trial","263","1808865","0.0-143.0","battery-v0.2","","""event"",""trial"",""time""
""fullscreenenter"",""1"",""28760""
","
","
","""event"",""trial"",""time""
""fullscreenenter"",""1"",""28760""
","
","","","-1","","","17","11525","5307","w","elianto","#f73b6a7A"," ","-1","0","-10","[]","0","2","","","11525","139","6","3","lose","go","0"
"pit-trial","264","1812186","0.0-144.0","battery-v0.2","","""event"",""trial"",""time""
""fullscreenenter"",""1"",""28760""
","
","
","""event"",""trial"",""time""
""fullscreenenter"",""1"",""28760""
","
","","","463","","","17","11525","5307","d","elianto","#3366ff99"," "," ","1","+10","[1314]","1","2","","","11525","140","8","1","win","go","0"
"pit-instructions","265","1877705","0.0-145.0","battery-v0.2","","""event"",""trial"",""time""
""fullscreenenter"",""1"",""28760""
","
","
","""event"",""trial"",""time""
""fullscreenenter"",""1"",""28760""
","
","","[{""page_index"":0,""viewing_time"":43676.00000000023},{""page_index"":1,""viewing_time"":21839.999999999767}]","65517","","","","","","","","","","","","","","","","","","","","","","","",""
"pit-trial","266","1882566","0.0-146.0","battery-v0.2","","""event"",""trial"",""time""
""fullscreenenter"",""1"",""28760""
","
","
","""event"",""trial"",""time""
""fullscreenenter"",""1"",""28760""
","
","","","-1","","","17","11525","5307","h","elianto","#f73b6a7A"," ","-1","0","-10","[]","0","3","","","11525","141","3","3","lose","go","0"
"pit-trial","267","1887423","0.0-147.0","battery-v0.2","","""event"",""trial"",""time""
""fullscreenenter"",""1"",""28760""
","
","
","""event"",""trial"",""time""
""fullscreenenter"",""1"",""28760""
","
","","","-1","","","17","11525","5307","m","elianto","#f73b6a7A","-1","-1","1","0","[]","0","3","","","11525","142","0","4","lose","no-go","0"
"pit-trial","268","1890749","0.0-148.0","battery-v0.2","","""event"",""trial"",""time""
""fullscreenenter"",""1"",""28760""
","
","
","""event"",""trial"",""time""
""fullscreenenter"",""1"",""28760""
","
","","","469.99999999976717","","","17","11525","5307","r","elianto","#3366ff99"," "," ","1","+10","[1321,2363]","2","3","","","11525","143","1","1","win","go","0"
"pit-trial","269","1895606","0.0-149.0","battery-v0.2","","""event"",""trial"",""time""
""fullscreenenter"",""1"",""28760""
","
","
","""event"",""trial"",""time""
""fullscreenenter"",""1"",""28760""
","
","","","-1","","","17","11525","5307","y","elianto","#f73b6a7A","-1","-1","1","0","[]","0","3","","","11525","144","2","4","lose","no-go","0"
"pit-trial","270","1899435","0.0-150.0","battery-v0.2","","""event"",""trial"",""time""
""fullscreenenter"",""1"",""28760""
","
","
","""event"",""trial"",""time""
""fullscreenenter"",""1"",""28760""
","
","","","972.9999999997672","","","17","11525","5307","r","elianto","#3366ff99"," "," ","1","+10","[1823]","1","3","","","11525","145","1","1","win","go","0"
"pit-trial","271","1904292","0.0-151.0","battery-v0.2","","""event"",""trial"",""time""
""fullscreenenter"",""1"",""28760""
","
","
","""event"",""trial"",""time""
""fullscreenenter"",""1"",""28760""
","
","","","-1","","","17","11525","5307","h","elianto","#f73b6a7A"," ","-1","0","-10","[]","0","3","","","11525","146","3","3","lose","go","0"
"pit-trial","272","1909148","0.0-152.0","battery-v0.2","","""event"",""trial"",""time""
""fullscreenenter"",""1"",""28760""
","
","
","""event"",""trial"",""time""
""fullscreenenter"",""1"",""28760""
","
","","","-1","","","17","11525","5307","m","elianto","#f73b6a7A","-1","-1","1","0","[]","0","3","","","11525","147","0","4","lose","no-go","0"
"pit-trial","273","1914006","0.0-153.0","battery-v0.2","","""event"",""trial"",""time""
""fullscreenenter"",""1"",""28760""
","
","
","""event"",""trial"",""time""
""fullscreenenter"",""1"",""28760""
","
