"trial_type","trial_index","time_elapsed","internal_node_id","task_version","subject_id","interactions","blur_events","focus_events","fullscreenenter_events","fullscreenexit_events","success","view_history","rt","responses","num_errors","age","subject","participantId","rune","rune_set","hex","correct","choice","accuracy","outcome","keys","total_keys","block","practice","value","sub","trial","stimulus","robot","valence","action","sham"
"pavlovia","0","5","0.0-0.0","battery-v0.2","","""event"",""trial"",""time""
""fullscreenenter"",""1"",""1359""
","
","
","""event"",""trial"",""time""
""fullscreenenter"",""1"",""1359""
","
","","","","","","","","","","","","","","","","","","","","","","","","","","",""
"fullscreen","1","2348","0.0-1.0","battery-v0.2","","""event"",""trial"",""time""
""fullscreenenter"",""1"",""1359""
","
","
","""event"",""trial"",""time""
""fullscreenenter"",""1"",""1359""
","
","true","","","","","","","","","","","","","","","","","","","","","","","","","",""
"pit-instructions","2","6429","0.0-2.0-0.0","battery-v0.2","","""event"",""trial"",""time""
""fullscreenenter"",""1"",""1359""
","
","
","""event"",""trial"",""time""
""fullscreenenter"",""1"",""1359""
","
","","[{""page_index"":0,""viewing_time"":4078.7999999523163}]","4079","","","","","","","","","","","","","","","","","","","","","","","",""
"pit-comprehension","3","9538","0.0-2.0-1.0-0.0","battery-v0.2","","""event"",""trial"",""time""
""fullscreenenter"",""1"",""1359""
","
","
","""event"",""trial"",""time""
""fullscreenenter"",""1"",""1359""
","
","","","3107.0999999046326","[""shark""]","0","18","13491","5910","","","","","","","","","","","","","","","","","","",""
"pit-instructions","4","10822","0.0-2.0-1.0-1.0","battery-v0.2","","""event"",""trial"",""time""
""fullscreenenter"",""1"",""1359""
","
","
","""event"",""trial"",""time""
""fullscreenenter"",""1"",""1359""
","
","","[{""page_index"":0,""viewing_time"":1278.7999999523163}]","1279","","","","","","","","","","","","","","","","","","","","","","","",""
"pit-comprehension","5","14146","0.0-2.0-2.0-0.0","battery-v0.2","","""event"",""trial"",""time""
""fullscreenenter"",""1"",""1359""
","
","
","""event"",""trial"",""time""
""fullscreenenter"",""1"",""1359""
","
","","","3322.399999856949","[""tiger""]","0","18","13491","5910","","","","","","","","","","","","","","","","","","",""
"pit-instructions","6","14740","0.0-2.0-2.0-1.0","battery-v0.2","","""event"",""trial"",""time""
""fullscreenenter"",""1"",""1359""
","
","
","""event"",""trial"",""time""
""fullscreenenter"",""1"",""1359""
","
","","[{""page_index"":0,""viewing_time"":592.8000001907349}]","593","","","","","","","","","","","","","","","","","","","","","","","",""
"pit-instructions","7","107487","0.0-2.0-3.0","battery-v0.2","","""event"",""trial"",""time""
""fullscreenenter"",""1"",""1359""
","
","
","""event"",""trial"",""time""
""fullscreenenter"",""1"",""1359""
","
","","[{""page_index"":0,""viewing_time"":7964.600000143051},{""page_index"":1,""viewing_time"":5731.799999952316},{""page_index"":2,""viewing_time"":6781.700000047684},{""page_index"":3,""viewing_time"":5011.5},{""page_index"":4,""viewing_time"":5428.799999952316},{""page_index"":5,""viewing_time"":5179.899999856949},{""page_index"":6,""viewing_time"":6811.400000095367},{""page_index"":7,""viewing_time"":6600.700000047684},{""page_index"":8,""viewing_time"":6029.299999952316},{""page_index"":9,""viewing_time"":11314.200000047684},{""page_index"":10,""viewing_time"":7067.5},{""page_index"":11,""viewing_time"":7204.099999904633},{""page_index"":12,""viewing_time"":7010},{""page_index"":13,""viewing_time"":4609.700000047684}]","92745.5","","","","","","","","","","","","","","","","","","","","","","","",""
"pit-trial","8","110966","0.0-2.0-4.0-0.0","battery-v0.2","","""event"",""trial"",""time""
""fullscreenenter"",""1"",""1359""
","
","
","""event"",""trial"",""time""
""fullscreenenter"",""1"",""1359""
","
","","","619.3000001907349","","","18","13491","5910","&#9784;","elianto","#FFFFF080"," "," ","1","&#10004","[1471.5]","1","0","0","","","","","","","",""
"pit-trial","9","114422","0.0-2.0-4.1-0.1","battery-v0.2","","""event"",""trial"",""time""
""fullscreenenter"",""1"",""1359""
","
","
","""event"",""trial"",""time""
""fullscreenenter"",""1"",""1359""
","
","","","592","","","18","13491","5910","&#9784;","elianto","#FFFFF080"," "," ","1","&#10004","[1446.7999999523163]","1","0","0","","","","","","","",""
"pit-trial","10","117943","0.0-2.0-4.2-0.2","battery-v0.2","","""event"",""trial"",""time""
""fullscreenenter"",""1"",""1359""
","
","
","""event"",""trial"",""time""
""fullscreenenter"",""1"",""1359""
","
","","","647.5","","","18","13491","5910","&#9784;","elianto","#FFFFF080"," "," ","1","&#10004","[1503.9000000953674]","1","0","0","","","","","","","",""
"pit-trial","11","121302","0.0-2.0-4.3-0.3","battery-v0.2","","""event"",""trial"",""time""
""fullscreenenter"",""1"",""1359""
","
","
","""event"",""trial"",""time""
""fullscreenenter"",""1"",""1359""
","
","","","490","","","18","13491","5910","&#9784;","elianto","#FFFFF080"," "," ","1","&#10004","[1346]","1","0","0","","","","","","","",""
"pit-trial","12","124713","0.0-2.0-4.4-0.4","battery-v0.2","","""event"",""trial"",""time""
""fullscreenenter"",""1"",""1359""
","
","
","""event"",""trial"",""time""
""fullscreenenter"",""1"",""1359""
","
","","","549.9000000953674","","","18","13491","5910","&#9784;","elianto","#FFFFF080"," "," ","1","&#10004","[1400.1000001430511]","1","0","0","","","","","","","",""
"pit-instructions","13","149042","0.0-2.0-5.0","battery-v0.2","","""event"",""trial"",""time""
""fullscreenenter"",""1"",""1359""
","
","
","""event"",""trial"",""time""
""fullscreenenter"",""1"",""1359""
","
","","[{""page_index"":0,""viewing_time"":6484.599999904633},{""page_index"":1,""viewing_time"":6110.299999952316},{""page_index"":2,""viewing_time"":5819.600000143051},{""page_index"":3,""viewing_time"":5911.799999952316}]","24326.5","","","","","","","","","","","","","","","","","","","","","","","",""
"pit-trial","14","153912","0.0-2.0-6.0-0.0","battery-v0.2","","""event"",""trial"",""time""
""fullscreenenter"",""1"",""1359""
","
","
","""event"",""trial"",""time""
""fullscreenenter"",""1"",""1359""
","
","","","-1","","","18","13491","5910","&#9854;","elianto","#FFFFF080","-1","-1","1","&#10004","[]","0","0","1","","","","","","","",""
"pit-trial","15","158785","0.0-2.0-6.1-0.1","battery-v0.2","","""event"",""trial"",""time""
""fullscreenenter"",""1"",""1359""
","
","
","""event"",""trial"",""time""
""fullscreenenter"",""1"",""1359""
","
","","","-1","","","18","13491","5910","&#9854;","elianto","#FFFFF080","-1","-1","1","&#10004","[]","0","0","1","","","","","","","",""
"pit-trial","16","163644","0.0-2.0-6.2-0.2","battery-v0.2","","""event"",""trial"",""time""
""fullscreenenter"",""1"",""1359""
","
","
","""event"",""trial"",""time""
""fullscreenenter"",""1"",""1359""
","
","","","-1","","","18","13491","5910","&#9854;","elianto","#FFFFF080","-1","-1","1","&#10004","[]","0","0","1","","","","","","","",""
"pit-trial","17","168520","0.0-2.0-6.3-0.3","battery-v0.2","","""event"",""trial"",""time""
""fullscreenenter"",""1"",""1359""
","
","
","""event"",""trial"",""time""
""fullscreenenter"",""1"",""1359""
","
","","","-1","","","18","13491","5910","&#9854;","elianto","#FFFFF080","-1","-1","1","&#10004","[]","0","0","1","","","","","","","",""
"pit-trial","18","173395","0.0-2.0-6.4-0.4","battery-v0.2","","""event"",""trial"",""time""
""fullscreenenter"",""1"",""1359""
","
","
","""event"",""trial"",""time""
""fullscreenenter"",""1"",""1359""
","
","","","-1","","","18","13491","5910","&#9854;","elianto","#FFFFF080","-1","-1","1","&#10004","[]","0","0","1","","","","","","","",""
"pit-instructions","19","287913","0.0-2.0-7.0","battery-v0.2","","""event"",""trial"",""time""
""fullscreenenter"",""1"",""1359""
","
","
","""event"",""trial"",""time""
""fullscreenenter"",""1"",""1359""
","
","","[{""page_index"":0,""viewing_time"":5508.799999952316},{""page_index"":1,""viewing_time"":6643.599999904633},{""page_index"":2,""viewing_time"":6098.600000143051},{""page_index"":3,""viewing_time"":6423.199999809265},{""page_index"":4,""viewing_time"":5604.700000047684},{""page_index"":5,""viewing_time"":5438.100000143051},{""page_index"":6,""viewing_time"":4469.799999952316},{""page_index"":7,""viewing_time"":8057.899999856949},{""page_index"":8,""viewing_time"":6727.200000047684},{""page_index"":9,""viewing_time"":6111.799999952316},{""page_index"":10,""viewing_time"":6684.600000143051},{""page_index"":11,""viewing_time"":4232.200000047684},{""page_index"":12,""viewing_time"":6717.599999904633},{""page_index"":13,""viewing_time"":7196.099999904633},{""page_index"":14,""viewing_time"":7508.200000047684},{""page_index"":15,""viewing_time"":7008},{""page_index"":16,""viewing_time"":6619.799999952316},{""page_index"":17,""viewing_time"":7465.900000095367}]","114516.39999985695","","","","","","","","","","","","","","","","","","","","","","","",""
"pit-trial","20","291740","0.0-2.0-8.0-0.0","battery-v0.2","","""event"",""trial"",""time""
""fullscreenenter"",""1"",""1359""
","
","
","""event"",""trial"",""time""
""fullscreenenter"",""1"",""1359""
","
","","","958.5999999046326","","","18","13491","5910","&#9776;","elianto","#3366ff99"," "," ","1","+10","[1810.5]","1","0","1","","","","","","","",""
"pit-trial","21","295161","0.0-2.0-8.0-1.0","battery-v0.2","","""event"",""trial"",""time""
""fullscreenenter"",""1"",""1359""
","
","
","""event"",""trial"",""time""
""fullscreenenter"",""1"",""1359""
","
","","","566.4000000953674","","","18","13491","5910","&#9776;","elianto","#3366ff99"," "," ","1","+10","[1417.7000000476837]","1","0","1","","","","","","","",""
"pit-trial","22","298500","0.0-2.0-8.0-2.0","battery-v0.2","","""event"",""trial"",""time""
""fullscreenenter"",""1"",""1359""
","
","
","""event"",""trial"",""time""
""fullscreenenter"",""1"",""1359""
","
","","","470.2999999523163","","","18","13491","5910","&#9776;","elianto","#3366ff99"," "," ","1","+10","[1323.7000000476837]","1","0","1","","","","","","","",""
"pit-trial","23","301907","0.0-2.0-8.0-3.0","battery-v0.2","","""event"",""trial"",""time""
""fullscreenenter"",""1"",""1359""
","
","
","""event"",""trial"",""time""
""fullscreenenter"",""1"",""1359""
","
","","","538.2000000476837","","","18","13491","5910","&#9776;","elianto","#3366ff99"," "," ","1","0","[1391.2999999523163]","1","0","1","","","","","","","",""
"pit-trial","24","305378","0.0-2.0-8.0-4.0","battery-v0.2","","""event"",""trial"",""time""
""fullscreenenter"",""1"",""1359""
","
","
","""event"",""trial"",""time""
""fullscreenenter"",""1"",""1359""
","
","","","616.2999999523163","","","18","13491","5910","&#9776;","elianto","#3366ff99"," "," ","1","+10","[1466.5]","1","0","1","","","","","","","",""
"pit-trial","25","308789","0.0-2.0-8.1-0.1","battery-v0.2","","""event"",""trial"",""time""
""fullscreenenter"",""1"",""1359""
","
","
","""event"",""trial"",""time""
""fullscreenenter"",""1"",""1359""
","
","","","556.5","","","18","13491","5910","&#9776;","elianto","#3366ff99"," "," ","1","+10","[1407.5]","1","0","1","","","","","","","",""
"pit-trial","26","312181","0.0-2.0-8.1-1.1","battery-v0.2","","""event"",""trial"",""time""
""fullscreenenter"",""1"",""1359""
","
","
","""event"",""trial"",""time""
""fullscreenenter"",""1"",""1359""
","
","","","525.4000000953674","","","18","13491","5910","&#9776;","elianto","#3366ff99"," "," ","1","+10","[1380.2000000476837]","1","0","1","","","","","","","",""
"pit-trial","27","315637","0.0-2.0-8.1-2.1","battery-v0.2","","""event"",""trial"",""time""
""fullscreenenter"",""1"",""1359""
","
","
","""event"",""trial"",""time""
""fullscreenenter"",""1"",""1359""
","
","","","599.8999998569489","","","18","13491","5910","&#9776;","elianto","#3366ff99"," "," ","1","+10","[1450.8999998569489]","1","0","1","","","","","","","",""
"pit-trial","28","319083","0.0-2.0-8.1-3.1","battery-v0.2","","""event"",""trial"",""time""
""fullscreenenter"",""1"",""1359""
","
","
","""event"",""trial"",""time""
""fullscreenenter"",""1"",""1359""
","
","","","591.2000000476837","","","18","13491","5910","&#9776;","elianto","#3366ff99"," "," ","1","0","[1444.8999998569489]","1","0","1","","","","","","","",""
"pit-trial","29","322402","0.0-2.0-8.1-4.1","battery-v0.2","","""event"",""trial"",""time""
""fullscreenenter"",""1"",""1359""
","
","
","""event"",""trial"",""time""
""fullscreenenter"",""1"",""1359""
","
","","","466.19999980926514","","","18","13491","5910","&#9776;","elianto","#3366ff99"," "," ","1","+10","[1316.5999999046326]","1","0","1","","","","","","","",""
"pit-trial","30","325670","0.0-2.0-8.2-0.2","battery-v0.2","","""event"",""trial"",""time""
""fullscreenenter"",""1"",""1359""
","
","
","""event"",""trial"",""time""
""fullscreenenter"",""1"",""1359""
","
","","","415.2999999523163","","","18","13491","5910","&#9776;","elianto","#3366ff99"," "," ","1","+10","[1266.8999998569489]","1","0","1","","","","","","","",""
"pit-trial","31","329130","0.0-2.0-8.2-1.2","battery-v0.2","","""event"",""trial"",""time""
""fullscreenenter"",""1"",""1359""
","
","
","""event"",""trial"",""time""
""fullscreenenter"",""1"",""1359""
","
","","","607.3000001907349","","","18","13491","5910","&#9776;","elianto","#3366ff99"," "," ","1","+10","[1457.7000000476837]","1","0","1","","","","","","","",""
"pit-trial","32","332619","0.0-2.0-8.2-2.2","battery-v0.2","","""event"",""trial"",""time""
""fullscreenenter"",""1"",""1359""
","
","
","""event"",""trial"",""time""
""fullscreenenter"",""1"",""1359""
","
","","","636.6999998092651","","","18","13491","5910","&#9776;","elianto","#3366ff99"," "," ","1","+10","[1487.5]","1","0","1","","","","","","","",""
"pit-trial","33","335972","0.0-2.0-8.2-3.2","battery-v0.2","","""event"",""trial"",""time""
""fullscreenenter"",""1"",""1359""
","
","
","""event"",""trial"",""time""
""fullscreenenter"",""1"",""1359""
","
","","","487.2000000476837","","","18","13491","5910","&#9776;","elianto","#3366ff99"," "," ","1","0","[1338.0999999046326]","1","0","1","","","","","","","",""
"pit-trial","34","339230","0.0-2.0-8.2-4.2","battery-v0.2","","""event"",""trial"",""time""
""fullscreenenter"",""1"",""1359""
","
","
","""event"",""trial"",""time""
""fullscreenenter"",""1"",""1359""
","
","","","406","","","18","13491","5910","&#9776;","elianto","#3366ff99"," "," ","1","+10","[1256.8999998569489]","1","0","1","","","","","","","",""
"call-function","35","339231","0.0-2.0-9.0","battery-v0.2","","""event"",""trial"",""time""
""fullscreenenter"",""1"",""1359""
","
","
","""event"",""trial"",""time""
""fullscreenenter"",""1"",""1359""
","
","","","","","","","","","","","","","","","","","","","","","","","","","","",""
"pit-instructions","36","376662","0.0-2.0-10.0","battery-v0.2","","""event"",""trial"",""time""
""fullscreenenter"",""1"",""1359""
","
","
","""event"",""trial"",""time""
""fullscreenenter"",""1"",""1359""
","
","","[{""page_index"":0,""viewing_time"":5972.299999952316},{""page_index"":1,""viewing_time"":7267.200000047684},{""page_index"":2,""viewing_time"":9030.5},{""page_index"":3,""viewing_time"":8079.700000047684},{""page_index"":4,""viewing_time"":7080.799999952316}]","37430.799999952316","","","","","","","","","","","","","","","","","","","","","","","",""
"pit-trial","37","380049","0.0-2.0-11.0-0.0","battery-v0.2","","""event"",""trial"",""time""
""fullscreenenter"",""1"",""1359""
","
","
","""event"",""trial"",""time""
""fullscreenenter"",""1"",""1359""
","
","","","527.4000000953674","","","18","13491","5910","&#9761;","elianto","#3366ff99","-1"," ","0","0","[1380.2999999523163]","1","0","2","","","","","","","",""
"pit-trial","38","383317","0.0-2.0-11.0-1.0","battery-v0.2","","""event"",""trial"",""time""
""fullscreenenter"",""1"",""1359""
","
","
","""event"",""trial"",""time""
""fullscreenenter"",""1"",""1359""
","
","","","405.2999999523163","","","18","13491","5910","&#9761;","elianto","#3366ff99","-1"," ","0","0","[1261.5]","1","0","2","","","","","","","",""
"pit-trial","39","388188","0.0-2.0-11.0-2.0","battery-v0.2","","""event"",""trial"",""time""
""fullscreenenter"",""1"",""1359""
","
","
","""event"",""trial"",""time""
""fullscreenenter"",""1"",""1359""
","
","","","-1","","","18","13491","5910","&#9761;","elianto","#3366ff99","-1","-1","1","+10","[]","0","0","2","","","","","","","",""
"pit-trial","40","393057","0.0-2.0-11.0-3.0","battery-v0.2","","""event"",""trial"",""time""
""fullscreenenter"",""1"",""1359""
","
","
","""event"",""trial"",""time""
""fullscreenenter"",""1"",""1359""
","
","","","-1","","","18","13491","5910","&#9761;","elianto","#3366ff99","-1","-1","1","0","[]","0","0","2","","","","","","","",""
"pit-trial","41","397920","0.0-2.0-11.0-4.0","battery-v0.2","","""event"",""trial"",""time""
""fullscreenenter"",""1"",""1359""
","
","
","""event"",""trial"",""time""
""fullscreenenter"",""1"",""1359""
","
","","","-1","","","18","13491","5910","&#9761;","elianto","#3366ff99","-1","-1","1","+10","[]","0","0","2","","","","","","","",""
"pit-trial","42","402778","0.0-2.0-11.1-0.1","battery-v0.2","","""event"",""trial"",""time""
""fullscreenenter"",""1"",""1359""
","
","
","""event"",""trial"",""time""
""fullscreenenter"",""1"",""1359""
","
","","","-1","","","18","13491","5910","&#9761;","elianto","#3366ff99","-1","-1","1","+10","[]","0","0","2","","","","","","","",""
"pit-trial","43","407646","0.0-2.0-11.1-1.1","battery-v0.2","","""event"",""trial"",""time""
""fullscreenenter"",""1"",""1359""
","
","
","""event"",""trial"",""time""
""fullscreenenter"",""1"",""1359""
","
","","","-1","","","18","13491","5910","&#9761;","elianto","#3366ff99","-1","-1","1","+10","[]","0","0","2","","","","","","","",""
"pit-trial","44","412498","0.0-2.0-11.1-2.1","battery-v0.2","","""event"",""trial"",""time""
""fullscreenenter"",""1"",""1359""
","
","
","""event"",""trial"",""time""
""fullscreenenter"",""1"",""1359""
","
","","","-1","","","18","13491","5910","&#9761;","elianto","#3366ff99","-1","-1","1","+10","[]","0","0","2","","","","","","","",""
"pit-trial","45","417352","0.0-2.0-11.1-3.1","battery-v0.2","","""event"",""trial"",""time""
""fullscreenenter"",""1"",""1359""
","
","
","""event"",""trial"",""time""
""fullscreenenter"",""1"",""1359""
","
","","","-1","","","18","13491","5910","&#9761;","elianto","#3366ff99","-1","-1","1","0","[]","0","0","2","","","","","","","",""
"pit-trial","46","422204","0.0-2.0-11.1-4.1","battery-v0.2","","""event"",""trial"",""time""
""fullscreenenter"",""1"",""1359""
","
","
","""event"",""trial"",""time""
""fullscreenenter"",""1"",""1359""
","
","","","-1","","","18","13491","5910","&#9761;","elianto","#3366ff99","-1","-1","1","+10","[]","0","0","2","","","","","","","",""
"pit-trial","47","427057","0.0-2.0-11.2-0.2","battery-v0.2","","""event"",""trial"",""time""
""fullscreenenter"",""1"",""1359""
","
","
","""event"",""trial"",""time""
""fullscreenenter"",""1"",""1359""
","
","","","-1","","","18","13491","5910","&#9761;","elianto","#3366ff99","-1","-1","1","+10","[]","0","0","2","","","","","","","",""
"pit-trial","48","431910","0.0-2.0-11.2-1.2","battery-v0.2","","""event"",""trial"",""time""
""fullscreenenter"",""1"",""1359""
","
","
","""event"",""trial"",""time""
""fullscreenenter"",""1"",""1359""
","
","","","-1","","","18","13491","5910","&#9761;","elianto","#3366ff99","-1","-1","1","+10","[]","0","0","2","","","","","","","",""
"pit-trial","49","436762","0.0-2.0-11.2-2.2","battery-v0.2","","""event"",""trial"",""time""
""fullscreenenter"",""1"",""1359""
","
","
","""event"",""trial"",""time""
""fullscreenenter"",""1"",""1359""
","
","","","-1","","","18","13491","5910","&#9761;","elianto","#3366ff99","-1","-1","1","+10","[]","0","0","2","","","","","","","",""
"pit-trial","50","441615","0.0-2.0-11.2-3.2","battery-v0.2","","""event"",""trial"",""time""
""fullscreenenter"",""1"",""1359""
","
","
","""event"",""trial"",""time""
""fullscreenenter"",""1"",""1359""
","
","","","-1","","","18","13491","5910","&#9761;","elianto","#3366ff99","-1","-1","1","0","[]","0","0","2","","","","","","","",""
"pit-trial","51","446468","0.0-2.0-11.2-4.2","battery-v0.2","","""event"",""trial"",""time""
""fullscreenenter"",""1"",""1359""
","
","
","""event"",""trial"",""time""
""fullscreenenter"",""1"",""1359""
","
","","","-1","","","18","13491","5910","&#9761;","elianto","#3366ff99","-1","-1","1","+10","[]","0","0","2","","","","","","","",""
"pit-trial","52","451324","0.0-2.0-11.3-0.3","battery-v0.2","","""event"",""trial"",""time""
""fullscreenenter"",""1"",""1359""
","
","
","""event"",""trial"",""time""
""fullscreenenter"",""1"",""1359""
","
","","","-1","","","18","13491","5910","&#9761;","elianto","#3366ff99","-1","-1","1","+10","[]","0","0","2","","","","","","","",""
"pit-trial","53","456176","0.0-2.0-11.3-1.3","battery-v0.2","","""event"",""trial"",""time""
""fullscreenenter"",""1"",""1359""
","
","
","""event"",""trial"",""time""
""fullscreenenter"",""1"",""1359""
","
","","","-1","","","18","13491","5910","&#9761;","elianto","#3366ff99","-1","-1","1","+10","[]","0","0","2","","","","","","","",""
"pit-trial","54","461043","0.0-2.0-11.3-2.3","battery-v0.2","","""event"",""trial"",""time""
""fullscreenenter"",""1"",""1359""
","
","
","""event"",""trial"",""time""
""fullscreenenter"",""1"",""1359""
","
","","","-1","","","18","13491","5910","&#9761;","elianto","#3366ff99","-1","-1","1","+10","[]","0","0","2","","","","","","","",""
"pit-trial","55","465896","0.0-2.0-11.3-3.3","battery-v0.2","","""event"",""trial"",""time""
""fullscreenenter"",""1"",""1359""
","
","
","""event"",""trial"",""time""
""fullscreenenter"",""1"",""1359""
","
","","","-1","","","18","13491","5910","&#9761;","elianto","#3366ff99","-1","-1","1","0","[]","0","0","2","","","","","","","",""
"pit-trial","56","470748","0.0-2.0-11.3-4.3","battery-v0.2","","""event"",""trial"",""time""
""fullscreenenter"",""1"",""1359""
","
","
","""event"",""trial"",""time""
""fullscreenenter"",""1"",""1359""
","
","","","-1","","","18","13491","5910","&#9761;","elianto","#3366ff99","-1","-1","1","+10","[]","0","0","2","","","","","","","",""
"call-function","57","470749","0.0-2.0-12.0","battery-v0.2","","""event"",""trial"",""time""
""fullscreenenter"",""1"",""1359""
","
","
","""event"",""trial"",""time""
""fullscreenenter"",""1"",""1359""
","
","","","","","","","","","","","","","","","","","","","","","","","","","","",""
"pit-instructions","58","501915","0.0-2.0-13.0","battery-v0.2","","""event"",""trial"",""time""
""fullscreenenter"",""1"",""1359""
","
","
","""event"",""trial"",""time""
""fullscreenenter"",""1"",""1359""
","
","","[{""page_index"":0,""viewing_time"":4490.5},{""page_index"":1,""viewing_time"":7134.399999856949},{""page_index"":2,""viewing_time"":5330.100000143051},{""page_index"":3,""viewing_time"":10163.899999856949},{""page_index"":4,""viewing_time"":4047.2000000476837}]","31166.39999985695","","","","","","","","","","","","","","","","","","","","","","","",""
"pit-trial","59","506181","0.0-2.0-14.0-0.0","battery-v0.2","","""event"",""trial"",""time""
""fullscreenenter"",""1"",""1359""
","
","
","""event"",""trial"",""time""
""fullscreenenter"",""1"",""1359""
","
","","","1410.7999999523163","","","18","13491","5910","&#9826;","elianto","#f73b6a7A","-1"," ","0","-10","[2261.7999999523163]","1","0","3","","","","","","","",""
"pit-trial","60","511049","0.0-2.0-14.0-1.0","battery-v0.2","","""event"",""trial"",""time""
""fullscreenenter"",""1"",""1359""
","
","
","""event"",""trial"",""time""
""fullscreenenter"",""1"",""1359""
","
","","","-1","","","18","13491","5910","&#9826;","elianto","#f73b6a7A","-1","-1","1","0","[]","0","0","3","","","","","","","",""
"pit-trial","61","515908","0.0-2.0-14.0-2.0","battery-v0.2","","""event"",""trial"",""time""
""fullscreenenter"",""1"",""1359""
","
","
","""event"",""trial"",""time""
""fullscreenenter"",""1"",""1359""
","
","","","-1","","","18","13491","5910","&#9826;","elianto","#f73b6a7A","-1","-1","1","0","[]","0","0","3","","","","","","","",""
"pit-trial","62","520771","0.0-2.0-14.0-3.0","battery-v0.2","","""event"",""trial"",""time""
""fullscreenenter"",""1"",""1359""
","
","
","""event"",""trial"",""time""
""fullscreenenter"",""1"",""1359""
","
","","","-1","","","18","13491","5910","&#9826;","elianto","#f73b6a7A","-1","-1","1","-10","[]","0","0","3","","","","","","","",""
"pit-trial","63","525634","0.0-2.0-14.0-4.0","battery-v0.2","","""event"",""trial"",""time""
""fullscreenenter"",""1"",""1359""
","
","
","""event"",""trial"",""time""
""fullscreenenter"",""1"",""1359""
","
","","","-1","","","18","13491","5910","&#9826;","elianto","#f73b6a7A","-1","-1","1","0","[]","0","0","3","","","","","","","",""
"pit-trial","64","530492","0.0-2.0-14.1-0.1","battery-v0.2","","""event"",""trial"",""time""
""fullscreenenter"",""1"",""1359""
","
","
","""event"",""trial"",""time""
""fullscreenenter"",""1"",""1359""
","
","","","-1","","","18","13491","5910","&#9826;","elianto","#f73b6a7A","-1","-1","1","0","[]","0","0","3","","","","","","","",""
"pit-trial","65","535346","0.0-2.0-14.1-1.1","battery-v0.2","","""event"",""trial"",""time""
""fullscreenenter"",""1"",""1359""
","
","
","""event"",""trial"",""time""
""fullscreenenter"",""1"",""1359""
","
","","","-1","","","18","13491","5910","&#9826;","elianto","#f73b6a7A","-1","-1","1","0","[]","0","0","3","","","","","","","",""
"pit-trial","66","540198","0.0-2.0-14.1-2.1","battery-v0.2","","""event"",""trial"",""time""
""fullscreenenter"",""1"",""1359""
","
","
","""event"",""trial"",""time""
""fullscreenenter"",""1"",""1359""
","
","","","-1","","","18","13491","5910","&#9826;","elianto","#f73b6a7A","-1","-1","1","0","[]","0","0","3","","","","","","","",""
"pit-trial","67","545049","0.0-2.0-14.1-3.1","battery-v0.2","","""event"",""trial"",""time""
""fullscreenenter"",""1"",""1359""
","
","
","""event"",""trial"",""time""
""fullscreenenter"",""1"",""1359""
","
","","","-1","","","18","13491","5910","&#9826;","elianto","#f73b6a7A","-1","-1","1","-10","[]","0","0","3","","","","","","","",""
"pit-trial","68","549902","0.0-2.0-14.1-4.1","battery-v0.2","","""event"",""trial"",""time""
""fullscreenenter"",""1"",""1359""
","
","
","""event"",""trial"",""time""
""fullscreenenter"",""1"",""1359""
","
","","","-1","","","18","13491","5910","&#9826;","elianto","#f73b6a7A","-1","-1","1","0","[]","0","0","3","","","","","","","",""
"pit-trial","69","554755","0.0-2.0-14.2-0.2","battery-v0.2","","""event"",""trial"",""time""
""fullscreenenter"",""1"",""1359""
","
","
","""event"",""trial"",""time""
""fullscreenenter"",""1"",""1359""
","
","","","-1","","","18","13491","5910","&#9826;","elianto","#f73b6a7A","-1","-1","1","0","[]","0","0","3","","","","","","","",""
"pit-trial","70","559608","0.0-2.0-14.2-1.2","battery-v0.2","","""event"",""trial"",""time""
""fullscreenenter"",""1"",""1359""
","
","
","""event"",""trial"",""time""
""fullscreenenter"",""1"",""1359""
","
","","","-1","","","18","13491","5910","&#9826;","elianto","#f73b6a7A","-1","-1","1","0","[]","0","0","3","","","","","","","",""
"pit-trial","71","564462","0.0-2.0-14.2-2.2","battery-v0.2","","""event"",""trial"",""time""
""fullscreenenter"",""1"",""1359""
","
","
","""event"",""trial"",""time""
""fullscreenenter"",""1"",""1359""
","
","","","-1","","","18","13491","5910","&#9826;","elianto","#f73b6a7A","-1","-1","1","0","[]","0","0","3","","","","","","","",""
"pit-trial","72","569314","0.0-2.0-14.2-3.2","battery-v0.2","","""event"",""trial"",""time""
""fullscreenenter"",""1"",""1359""
","
","
","""event"",""trial"",""time""
""fullscreenenter"",""1"",""1359""
","
","","","-1","","","18","13491","5910","&#9826;","elianto","#f73b6a7A","-1","-1","1","-10","[]","0","0","3","","","","","","","",""
"pit-trial","73","574166","0.0-2.0-14.2-4.2","battery-v0.2","","""event"",""trial"",""time""
""fullscreenenter"",""1"",""1359""
","
","
","""event"",""trial"",""time""
""fullscreenenter"",""1"",""1359""
","
","","","-1","","","18","13491","5910","&#9826;","elianto","#f73b6a7A","-1","-1","1","0","[]","0","0","3","","","","","","","",""
"pit-trial","74","579019","0.0-2.0-14.3-0.3","battery-v0.2","","""event"",""trial"",""time""
""fullscreenenter"",""1"",""1359""
","
","
","""event"",""trial"",""time""
""fullscreenenter"",""1"",""1359""
","
","","","-1","","","18","13491","5910","&#9826;","elianto","#f73b6a7A","-1","-1","1","0","[]","0","0","3","","","","","","","",""
"pit-trial","75","583871","0.0-2.0-14.3-1.3","battery-v0.2","","""event"",""trial"",""time""
""fullscreenenter"",""1"",""1359""
","
","
","""event"",""trial"",""time""
""fullscreenenter"",""1"",""1359""
","
","","","-1","","","18","13491","5910","&#9826;","elianto","#f73b6a7A","-1","-1","1","0","[]","0","0","3","","","","","","","",""
"pit-trial","76","588724","0.0-2.0-14.3-2.3","battery-v0.2","","""event"",""trial"",""time""
""fullscreenenter"",""1"",""1359""
","
","
","""event"",""trial"",""time""
""fullscreenenter"",""1"",""1359""
","
","","","-1","","","18","13491","5910","&#9826;","elianto","#f73b6a7A","-1","-1","1","0","[]","0","0","3","","","","","","","",""
"pit-trial","77","593578","0.0-2.0-14.3-3.3","battery-v0.2","","""event"",""trial"",""time""
""fullscreenenter"",""1"",""1359""
","
","
","""event"",""trial"",""time""
""fullscreenenter"",""1"",""1359""
","
","","","-1","","","18","13491","5910","&#9826;","elianto","#f73b6a7A","-1","-1","1","-10","[]","0","0","3","","","","","","","",""
"pit-trial","78","598431","0.0-2.0-14.3-4.3","battery-v0.2","","""event"",""trial"",""time""
""fullscreenenter"",""1"",""1359""
","
","
","""event"",""trial"",""time""
""fullscreenenter"",""1"",""1359""
","
","","","-1","","","18","13491","5910","&#9826;","elianto","#f73b6a7A","-1","-1","1","0","[]","0","0","3","","","","","","","",""
"call-function","79","598432","0.0-2.0-15.0","battery-v0.2","","""event"",""trial"",""time""
""fullscreenenter"",""1"",""1359""
","
","
","""event"",""trial"",""time""
""fullscreenenter"",""1"",""1359""
","
","","","","","","","","","","","","","","","","","","","","","","","","","","",""
"pit-instructions","80","626230","0.0-2.0-16.0","battery-v0.2","","""event"",""trial"",""time""
""fullscreenenter"",""1"",""1359""
","
","
","""event"",""trial"",""time""
""fullscreenenter"",""1"",""1359""
","
","","[{""page_index"":0,""viewing_time"":7967.200000047684},{""page_index"":1,""viewing_time"":8902.700000047684},{""page_index"":2,""viewing_time"":5038.799999952316},{""page_index"":3,""viewing_time"":5889.5}]","27798.400000095367","","","","","","","","","","","","","","","","","","","","","","","",""
"pit-trial","81","629497","0.0-2.0-17.0-0.0","battery-v0.2","","""event"",""trial"",""time""
""fullscreenenter"",""1"",""1359""
","
","
","""event"",""trial"",""time""
""fullscreenenter"",""1"",""1359""
","
","","","404.2999999523163","","","18","13491","5910","&#9789;","elianto","#f73b6a7A"," "," ","1","0","[1257.2999999523163]","1","0","4","","","","","","","",""
"pit-trial","82","632869","0.0-2.0-17.0-1.0","battery-v0.2","","""event"",""trial"",""time""
""fullscreenenter"",""1"",""1359""
","
","
","""event"",""trial"",""time""
""fullscreenenter"",""1"",""1359""
","
","","","512.7000000476837","","","18","13491","5910","&#9789;","elianto","#f73b6a7A"," "," ","1","0","[1363.5]","1","0","4","","","","","","","",""
"pit-trial","83","636114","0.0-2.0-17.0-2.0","battery-v0.2","","""event"",""trial"",""time""
""fullscreenenter"",""1"",""1359""
","
","
","""event"",""trial"",""time""
""fullscreenenter"",""1"",""1359""
","
","","","392.09999990463257","","","18","13491","5910","&#9789;","elianto","#f73b6a7A"," "," ","1","0","[1243.5999999046326]","1","0","4","","","","","","","",""
"pit-trial","84","639349","0.0-2.0-17.0-3.0","battery-v0.2","","""event"",""trial"",""time""
""fullscreenenter"",""1"",""1359""
","
","
","""event"",""trial"",""time""
""fullscreenenter"",""1"",""1359""
","
","","","368.40000009536743","","","18","13491","5910","&#9789;","elianto","#f73b6a7A"," "," ","1","-10","[1221.5]","1","0","4","","","","","","","",""
"pit-trial","85","642629","0.0-2.0-17.0-4.0","battery-v0.2","","""event"",""trial"",""time""
""fullscreenenter"",""1"",""1359""
","
","
","""event"",""trial"",""time""
""fullscreenenter"",""1"",""1359""
","
","","","424.19999980926514","","","18","13491","5910","&#9789;","elianto","#f73b6a7A"," "," ","1","0","[1274.2999999523163]","1","0","4","","","","","","","",""
"pit-trial","86","645924","0.0-2.0-17.1-0.1","battery-v0.2","","""event"",""trial"",""time""
""fullscreenenter"",""1"",""1359""
","
","
","""event"",""trial"",""time""
""fullscreenenter"",""1"",""1359""
","
","","","428.40000009536743","","","18","13491","5910","&#9789;","elianto","#f73b6a7A"," "," ","1","0","[1281.2000000476837]","1","0","4","","","","","","","",""
"pit-trial","87","649288","0.0-2.0-17.1-1.1","battery-v0.2","","""event"",""trial"",""time""
""fullscreenenter"",""1"",""1359""
","
","
","""event"",""trial"",""time""
""fullscreenenter"",""1"",""1359""
","
","","","510.2000000476837","","","18","13491","5910","&#9789;","elianto","#f73b6a7A"," "," ","1","0","[1360.5]","1","0","4","","","","","","","",""
"pit-trial","88","652748","0.0-2.0-17.1-2.1","battery-v0.2","","""event"",""trial"",""time""
""fullscreenenter"",""1"",""1359""
","
","
","""event"",""trial"",""time""
""fullscreenenter"",""1"",""1359""
","
","","","595.8999998569489","","","18","13491","5910","&#9789;","elianto","#f73b6a7A"," "," ","1","0","[1446.8999998569489]","1","0","4","","","","","","","",""
"pit-trial","89","656460","0.0-2.0-17.1-3.1","battery-v0.2","","""event"",""trial"",""time""
""fullscreenenter"",""1"",""1359""
","
","
","""event"",""trial"",""time""
""fullscreenenter"",""1"",""1359""
","
","","","860.1000001430511","","","18","13491","5910","&#9789;","elianto","#f73b6a7A"," "," ","1","-10","[1710.9000000953674]","1","0","4","","","","","","","",""
"pit-trial","90","660276","0.0-2.0-17.1-4.1","battery-v0.2","","""event"",""trial"",""time""
""fullscreenenter"",""1"",""1359""
","
","
","""event"",""trial"",""time""
""fullscreenenter"",""1"",""1359""
","
","","","964.2000000476837","","","18","13491","5910","&#9789;","elianto","#f73b6a7A"," "," ","1","0","[1814.2999999523163]","1","0","4","","","","","","","",""
"pit-trial","91","663782","0.0-2.0-17.2-0.2","battery-v0.2","","""event"",""trial"",""time""
""fullscreenenter"",""1"",""1359""
","
","
","""event"",""trial"",""time""
""fullscreenenter"",""1"",""1359""
","
","","","653.6000001430511","","","18","13491","5910","&#9789;","elianto","#f73b6a7A"," "," ","1","0","[1503.8999998569489]","1","0","4","","","","","","","",""
"pit-trial","92","667123","0.0-2.0-17.2-1.2","battery-v0.2","","""event"",""trial"",""time""
""fullscreenenter"",""1"",""1359""
","
","
","""event"",""trial"",""time""
""fullscreenenter"",""1"",""1359""
","
","","","488.09999990463257","","","18","13491","5910","&#9789;","elianto","#f73b6a7A"," "," ","1","0","[1339.2999999523163]","1","0","4","","","","","","","",""
"pit-trial","93","670311","0.0-2.0-17.2-2.2","battery-v0.2","","""event"",""trial"",""time""
""fullscreenenter"",""1"",""1359""
","
","
","""event"",""trial"",""time""
""fullscreenenter"",""1"",""1359""
","
","","","335.5","","","18","13491","5910","&#9789;","elianto","#f73b6a7A"," "," ","1","0","[1186.5]","1","0","4","","","","","","","",""
"pit-trial","94","674496","0.0-2.0-17.2-3.2","battery-v0.2","","""event"",""trial"",""time""
""fullscreenenter"",""1"",""1359""
","
","
","""event"",""trial"",""time""
""fullscreenenter"",""1"",""1359""
","
","","","1325.7999999523163","","","18","13491","5910","&#9789;","elianto","#f73b6a7A"," "," ","1","-10","[2176.7999999523163]","1","0","4","","","","","","","",""
"pit-trial","95","678415","0.0-2.0-17.2-4.2","battery-v0.2","","""event"",""trial"",""time""
""fullscreenenter"",""1"",""1359""
","
","
","""event"",""trial"",""time""
""fullscreenenter"",""1"",""1359""
","
","","","1066.3000001907349","","","18","13491","5910","&#9789;","elianto","#f73b6a7A"," "," ","1","0","[1917.1000001430511]","1","0","4","","","","","","","",""
"pit-trial","96","682184","0.0-2.0-17.3-0.3","battery-v0.2","","""event"",""trial"",""time""
""fullscreenenter"",""1"",""1359""
","
","
","""event"",""trial"",""time""
""fullscreenenter"",""1"",""1359""
","
","","","916.0999999046326","","","18","13491","5910","&#9789;","elianto","#f73b6a7A"," "," ","1","0","[1766.2999999523163]","1","0","4","","","","","","","",""
"pit-trial","97","685522","0.0-2.0-17.3-1.3","battery-v0.2","","""event"",""trial"",""time""
""fullscreenenter"",""1"",""1359""
","
","
","""event"",""trial"",""time""
""fullscreenenter"",""1"",""1359""
","
","","","487.09999990463257","","","18","13491","5910","&#9789;","elianto","#f73b6a7A"," "," ","1","0","[1337.2000000476837]","1","0","4","","","","","","","",""
"pit-trial","98","689057","0.0-2.0-17.3-2.3","battery-v0.2","","""event"",""trial"",""time""
""fullscreenenter"",""1"",""1359""
","
","
","""event"",""trial"",""time""
""fullscreenenter"",""1"",""1359""
","
","","","682.5999999046326","","","18","13491","5910","&#9789;","elianto","#f73b6a7A"," "," ","1","0","[1532.7999999523163]","1","0","4","","","","","","","",""
"pit-trial","99","693398","0.0-2.0-17.3-3.3","battery-v0.2","","""event"",""trial"",""time""
""fullscreenenter"",""1"",""1359""
","
","
","""event"",""trial"",""time""
""fullscreenenter"",""1"",""1359""
","
","","","1489.6000001430511","","","18","13491","5910","&#9789;","elianto","#f73b6a7A"," "," ","1","-10","[2339.9000000953674]","1","0","4","","","","","","","",""
"pit-trial","100","696582","0.0-2.0-17.3-4.3","battery-v0.2","","""event"",""trial"",""time""
""fullscreenenter"",""1"",""1359""
","
","
","""event"",""trial"",""time""
""fullscreenenter"",""1"",""1359""
","
","","","331.09999990463257","","","18","13491","5910","&#9789;","elianto","#f73b6a7A"," "," ","1","0","[1182.5]","1","0","4","","","","","","","",""
"call-function","101","696583","0.0-2.0-18.0","battery-v0.2","","""event"",""trial"",""time""
""fullscreenenter"",""1"",""1359""
","
","
","""event"",""trial"",""time""
""fullscreenenter"",""1"",""1359""
","
","","","","","","","","","","","","","","","","","","","","","","","","","","",""
"pit-instructions","102","761283","0.0-2.0-19.0","battery-v0.2","","""event"",""trial"",""time""
""fullscreenenter"",""1"",""1359""
","
","
","""event"",""trial"",""time""
""fullscreenenter"",""1"",""1359""
","
","","[{""page_index"":0,""viewing_time"":6473.5},{""page_index"":1,""viewing_time"":5205.200000047684},{""page_index"":2,""viewing_time"":13748.399999856949},{""page_index"":3,""viewing_time"":6173.400000095367},{""page_index"":4,""viewing_time"":8330},{""page_index"":5,""viewing_time"":8114.5},{""page_index"":6,""viewing_time"":6134.200000047684},{""page_index"":7,""viewing_time"":6451.699999809265},{""page_index"":8,""viewing_time"":4068.100000143051}]","64699.200000047684","","","","","","","","","","","","","","","","","","","","","","","",""
"pit-comprehension","103","765689","0.0-2.0-20.0-0.0","battery-v0.2","","""event"",""trial"",""time""
""fullscreenenter"",""1"",""1359""
","
","
","""event"",""trial"",""time""
""fullscreenenter"",""1"",""1359""
","
","","","4404.599999904633","[""SPACE""]","0","18","13491","5910","","","","","","","","","","","","","","","","","","",""
"pit-instructions","104","768184","0.0-2.0-20.0-1.0","battery-v0.2","","""event"",""trial"",""time""
""fullscreenenter"",""1"",""1359""
","
","
","""event"",""trial"",""time""
""fullscreenenter"",""1"",""1359""
","
","","[{""page_index"":0,""viewing_time"":2476.4000000953674}]","2476.600000143051","","","","","","","","","","","","","","","","","","","","","","","",""
"pit-comprehension","105","772671","0.0-2.0-21.0-0.0","battery-v0.2","","""event"",""trial"",""time""
""fullscreenenter"",""1"",""1359""
","
","
","""event"",""trial"",""time""
""fullscreenenter"",""1"",""1359""
","
","","","4485","[""10""]","0","18","13491","5910","","","","","","","","","","","","","","","","","","",""
"pit-instructions","106","774867","0.0-2.0-21.0-1.0","battery-v0.2","","""event"",""trial"",""time""
""fullscreenenter"",""1"",""1359""
","
","
","""event"",""trial"",""time""
""fullscreenenter"",""1"",""1359""
","
","","[{""page_index"":0,""viewing_time"":2178}]","2178.4000000953674","","","","","","","","","","","","","","","","","","","","","","","",""
"pit-comprehension","107","781241","0.0-2.0-22.0-0.0","battery-v0.2","","""event"",""trial"",""time""
""fullscreenenter"",""1"",""1359""
","
","
","""event"",""trial"",""time""
""fullscreenenter"",""1"",""1359""
","
","","","6372.900000095367","[""0""]","0","18","13491","5910","","","","","","","","","","","","","","","","","","",""
"pit-instructions","108","782670","0.0-2.0-22.0-1.0","battery-v0.2","","""event"",""trial"",""time""
""fullscreenenter"",""1"",""1359""
","
","
","""event"",""trial"",""time""
""fullscreenenter"",""1"",""1359""
","
","","[{""page_index"":0,""viewing_time"":1412}]","1412.2000000476837","","","","","","","","","","","","","","","","","","","","","","","",""
"pit-comprehension","109","794861","0.0-2.0-23.0-0.0","battery-v0.2","","""event"",""trial"",""time""
""fullscreenenter"",""1"",""1359""
","
","
","""event"",""trial"",""time""
""fullscreenenter"",""1"",""1359""
","
","","","12189.399999856949","[""True""]","0","18","13491","5910","","","","","","","","","","","","","","","","","","",""
"pit-instructions","110","796991","0.0-2.0-23.0-1.0","battery-v0.2","","""event"",""trial"",""time""
""fullscreenenter"",""1"",""1359""
","
","
","""event"",""trial"",""time""
""fullscreenenter"",""1"",""1359""
","
","","[{""page_index"":0,""viewing_time"":2112.7999999523163}]","2112.899999856949","","","","","","","","","","","","","","","","","","","","","","","",""
"pit-comprehension","111","804323","0.0-2.0-24.0-0.0","battery-v0.2","","""event"",""trial"",""time""
""fullscreenenter"",""1"",""1359""
","
","
","""event"",""trial"",""time""
""fullscreenenter"",""1"",""1359""
","
","","","7330.600000143051","[""True""]","0","18","13491","5910","","","","","","","","","","","","","","","","","","",""
"pit-instructions","112","805719","0.0-2.0-24.0-1.0","battery-v0.2","","""event"",""trial"",""time""
""fullscreenenter"",""1"",""1359""
","
","
","""event"",""trial"",""time""
""fullscreenenter"",""1"",""1359""
","
","","[{""page_index"":0,""viewing_time"":1378.2999999523163}]","1378.5","","","","","","","","","","","","","","","","","","","","","","","",""
"pit-comprehension","113","812075","0.0-2.0-25.0-0.0","battery-v0.2","","""event"",""trial"",""time""
""fullscreenenter"",""1"",""1359""
","
","
","""event"",""trial"",""time""
""fullscreenenter"",""1"",""1359""
","
","","","6354.700000047684","[""True""]","0","18","13491","5910","","","","","","","","","","","","","","","","","","",""
"pit-instructions","114","813448","0.0-2.0-25.0-1.0","battery-v0.2","","""event"",""trial"",""time""
""fullscreenenter"",""1"",""1359""
","
","
","""event"",""trial"",""time""
""fullscreenenter"",""1"",""1359""
","
","","[{""page_index"":0,""viewing_time"":1355.2999999523163}]","1355.5","","","","","","","","","","","","","","","","","","","","","","","",""
"pit-comprehension","115","819801","0.0-2.0-26.0-0.0","battery-v0.2","","""event"",""trial"",""time""
""fullscreenenter"",""1"",""1359""
","
","
","""event"",""trial"",""time""
""fullscreenenter"",""1"",""1359""
","
","","","6351.400000095367","[""False""]","0","18","13491","5910","","","","","","","","","","","","","","","","","","",""
"pit-instructions","116","821917","0.0-2.0-26.0-1.0","battery-v0.2","","""event"",""trial"",""time""
""fullscreenenter"",""1"",""1359""
","
","
","""event"",""trial"",""time""
""fullscreenenter"",""1"",""1359""
","
","","[{""page_index"":0,""viewing_time"":2096.399999856949}]","2096.699999809265","","","","","","","","","","","","","","","","","","","","","","","",""
"pit-instructions","117","839023","0.0-3.0","battery-v0.2","","""event"",""trial"",""time""
""fullscreenenter"",""1"",""1359""
","
","
","""event"",""trial"",""time""
""fullscreenenter"",""1"",""1359""
","
","","[{""page_index"":0,""viewing_time"":3647.5},{""page_index"":1,""viewing_time"":5264},{""page_index"":2,""viewing_time"":8193.299999952316}]","17105","","","","","","","","","","","","","","","","","","","","","","","",""
"pit-trial","118","842430","0.0-4.0","battery-v0.2","","""event"",""trial"",""time""
""fullscreenenter"",""1"",""1359""
","
","
","""event"",""trial"",""time""
""fullscreenenter"",""1"",""1359""
","
","","","544.0999999046326","","","18","13491","5910","&#9728;","elianto","#f73b6a7A","-1"," ","0","0","[1397.5]","1","1","","","13491","1","0","4","lose","no-go","1"
"pit-trial","119","846038","0.0-5.0","battery-v0.2","","""event"",""trial"",""time""
""fullscreenenter"",""1"",""1359""
","
","
","""event"",""trial"",""time""
""fullscreenenter"",""1"",""1359""
","
","","","736.2999999523163","","","18","13491","5910","&#9752;","elianto","#f73b6a7A"," "," ","1","0","[1593.2000000476837]","1","1","","","13491","2","3","3","lose","go","0"
"pit-trial","120","849470","0.0-6.0","battery-v0.2","","""event"",""trial"",""time""
""fullscreenenter"",""1"",""1359""
","
","
","""event"",""trial"",""time""
""fullscreenenter"",""1"",""1359""
","
","","","571.4000000953674","","","18","13491","5910","&#9730;","elianto","#3366ff99"," "," ","1","0","[1422.9000000953674]","1","1","","","13491","3","1","1","win","go","1"
"pit-trial","121","853245","0.0-7.0","battery-v0.2","","""event"",""trial"",""time""
""fullscreenenter"",""1"",""1359""
","
","
","""event"",""trial"",""time""
""fullscreenenter"",""1"",""1359""
","
","","","912","","","18","13491","5910","&#9733;","elianto","#3366ff99","-1"," ","0","+10","[1762.7999999523163]","1","1","","","13491","4","2","2","win","no-go","1"
"pit-trial","122","856663","0.0-8.0","battery-v0.2","","""event"",""trial"",""time""
""fullscreenenter"",""1"",""1359""
","
","
","""event"",""trial"",""time""
""fullscreenenter"",""1"",""1359""
","
","","","559.9000000953674","","","18","13491","5910","&#9752;","elianto","#f73b6a7A"," "," ","1","-10","[1411.2999999523163]","1","1","","","13491","5","3","3","lose","go","1"
"pit-trial","123","860722","0.0-9.0","battery-v0.2","","""event"",""trial"",""time""
""fullscreenenter"",""1"",""1359""
","
","
","""event"",""trial"",""time""
""fullscreenenter"",""1"",""1359""
","
","","","1206.5","","","18","13491","5910","&#9733;","elianto","#3366ff99","-1"," ","0","0","[2057.800000190735]","1","1","","","13491","6","2","2","win","no-go","0"
"pit-trial","124","864530","0.0-10.0","battery-v0.2","","""event"",""trial"",""time""
""fullscreenenter"",""1"",""1359""
","
","
","""event"",""trial"",""time""
""fullscreenenter"",""1"",""1359""
","
","","","943.2999999523163","","","18","13491","5910","&#9730;","elianto","#3366ff99"," "," ","1","+10","[1794]","1","1","","","13491","7","1","1","win","go","0"
"pit-trial","125","867973","0.0-11.0","battery-v0.2","","""event"",""trial"",""time""
""fullscreenenter"",""1"",""1359""
","
","
","""event"",""trial"",""time""
""fullscreenenter"",""1"",""1359""
","
","","","573.2999999523163","","","18","13491","5910","&#9728;","elianto","#f73b6a7A","-1"," ","0","-10","[1429.2999999523163]","1","1","","","13491","8","0","4","lose","no-go","0"
"pit-trial","126","871485","0.0-12.0","battery-v0.2","","""event"",""trial"",""time""
""fullscreenenter"",""1"",""1359""
","
","
","""event"",""trial"",""time""
""fullscreenenter"",""1"",""1359""
","
","","","658.0999999046326","","","18","13491","5910","&#9728;","elianto","#f73b6a7A","-1"," ","0","-10","[1509]","1","1","","","13491","9","0","4","lose","no-go","0"
"pit-trial","127","874966","0.0-13.0","battery-v0.2","","""event"",""trial"",""time""
""fullscreenenter"",""1"",""1359""
","
","
","""event"",""trial"",""time""
""fullscreenenter"",""1"",""1359""
","
","","","628.5","","","18","13491","5910","&#9733;","elianto","#3366ff99","-1"," ","0","0","[1479.3999998569489]","1","1","","","13491","10","2","2","win","no-go","0"
"pit-trial","128","878366","0.0-14.0","battery-v0.2","","""event"",""trial"",""time""
""fullscreenenter"",""1"",""1359""
","
","
","""event"",""trial"",""time""
""fullscreenenter"",""1"",""1359""
","
","","","547.7000000476837","","","18","13491","5910","&#9730;","elianto","#3366ff99"," "," ","1","0","[1397.7999999523163]","1","1","","","13491","11","1","1","win","go","1"
"pit-trial","129","881872","0.0-15.0","battery-v0.2","","""event"",""trial"",""time""
""fullscreenenter"",""1"",""1359""
","
","
","""event"",""trial"",""time""
""fullscreenenter"",""1"",""1359""
","
","","","653.3999998569489","","","18","13491","5910","&#9752;","elianto","#f73b6a7A"," "," ","1","0","[1504.5999999046326]","1","1","","","13491","12","3","3","lose","go","0"
"pit-trial","130","886725","0.0-16.0","battery-v0.2","","""event"",""trial"",""time""
""fullscreenenter"",""1"",""1359""
","
","
","""event"",""trial"",""time""
""fullscreenenter"",""1"",""1359""
","
","","","-1","","","18","13491","5910","&#9728;","elianto","#f73b6a7A","-1","-1","1","0","[]","0","1","","","13491","13","0","4","lose","no-go","0"
"pit-trial","131","890441","0.0-17.0","battery-v0.2","","""event"",""trial"",""time""
""fullscreenenter"",""1"",""1359""
","
","
","""event"",""trial"",""time""
""fullscreenenter"",""1"",""1359""
","
","","","863.8000001907349","","","18","13491","5910","&#9730;","elianto","#3366ff99"," "," ","1","+10","[1714.2000000476837]","1","1","","","13491","14","1","1","win","go","0"
"pit-trial","132","894074","0.0-18.0","battery-v0.2","","""event"",""trial"",""time""
""fullscreenenter"",""1"",""1359""
","
","
","""event"",""trial"",""time""
""fullscreenenter"",""1"",""1359""
","
","","","779.6000001430511","","","18","13491","5910","&#9733;","elianto","#3366ff99","-1"," ","0","0","[1631.1000001430511]","1","1","","","13491","15","2","2","win","no-go","0"
"pit-trial","133","897947","0.0-19.0","battery-v0.2","","""event"",""trial"",""time""
""fullscreenenter"",""1"",""1359""
","
","
","""event"",""trial"",""time""
""fullscreenenter"",""1"",""1359""
","
","","","1020.7999999523163","","","18","13491","5910","&#9752;","elianto","#f73b6a7A"," "," ","1","0","[1870.8999998569489]","1","1","","","13491","16","3","3","lose","go","0"
"pit-trial","134","901554","0.0-20.0","battery-v0.2","","""event"",""trial"",""time""
""fullscreenenter"",""1"",""1359""
","
","
","""event"",""trial"",""time""
""fullscreenenter"",""1"",""1359""
","
","","","754.7000000476837","","","18","13491","5910","&#9730;","elianto","#3366ff99"," "," ","1","+10","[1604.8999998569489]","1","1","","","13491","17","1","1","win","go","0"
"pit-trial","135","905509","0.0-21.0","battery-v0.2","","""event"",""trial"",""time""
""fullscreenenter"",""1"",""1359""
","
","
","""event"",""trial"",""time""
""fullscreenenter"",""1"",""1359""
","
","","","1103.0999999046326","","","18","13491","5910","&#9752;","elianto","#f73b6a7A"," "," ","1","-10","[1953.6999998092651]","1","1","","","13491","18","3","3","lose","go","1"
"pit-trial","136","910363","0.0-22.0","battery-v0.2","","""event"",""trial"",""time""
""fullscreenenter"",""1"",""1359""
","
","
","""event"",""trial"",""time""
""fullscreenenter"",""1"",""1359""
","
","","","-1","","","18","13491","5910","&#9728;","elianto","#f73b6a7A","-1","-1","1","-10","[]","0","1","","","13491","19","0","4","lose","no-go","1"
"pit-trial","137","914072","0.0-23.0","battery-v0.2","","""event"",""trial"",""time""
""fullscreenenter"",""1"",""1359""
","
","
","""event"",""trial"",""time""
""fullscreenenter"",""1"",""1359""
","
","","","857.7000000476837","","","18","13491","5910","&#9733;","elianto","#3366ff99","-1"," ","0","0","[1708]","1","1","","","13491","20","2","2","win","no-go","0"
"pit-instructions","138","927059","0.0-24.0","battery-v0.2","","""event"",""trial"",""time""
""fullscreenenter"",""1"",""1359""
","
","
","""event"",""trial"",""time""
""fullscreenenter"",""1"",""1359""
","
","","[{""page_index"":0,""viewing_time"":6969},{""page_index"":1,""viewing_time"":6016.799999952316}]","12986","","","","","","","","","","","","","","","","","","","","","","","",""
"pit-trial","139","930379","0.0-25.0","battery-v0.2","","""event"",""trial"",""time""
""fullscreenenter"",""1"",""1359""
","
","
","""event"",""trial"",""time""
""fullscreenenter"",""1"",""1359""
","
","","","456.2000000476837","","","18","13491","5910","n","elianto","#f73b6a7A","-1"," ","0","0","[1308.1000001430511]","1","2","","","13491","21","0","4","lose","no-go","1"
"pit-trial","140","933853","0.0-26.0","battery-v0.2","","""event"",""trial"",""time""
""fullscreenenter"",""1"",""1359""
","
","
","""event"",""trial"",""time""
""fullscreenenter"",""1"",""1359""
","
","","","607.5","","","18","13491","5910","t","elianto","#f73b6a7A","-1"," ","0","-10","[1459.2999999523163]","1","2","","","13491","22","2","4","lose","no-go","0"
"pit-trial","141","937269","0.0-27.0","battery-v0.2","","""event"",""trial"",""time""
""fullscreenenter"",""1"",""1359""
","
","
","""event"",""trial"",""time""
""fullscreenenter"",""1"",""1359""
","
","","","546.5","","","18","13491","5910","f","elianto","#3366ff99"," "," ","1","+10","[1403.2999999523163]","1","2","","","13491","23","1","1","win","go","0"
"pit-trial","142","940732","0.0-28.0","battery-v0.2","","""event"",""trial"",""time""
""fullscreenenter"",""1"",""1359""
","
","
","""event"",""trial"",""time""
""fullscreenenter"",""1"",""1359""
","
","","","597.2000000476837","","","18","13491","5910","b","elianto","#f73b6a7A"," "," ","1","0","[1450.7999999523163]","1","2","","","13491","24","3","3","lose","go","0"
"pit-trial","143","944221","0.0-29.0","battery-v0.2","","""event"",""trial"",""time""
""fullscreenenter"",""1"",""1359""
","
","
","""event"",""trial"",""time""
""fullscreenenter"",""1"",""1359""
","
","","","630.8999998569489","","","18","13491","5910","b","elianto","#f73b6a7A"," "," ","1","0","[1482.1999998092651]","1","2","","","13491","25","3","3","lose","go","0"
"pit-trial","144","947728","0.0-30.0","battery-v0.2","","""event"",""trial"",""time""
""fullscreenenter"",""1"",""1359""
","
","
","""event"",""trial"",""time""
""fullscreenenter"",""1"",""1359""
","
","","","641.5","","","18","13491","5910","t","elianto","#f73b6a7A","-1"," ","0","-10","[1494]","1","2","","","13491","26","2","4","lose","no-go","0"
"pit-trial","145","951197","0.0-31.0","battery-v0.2","","""event"",""trial"",""time""
""fullscreenenter"",""1"",""1359""
","
","
","""event"",""trial"",""time""
""fullscreenenter"",""1"",""1359""
","
","","","602.2000000476837","","","18","13491","5910","f","elianto","#3366ff99"," "," ","1","0","[1456.2999999523163]","1","2","","","13491","27","1","1","win","go","1"
"pit-trial","146","954571","0.0-32.0","battery-v0.2","","""event"",""trial"",""time""
""fullscreenenter"",""1"",""1359""
","
","
","""event"",""trial"",""time""
""fullscreenenter"",""1"",""1359""
","
","","","517.7999999523163","","","18","13491","5910","n","elianto","#f73b6a7A","-1"," ","0","-10","[1368.3999998569489]","1","2","","","13491","28","0","4","lose","no-go","0"
"pit-trial","147","958116","0.0-33.0","battery-v0.2","","""event"",""trial"",""time""
""fullscreenenter"",""1"",""1359""
","
","
","""event"",""trial"",""time""
""fullscreenenter"",""1"",""1359""
","
","","","679.5","","","18","13491","5910","f","elianto","#3366ff99"," "," ","1","+10","[1529.5999999046326]","1","2","","","13491","29","1","1","win","go","0"
"pit-trial","148","962970","0.0-34.0","battery-v0.2","","""event"",""trial"",""time""
""fullscreenenter"",""1"",""1359""
","
","
","""event"",""trial"",""time""
""fullscreenenter"",""1"",""1359""
","
","","","-1","","","18","13491","5910","t","elianto","#f73b6a7A","-1","-1","1","0","[]","0","2","","","13491","30","2","4","lose","no-go","0"
"pit-trial","149","966532","0.0-35.0","battery-v0.2","","""event"",""trial"",""time""
""fullscreenenter"",""1"",""1359""
","
","
","""event"",""trial"",""time""
""fullscreenenter"",""1"",""1359""
","
","","","709.9000000953674","","","18","13491","5910","b","elianto","#f73b6a7A"," "," ","1","0","[1560.4000000953674]","1","2","","","13491","31","3","3","lose","go","0"
"pit-trial","150","970047","0.0-36.0","battery-v0.2","","""event"",""trial"",""time""
""fullscreenenter"",""1"",""1359""
","
","
","""event"",""trial"",""time""
""fullscreenenter"",""1"",""1359""
","
","","","662.7999999523163","","","18","13491","5910","n","elianto","#f73b6a7A","-1"," ","0","-10","[1513.7999999523163]","1","2","","","13491","32","0","4","lose","no-go","0"
"pit-trial","151","973425","0.0-37.0","battery-v0.2","","""event"",""trial"",""time""
""fullscreenenter"",""1"",""1359""
","
","
","""event"",""trial"",""time""
""fullscreenenter"",""1"",""1359""
","
","","","526.3000001907349","","","18","13491","5910","f","elianto","#3366ff99"," "," ","1","0","[1376.8000001907349]","1","2","","","13491","33","1","1","win","go","1"
"pit-trial","152","978278","0.0-38.0","battery-v0.2","","""event"",""trial"",""time""
""fullscreenenter"",""1"",""1359""
","
","
","""event"",""trial"",""time""
""fullscreenenter"",""1"",""1359""
","
","","","-1","","","18","13491","5910","n","elianto","#f73b6a7A","-1","-1","1","0","[]","0","2","","","13491","34","0","4","lose","no-go","0"
"pit-trial","153","983131","0.0-39.0","battery-v0.2","","""event"",""trial"",""time""
""fullscreenenter"",""1"",""1359""
","
","
","""event"",""trial"",""time""
""fullscreenenter"",""1"",""1359""
","
","","","-1","","","18","13491","5910","t","elianto","#f73b6a7A","-1","-1","1","0","[]","0","2","","","13491","35","2","4","lose","no-go","0"
"pit-trial","154","986485","0.0-40.0","battery-v0.2","","""event"",""trial"",""time""
""fullscreenenter"",""1"",""1359""
","
","
","""event"",""trial"",""time""
""fullscreenenter"",""1"",""1359""
","
","","","502","","","18","13491","5910","b","elianto","#f73b6a7A"," "," ","1","0","[1353]","1","2","","","13491","36","3","3","lose","go","0"
"pit-trial","155","991338","0.0-41.0","battery-v0.2","","""event"",""trial"",""time""
""fullscreenenter"",""1"",""1359""
","
","
","""event"",""trial"",""time""
""fullscreenenter"",""1"",""1359""
","
","","","-1","","","18","13491","5910","t","elianto","#f73b6a7A","-1","-1","1","0","[]","0","2","","","13491","37","2","4","lose","no-go","0"
"pit-trial","156","996190","0.0-42.0","battery-v0.2","","""event"",""trial"",""time""
""fullscreenenter"",""1"",""1359""
","
","
","""event"",""trial"",""time""
""fullscreenenter"",""1"",""1359""
","
","","","-1","","","18","13491","5910","n","elianto","#f73b6a7A","-1","-1","1","0","[]","0","2","","","13491","38","0","4","lose","no-go","0"
"pit-trial","157","999814","0.0-43.0","battery-v0.2","","""event"",""trial"",""time""
""fullscreenenter"",""1"",""1359""
","
","
","""event"",""trial"",""time""
""fullscreenenter"",""1"",""1359""
","
","","","770.9000000953674","","","18","13491","5910","b","elianto","#f73b6a7A"," "," ","1","0","[1621.5]","1","2","","","13491","39","3","3","lose","go","0"
"pit-trial","158","1003158","0.0-44.0","battery-v0.2","","""event"",""trial"",""time""
""fullscreenenter"",""1"",""1359""
","
","
","""event"",""trial"",""time""
""fullscreenenter"",""1"",""1359""
","
","","","491.10000014305115","","","18","13491","5910","f","elianto","#3366ff99"," "," ","1","0","[1341.1000001430511]","1","2","","","13491","40","1","1","win","go","1"
"pit-trial","159","1006639","0.0-45.0","battery-v0.2","","""event"",""trial"",""time""
""fullscreenenter"",""1"",""1359""
","
","
","""event"",""trial"",""time""
""fullscreenenter"",""1"",""1359""
","
","","","629.2999999523163","","","18","13491","5910","f","elianto","#3366ff99"," "," ","1","+10","[1479.5]","1","2","","","13491","41","1","1","win","go","0"
"pit-trial","160","1010057","0.0-46.0","battery-v0.2","","""event"",""trial"",""time""
""fullscreenenter"",""1"",""1359""
","
","
","""event"",""trial"",""time""
""fullscreenenter"",""1"",""1359""
","
","","","565.2000000476837","","","18","13491","5910","b","elianto","#f73b6a7A"," "," ","1","0","[1416.2000000476837]","1","2","","","13491","42","3","3","lose","go","0"
"pit-trial","161","1014909","0.0-47.0","battery-v0.2","","""event"",""trial"",""time""
""fullscreenenter"",""1"",""1359""
","
","
","""event"",""trial"",""time""
""fullscreenenter"",""1"",""1359""
","
","","","-1","","","18","13491","5910","n","elianto","#f73b6a7A","-1","-1","1","0","[]","0","2","","","13491","43","0","4","lose","no-go","0"
"pit-trial","162","1019770","0.0-48.0","battery-v0.2","","""event"",""trial"",""time""
""fullscreenenter"",""1"",""1359""
","
","
","""event"",""trial"",""time""
""fullscreenenter"",""1"",""1359""
","
","","","-1","","","18","13491","5910","t","elianto","#f73b6a7A","-1","-1","1","0","[]","0","2","","","13491","44","2","4","lose","no-go","0"
"pit-trial","163","1024621","0.0-49.0","battery-v0.2","","""event"",""trial"",""time""
""fullscreenenter"",""1"",""1359""
","
","
","""event"",""trial"",""time""
""fullscreenenter"",""1"",""1359""
","
","","","-1","","","18","13491","5910","n","elianto","#f73b6a7A","-1","-1","1","0","[]","0","2","","","13491","45","0","4","lose","no-go","0"
"pit-trial","164","1028454","0.0-50.0","battery-v0.2","","""event"",""trial"",""time""
""fullscreenenter"",""1"",""1359""
","
","
","""event"",""trial"",""time""
""fullscreenenter"",""1"",""1359""
","
","","","980","","","18","13491","5910","c","elianto","#3366ff99","-1"," ","0","0","[1830.0999999046326]","1","2","","","13491","46","4","2","win","no-go","0"
"pit-trial","165","1032073","0.0-51.0","battery-v0.2","","""event"",""trial"",""time""
""fullscreenenter"",""1"",""1359""
","
","
","""event"",""trial"",""time""
""fullscreenenter"",""1"",""1359""
","
","","","767.0999999046326","","","18","13491","5910","b","elianto","#f73b6a7A"," "," ","1","0","[1617.4000000953674]","1","2","","","13491","47","3","3","lose","go","0"
"pit-trial","166","1036927","0.0-52.0","battery-v0.2","","""event"",""trial"",""time""
""fullscreenenter"",""1"",""1359""
","
","
","""event"",""trial"",""time""
""fullscreenenter"",""1"",""1359""
","
","","","-1","","","18","13491","5910","t","elianto","#f73b6a7A","-1","-1","1","0","[]","0","2","","","13491","48","2","4","lose","no-go","0"
"pit-trial","167","1041779","0.0-53.0","battery-v0.2","","""event"",""trial"",""time""
""fullscreenenter"",""1"",""1359""
","
","
","""event"",""trial"",""time""
""fullscreenenter"",""1"",""1359""
","
","","","-1","","","18","13491","5910","c","elianto","#3366ff99","-1","-1","1","0","[]","0","2","","","13491","49","4","2","win","no-go","1"
"pit-trial","168","1045279","0.0-54.0","battery-v0.2","","""event"",""trial"",""time""
""fullscreenenter"",""1"",""1359""
","
","
","""event"",""trial"",""time""
""fullscreenenter"",""1"",""1359""
","
","","","648.0999999046326","","","18","13491","5910","f","elianto","#3366ff99"," "," ","1","+10","[1498.7999999523163]","1","2","","","13491","50","1","1","win","go","0"
"pit-trial","169","1050132","0.0-55.0","battery-v0.2","","""event"",""trial"",""time""
""fullscreenenter"",""1"",""1359""
","
","
","""event"",""trial"",""time""
""fullscreenenter"",""1"",""1359""
","
","","","-1","","","18","13491","5910","n","elianto","#f73b6a7A","-1","-1","1","0","[]","0","2","","","13491","51","0","4","lose","no-go","0"
"pit-trial","170","1053704","0.0-56.0","battery-v0.2","","""event"",""trial"",""time""
""fullscreenenter"",""1"",""1359""
","
","
","""event"",""trial"",""time""
""fullscreenenter"",""1"",""1359""
","
","","","719.0999999046326","","","18","13491","5910","b","elianto","#f73b6a7A"," "," ","1","0","[1570.4000000953674]","1","2","","","13491","52","3","3","lose","go","0"
"pit-trial","171","1057132","0.0-57.0","battery-v0.2","","""event"",""trial"",""time""
""fullscreenenter"",""1"",""1359""
","
","
","""event"",""trial"",""time""
""fullscreenenter"",""1"",""1359""
","
","","","576.7000000476837","","","18","13491","5910","f","elianto","#3366ff99"," "," ","1","+10","[1427]","1","2","","","13491","53","1","1","win","go","0"
"pit-trial","172","1061985","0.0-58.0","battery-v0.2","","""event"",""trial"",""time""
""fullscreenenter"",""1"",""1359""
","
","
","""event"",""trial"",""time""
""fullscreenenter"",""1"",""1359""
","
","","","-1","","","18","13491","5910","t","elianto","#f73b6a7A","-1","-1","1","-10","[]","0","2","","","13491","54","2","4","lose","no-go","1"
"pit-trial","173","1066839","0.0-59.0","battery-v0.2","","""event"",""trial"",""time""
""fullscreenenter"",""1"",""1359""
","
","
","""event"",""trial"",""time""
""fullscreenenter"",""1"",""1359""
","
","","","-1","","","18","13491","5910","c","elianto","#3366ff99","-1","-1","1","0","[3507.2000000476837]","1","2","","","13491","55","4","2","win","no-go","1"
"pit-trial","174","1071691","0.0-60.0","battery-v0.2","","""event"",""trial"",""time""
""fullscreenenter"",""1"",""1359""
","
","
","""event"",""trial"",""time""
""fullscreenenter"",""1"",""1359""
","
","","","-1","","","18","13491","5910","n","elianto","#f73b6a7A","-1","-1","1","0","[]","0","2","","","13491","56","0","4","lose","no-go","0"
"pit-trial","175","1075161","0.0-61.0","battery-v0.2","","""event"",""trial"",""time""
""fullscreenenter"",""1"",""1359""
","
","
","""event"",""trial"",""time""
""fullscreenenter"",""1"",""1359""
","
","","","618.2000000476837","","","18","13491","5910","b","elianto","#f73b6a7A"," "," ","1","0","[1468.2999999523163]","1","2","","","13491","57","3","3","lose","go","0"
"pit-trial","176","1078581","0.0-62.0","battery-v0.2","","""event"",""trial"",""time""
""fullscreenenter"",""1"",""1359""
","
","
","""event"",""trial"",""time""
""fullscreenenter"",""1"",""1359""
","
","","","566.9000000953674","","","18","13491","5910","f","elianto","#3366ff99"," "," ","1","+10","[1418.9000000953674]","1","2","","","13491","58","1","1","win","go","0"
"pit-trial","177","1083434","0.0-63.0","battery-v0.2","","""event"",""trial"",""time""
""fullscreenenter"",""1"",""1359""
","
","
","""event"",""trial"",""time""
""fullscreenenter"",""1"",""1359""
","
","","","-1","","","18","13491","5910","n","elianto","#f73b6a7A","-1","-1","1","0","[]","0","2","","","13491","59","0","4","lose","no-go","0"
"pit-trial","178","1086818","0.0-64.0","battery-v0.2","","""event"",""trial"",""time""
""fullscreenenter"",""1"",""1359""
","
","
","""event"",""trial"",""time""
""fullscreenenter"",""1"",""1359""
","
","","","530.8000001907349","","","18","13491","5910","c","elianto","#3366ff99","-1"," ","0","0","[1381.6000001430511]","1","2","","","13491","60","4","2","win","no-go","0"
"pit-trial","179","1091671","0.0-65.0","battery-v0.2","","""event"",""trial"",""time""
""fullscreenenter"",""1"",""1359""
","
","
","""event"",""trial"",""time""
""fullscreenenter"",""1"",""1359""
","
","","","-1","","","18","13491","5910","t","elianto","#f73b6a7A","-1","-1","1","0","[]","0","2","","","13491","61","2","4","lose","no-go","0"
"pit-trial","180","1095138","0.0-66.0","battery-v0.2","","""event"",""trial"",""time""
""fullscreenenter"",""1"",""1359""
","
","
","""event"",""trial"",""time""
""fullscreenenter"",""1"",""1359""
","
","","","614.4000000953674","","","18","13491","5910","b","elianto","#f73b6a7A"," "," ","1","0","[1465.2999999523163]","1","2","","","13491","62","3","3","lose","go","0"
"pit-trial","181","1098456","0.0-67.0","battery-v0.2","","""event"",""trial"",""time""
""fullscreenenter"",""1"",""1359""
","
","
","""event"",""trial"",""time""
""fullscreenenter"",""1"",""1359""
","
","","","466.69999980926514","","","18","13491","5910","f","elianto","#3366ff99"," "," ","1","0","[1316.7999999523163]","1","2","","","13491","63","1","1","win","go","1"
"pit-trial","182","1101857","0.0-68.0","battery-v0.2","","""event"",""trial"",""time""
""fullscreenenter"",""1"",""1359""
","
","
","""event"",""trial"",""time""
""fullscreenenter"",""1"",""1359""
","
","","","545","","","18","13491","5910","c","elianto","#3366ff99","-1"," ","0","0","[1398.9000000953674]","1","2","","","13491","64","4","2","win","no-go","0"
"pit-trial","183","1105382","0.0-69.0","battery-v0.2","","""event"",""trial"",""time""
""fullscreenenter"",""1"",""1359""
","
","
","""event"",""trial"",""time""
""fullscreenenter"",""1"",""1359""
","
","","","672.5","","","18","13491","5910","f","elianto","#3366ff99"," "," ","1","+10","[1522.8999998569489]","1","2","","","13491","65","1","1","win","go","0"
"pit-trial","184","1108772","0.0-70.0","battery-v0.2","","""event"",""trial"",""time""
""fullscreenenter"",""1"",""1359""
","
","
","""event"",""trial"",""time""
""fullscreenenter"",""1"",""1359""
","
","","","537.5","","","18","13491","5910","b","elianto","#f73b6a7A"," "," ","1","0","[1388]","1","2","","","13491","66","3","3","lose","go","0"
"pit-trial","185","1113625","0.0-71.0","battery-v0.2","","""event"",""trial"",""time""
""fullscreenenter"",""1"",""1359""
","
","
","""event"",""trial"",""time""
""fullscreenenter"",""1"",""1359""
","
","","","-1","","","18","13491","5910","c","elianto","#3366ff99","-1","-1","1","+10","[]","0","2","","","13491","67","4","2","win","no-go","0"
"pit-trial","186","1118478","0.0-72.0","battery-v0.2","","""event"",""trial"",""time""
""fullscreenenter"",""1"",""1359""
","
","
","""event"",""trial"",""time""
""fullscreenenter"",""1"",""1359""
","
","","","-1","","","18","13491","5910","t","elianto","#f73b6a7A","-1","-1","1","-10","[]","0","2","","","13491","68","2","4","lose","no-go","1"
"pit-trial","187","1121847","0.0-73.0","battery-v0.2","","""event"",""trial"",""time""
""fullscreenenter"",""1"",""1359""
","
","
","""event"",""trial"",""time""
""fullscreenenter"",""1"",""1359""
","
","","","516.4000000953674","","","18","13491","5910","f","elianto","#3366ff99"," "," ","1","+10","[1366.9000000953674]","1","2","","","13491","69","1","1","win","go","0"
"pit-trial","188","1126700","0.0-74.0","battery-v0.2","","""event"",""trial"",""time""
""fullscreenenter"",""1"",""1359""
","
","
","""event"",""trial"",""time""
""fullscreenenter"",""1"",""1359""
","
","","","-1","","","18","13491","5910","c","elianto","#3366ff99","-1","-1","1","0","[]","0","2","","","13491","70","4","2","win","no-go","1"
"pit-trial","189","1130171","0.0-75.0","battery-v0.2","","""event"",""trial"",""time""
""fullscreenenter"",""1"",""1359""
","
","
","""event"",""trial"",""time""
""fullscreenenter"",""1"",""1359""
","
","","","617.7000000476837","","","18","13491","5910","b","elianto","#f73b6a7A"," "," ","1","0","[1468.7999999523163]","1","2","","","13491","71","3","3","lose","go","0"
"pit-trial","190","1133919","0.0-76.0","battery-v0.2","","""event"",""trial"",""time""
""fullscreenenter"",""1"",""1359""
","
","
","""event"",""trial"",""time""
""fullscreenenter"",""1"",""1359""
","
","","","896.5","","","18","13491","5910","z","elianto","#3366ff99"," "," ","1","+10","[1747.3999998569489]","1","2","","","13491","72","5","1","win","go","0"
"pit-trial","191","1137358","0.0-77.0","battery-v0.2","","""event"",""trial"",""time""
""fullscreenenter"",""1"",""1359""
","
","
","""event"",""trial"",""time""
""fullscreenenter"",""1"",""1359""
","
","","","586.9000000953674","","","18","13491","5910","z","elianto","#3366ff99"," "," ","1","+10","[1437.1000001430511]","1","2","","","13491","73","5","1","win","go","0"
"pit-trial","192","1141072","0.0-78.0","battery-v0.2","","""event"",""trial"",""time""
""fullscreenenter"",""1"",""1359""
","
","
","""event"",""trial"",""time""
""fullscreenenter"",""1"",""1359""
","
","","","860.0999999046326","","","18","13491","5910","b","elianto","#f73b6a7A"," "," ","1","0","[1712]","1","2","","","13491","74","3","3","lose","go","0"
"pit-trial","193","1144467","0.0-79.0","battery-v0.2","","""event"",""trial"",""time""
""fullscreenenter"",""1"",""1359""
","
","
","""event"",""trial"",""time""
""fullscreenenter"",""1"",""1359""
","
","","","542.5","","","18","13491","5910","f","elianto","#3366ff99"," "," ","1","+10","[1392.7999999523163]","1","2","","","13491","75","1","1","win","go","0"
"pit-trial","194","1148709","0.0-80.0","battery-v0.2","","""event"",""trial"",""time""
""fullscreenenter"",""1"",""1359""
","
","
","""event"",""trial"",""time""
""fullscreenenter"",""1"",""1359""
","
","","","1382.7999999523163","","","18","13491","5910","c","elianto","#3366ff99","-1"," ","0","0","[2233.5]","1","2","","","13491","76","4","2","win","no-go","0"
"pit-trial","195","1152184","0.0-81.0","battery-v0.2","","""event"",""trial"",""time""
""fullscreenenter"",""1"",""1359""
","
","
","""event"",""trial"",""time""
""fullscreenenter"",""1"",""1359""
","
","","","621.8999998569489","","","18","13491","5910","b","elianto","#f73b6a7A"," "," ","1","0","[1472.8999998569489]","1","2","","","13491","77","3","3","lose","go","0"
"pit-trial","196","1155633","0.0-82.0","battery-v0.2","","""event"",""trial"",""time""
""fullscreenenter"",""1"",""1359""
","
","
","""event"",""trial"",""time""
""fullscreenenter"",""1"",""1359""
","
","","","595.7999999523163","","","18","13491","5910","z","elianto","#3366ff99"," "," ","1","+10","[1446.7999999523163]","1","2","","","13491","78","5","1","win","go","0"
"pit-trial","197","1160486","0.0-83.0","battery-v0.2","","""event"",""trial"",""time""
""fullscreenenter"",""1"",""1359""
","
","
","""event"",""trial"",""time""
""fullscreenenter"",""1"",""1359""
","
","","","-1","","","18","13491","5910","c","elianto","#3366ff99","-1","-1","1","+10","[]","0","2","","","13491","79","4","2","win","no-go","0"
"pit-trial","198","1165352","0.0-84.0","battery-v0.2","","""event"",""trial"",""time""
""fullscreenenter"",""1"",""1359""
","
","
","""event"",""trial"",""time""
""fullscreenenter"",""1"",""1359""
","
","","","-1","","","18","13491","5910","h","elianto","#f73b6a7A","-1","-1","1","0","[]","0","2","","","13491","80","6","4","lose","no-go","0"
"pit-trial","199","1170204","0.0-85.0","battery-v0.2","","""event"",""trial"",""time""
""fullscreenenter"",""1"",""1359""
","
","
","""event"",""trial"",""time""
""fullscreenenter"",""1"",""1359""
","
","","","-1","","","18","13491","5910","y","elianto","#f73b6a7A"," ","-1","0","-10","[]","0","2","","","13491","81","7","3","lose","go","0"
"pit-trial","200","1175056","0.0-86.0","battery-v0.2","","""event"",""trial"",""time""
""fullscreenenter"",""1"",""1359""
","
","
","""event"",""trial"",""time""
""fullscreenenter"",""1"",""1359""
","
","","","-1","","","18","13491","5910","h","elianto","#f73b6a7A","-1","-1","1","0","[]","0","2","","","13491","82","6","4","lose","no-go","0"
"pit-trial","201","1179910","0.0-87.0","battery-v0.2","","""event"",""trial"",""time""
""fullscreenenter"",""1"",""1359""
","
","
","""event"",""trial"",""time""
""fullscreenenter"",""1"",""1359""
","
","","","-1","","","18","13491","5910","c","elianto","#3366ff99","-1","-1","1","+10","[]","0","2","","","13491","83","4","2","win","no-go","0"
"pit-trial","202","1183505","0.0-88.0","battery-v0.2","","""event"",""trial"",""time""
""fullscreenenter"",""1"",""1359""
","
","
","""event"",""trial"",""time""
""fullscreenenter"",""1"",""1359""
","
","","","741.7000000476837","","","18","13491","5910","z","elianto","#3366ff99"," "," ","1","+10","[1593.7000000476837]","1","2","","","13491","84","5","1","win","go","0"
"pit-trial","203","1186921","0.0-89.0","battery-v0.2","","""event"",""trial"",""time""
""fullscreenenter"",""1"",""1359""
","
","
","""event"",""trial"",""time""
""fullscreenenter"",""1"",""1359""
","
","","","562.1000001430511","","","18","13491","5910","z","elianto","#3366ff99"," "," ","1","+10","[1413]","1","2","","","13491","85","5","1","win","go","0"
"pit-trial","204","1190574","0.0-90.0","battery-v0.2","","""event"",""trial"",""time""
""fullscreenenter"",""1"",""1359""
","
","
","""event"",""trial"",""time""
""fullscreenenter"",""1"",""1359""
","
","","","800.5999999046326","","","18","13491","5910","y","elianto","#f73b6a7A"," "," ","1","-10","[1652.0999999046326]","1","2","","","13491","86","7","3","lose","go","1"
"pit-trial","205","1195428","0.0-91.0","battery-v0.2","","""event"",""trial"",""time""
""fullscreenenter"",""1"",""1359""
","
","
","""event"",""trial"",""time""
""fullscreenenter"",""1"",""1359""
","
","","","-1","","","18","13491","5910","h","elianto","#f73b6a7A","-1","-1","1","0","[]","0","2","","","13491","87","6","4","lose","no-go","0"
"pit-trial","206","1200281","0.0-92.0","battery-v0.2","","""event"",""trial"",""time""
""fullscreenenter"",""1"",""1359""
","
","
","""event"",""trial"",""time""
""fullscreenenter"",""1"",""1359""
","
","","","-1","","","18","13491","5910","c","elianto","#3366ff99","-1","-1","1","+10","[]","0","2","","","13491","88","4","2","win","no-go","0"
"pit-trial","207","1205133","0.0-93.0","battery-v0.2","","""event"",""trial"",""time""
""fullscreenenter"",""1"",""1359""
","
","
","""event"",""trial"",""time""
""fullscreenenter"",""1"",""1359""
","
","","","-1","","","18","13491","5910","c","elianto","#3366ff99","-1","-1","1","+10","[]","0","2","","","13491","89","4","2","win","no-go","0"
"pit-trial","208","1208846","0.0-94.0","battery-v0.2","","""event"",""trial"",""time""
""fullscreenenter"",""1"",""1359""
","
","
","""event"",""trial"",""time""
""fullscreenenter"",""1"",""1359""
","
","","","859.1000001430511","","","18","13491","5910","y","elianto","#f73b6a7A"," "," ","1","0","[1710.7000000476837]","1","2","","","13491","90","7","3","lose","go","0"
"pit-trial","209","1213700","0.0-95.0","battery-v0.2","","""event"",""trial"",""time""
""fullscreenenter"",""1"",""1359""
","
","
","""event"",""trial"",""time""
""fullscreenenter"",""1"",""1359""
","
","","","-1","","","18","13491","5910","h","elianto","#f73b6a7A","-1","-1","1","0","[]","0","2","","","13491","91","6","4","lose","no-go","0"
"pit-trial","210","1217361","0.0-96.0","battery-v0.2","","""event"",""trial"",""time""
""fullscreenenter"",""1"",""1359""
","
","
","""event"",""trial"",""time""
""fullscreenenter"",""1"",""1359""
","
","","","807.7000000476837","","","18","13491","5910","z","elianto","#3366ff99"," "," ","1","+10","[1659]","1","2","","","13491","92","5","1","win","go","0"
"pit-trial","211","1221078","0.0-97.0","battery-v0.2","","""event"",""trial"",""time""
""fullscreenenter"",""1"",""1359""
","
","
","""event"",""trial"",""time""
""fullscreenenter"",""1"",""1359""
","
","","","863.5999999046326","","","18","13491","5910","r","elianto","#3366ff99","-1"," ","0","0","[1714.2999999523163]","1","2","","","13491","93","8","2","win","no-go","0"
"pit-trial","212","1225931","0.0-98.0","battery-v0.2","","""event"",""trial"",""time""
""fullscreenenter"",""1"",""1359""
","
","
","""event"",""trial"",""time""
""fullscreenenter"",""1"",""1359""
","
","","","-1","","","18","13491","5910","h","elianto","#f73b6a7A","-1","-1","1","0","[]","0","2","","","13491","94","6","4","lose","no-go","0"
"pit-trial","213","1229396","0.0-99.0","battery-v0.2","","""event"",""trial"",""time""
""fullscreenenter"",""1"",""1359""
","
","
","""event"",""trial"",""time""
""fullscreenenter"",""1"",""1359""
","
","","","613.4000000953674","","","18","13491","5910","y","elianto","#f73b6a7A"," "," ","1","0","[1464.0999999046326]","1","2","","","13491","95","7","3","lose","go","0"
"pit-trial","214","1232837","0.0-100.0","battery-v0.2","","""event"",""trial"",""time""
""fullscreenenter"",""1"",""1359""
","
","
","""event"",""trial"",""time""
""fullscreenenter"",""1"",""1359""
","
","","","587.6999998092651","","","18","13491","5910","z","elianto","#3366ff99"," "," ","1","0","[1438.5999999046326]","1","2","","","13491","96","5","1","win","go","1"
"pit-trial","215","1237689","0.0-101.0","battery-v0.2","","""event"",""trial"",""time""
""fullscreenenter"",""1"",""1359""
","
","
","""event"",""trial"",""time""
""fullscreenenter"",""1"",""1359""
","
","","","-1","","","18","13491","5910","r","elianto","#3366ff99","-1","-1","1","+10","[]","0","2","","","13491","97","8","2","win","no-go","0"
"pit-trial","216","1241389","0.0-102.0","battery-v0.2","","""event"",""trial"",""time""
""fullscreenenter"",""1"",""1359""
","
","
","""event"",""trial"",""time""
""fullscreenenter"",""1"",""1359""
","
","","","848.2999999523163","","","18","13491","5910","y","elianto","#f73b6a7A"," "," ","1","0","[1698.6000001430511]","1","2","","","13491","98","7","3","lose","go","0"
"pit-trial","217","1246242","0.0-103.0","battery-v0.2","","""event"",""trial"",""time""
""fullscreenenter"",""1"",""1359""
","
","
","""event"",""trial"",""time""
""fullscreenenter"",""1"",""1359""
","
","","","-1","","","18","13491","5910","h","elianto","#f73b6a7A","-1","-1","1","-10","[]","0","2","","","13491","99","6","4","lose","no-go","1"
"pit-trial","218","1249720","0.0-104.0","battery-v0.2","","""event"",""trial"",""time""
""fullscreenenter"",""1"",""1359""
","
","
","""event"",""trial"",""time""
""fullscreenenter"",""1"",""1359""
","
","","","625.5","","","18","13491","5910","z","elianto","#3366ff99"," "," ","1","+10","[1475.7999999523163]","1","2","","","13491","100","5","1","win","go","0"
"pit-trial","219","1254573","0.0-105.0","battery-v0.2","","""event"",""trial"",""time""
""fullscreenenter"",""1"",""1359""
","
","
","""event"",""trial"",""time""
""fullscreenenter"",""1"",""1359""
","
","","","-1","","","18","13491","5910","r","elianto","#3366ff99","-1","-1","1","+10","[]","0","2","","","13491","101","8","2","win","no-go","0"
"pit-trial","220","1258430","0.0-106.0","battery-v0.2","","""event"",""trial"",""time""
""fullscreenenter"",""1"",""1359""
","
","
","""event"",""trial"",""time""
""fullscreenenter"",""1"",""1359""
","
","","","1005.5","","","18","13491","5910","m","elianto","#3366ff99","-1"," ","0","0","[1856.2999999523163]","1","2","","","13491","102","9","2","win","no-go","0"
"pit-trial","221","1261908","0.0-107.0","battery-v0.2","","""event"",""trial"",""time""
""fullscreenenter"",""1"",""1359""
","
","
","""event"",""trial"",""time""
""fullscreenenter"",""1"",""1359""
","
","","","624.7999999523163","","","18","13491","5910","z","elianto","#3366ff99"," "," ","1","+10","[1476.5999999046326]","1","2","","","13491","103","5","1","win","go","0"
"pit-trial","222","1266761","0.0-108.0","battery-v0.2","","""event"",""trial"",""time""
""fullscreenenter"",""1"",""1359""
","
","
","""event"",""trial"",""time""
""fullscreenenter"",""1"",""1359""
","
","","","-1","","","18","13491","5910","h","elianto","#f73b6a7A","-1","-1","1","0","[]","0","2","","","13491","104","6","4","lose","no-go","0"
"pit-trial","223","1271614","0.0-109.0","battery-v0.2","","""event"",""trial"",""time""
""fullscreenenter"",""1"",""1359""
","
","
","""event"",""trial"",""time""
""fullscreenenter"",""1"",""1359""
","
","","","-1","","","18","13491","5910","r","elianto","#3366ff99","-1","-1","1","0","[]","0","2","","","13491","105","8","2","win","no-go","1"
"pit-trial","224","1275104","0.0-110.0","battery-v0.2","","""event"",""trial"",""time""
""fullscreenenter"",""1"",""1359""
","
","
","""event"",""trial"",""time""
""fullscreenenter"",""1"",""1359""
","
","","","636.5999999046326","","","18","13491","5910","z","elianto","#3366ff99"," "," ","1","+10","[1487.0999999046326]","1","2","","","13491","106","5","1","win","go","0"
"pit-trial","225","1279957","0.0-111.0","battery-v0.2","","""event"",""trial"",""time""
""fullscreenenter"",""1"",""1359""
","
","
","""event"",""trial"",""time""
""fullscreenenter"",""1"",""1359""
","
","","","-1","","","18","13491","5910","m","elianto","#3366ff99","-1","-1","1","0","[]","0","2","","","13491","107","9","2","win","no-go","1"
"pit-trial","226","1284822","0.0-112.0","battery-v0.2","","""event"",""trial"",""time""
""fullscreenenter"",""1"",""1359""
","
","
","""event"",""trial"",""time""
""fullscreenenter"",""1"",""1359""
","
","","","-1","","","18","13491","5910","h","elianto","#f73b6a7A","-1","-1","1","0","[]","0","2","","","13491","108","6","4","lose","no-go","0"
"pit-trial","227","1288279","0.0-113.0","battery-v0.2","","""event"",""trial"",""time""
""fullscreenenter"",""1"",""1359""
","
","
","""event"",""trial"",""time""
""fullscreenenter"",""1"",""1359""
","
","","","604.7999999523163","","","18","13491","5910","z","elianto","#3366ff99"," "," ","1","0","[1455.6999998092651]","1","2","","","13491","109","5","1","win","go","1"
"pit-trial","228","1293133","0.0-114.0","battery-v0.2","","""event"",""trial"",""time""
""fullscreenenter"",""1"",""1359""
","
","
","""event"",""trial"",""time""
""fullscreenenter"",""1"",""1359""
","
","","","-1","","","18","13491","5910","h","elianto","#f73b6a7A","-1","-1","1","0","[]","0","2","","","13491","110","6","4","lose","no-go","0"
"pit-trial","229","1297996","0.0-115.0","battery-v0.2","","""event"",""trial"",""time""
""fullscreenenter"",""1"",""1359""
","
","
","""event"",""trial"",""time""
""fullscreenenter"",""1"",""1359""
","
","","","-1","","","18","13491","5910","m","elianto","#3366ff99","-1","-1","1","+10","[]","0","2","","","13491","111","9","2","win","no-go","0"
"pit-trial","230","1302849","0.0-116.0","battery-v0.2","","""event"",""trial"",""time""
""fullscreenenter"",""1"",""1359""
","
","
","""event"",""trial"",""time""
""fullscreenenter"",""1"",""1359""
","
","","","-1","","","18","13491","5910","r","elianto","#3366ff99","-1","-1","1","+10","[]","0","2","","","13491","112","8","2","win","no-go","0"
"pit-trial","231","1307702","0.0-117.0","battery-v0.2","","""event"",""trial"",""time""
""fullscreenenter"",""1"",""1359""
","
","
","""event"",""trial"",""time""
""fullscreenenter"",""1"",""1359""
","
","","","-1","","","18","13491","5910","r","elianto","#3366ff99","-1","-1","1","+10","[]","0","2","","","13491","113","8","2","win","no-go","0"
"pit-trial","232","1312554","0.0-118.0","battery-v0.2","","""event"",""trial"",""time""
""fullscreenenter"",""1"",""1359""
","
","
","""event"",""trial"",""time""
""fullscreenenter"",""1"",""1359""
","
","","","-1","","","18","13491","5910","m","elianto","#3366ff99","-1","-1","1","+10","[]","0","2","","","13491","114","9","2","win","no-go","0"
"pit-trial","233","1316016","0.0-119.0","battery-v0.2","","""event"",""trial"",""time""
""fullscreenenter"",""1"",""1359""
","
","
","""event"",""trial"",""time""
""fullscreenenter"",""1"",""1359""
","
","","","608.5","","","18","13491","5910","z","elianto","#3366ff99"," "," ","1","0","[1459.6000001430511]","1","2","","","13491","115","5","1","win","go","1"
"pit-trial","234","1319638","0.0-120.0","battery-v0.2","","""event"",""trial"",""time""
""fullscreenenter"",""1"",""1359""
","
","
","""event"",""trial"",""time""
""fullscreenenter"",""1"",""1359""
","
","","","769","","","18","13491","5910","y","elianto","#f73b6a7A"," "," ","1","0","[1619.7999999523163]","1","2","","","13491","116","7","3","lose","go","0"
"pit-trial","235","1323238","0.0-121.0","battery-v0.2","","""event"",""trial"",""time""
""fullscreenenter"",""1"",""1359""
","
","
","""event"",""trial"",""time""
""fullscreenenter"",""1"",""1359""
","
","","","745.4000000953674","","","18","13491","5910","z","elianto","#3366ff99"," "," ","1","+10","[1597.3000001907349]","1","2","","","13491","117","5","1","win","go","0"
"pit-trial","236","1328091","0.0-122.0","battery-v0.2","","""event"",""trial"",""time""
""fullscreenenter"",""1"",""1359""
","
","
","""event"",""trial"",""time""
""fullscreenenter"",""1"",""1359""
","
","","","-1","","","18","13491","5910","h","elianto","#f73b6a7A","-1","-1","1","0","[]","0","2","","","13491","118","6","4","lose","no-go","0"
"pit-trial","237","1332943","0.0-123.0","battery-v0.2","","""event"",""trial"",""time""
""fullscreenenter"",""1"",""1359""
","
","
","""event"",""trial"",""time""
""fullscreenenter"",""1"",""1359""
","
","","","-1","","","18","13491","5910","m","elianto","#3366ff99","-1","-1","1","+10","[]","0","2","","","13491","119","9","2","win","no-go","0"
"pit-trial","238","1337795","0.0-124.0","battery-v0.2","","""event"",""trial"",""time""
""fullscreenenter"",""1"",""1359""
","
","
","""event"",""trial"",""time""
""fullscreenenter"",""1"",""1359""
","
","","","-1","","","18","13491","5910","r","elianto","#3366ff99","-1","-1","1","0","[]","0","2","","","13491","120","8","2","win","no-go","1"
"pit-trial","239","1342648","0.0-125.0","battery-v0.2","","""event"",""trial"",""time""
""fullscreenenter"",""1"",""1359""
","
","
","""event"",""trial"",""time""
""fullscreenenter"",""1"",""1359""
","
","","","-1","","","18","13491","5910","r","elianto","#3366ff99","-1","-1","1","+10","[]","0","2","","","13491","121","8","2","win","no-go","0"
"pit-trial","240","1346113","0.0-126.0","battery-v0.2","","""event"",""trial"",""time""
""fullscreenenter"",""1"",""1359""
","
","
","""event"",""trial"",""time""
""fullscreenenter"",""1"",""1359""
","
","","","609.4000000953674","","","18","13491","5910","z","elianto","#3366ff99"," "," ","1","+10","[1463.2999999523163]","1","2","","","13491","122","5","1","win","go","0"
"pit-trial","241","1349529","0.0-127.0","battery-v0.2","","""event"",""trial"",""time""
""fullscreenenter"",""1"",""1359""
","
","
","""event"",""trial"",""time""
""fullscreenenter"",""1"",""1359""
","
","","","562.3000001907349","","","18","13491","5910","y","elianto","#f73b6a7A"," "," ","1","-10","[1414.3000001907349]","1","2","","","13491","123","7","3","lose","go","1"
"pit-trial","242","1354382","0.0-128.0","battery-v0.2","","""event"",""trial"",""time""
""fullscreenenter"",""1"",""1359""
","
","
","""event"",""trial"",""time""
""fullscreenenter"",""1"",""1359""
","
","","","-1","","","18","13491","5910","m","elianto","#3366ff99","-1","-1","1","+10","[]","0","2","","","13491","124","9","2","win","no-go","0"
"pit-trial","243","1358145","0.0-129.0","battery-v0.2","","""event"",""trial"",""time""
""fullscreenenter"",""1"",""1359""
","
","
","""event"",""trial"",""time""
""fullscreenenter"",""1"",""1359""
","
","","","903.7000000476837","","","18","13491","5910","y","elianto","#f73b6a7A"," "," ","1","0","[1754.2999999523163]","1","2","","","13491","125","7","3","lose","go","0"
"pit-trial","244","1362999","0.0-130.0","battery-v0.2","","""event"",""trial"",""time""
""fullscreenenter"",""1"",""1359""
","
","
","""event"",""trial"",""time""
""fullscreenenter"",""1"",""1359""
","
","","","-1","","","18","13491","5910","r","elianto","#3366ff99","-1","-1","1","+10","[]","0","2","","","13491","126","8","2","win","no-go","0"
"pit-trial","245","1367851","0.0-131.0","battery-v0.2","","""event"",""trial"",""time""
""fullscreenenter"",""1"",""1359""
","
","
","""event"",""trial"",""time""
""fullscreenenter"",""1"",""1359""
","
","","","-1","","","18","13491","5910","h","elianto","#f73b6a7A","-1","-1","1","0","[]","0","2","","","13491","127","6","4","lose","no-go","0"
"pit-trial","246","1372704","0.0-132.0","battery-v0.2","","""event"",""trial"",""time""
""fullscreenenter"",""1"",""1359""
","
","
","""event"",""trial"",""time""
""fullscreenenter"",""1"",""1359""
","
","","","-1","","","18","13491","5910","m","elianto","#3366ff99","-1","-1","1","+10","[]","0","2","","","13491","128","9","2","win","no-go","0"
"pit-trial","247","1376220","0.0-133.0","battery-v0.2","","""event"",""trial"",""time""
""fullscreenenter"",""1"",""1359""
","
","
","""event"",""trial"",""time""
""fullscreenenter"",""1"",""1359""
","
","","","662.4000000953674","","","18","13491","5910","y","elianto","#f73b6a7A"," "," ","1","0","[1513.7999999523163]","1","2","","","13491","129","7","3","lose","go","0"
"pit-trial","248","1381073","0.0-134.0","battery-v0.2","","""event"",""trial"",""time""
""fullscreenenter"",""1"",""1359""
","
","
","""event"",""trial"",""time""
""fullscreenenter"",""1"",""1359""
","
","","","-1","","","18","13491","5910","h","elianto","#f73b6a7A","-1","-1","1","0","[]","0","2","","","13491","130","6","4","lose","no-go","0"
"pit-trial","249","1385926","0.0-135.0","battery-v0.2","","""event"",""trial"",""time""
""fullscreenenter"",""1"",""1359""
","
","
","""event"",""trial"",""time""
""fullscreenenter"",""1"",""1359""
","
","","","-1","","","18","13491","5910","r","elianto","#3366ff99","-1","-1","1","+10","[]","0","2","","","13491","131","8","2","win","no-go","0"
"pit-trial","250","1390778","0.0-136.0","battery-v0.2","","""event"",""trial"",""time""
""fullscreenenter"",""1"",""1359""
","
","
","""event"",""trial"",""time""
""fullscreenenter"",""1"",""1359""
","
","","","-1","","","18","13491","5910","m","elianto","#3366ff99","-1","-1","1","+10","[]","0","2","","","13491","132","9","2","win","no-go","0"
"pit-trial","251","1395630","0.0-137.0","battery-v0.2","","""event"",""trial"",""time""
""fullscreenenter"",""1"",""1359""
","
","
","""event"",""trial"",""time""
""fullscreenenter"",""1"",""1359""
","
","","","-1","","","18","13491","5910","h","elianto","#f73b6a7A","-1","-1","1","0","[]","0","2","","","13491","133","6","4","lose","no-go","0"
"pit-trial","252","1400483","0.0-138.0","battery-v0.2","","""event"",""trial"",""time""
""fullscreenenter"",""1"",""1359""
","
","
","""event"",""trial"",""time""
""fullscreenenter"",""1"",""1359""
","
","","","-1","","","18","13491","5910","r","elianto","#3366ff99","-1","-1","1","0","[]","0","2","","","13491","134","8","2","win","no-go","1"
"pit-trial","253","1403962","0.0-139.0","battery-v0.2","","""event"",""trial"",""time""
""fullscreenenter"",""1"",""1359""
","
","
","""event"",""trial"",""time""
""fullscreenenter"",""1"",""1359""
","
","","","627.8000001907349","","","18","13491","5910","y","elianto","#f73b6a7A"," "," ","1","0","[1478.3000001907349]","1","2","","","13491","135","7","3","lose","go","0"
"pit-trial","254","1408814","0.0-140.0","battery-v0.2","","""event"",""trial"",""time""
""fullscreenenter"",""1"",""1359""
","
","
","""event"",""trial"",""time""
""fullscreenenter"",""1"",""1359""
","
","","","-1","","","18","13491","5910","m","elianto","#3366ff99","-1","-1","1","0","[]","0","2","","","13491","136","9","2","win","no-go","1"
"pit-trial","255","1412366","0.0-141.0","battery-v0.2","","""event"",""trial"",""time""
""fullscreenenter"",""1"",""1359""
","
","
","""event"",""trial"",""time""
""fullscreenenter"",""1"",""1359""
","
","","","700.5999999046326","","","18","13491","5910","y","elianto","#f73b6a7A"," "," ","1","-10","[1550.9000000953674]","1","2","","","13491","137","7","3","lose","go","1"
"pit-trial","256","1417220","0.0-142.0","battery-v0.2","","""event"",""trial"",""time""
""fullscreenenter"",""1"",""1359""
","
","
","""event"",""trial"",""time""
""fullscreenenter"",""1"",""1359""
","
","","","-1","","","18","13491","5910","m","elianto","#3366ff99","-1","-1","1","+10","[]","0","2","","","13491","138","9","2","win","no-go","0"
"pit-trial","257","1422072","0.0-143.0","battery-v0.2","","""event"",""trial"",""time""
""fullscreenenter"",""1"",""1359""
","
","
","""event"",""trial"",""time""
""fullscreenenter"",""1"",""1359""
","
","","","-1","","","18","13491","5910","r","elianto","#3366ff99","-1","-1","1","+10","[]","0","2","","","13491","139","8","2","win","no-go","0"
"pit-trial","258","1426925","0.0-144.0","battery-v0.2","","""event"",""trial"",""time""
""fullscreenenter"",""1"",""1359""
","
","
","""event"",""trial"",""time""
""fullscreenenter"",""1"",""1359""
","
","","","-1","","","18","13491","5910","h","elianto","#f73b6a7A","-1","-1","1","0","[]","0","2","","","13491","140","6","4","lose","no-go","0"
"pit-instructions","259","1440719","0.0-145.0","battery-v0.2","","""event"",""trial"",""time""
""fullscreenenter"",""1"",""1359""
","
","
","""event"",""trial"",""time""
""fullscreenenter"",""1"",""1359""
","
","","[{""page_index"":0,""viewing_time"":5400.799999952316},{""page_index"":1,""viewing_time"":8393.899999856949}]","13794.799999952316","","","","","","","","","","","","","","","","","","","","","","","",""
"pit-trial","260","1444125","0.0-146.0","battery-v0.2","","""event"",""trial"",""time""
""fullscreenenter"",""1"",""1359""
","
","
","""event"",""trial"",""time""
""fullscreenenter"",""1"",""1359""
","
","","","545.7999999523163","","","18","13491","5910","j","elianto","#f73b6a7A"," "," ","1","-10","[1400.2999999523163]","1","3","","","13491","141","0","3","lose","go","1"
"pit-trial","261","1447628","0.0-147.0","battery-v0.2","","""event"",""trial"",""time""
""fullscreenenter"",""1"",""1359""
","
","
","""event"",""trial"",""time""
""fullscreenenter"",""1"",""1359""
","
","","","635","","","18","13491","5910","w","elianto","#f73b6a7A","-1"," ","0","-10","[1488.9000000953674]","1","3","","","13491","142","3","4","lose","no-go","0"
"pit-trial","262","1451573","0.0-148.0","battery-v0.2","","""event"",""trial"",""time""
""fullscreenenter"",""1"",""1359""
","
","
","""event"",""trial"",""time""
""fullscreenenter"",""1"",""1359""
","
","","","1082.8999998569489","","","18","13491","5910","e","elianto","#f73b6a7A"," "," ","1","0","[1933.2000000476837]","1","3","","","13491","143","2","3","lose","go","0"
"pit-trial","263","1454919","0.0-149.0","battery-v0.2","","""event"",""trial"",""time""
""fullscreenenter"",""1"",""1359""
","
","
","""event"",""trial"",""time""
""fullscreenenter"",""1"",""1359""
","
","","","484.60000014305115","","","18","13491","5910","d","elianto","#3366ff99","-1"," ","0","0","[1339.8000001907349]","1","3","","","13491","144","1","2","win","no-go","0"
"pit-trial","264","1458709","0.0-150.0","battery-v0.2","","""event"",""trial"",""time""
""fullscreenenter"",""1"",""1359""
","
","
","""event"",""trial"",""time""
""fullscreenenter"",""1"",""1359""
","
","","","923","","","18","13491","5910","e","elianto","#f73b6a7A"," "," ","1","-10","[1779.6999998092651]","1","3","","","13491","145","2","3","lose","go","1"
"pit-trial","265","1463581","0.0-151.0","battery-v0.2","","""event"",""trial"",""time""
""fullscreenenter"",""1"",""1359""
","
","
","""event"",""trial"",""time""
""fullscreenenter"",""1"",""1359""
","
","","","-1","","","18","13491","5910","w","elianto","#f73b6a7A","-1","-1","1","0","[]","0","3","","","13491","146","3","4","lose","no-go","0"
"pit-trial","266","1467276","0.0-152.0","battery-v0.2","","""event"",""trial"",""time""
""fullscreenenter"",""1"",""1359""
","
","
","""event"",""trial"",""time""
""fullscreenenter"",""1"",""1359""
","
","","","837.4000000953674","","","18","13491","5910","d","elianto","#3366ff99","-1"," ","0","0","[1689.7000000476837]","1","3","","","13491","147","1","2","win","no-go","0"
