"trial_type","trial_index","time_elapsed","internal_node_id","task_version","subject_id","interactions","blur_events","focus_events","fullscreenenter_events","fullscreenexit_events","success","view_history","rt","responses","num_errors","age","subject","participantId","rune","rune_set","hex","correct","choice","accuracy","outcome","keys","total_keys","block","practice","value","sub","trial","stimulus","robot","valence","action","sham"
"pavlovia","0","7","0.0-0.0","battery-v0.2","","""event"",""trial"",""time""
""fullscreenenter"",""1"",""2640""
","
","
","""event"",""trial"",""time""
""fullscreenenter"",""1"",""2640""
","
","","","","","","","","","","","","","","","","","","","","","","","","","","",""
"fullscreen","1","3612","0.0-1.0","battery-v0.2","","""event"",""trial"",""time""
""fullscreenenter"",""1"",""2640""
","
","
","""event"",""trial"",""time""
""fullscreenenter"",""1"",""2640""
","
","true","","","","","","","","","","","","","","","","","","","","","","","","","",""
"pit-instructions","2","15853","0.0-2.0-0.0","battery-v0.2","","""event"",""trial"",""time""
""fullscreenenter"",""1"",""2640""
","
","
","""event"",""trial"",""time""
""fullscreenenter"",""1"",""2640""
","
","","[{""page_index"":0,""viewing_time"":12238.399999856949}]","12238.599999904633","","","","","","","","","","","","","","","","","","","","","","","",""
"pit-comprehension","3","21755","0.0-2.0-1.0-0.0","battery-v0.2","","""event"",""trial"",""time""
""fullscreenenter"",""1"",""2640""
","
","
","""event"",""trial"",""time""
""fullscreenenter"",""1"",""2640""
","
","","","5898.399999856949","[""shark""]","0","24","17290","6590","","","","","","","","","","","","","","","","","","",""
"pit-instructions","4","23141","0.0-2.0-1.0-1.0","battery-v0.2","","""event"",""trial"",""time""
""fullscreenenter"",""1"",""2640""
","
","
","""event"",""trial"",""time""
""fullscreenenter"",""1"",""2640""
","
","","[{""page_index"":0,""viewing_time"":1375.7000000476837}]","1376","","","","","","","","","","","","","","","","","","","","","","","",""
"pit-comprehension","5","26139","0.0-2.0-2.0-0.0","battery-v0.2","","""event"",""trial"",""time""
""fullscreenenter"",""1"",""2640""
","
","
","""event"",""trial"",""time""
""fullscreenenter"",""1"",""2640""
","
","","","2995.5","[""tiger""]","0","24","17290","6590","","","","","","","","","","","","","","","","","","",""
"pit-instructions","6","27703","0.0-2.0-2.0-1.0","battery-v0.2","","""event"",""trial"",""time""
""fullscreenenter"",""1"",""2640""
","
","
","""event"",""trial"",""time""
""fullscreenenter"",""1"",""2640""
","
","","[{""page_index"":0,""viewing_time"":1562.0999999046326}]","1562.2999999523163","","","","","","","","","","","","","","","","","","","","","","","",""
"pit-instructions","7","128571","0.0-2.0-3.0","battery-v0.2","","""event"",""trial"",""time""
""fullscreenenter"",""1"",""2640""
","
","
","""event"",""trial"",""time""
""fullscreenenter"",""1"",""2640""
","
","","[{""page_index"":0,""viewing_time"":10119.400000095367},{""page_index"":1,""viewing_time"":6500.200000047684},{""page_index"":2,""viewing_time"":6951.299999952316},{""page_index"":3,""viewing_time"":6508.900000095367},{""page_index"":4,""viewing_time"":6281.5},{""page_index"":5,""viewing_time"":6274.299999952316},{""page_index"":6,""viewing_time"":7380.799999952316},{""page_index"":7,""viewing_time"":6593.099999904633},{""page_index"":8,""viewing_time"":6718.300000190735},{""page_index"":9,""viewing_time"":8180.5},{""page_index"":10,""viewing_time"":8150.099999904633},{""page_index"":11,""viewing_time"":7776},{""page_index"":12,""viewing_time"":7155.700000047684},{""page_index"":13,""viewing_time"":6275.5}]","100866.10000014305","","","","","","","","","","","","","","","","","","","","","","","",""
"pit-trial","8","132023","0.0-2.0-4.0-0.0","battery-v0.2","","""event"",""trial"",""time""
""fullscreenenter"",""1"",""2640""
","
","
","""event"",""trial"",""time""
""fullscreenenter"",""1"",""2640""
","
","","","593.7999999523163","","","24","17290","6590","&#9784;","elianto","#FFFFF080"," "," ","1","&#10004","[1445.2999999523163]","1","0","0","","","","","","","",""
"pit-trial","9","135330","0.0-2.0-4.1-0.1","battery-v0.2","","""event"",""trial"",""time""
""fullscreenenter"",""1"",""2640""
","
","
","""event"",""trial"",""time""
""fullscreenenter"",""1"",""2640""
","
","","","439.2000000476837","","","24","17290","6590","&#9784;","elianto","#FFFFF080"," "," ","1","&#10004","[1291.9000000953674]","1","0","0","","","","","","","",""
"pit-trial","10","138734","0.0-2.0-4.2-0.2","battery-v0.2","","""event"",""trial"",""time""
""fullscreenenter"",""1"",""2640""
","
","
","""event"",""trial"",""time""
""fullscreenenter"",""1"",""2640""
","
","","","539.7000000476837","","","24","17290","6590","&#9784;","elianto","#FFFFF080"," "," ","1","&#10004","[1393.2000000476837]","1","0","0","","","","","","","",""
"pit-trial","11","142132","0.0-2.0-4.3-0.3","battery-v0.2","","""event"",""trial"",""time""
""fullscreenenter"",""1"",""2640""
","
","
","""event"",""trial"",""time""
""fullscreenenter"",""1"",""2640""
","
","","","543.2999999523163","","","24","17290","6590","&#9784;","elianto","#FFFFF080"," "," ","1","&#10004","[1394.7999999523163]","1","0","0","","","","","","","",""
"pit-trial","12","145649","0.0-2.0-4.4-0.4","battery-v0.2","","""event"",""trial"",""time""
""fullscreenenter"",""1"",""2640""
","
","
","""event"",""trial"",""time""
""fullscreenenter"",""1"",""2640""
","
","","","656.1000001430511","","","24","17290","6590","&#9784;","elianto","#FFFFF080"," "," ","1","&#10004","[1510.6000001430511]","1","0","0","","","","","","","",""
"pit-instructions","13","167412","0.0-2.0-5.0","battery-v0.2","","""event"",""trial"",""time""
""fullscreenenter"",""1"",""2640""
","
","
","""event"",""trial"",""time""
""fullscreenenter"",""1"",""2640""
","
","","[{""page_index"":0,""viewing_time"":6234.700000047684},{""page_index"":1,""viewing_time"":5274.799999952316},{""page_index"":2,""viewing_time"":4958.599999904633},{""page_index"":3,""viewing_time"":5291.200000047684}]","21759.700000047684","","","","","","","","","","","","","","","","","","","","","","","",""
"pit-trial","14","172278","0.0-2.0-6.0-0.0","battery-v0.2","","""event"",""trial"",""time""
""fullscreenenter"",""1"",""2640""
","
","
","""event"",""trial"",""time""
""fullscreenenter"",""1"",""2640""
","
","","","-1","","","24","17290","6590","&#9854;","elianto","#FFFFF080","-1","-1","1","&#10004","[]","0","0","1","","","","","","","",""
"pit-trial","15","177156","0.0-2.0-6.1-0.1","battery-v0.2","","""event"",""trial"",""time""
""fullscreenenter"",""1"",""2640""
","
","
","""event"",""trial"",""time""
""fullscreenenter"",""1"",""2640""
","
","","","-1","","","24","17290","6590","&#9854;","elianto","#FFFFF080","-1","-1","1","&#10004","[]","0","0","1","","","","","","","",""
"pit-trial","16","182017","0.0-2.0-6.2-0.2","battery-v0.2","","""event"",""trial"",""time""
""fullscreenenter"",""1"",""2640""
","
","
","""event"",""trial"",""time""
""fullscreenenter"",""1"",""2640""
","
","","","-1","","","24","17290","6590","&#9854;","elianto","#FFFFF080","-1","-1","1","&#10004","[]","0","0","1","","","","","","","",""
"pit-trial","17","186883","0.0-2.0-6.3-0.3","battery-v0.2","","""event"",""trial"",""time""
""fullscreenenter"",""1"",""2640""
","
","
","""event"",""trial"",""time""
""fullscreenenter"",""1"",""2640""
","
","","","-1","","","24","17290","6590","&#9854;","elianto","#FFFFF080","-1","-1","1","&#10004","[]","0","0","1","","","","","","","",""
"pit-trial","18","191756","0.0-2.0-6.4-0.4","battery-v0.2","","""event"",""trial"",""time""
""fullscreenenter"",""1"",""2640""
""blur"",""19"",""204555""
""focus"",""19"",""204607""
","""event"",""trial"",""time""
""blur"",""19"",""204555""
","""event"",""trial"",""time""
""focus"",""19"",""204607""
","""event"",""trial"",""time""
""fullscreenenter"",""1"",""2640""
","
","","","-1","","","24","17290","6590","&#9854;","elianto","#FFFFF080","-1","-1","1","&#10004","[]","0","0","1","","","","","","","",""
"pit-instructions","19","314586","0.0-2.0-7.0","battery-v0.2","","""event"",""trial"",""time""
""fullscreenenter"",""1"",""2640""
""blur"",""19"",""204555""
""focus"",""19"",""204607""
","""event"",""trial"",""time""
""blur"",""19"",""204555""
","""event"",""trial"",""time""
""focus"",""19"",""204607""
","""event"",""trial"",""time""
""fullscreenenter"",""1"",""2640""
","
","","[{""page_index"":0,""viewing_time"":6039.100000143051},{""page_index"":1,""viewing_time"":6865.099999904633},{""page_index"":2,""viewing_time"":7840.599999904633},{""page_index"":3,""viewing_time"":6655.900000095367},{""page_index"":4,""viewing_time"":5649.400000095367},{""page_index"":5,""viewing_time"":5743.5},{""page_index"":6,""viewing_time"":4963},{""page_index"":7,""viewing_time"":8080.399999856949},{""page_index"":8,""viewing_time"":7064.299999952316},{""page_index"":9,""viewing_time"":6385.400000095367},{""page_index"":10,""viewing_time"":6508.5},{""page_index"":11,""viewing_time"":5539.700000047684},{""page_index"":12,""viewing_time"":8067.200000047684},{""page_index"":13,""viewing_time"":7850.399999856949},{""page_index"":14,""viewing_time"":7492.700000047684},{""page_index"":15,""viewing_time"":7128.5},{""page_index"":16,""viewing_time"":7321.400000095367},{""page_index"":17,""viewing_time"":7633}]","122828.40000009537","","","","","","","","","","","","","","","","","","","","","","","",""
"pit-trial","20","317913","0.0-2.0-8.0-0.0","battery-v0.2","","""event"",""trial"",""time""
""fullscreenenter"",""1"",""2640""
""blur"",""19"",""204555""
""focus"",""19"",""204607""
","""event"",""trial"",""time""
""blur"",""19"",""204555""
","""event"",""trial"",""time""
""focus"",""19"",""204607""
","""event"",""trial"",""time""
""fullscreenenter"",""1"",""2640""
","
","","","464","","","24","17290","6590","&#9776;","elianto","#3366ff99"," "," ","1","+10","[1320.8999998569489]","1","0","1","","","","","","","",""
"pit-trial","21","321213","0.0-2.0-8.0-1.0","battery-v0.2","","""event"",""trial"",""time""
""fullscreenenter"",""1"",""2640""
""blur"",""19"",""204555""
""focus"",""19"",""204607""
","""event"",""trial"",""time""
""blur"",""19"",""204555""
","""event"",""trial"",""time""
""focus"",""19"",""204607""
","""event"",""trial"",""time""
""fullscreenenter"",""1"",""2640""
","
","","","422.7999999523163","","","24","17290","6590","&#9776;","elianto","#3366ff99"," "," ","1","+10","[1285.7000000476837]","1","0","1","","","","","","","",""
"pit-trial","22","324571","0.0-2.0-8.0-2.0","battery-v0.2","","""event"",""trial"",""time""
""fullscreenenter"",""1"",""2640""
""blur"",""19"",""204555""
""focus"",""19"",""204607""
","""event"",""trial"",""time""
""blur"",""19"",""204555""
","""event"",""trial"",""time""
""focus"",""19"",""204607""
","""event"",""trial"",""time""
""fullscreenenter"",""1"",""2640""
","
","","","485.40000009536743","","","24","17290","6590","&#9776;","elianto","#3366ff99"," "," ","1","+10","[1341.9000000953674]","1","0","1","","","","","","","",""
"pit-trial","23","328024","0.0-2.0-8.0-3.0","battery-v0.2","","""event"",""trial"",""time""
""fullscreenenter"",""1"",""2640""
""blur"",""19"",""204555""
""focus"",""19"",""204607""
","""event"",""trial"",""time""
""blur"",""19"",""204555""
","""event"",""trial"",""time""
""focus"",""19"",""204607""
","""event"",""trial"",""time""
""fullscreenenter"",""1"",""2640""
","
","","","582.0999999046326","","","24","17290","6590","&#9776;","elianto","#3366ff99"," "," ","1","0","[1436]","1","0","1","","","","","","","",""
"pit-trial","24","331476","0.0-2.0-8.0-4.0","battery-v0.2","","""event"",""trial"",""time""
""fullscreenenter"",""1"",""2640""
""blur"",""19"",""204555""
""focus"",""19"",""204607""
","""event"",""trial"",""time""
""blur"",""19"",""204555""
","""event"",""trial"",""time""
""focus"",""19"",""204607""
","""event"",""trial"",""time""
""fullscreenenter"",""1"",""2640""
","
","","","593.5999999046326","","","24","17290","6590","&#9776;","elianto","#3366ff99"," "," ","1","+10","[1445.9000000953674]","1","0","1","","","","","","","",""
"pit-trial","25","334847","0.0-2.0-8.1-0.1","battery-v0.2","","""event"",""trial"",""time""
""fullscreenenter"",""1"",""2640""
""blur"",""19"",""204555""
""focus"",""19"",""204607""
","""event"",""trial"",""time""
""blur"",""19"",""204555""
","""event"",""trial"",""time""
""focus"",""19"",""204607""
","""event"",""trial"",""time""
""fullscreenenter"",""1"",""2640""
","
","","","507.7000000476837","","","24","17290","6590","&#9776;","elianto","#3366ff99"," "," ","1","+10","[1358.2000000476837]","1","0","1","","","","","","","",""
"pit-trial","26","338126","0.0-2.0-8.1-1.1","battery-v0.2","","""event"",""trial"",""time""
""fullscreenenter"",""1"",""2640""
""blur"",""19"",""204555""
""focus"",""19"",""204607""
","""event"",""trial"",""time""
""blur"",""19"",""204555""
","""event"",""trial"",""time""
""focus"",""19"",""204607""
","""event"",""trial"",""time""
""fullscreenenter"",""1"",""2640""
","
","","","405.09999990463257","","","24","17290","6590","&#9776;","elianto","#3366ff99"," "," ","1","+10","[1266.7999999523163]","1","0","1","","","","","","","",""
"pit-trial","27","341438","0.0-2.0-8.1-2.1","battery-v0.2","","""event"",""trial"",""time""
""fullscreenenter"",""1"",""2640""
""blur"",""19"",""204555""
""focus"",""19"",""204607""
","""event"",""trial"",""time""
""blur"",""19"",""204555""
","""event"",""trial"",""time""
""focus"",""19"",""204607""
","""event"",""trial"",""time""
""fullscreenenter"",""1"",""2640""
","
","","","445.90000009536743","","","24","17290","6590","&#9776;","elianto","#3366ff99"," "," ","1","+10","[1296.0999999046326]","1","0","1","","","","","","","",""
"pit-trial","28","344755","0.0-2.0-8.1-3.1","battery-v0.2","","""event"",""trial"",""time""
""fullscreenenter"",""1"",""2640""
""blur"",""19"",""204555""
""focus"",""19"",""204607""
","""event"",""trial"",""time""
""blur"",""19"",""204555""
","""event"",""trial"",""time""
""focus"",""19"",""204607""
","""event"",""trial"",""time""
""fullscreenenter"",""1"",""2640""
","
","","","463.69999980926514","","","24","17290","6590","&#9776;","elianto","#3366ff99"," "," ","1","0","[1315.5999999046326]","1","0","1","","","","","","","",""
"pit-trial","29","347964","0.0-2.0-8.1-4.1","battery-v0.2","","""event"",""trial"",""time""
""fullscreenenter"",""1"",""2640""
""blur"",""19"",""204555""
""focus"",""19"",""204607""
","""event"",""trial"",""time""
""blur"",""19"",""204555""
","""event"",""trial"",""time""
""focus"",""19"",""204607""
","""event"",""trial"",""time""
""fullscreenenter"",""1"",""2640""
","
","","","355.40000009536743","","","24","17290","6590","&#9776;","elianto","#3366ff99"," "," ","1","+10","[1206]","1","0","1","","","","","","","",""
"pit-trial","30","351143","0.0-2.0-8.2-0.2","battery-v0.2","","""event"",""trial"",""time""
""fullscreenenter"",""1"",""2640""
""blur"",""19"",""204555""
""focus"",""19"",""204607""
","""event"",""trial"",""time""
""blur"",""19"",""204555""
","""event"",""trial"",""time""
""focus"",""19"",""204607""
","""event"",""trial"",""time""
""fullscreenenter"",""1"",""2640""
","
","","","325","","","24","17290","6590","&#9776;","elianto","#3366ff99"," "," ","1","+10","[1175.9000000953674]","1","0","1","","","","","","","",""
"pit-trial","31","354358","0.0-2.0-8.2-1.2","battery-v0.2","","""event"",""trial"",""time""
""fullscreenenter"",""1"",""2640""
""blur"",""19"",""204555""
""focus"",""19"",""204607""
","""event"",""trial"",""time""
""blur"",""19"",""204555""
","""event"",""trial"",""time""
""focus"",""19"",""204607""
","""event"",""trial"",""time""
""fullscreenenter"",""1"",""2640""
","
","","","361.89999985694885","","","24","17290","6590","&#9776;","elianto","#3366ff99"," "," ","1","+10","[1212.8999998569489]","1","0","1","","","","","","","",""
"pit-trial","32","357617","0.0-2.0-8.2-2.2","battery-v0.2","","""event"",""trial"",""time""
""fullscreenenter"",""1"",""2640""
""blur"",""19"",""204555""
""focus"",""19"",""204607""
","""event"",""trial"",""time""
""blur"",""19"",""204555""
","""event"",""trial"",""time""
""focus"",""19"",""204607""
","""event"",""trial"",""time""
""fullscreenenter"",""1"",""2640""
","
","","","406","","","24","17290","6590","&#9776;","elianto","#3366ff99"," "," ","1","+10","[1257.2999999523163]","1","0","1","","","","","","","",""
"pit-trial","33","360856","0.0-2.0-8.2-3.2","battery-v0.2","","""event"",""trial"",""time""
""fullscreenenter"",""1"",""2640""
""blur"",""19"",""204555""
""focus"",""19"",""204607""
","""event"",""trial"",""time""
""blur"",""19"",""204555""
","""event"",""trial"",""time""
""focus"",""19"",""204607""
","""event"",""trial"",""time""
""fullscreenenter"",""1"",""2640""
","
","","","384.2000000476837","","","24","17290","6590","&#9776;","elianto","#3366ff99"," "," ","1","0","[1236]","1","0","1","","","","","","","",""
"pit-trial","34","364073","0.0-2.0-8.2-4.2","battery-v0.2","","""event"",""trial"",""time""
""fullscreenenter"",""1"",""2640""
""blur"",""19"",""204555""
""focus"",""19"",""204607""
","""event"",""trial"",""time""
""blur"",""19"",""204555""
","""event"",""trial"",""time""
""focus"",""19"",""204607""
","""event"",""trial"",""time""
""fullscreenenter"",""1"",""2640""
","
","","","363.39999985694885","","","24","17290","6590","&#9776;","elianto","#3366ff99"," "," ","1","+10","[1214.3999998569489]","1","0","1","","","","","","","",""
"call-function","35","364074","0.0-2.0-9.0","battery-v0.2","","""event"",""trial"",""time""
""fullscreenenter"",""1"",""2640""
""blur"",""19"",""204555""
""focus"",""19"",""204607""
","""event"",""trial"",""time""
""blur"",""19"",""204555""
","""event"",""trial"",""time""
""focus"",""19"",""204607""
","""event"",""trial"",""time""
""fullscreenenter"",""1"",""2640""
","
","","","","","","","","","","","","","","","","","","","","","","","","","","",""
"pit-instructions","36","403511","0.0-2.0-10.0","battery-v0.2","","""event"",""trial"",""time""
""fullscreenenter"",""1"",""2640""
""blur"",""19"",""204555""
""focus"",""19"",""204607""
","""event"",""trial"",""time""
""blur"",""19"",""204555""
","""event"",""trial"",""time""
""focus"",""19"",""204607""
","""event"",""trial"",""time""
""fullscreenenter"",""1"",""2640""
","
","","[{""page_index"":0,""viewing_time"":6240.5},{""page_index"":1,""viewing_time"":6186.399999856949},{""page_index"":2,""viewing_time"":9516},{""page_index"":3,""viewing_time"":9751.100000143051},{""page_index"":4,""viewing_time"":7742.299999952316}]","39436.59999990463","","","","","","","","","","","","","","","","","","","","","","","",""
"pit-trial","37","406869","0.0-2.0-11.0-0.0","battery-v0.2","","""event"",""trial"",""time""
""fullscreenenter"",""1"",""2640""
""blur"",""19"",""204555""
""focus"",""19"",""204607""
","""event"",""trial"",""time""
""blur"",""19"",""204555""
","""event"",""trial"",""time""
""focus"",""19"",""204607""
","""event"",""trial"",""time""
""fullscreenenter"",""1"",""2640""
","
","","","488.40000009536743","","","24","17290","6590","&#9761;","elianto","#3366ff99","-1"," ","0","0","[1348.7000000476837]","1","0","2","","","","","","","",""
"pit-trial","38","411747","0.0-2.0-11.0-1.0","battery-v0.2","","""event"",""trial"",""time""
""fullscreenenter"",""1"",""2640""
""blur"",""19"",""204555""
""focus"",""19"",""204607""
","""event"",""trial"",""time""
""blur"",""19"",""204555""
","""event"",""trial"",""time""
""focus"",""19"",""204607""
","""event"",""trial"",""time""
""fullscreenenter"",""1"",""2640""
","
","","","-1","","","24","17290","6590","&#9761;","elianto","#3366ff99","-1","-1","1","+10","[]","0","0","2","","","","","","","",""
"pit-trial","39","416610","0.0-2.0-11.0-2.0","battery-v0.2","","""event"",""trial"",""time""
""fullscreenenter"",""1"",""2640""
""blur"",""19"",""204555""
""focus"",""19"",""204607""
","""event"",""trial"",""time""
""blur"",""19"",""204555""
","""event"",""trial"",""time""
""focus"",""19"",""204607""
","""event"",""trial"",""time""
""fullscreenenter"",""1"",""2640""
","
","","","-1","","","24","17290","6590","&#9761;","elianto","#3366ff99","-1","-1","1","+10","[]","0","0","2","","","","","","","",""
"pit-trial","40","421483","0.0-2.0-11.0-3.0","battery-v0.2","","""event"",""trial"",""time""
""fullscreenenter"",""1"",""2640""
""blur"",""19"",""204555""
""focus"",""19"",""204607""
","""event"",""trial"",""time""
""blur"",""19"",""204555""
","""event"",""trial"",""time""
""focus"",""19"",""204607""
","""event"",""trial"",""time""
""fullscreenenter"",""1"",""2640""
","
","","","-1","","","24","17290","6590","&#9761;","elianto","#3366ff99","-1","-1","1","0","[]","0","0","2","","","","","","","",""
"pit-trial","41","426360","0.0-2.0-11.0-4.0","battery-v0.2","","""event"",""trial"",""time""
""fullscreenenter"",""1"",""2640""
""blur"",""19"",""204555""
""focus"",""19"",""204607""
","""event"",""trial"",""time""
""blur"",""19"",""204555""
","""event"",""trial"",""time""
""focus"",""19"",""204607""
","""event"",""trial"",""time""
""fullscreenenter"",""1"",""2640""
","
","","","-1","","","24","17290","6590","&#9761;","elianto","#3366ff99","-1","-1","1","+10","[]","0","0","2","","","","","","","",""
"pit-trial","42","431219","0.0-2.0-11.1-0.1","battery-v0.2","","""event"",""trial"",""time""
""fullscreenenter"",""1"",""2640""
""blur"",""19"",""204555""
""focus"",""19"",""204607""
","""event"",""trial"",""time""
""blur"",""19"",""204555""
","""event"",""trial"",""time""
""focus"",""19"",""204607""
","""event"",""trial"",""time""
""fullscreenenter"",""1"",""2640""
","
","","","-1","","","24","17290","6590","&#9761;","elianto","#3366ff99","-1","-1","1","+10","[]","0","0","2","","","","","","","",""
"pit-trial","43","436072","0.0-2.0-11.1-1.1","battery-v0.2","","""event"",""trial"",""time""
""fullscreenenter"",""1"",""2640""
""blur"",""19"",""204555""
""focus"",""19"",""204607""
","""event"",""trial"",""time""
""blur"",""19"",""204555""
","""event"",""trial"",""time""
""focus"",""19"",""204607""
","""event"",""trial"",""time""
""fullscreenenter"",""1"",""2640""
","
","","","-1","","","24","17290","6590","&#9761;","elianto","#3366ff99","-1","-1","1","+10","[]","0","0","2","","","","","","","",""
"pit-trial","44","440925","0.0-2.0-11.1-2.1","battery-v0.2","","""event"",""trial"",""time""
""fullscreenenter"",""1"",""2640""
""blur"",""19"",""204555""
""focus"",""19"",""204607""
","""event"",""trial"",""time""
""blur"",""19"",""204555""
","""event"",""trial"",""time""
""focus"",""19"",""204607""
","""event"",""trial"",""time""
""fullscreenenter"",""1"",""2640""
","
","","","-1","","","24","17290","6590","&#9761;","elianto","#3366ff99","-1","-1","1","+10","[]","0","0","2","","","","","","","",""
"pit-trial","45","445779","0.0-2.0-11.1-3.1","battery-v0.2","","""event"",""trial"",""time""
""fullscreenenter"",""1"",""2640""
""blur"",""19"",""204555""
""focus"",""19"",""204607""
","""event"",""trial"",""time""
""blur"",""19"",""204555""
","""event"",""trial"",""time""
""focus"",""19"",""204607""
","""event"",""trial"",""time""
""fullscreenenter"",""1"",""2640""
","
","","","-1","","","24","17290","6590","&#9761;","elianto","#3366ff99","-1","-1","1","0","[]","0","0","2","","","","","","","",""
"pit-trial","46","450632","0.0-2.0-11.1-4.1","battery-v0.2","","""event"",""trial"",""time""
""fullscreenenter"",""1"",""2640""
""blur"",""19"",""204555""
""focus"",""19"",""204607""
","""event"",""trial"",""time""
""blur"",""19"",""204555""
","""event"",""trial"",""time""
""focus"",""19"",""204607""
","""event"",""trial"",""time""
""fullscreenenter"",""1"",""2640""
","
","","","-1","","","24","17290","6590","&#9761;","elianto","#3366ff99","-1","-1","1","+10","[]","0","0","2","","","","","","","",""
"pit-trial","47","455486","0.0-2.0-11.2-0.2","battery-v0.2","","""event"",""trial"",""time""
""fullscreenenter"",""1"",""2640""
""blur"",""19"",""204555""
""focus"",""19"",""204607""
","""event"",""trial"",""time""
""blur"",""19"",""204555""
","""event"",""trial"",""time""
""focus"",""19"",""204607""
","""event"",""trial"",""time""
""fullscreenenter"",""1"",""2640""
","
","","","-1","","","24","17290","6590","&#9761;","elianto","#3366ff99","-1","-1","1","+10","[]","0","0","2","","","","","","","",""
"pit-trial","48","460339","0.0-2.0-11.2-1.2","battery-v0.2","","""event"",""trial"",""time""
""fullscreenenter"",""1"",""2640""
""blur"",""19"",""204555""
""focus"",""19"",""204607""
","""event"",""trial"",""time""
""blur"",""19"",""204555""
","""event"",""trial"",""time""
""focus"",""19"",""204607""
","""event"",""trial"",""time""
""fullscreenenter"",""1"",""2640""
","
","","","-1","","","24","17290","6590","&#9761;","elianto","#3366ff99","-1","-1","1","+10","[]","0","0","2","","","","","","","",""
"pit-trial","49","465192","0.0-2.0-11.2-2.2","battery-v0.2","","""event"",""trial"",""time""
""fullscreenenter"",""1"",""2640""
""blur"",""19"",""204555""
""focus"",""19"",""204607""
","""event"",""trial"",""time""
""blur"",""19"",""204555""
","""event"",""trial"",""time""
""focus"",""19"",""204607""
","""event"",""trial"",""time""
""fullscreenenter"",""1"",""2640""
","
","","","-1","","","24","17290","6590","&#9761;","elianto","#3366ff99","-1","-1","1","+10","[]","0","0","2","","","","","","","",""
"pit-trial","50","470045","0.0-2.0-11.2-3.2","battery-v0.2","","""event"",""trial"",""time""
""fullscreenenter"",""1"",""2640""
""blur"",""19"",""204555""
""focus"",""19"",""204607""
","""event"",""trial"",""time""
""blur"",""19"",""204555""
","""event"",""trial"",""time""
""focus"",""19"",""204607""
","""event"",""trial"",""time""
""fullscreenenter"",""1"",""2640""
","
","","","-1","","","24","17290","6590","&#9761;","elianto","#3366ff99","-1","-1","1","0","[]","0","0","2","","","","","","","",""
"pit-trial","51","474899","0.0-2.0-11.2-4.2","battery-v0.2","","""event"",""trial"",""time""
""fullscreenenter"",""1"",""2640""
""blur"",""19"",""204555""
""focus"",""19"",""204607""
","""event"",""trial"",""time""
""blur"",""19"",""204555""
","""event"",""trial"",""time""
""focus"",""19"",""204607""
","""event"",""trial"",""time""
""fullscreenenter"",""1"",""2640""
","
","","","-1","","","24","17290","6590","&#9761;","elianto","#3366ff99","-1","-1","1","+10","[]","0","0","2","","","","","","","",""
"pit-trial","52","479753","0.0-2.0-11.3-0.3","battery-v0.2","","""event"",""trial"",""time""
""fullscreenenter"",""1"",""2640""
""blur"",""19"",""204555""
""focus"",""19"",""204607""
","""event"",""trial"",""time""
""blur"",""19"",""204555""
","""event"",""trial"",""time""
""focus"",""19"",""204607""
","""event"",""trial"",""time""
""fullscreenenter"",""1"",""2640""
","
","","","-1","","","24","17290","6590","&#9761;","elianto","#3366ff99","-1","-1","1","+10","[]","0","0","2","","","","","","","",""
"pit-trial","53","484606","0.0-2.0-11.3-1.3","battery-v0.2","","""event"",""trial"",""time""
""fullscreenenter"",""1"",""2640""
""blur"",""19"",""204555""
""focus"",""19"",""204607""
","""event"",""trial"",""time""
""blur"",""19"",""204555""
","""event"",""trial"",""time""
""focus"",""19"",""204607""
","""event"",""trial"",""time""
""fullscreenenter"",""1"",""2640""
","
","","","-1","","","24","17290","6590","&#9761;","elianto","#3366ff99","-1","-1","1","+10","[]","0","0","2","","","","","","","",""
"pit-trial","54","489460","0.0-2.0-11.3-2.3","battery-v0.2","","""event"",""trial"",""time""
""fullscreenenter"",""1"",""2640""
""blur"",""19"",""204555""
""focus"",""19"",""204607""
","""event"",""trial"",""time""
""blur"",""19"",""204555""
","""event"",""trial"",""time""
""focus"",""19"",""204607""
","""event"",""trial"",""time""
""fullscreenenter"",""1"",""2640""
","
","","","-1","","","24","17290","6590","&#9761;","elianto","#3366ff99","-1","-1","1","+10","[]","0","0","2","","","","","","","",""
"pit-trial","55","494312","0.0-2.0-11.3-3.3","battery-v0.2","","""event"",""trial"",""time""
""fullscreenenter"",""1"",""2640""
""blur"",""19"",""204555""
""focus"",""19"",""204607""
","""event"",""trial"",""time""
""blur"",""19"",""204555""
","""event"",""trial"",""time""
""focus"",""19"",""204607""
","""event"",""trial"",""time""
""fullscreenenter"",""1"",""2640""
","
","","","-1","","","24","17290","6590","&#9761;","elianto","#3366ff99","-1","-1","1","0","[]","0","0","2","","","","","","","",""
"pit-trial","56","499165","0.0-2.0-11.3-4.3","battery-v0.2","","""event"",""trial"",""time""
""fullscreenenter"",""1"",""2640""
""blur"",""19"",""204555""
""focus"",""19"",""204607""
","""event"",""trial"",""time""
""blur"",""19"",""204555""
","""event"",""trial"",""time""
""focus"",""19"",""204607""
","""event"",""trial"",""time""
""fullscreenenter"",""1"",""2640""
","
","","","-1","","","24","17290","6590","&#9761;","elianto","#3366ff99","-1","-1","1","+10","[]","0","0","2","","","","","","","",""
"call-function","57","499166","0.0-2.0-12.0","battery-v0.2","","""event"",""trial"",""time""
""fullscreenenter"",""1"",""2640""
""blur"",""19"",""204555""
""focus"",""19"",""204607""
","""event"",""trial"",""time""
""blur"",""19"",""204555""
","""event"",""trial"",""time""
""focus"",""19"",""204607""
","""event"",""trial"",""time""
""fullscreenenter"",""1"",""2640""
","
","","","","","","","","","","","","","","","","","","","","","","","","","","",""
"pit-instructions","58","531409","0.0-2.0-13.0","battery-v0.2","","""event"",""trial"",""time""
""fullscreenenter"",""1"",""2640""
""blur"",""19"",""204555""
""focus"",""19"",""204607""
","""event"",""trial"",""time""
""blur"",""19"",""204555""
","""event"",""trial"",""time""
""focus"",""19"",""204607""
","""event"",""trial"",""time""
""fullscreenenter"",""1"",""2640""
","
","","[{""page_index"":0,""viewing_time"":4510.5},{""page_index"":1,""viewing_time"":7451.700000047684},{""page_index"":2,""viewing_time"":3709.399999856949},{""page_index"":3,""viewing_time"":10901.5},{""page_index"":4,""viewing_time"":5669}]","32242.299999952316","","","","","","","","","","","","","","","","","","","","","","","",""
"pit-trial","59","534716","0.0-2.0-14.0-0.0","battery-v0.2","","""event"",""trial"",""time""
""fullscreenenter"",""1"",""2640""
""blur"",""19"",""204555""
""focus"",""19"",""204607""
","""event"",""trial"",""time""
""blur"",""19"",""204555""
","""event"",""trial"",""time""
""focus"",""19"",""204607""
","""event"",""trial"",""time""
""fullscreenenter"",""1"",""2640""
","
","","","447.39999985694885","","","24","17290","6590","&#9826;","elianto","#f73b6a7A","-1"," ","0","-10","[1299.8999998569489]","1","0","3","","","","","","","",""
"pit-trial","60","539586","0.0-2.0-14.0-1.0","battery-v0.2","","""event"",""trial"",""time""
""fullscreenenter"",""1"",""2640""
""blur"",""19"",""204555""
""focus"",""19"",""204607""
","""event"",""trial"",""time""
""blur"",""19"",""204555""
","""event"",""trial"",""time""
""focus"",""19"",""204607""
","""event"",""trial"",""time""
""fullscreenenter"",""1"",""2640""
","
","","","-1","","","24","17290","6590","&#9826;","elianto","#f73b6a7A","-1","-1","1","0","[]","0","0","3","","","","","","","",""
"pit-trial","61","544447","0.0-2.0-14.0-2.0","battery-v0.2","","""event"",""trial"",""time""
""fullscreenenter"",""1"",""2640""
""blur"",""19"",""204555""
""focus"",""19"",""204607""
","""event"",""trial"",""time""
""blur"",""19"",""204555""
","""event"",""trial"",""time""
""focus"",""19"",""204607""
","""event"",""trial"",""time""
""fullscreenenter"",""1"",""2640""
","
","","","-1","","","24","17290","6590","&#9826;","elianto","#f73b6a7A","-1","-1","1","0","[]","0","0","3","","","","","","","",""
"pit-trial","62","549315","0.0-2.0-14.0-3.0","battery-v0.2","","""event"",""trial"",""time""
""fullscreenenter"",""1"",""2640""
""blur"",""19"",""204555""
""focus"",""19"",""204607""
","""event"",""trial"",""time""
""blur"",""19"",""204555""
","""event"",""trial"",""time""
""focus"",""19"",""204607""
","""event"",""trial"",""time""
""fullscreenenter"",""1"",""2640""
","
","","","-1","","","24","17290","6590","&#9826;","elianto","#f73b6a7A","-1","-1","1","-10","[]","0","0","3","","","","","","","",""
"pit-trial","63","554191","0.0-2.0-14.0-4.0","battery-v0.2","","""event"",""trial"",""time""
""fullscreenenter"",""1"",""2640""
""blur"",""19"",""204555""
""focus"",""19"",""204607""
","""event"",""trial"",""time""
""blur"",""19"",""204555""
","""event"",""trial"",""time""
""focus"",""19"",""204607""
","""event"",""trial"",""time""
""fullscreenenter"",""1"",""2640""
","
","","","-1","","","24","17290","6590","&#9826;","elianto","#f73b6a7A","-1","-1","1","0","[]","0","0","3","","","","","","","",""
"pit-trial","64","559061","0.0-2.0-14.1-0.1","battery-v0.2","","""event"",""trial"",""time""
""fullscreenenter"",""1"",""2640""
""blur"",""19"",""204555""
""focus"",""19"",""204607""
","""event"",""trial"",""time""
""blur"",""19"",""204555""
","""event"",""trial"",""time""
""focus"",""19"",""204607""
","""event"",""trial"",""time""
""fullscreenenter"",""1"",""2640""
","
","","","-1","","","24","17290","6590","&#9826;","elianto","#f73b6a7A","-1","-1","1","0","[]","0","0","3","","","","","","","",""
"pit-trial","65","563915","0.0-2.0-14.1-1.1","battery-v0.2","","""event"",""trial"",""time""
""fullscreenenter"",""1"",""2640""
""blur"",""19"",""204555""
""focus"",""19"",""204607""
","""event"",""trial"",""time""
""blur"",""19"",""204555""
","""event"",""trial"",""time""
""focus"",""19"",""204607""
","""event"",""trial"",""time""
""fullscreenenter"",""1"",""2640""
","
","","","-1","","","24","17290","6590","&#9826;","elianto","#f73b6a7A","-1","-1","1","0","[]","0","0","3","","","","","","","",""
"pit-trial","66","568780","0.0-2.0-14.1-2.1","battery-v0.2","","""event"",""trial"",""time""
""fullscreenenter"",""1"",""2640""
""blur"",""19"",""204555""
""focus"",""19"",""204607""
","""event"",""trial"",""time""
""blur"",""19"",""204555""
","""event"",""trial"",""time""
""focus"",""19"",""204607""
","""event"",""trial"",""time""
""fullscreenenter"",""1"",""2640""
","
","","","-1","","","24","17290","6590","&#9826;","elianto","#f73b6a7A","-1","-1","1","0","[]","0","0","3","","","","","","","",""
"pit-trial","67","573634","0.0-2.0-14.1-3.1","battery-v0.2","","""event"",""trial"",""time""
""fullscreenenter"",""1"",""2640""
""blur"",""19"",""204555""
""focus"",""19"",""204607""
","""event"",""trial"",""time""
""blur"",""19"",""204555""
","""event"",""trial"",""time""
""focus"",""19"",""204607""
","""event"",""trial"",""time""
""fullscreenenter"",""1"",""2640""
","
","","","-1","","","24","17290","6590","&#9826;","elianto","#f73b6a7A","-1","-1","1","-10","[]","0","0","3","","","","","","","",""
"pit-trial","68","578486","0.0-2.0-14.1-4.1","battery-v0.2","","""event"",""trial"",""time""
""fullscreenenter"",""1"",""2640""
""blur"",""19"",""204555""
""focus"",""19"",""204607""
","""event"",""trial"",""time""
""blur"",""19"",""204555""
","""event"",""trial"",""time""
""focus"",""19"",""204607""
","""event"",""trial"",""time""
""fullscreenenter"",""1"",""2640""
","
","","","-1","","","24","17290","6590","&#9826;","elianto","#f73b6a7A","-1","-1","1","0","[]","0","0","3","","","","","","","",""
"pit-trial","69","583340","0.0-2.0-14.2-0.2","battery-v0.2","","""event"",""trial"",""time""
""fullscreenenter"",""1"",""2640""
""blur"",""19"",""204555""
""focus"",""19"",""204607""
","""event"",""trial"",""time""
""blur"",""19"",""204555""
","""event"",""trial"",""time""
""focus"",""19"",""204607""
","""event"",""trial"",""time""
""fullscreenenter"",""1"",""2640""
","
","","","-1","","","24","17290","6590","&#9826;","elianto","#f73b6a7A","-1","-1","1","0","[]","0","0","3","","","","","","","",""
"pit-trial","70","588193","0.0-2.0-14.2-1.2","battery-v0.2","","""event"",""trial"",""time""
""fullscreenenter"",""1"",""2640""
""blur"",""19"",""204555""
""focus"",""19"",""204607""
","""event"",""trial"",""time""
""blur"",""19"",""204555""
","""event"",""trial"",""time""
""focus"",""19"",""204607""
","""event"",""trial"",""time""
""fullscreenenter"",""1"",""2640""
","
","","","-1","","","24","17290","6590","&#9826;","elianto","#f73b6a7A","-1","-1","1","0","[]","0","0","3","","","","","","","",""
"pit-trial","71","593046","0.0-2.0-14.2-2.2","battery-v0.2","","""event"",""trial"",""time""
""fullscreenenter"",""1"",""2640""
""blur"",""19"",""204555""
""focus"",""19"",""204607""
","""event"",""trial"",""time""
""blur"",""19"",""204555""
","""event"",""trial"",""time""
""focus"",""19"",""204607""
","""event"",""trial"",""time""
""fullscreenenter"",""1"",""2640""
","
","","","-1","","","24","17290","6590","&#9826;","elianto","#f73b6a7A","-1","-1","1","0","[]","0","0","3","","","","","","","",""
"pit-trial","72","597900","0.0-2.0-14.2-3.2","battery-v0.2","","""event"",""trial"",""time""
""fullscreenenter"",""1"",""2640""
""blur"",""19"",""204555""
""focus"",""19"",""204607""
","""event"",""trial"",""time""
""blur"",""19"",""204555""
","""event"",""trial"",""time""
""focus"",""19"",""204607""
","""event"",""trial"",""time""
""fullscreenenter"",""1"",""2640""
","
","","","-1","","","24","17290","6590","&#9826;","elianto","#f73b6a7A","-1","-1","1","-10","[]","0","0","3","","","","","","","",""
"pit-trial","73","602753","0.0-2.0-14.2-4.2","battery-v0.2","","""event"",""trial"",""time""
""fullscreenenter"",""1"",""2640""
""blur"",""19"",""204555""
""focus"",""19"",""204607""
","""event"",""trial"",""time""
""blur"",""19"",""204555""
","""event"",""trial"",""time""
""focus"",""19"",""204607""
","""event"",""trial"",""time""
""fullscreenenter"",""1"",""2640""
","
","","","-1","","","24","17290","6590","&#9826;","elianto","#f73b6a7A","-1","-1","1","0","[]","0","0","3","","","","","","","",""
"pit-trial","74","607607","0.0-2.0-14.3-0.3","battery-v0.2","","""event"",""trial"",""time""
""fullscreenenter"",""1"",""2640""
""blur"",""19"",""204555""
""focus"",""19"",""204607""
","""event"",""trial"",""time""
""blur"",""19"",""204555""
","""event"",""trial"",""time""
""focus"",""19"",""204607""
","""event"",""trial"",""time""
""fullscreenenter"",""1"",""2640""
","
","","","-1","","","24","17290","6590","&#9826;","elianto","#f73b6a7A","-1","-1","1","0","[]","0","0","3","","","","","","","",""
"pit-trial","75","612460","0.0-2.0-14.3-1.3","battery-v0.2","","""event"",""trial"",""time""
""fullscreenenter"",""1"",""2640""
""blur"",""19"",""204555""
""focus"",""19"",""204607""
","""event"",""trial"",""time""
""blur"",""19"",""204555""
","""event"",""trial"",""time""
""focus"",""19"",""204607""
","""event"",""trial"",""time""
""fullscreenenter"",""1"",""2640""
","
","","","-1","","","24","17290","6590","&#9826;","elianto","#f73b6a7A","-1","-1","1","0","[]","0","0","3","","","","","","","",""
"pit-trial","76","617314","0.0-2.0-14.3-2.3","battery-v0.2","","""event"",""trial"",""time""
""fullscreenenter"",""1"",""2640""
""blur"",""19"",""204555""
""focus"",""19"",""204607""
","""event"",""trial"",""time""
""blur"",""19"",""204555""
","""event"",""trial"",""time""
""focus"",""19"",""204607""
","""event"",""trial"",""time""
""fullscreenenter"",""1"",""2640""
","
","","","-1","","","24","17290","6590","&#9826;","elianto","#f73b6a7A","-1","-1","1","0","[]","0","0","3","","","","","","","",""
"pit-trial","77","622167","0.0-2.0-14.3-3.3","battery-v0.2","","""event"",""trial"",""time""
""fullscreenenter"",""1"",""2640""
""blur"",""19"",""204555""
""focus"",""19"",""204607""
","""event"",""trial"",""time""
""blur"",""19"",""204555""
","""event"",""trial"",""time""
""focus"",""19"",""204607""
","""event"",""trial"",""time""
""fullscreenenter"",""1"",""2640""
","
","","","-1","","","24","17290","6590","&#9826;","elianto","#f73b6a7A","-1","-1","1","-10","[]","0","0","3","","","","","","","",""
"pit-trial","78","627020","0.0-2.0-14.3-4.3","battery-v0.2","","""event"",""trial"",""time""
""fullscreenenter"",""1"",""2640""
""blur"",""19"",""204555""
""focus"",""19"",""204607""
","""event"",""trial"",""time""
""blur"",""19"",""204555""
","""event"",""trial"",""time""
""focus"",""19"",""204607""
","""event"",""trial"",""time""
""fullscreenenter"",""1"",""2640""
","
","","","-1","","","24","17290","6590","&#9826;","elianto","#f73b6a7A","-1","-1","1","0","[]","0","0","3","","","","","","","",""
"call-function","79","627021","0.0-2.0-15.0","battery-v0.2","","""event"",""trial"",""time""
""fullscreenenter"",""1"",""2640""
""blur"",""19"",""204555""
""focus"",""19"",""204607""
","""event"",""trial"",""time""
""blur"",""19"",""204555""
","""event"",""trial"",""time""
""focus"",""19"",""204607""
","""event"",""trial"",""time""
""fullscreenenter"",""1"",""2640""
","
","","","","","","","","","","","","","","","","","","","","","","","","","","",""
"pit-instructions","80","655750","0.0-2.0-16.0","battery-v0.2","","""event"",""trial"",""time""
""fullscreenenter"",""1"",""2640""
""blur"",""19"",""204555""
""focus"",""19"",""204607""
","""event"",""trial"",""time""
""blur"",""19"",""204555""
","""event"",""trial"",""time""
""focus"",""19"",""204607""
","""event"",""trial"",""time""
""fullscreenenter"",""1"",""2640""
","
","","[{""page_index"":0,""viewing_time"":9239.599999904633},{""page_index"":1,""viewing_time"":9321.400000095367},{""page_index"":2,""viewing_time"":4933.399999856949},{""page_index"":3,""viewing_time"":5233}]","28727.699999809265","","","","","","","","","","","","","","","","","","","","","","","",""
"pit-trial","81","659059","0.0-2.0-17.0-0.0","battery-v0.2","","""event"",""trial"",""time""
""fullscreenenter"",""1"",""2640""
""blur"",""19"",""204555""
""focus"",""19"",""204607""
","""event"",""trial"",""time""
""blur"",""19"",""204555""
","""event"",""trial"",""time""
""focus"",""19"",""204607""
","""event"",""trial"",""time""
""fullscreenenter"",""1"",""2640""
","
","","","435","","","24","17290","6590","&#9789;","elianto","#f73b6a7A"," "," ","1","0","[1292.0999999046326]","1","0","4","","","","","","","",""
"pit-trial","82","662278","0.0-2.0-17.0-1.0","battery-v0.2","","""event"",""trial"",""time""
""fullscreenenter"",""1"",""2640""
""blur"",""19"",""204555""
""focus"",""19"",""204607""
","""event"",""trial"",""time""
""blur"",""19"",""204555""
","""event"",""trial"",""time""
""focus"",""19"",""204607""
","""event"",""trial"",""time""
""fullscreenenter"",""1"",""2640""
","
","","","352.40000009536743","","","24","17290","6590","&#9789;","elianto","#f73b6a7A"," "," ","1","0","[1203.4000000953674]","1","0","4","","","","","","","",""
"pit-trial","83","665461","0.0-2.0-17.0-2.0","battery-v0.2","","""event"",""trial"",""time""
""fullscreenenter"",""1"",""2640""
""blur"",""19"",""204555""
""focus"",""19"",""204607""
","""event"",""trial"",""time""
""blur"",""19"",""204555""
","""event"",""trial"",""time""
""focus"",""19"",""204607""
","""event"",""trial"",""time""
""fullscreenenter"",""1"",""2640""
","
","","","320.30000019073486","","","24","17290","6590","&#9789;","elianto","#f73b6a7A"," "," ","1","0","[1172.9000000953674]","1","0","4","","","","","","","",""
"pit-trial","84","668766","0.0-2.0-17.0-3.0","battery-v0.2","","""event"",""trial"",""time""
""fullscreenenter"",""1"",""2640""
""blur"",""19"",""204555""
""focus"",""19"",""204607""
","""event"",""trial"",""time""
""blur"",""19"",""204555""
","""event"",""trial"",""time""
""focus"",""19"",""204607""
","""event"",""trial"",""time""
""fullscreenenter"",""1"",""2640""
","
","","","447.10000014305115","","","24","17290","6590","&#9789;","elianto","#f73b6a7A"," "," ","1","-10","[1302.1000001430511]","1","0","4","","","","","","","",""
"pit-trial","85","672000","0.0-2.0-17.0-4.0","battery-v0.2","","""event"",""trial"",""time""
""fullscreenenter"",""1"",""2640""
""blur"",""19"",""204555""
""focus"",""19"",""204607""
","""event"",""trial"",""time""
""blur"",""19"",""204555""
","""event"",""trial"",""time""
""focus"",""19"",""204607""
","""event"",""trial"",""time""
""fullscreenenter"",""1"",""2640""
","
","","","369.5","","","24","17290","6590","&#9789;","elianto","#f73b6a7A"," "," ","1","0","[1220.9000000953674]","1","0","4","","","","","","","",""
"pit-trial","86","675229","0.0-2.0-17.1-0.1","battery-v0.2","","""event"",""trial"",""time""
""fullscreenenter"",""1"",""2640""
""blur"",""19"",""204555""
""focus"",""19"",""204607""
","""event"",""trial"",""time""
""blur"",""19"",""204555""
","""event"",""trial"",""time""
""focus"",""19"",""204607""
","""event"",""trial"",""time""
""fullscreenenter"",""1"",""2640""
","
","","","361","","","24","17290","6590","&#9789;","elianto","#f73b6a7A"," "," ","1","0","[1215.6000001430511]","1","0","4","","","","","","","",""
"pit-trial","87","678467","0.0-2.0-17.1-1.1","battery-v0.2","","""event"",""trial"",""time""
""fullscreenenter"",""1"",""2640""
""blur"",""19"",""204555""
""focus"",""19"",""204607""
","""event"",""trial"",""time""
""blur"",""19"",""204555""
","""event"",""trial"",""time""
""focus"",""19"",""204607""
","""event"",""trial"",""time""
""fullscreenenter"",""1"",""2640""
","
","","","373.7000000476837","","","24","17290","6590","&#9789;","elianto","#f73b6a7A"," "," ","1","0","[1229.1000001430511]","1","0","4","","","","","","","",""
"pit-trial","88","681498","0.0-2.0-17.1-2.1","battery-v0.2","","""event"",""trial"",""time""
""fullscreenenter"",""1"",""2640""
""blur"",""19"",""204555""
""focus"",""19"",""204607""
","""event"",""trial"",""time""
""blur"",""19"",""204555""
","""event"",""trial"",""time""
""focus"",""19"",""204607""
","""event"",""trial"",""time""
""fullscreenenter"",""1"",""2640""
","
","","","162.39999985694885","","","24","17290","6590","&#9789;","elianto","#f73b6a7A"," "," ","1","0","[1017.3999998569489]","1","0","4","","","","","","","",""
"pit-trial","89","684698","0.0-2.0-17.1-3.1","battery-v0.2","","""event"",""trial"",""time""
""fullscreenenter"",""1"",""2640""
""blur"",""19"",""204555""
""focus"",""19"",""204607""
","""event"",""trial"",""time""
""blur"",""19"",""204555""
","""event"",""trial"",""time""
""focus"",""19"",""204607""
","""event"",""trial"",""time""
""fullscreenenter"",""1"",""2640""
","
","","","340.7999999523163","","","24","17290","6590","&#9789;","elianto","#f73b6a7A"," "," ","1","-10","[1194.1999998092651]","1","0","4","","","","","","","",""
"pit-trial","90","687879","0.0-2.0-17.1-4.1","battery-v0.2","","""event"",""trial"",""time""
""fullscreenenter"",""1"",""2640""
""blur"",""19"",""204555""
""focus"",""19"",""204607""
","""event"",""trial"",""time""
""blur"",""19"",""204555""
","""event"",""trial"",""time""
""focus"",""19"",""204607""
","""event"",""trial"",""time""
""fullscreenenter"",""1"",""2640""
","
","","","328.40000009536743","","","24","17290","6590","&#9789;","elianto","#f73b6a7A"," "," ","1","0","[1178.5]","1","0","4","","","","","","","",""
"pit-trial","91","690883","0.0-2.0-17.2-0.2","battery-v0.2","","""event"",""trial"",""time""
""fullscreenenter"",""1"",""2640""
""blur"",""19"",""204555""
""focus"",""19"",""204607""
","""event"",""trial"",""time""
""blur"",""19"",""204555""
","""event"",""trial"",""time""
""focus"",""19"",""204607""
","""event"",""trial"",""time""
""fullscreenenter"",""1"",""2640""
","
","","","150.70000004768372","","","24","17290","6590","&#9789;","elianto","#f73b6a7A"," "," ","1","0","[1001.5999999046326]","1","0","4","","","","","","","",""
"pit-trial","92","694032","0.0-2.0-17.2-1.2","battery-v0.2","","""event"",""trial"",""time""
""fullscreenenter"",""1"",""2640""
""blur"",""19"",""204555""
""focus"",""19"",""204607""
","""event"",""trial"",""time""
""blur"",""19"",""204555""
","""event"",""trial"",""time""
""focus"",""19"",""204607""
","""event"",""trial"",""time""
""fullscreenenter"",""1"",""2640""
","
","","","297.80000019073486","","","24","17290","6590","&#9789;","elianto","#f73b6a7A"," "," ","1","0","[1148.0999999046326]","1","0","4","","","","","","","",""
"pit-trial","93","697058","0.0-2.0-17.2-2.2","battery-v0.2","","""event"",""trial"",""time""
""fullscreenenter"",""1"",""2640""
""blur"",""19"",""204555""
""focus"",""19"",""204607""
","""event"",""trial"",""time""
""blur"",""19"",""204555""
","""event"",""trial"",""time""
""focus"",""19"",""204607""
","""event"",""trial"",""time""
""fullscreenenter"",""1"",""2640""
","
","","","174","","","24","17290","6590","&#9789;","elianto","#f73b6a7A"," "," ","1","0","[1024]","1","0","4","","","","","","","",""
"pit-trial","94","700296","0.0-2.0-17.2-3.2","battery-v0.2","","""event"",""trial"",""time""
""fullscreenenter"",""1"",""2640""
""blur"",""19"",""204555""
""focus"",""19"",""204607""
","""event"",""trial"",""time""
""blur"",""19"",""204555""
","""event"",""trial"",""time""
""focus"",""19"",""204607""
","""event"",""trial"",""time""
""fullscreenenter"",""1"",""2640""
","
","","","383.7999999523163","","","24","17290","6590","&#9789;","elianto","#f73b6a7A"," "," ","1","-10","[1234.4000000953674]","1","0","4","","","","","","","",""
"pit-trial","95","703509","0.0-2.0-17.2-4.2","battery-v0.2","","""event"",""trial"",""time""
""fullscreenenter"",""1"",""2640""
""blur"",""19"",""204555""
""focus"",""19"",""204607""
","""event"",""trial"",""time""
""blur"",""19"",""204555""
","""event"",""trial"",""time""
""focus"",""19"",""204607""
","""event"",""trial"",""time""
""fullscreenenter"",""1"",""2640""
","
","","","355.7000000476837","","","24","17290","6590","&#9789;","elianto","#f73b6a7A"," "," ","1","0","[1211.5999999046326]","1","0","4","","","","","","","",""
"pit-trial","96","706587","0.0-2.0-17.3-0.3","battery-v0.2","","""event"",""trial"",""time""
""fullscreenenter"",""1"",""2640""
""blur"",""19"",""204555""
""focus"",""19"",""204607""
","""event"",""trial"",""time""
""blur"",""19"",""204555""
","""event"",""trial"",""time""
""focus"",""19"",""204607""
","""event"",""trial"",""time""
""fullscreenenter"",""1"",""2640""
","
","","","223.59999990463257","","","24","17290","6590","&#9789;","elianto","#f73b6a7A"," "," ","1","0","[1074.1000001430511]","1","0","4","","","","","","","",""
"pit-trial","97","709830","0.0-2.0-17.3-1.3","battery-v0.2","","""event"",""trial"",""time""
""fullscreenenter"",""1"",""2640""
""blur"",""19"",""204555""
""focus"",""19"",""204607""
","""event"",""trial"",""time""
""blur"",""19"",""204555""
","""event"",""trial"",""time""
""focus"",""19"",""204607""
","""event"",""trial"",""time""
""fullscreenenter"",""1"",""2640""
","
","","","389.90000009536743","","","24","17290","6590","&#9789;","elianto","#f73b6a7A"," "," ","1","0","[1241.2000000476837]","1","0","4","","","","","","","",""
"pit-trial","98","712980","0.0-2.0-17.3-2.3","battery-v0.2","","""event"",""trial"",""time""
""fullscreenenter"",""1"",""2640""
""blur"",""19"",""204555""
""focus"",""19"",""204607""
","""event"",""trial"",""time""
""blur"",""19"",""204555""
","""event"",""trial"",""time""
""focus"",""19"",""204607""
","""event"",""trial"",""time""
""fullscreenenter"",""1"",""2640""
","
","","","297.60000014305115","","","24","17290","6590","&#9789;","elianto","#f73b6a7A"," "," ","1","0","[1148.2999999523163]","1","0","4","","","","","","","",""
"pit-trial","99","716307","0.0-2.0-17.3-3.3","battery-v0.2","","""event"",""trial"",""time""
""fullscreenenter"",""1"",""2640""
""blur"",""19"",""204555""
""focus"",""19"",""204607""
","""event"",""trial"",""time""
""blur"",""19"",""204555""
","""event"",""trial"",""time""
""focus"",""19"",""204607""
","""event"",""trial"",""time""
""fullscreenenter"",""1"",""2640""
","
","","","473","","","24","17290","6590","&#9789;","elianto","#f73b6a7A"," "," ","1","-10","[1323.7000000476837]","1","0","4","","","","","","","",""
"pit-trial","100","719552","0.0-2.0-17.3-4.3","battery-v0.2","","""event"",""trial"",""time""
""fullscreenenter"",""1"",""2640""
""blur"",""19"",""204555""
""focus"",""19"",""204607""
","""event"",""trial"",""time""
""blur"",""19"",""204555""
","""event"",""trial"",""time""
""focus"",""19"",""204607""
","""event"",""trial"",""time""
""fullscreenenter"",""1"",""2640""
","
","","","393.09999990463257","","","24","17290","6590","&#9789;","elianto","#f73b6a7A"," "," ","1","0","[1243.1000001430511]","1","0","4","","","","","","","",""
"call-function","101","719553","0.0-2.0-18.0","battery-v0.2","","""event"",""trial"",""time""
""fullscreenenter"",""1"",""2640""
""blur"",""19"",""204555""
""focus"",""19"",""204607""
","""event"",""trial"",""time""
""blur"",""19"",""204555""
","""event"",""trial"",""time""
""focus"",""19"",""204607""
","""event"",""trial"",""time""
""fullscreenenter"",""1"",""2640""
","
","","","","","","","","","","","","","","","","","","","","","","","","","","",""
"pit-instructions","102","800198","0.0-2.0-19.0","battery-v0.2","","""event"",""trial"",""time""
""fullscreenenter"",""1"",""2640""
""blur"",""19"",""204555""
""focus"",""19"",""204607""
","""event"",""trial"",""time""
""blur"",""19"",""204555""
","""event"",""trial"",""time""
""focus"",""19"",""204607""
","""event"",""trial"",""time""
""fullscreenenter"",""1"",""2640""
","
","","[{""page_index"":0,""viewing_time"":8992.799999952316},{""page_index"":1,""viewing_time"":6389.799999952316},{""page_index"":2,""viewing_time"":15438.099999904633},{""page_index"":3,""viewing_time"":8297.700000047684},{""page_index"":4,""viewing_time"":11544.600000143051},{""page_index"":5,""viewing_time"":8988.5},{""page_index"":6,""viewing_time"":9382.399999856949},{""page_index"":7,""viewing_time"":6932.200000047684},{""page_index"":8,""viewing_time"":4677.900000095367}]","80644.29999995232","","","","","","","","","","","","","","","","","","","","","","","",""
"pit-comprehension","103","804670","0.0-2.0-20.0-0.0","battery-v0.2","","""event"",""trial"",""time""
""fullscreenenter"",""1"",""2640""
""blur"",""19"",""204555""
""focus"",""19"",""204607""
","""event"",""trial"",""time""
""blur"",""19"",""204555""
","""event"",""trial"",""time""
""focus"",""19"",""204607""
","""event"",""trial"",""time""
""fullscreenenter"",""1"",""2640""
","
","","","4469.600000143051","[""SPACE""]","0","24","17290","6590","","","","","","","","","","","","","","","","","","",""
"pit-instructions","104","807566","0.0-2.0-20.0-1.0","battery-v0.2","","""event"",""trial"",""time""
""fullscreenenter"",""1"",""2640""
""blur"",""19"",""204555""
""focus"",""19"",""204607""
","""event"",""trial"",""time""
""blur"",""19"",""204555""
","""event"",""trial"",""time""
""focus"",""19"",""204607""
","""event"",""trial"",""time""
""fullscreenenter"",""1"",""2640""
","
","","[{""page_index"":0,""viewing_time"":2861.600000143051}]","2862.100000143051","","","","","","","","","","","","","","","","","","","","","","","",""
"pit-comprehension","105","812396","0.0-2.0-21.0-0.0","battery-v0.2","","""event"",""trial"",""time""
""fullscreenenter"",""1"",""2640""
""blur"",""19"",""204555""
""focus"",""19"",""204607""
","""event"",""trial"",""time""
""blur"",""19"",""204555""
","""event"",""trial"",""time""
""focus"",""19"",""204607""
","""event"",""trial"",""time""
""fullscreenenter"",""1"",""2640""
","
","","","4828.300000190735","[""10""]","0","24","17290","6590","","","","","","","","","","","","","","","","","","",""
"pit-instructions","106","813963","0.0-2.0-21.0-1.0","battery-v0.2","","""event"",""trial"",""time""
""fullscreenenter"",""1"",""2640""
""blur"",""19"",""204555""
""focus"",""19"",""204607""
","""event"",""trial"",""time""
""blur"",""19"",""204555""
","""event"",""trial"",""time""
""focus"",""19"",""204607""
","""event"",""trial"",""time""
""fullscreenenter"",""1"",""2640""
","
","","[{""page_index"":0,""viewing_time"":1545}]","1545.3999998569489","","","","","","","","","","","","","","","","","","","","","","","",""
"pit-comprehension","107","820454","0.0-2.0-22.0-0.0","battery-v0.2","","""event"",""trial"",""time""
""fullscreenenter"",""1"",""2640""
""blur"",""19"",""204555""
""focus"",""19"",""204607""
","""event"",""trial"",""time""
""blur"",""19"",""204555""
","""event"",""trial"",""time""
""focus"",""19"",""204607""
","""event"",""trial"",""time""
""fullscreenenter"",""1"",""2640""
","
","","","6488.299999952316","[""0""]","0","24","17290","6590","","","","","","","","","","","","","","","","","","",""
"pit-instructions","108","822506","0.0-2.0-22.0-1.0","battery-v0.2","","""event"",""trial"",""time""
""fullscreenenter"",""1"",""2640""
""blur"",""19"",""204555""
""focus"",""19"",""204607""
","""event"",""trial"",""time""
""blur"",""19"",""204555""
","""event"",""trial"",""time""
""focus"",""19"",""204607""
","""event"",""trial"",""time""
""fullscreenenter"",""1"",""2640""
","
","","[{""page_index"":0,""viewing_time"":2018.9000000953674}]","2019.2000000476837","","","","","","","","","","","","","","","","","","","","","","","",""
"pit-comprehension","109","830898","0.0-2.0-23.0-0.0","battery-v0.2","","""event"",""trial"",""time""
""fullscreenenter"",""1"",""2640""
""blur"",""19"",""204555""
""focus"",""19"",""204607""
","""event"",""trial"",""time""
""blur"",""19"",""204555""
","""event"",""trial"",""time""
""focus"",""19"",""204607""
","""event"",""trial"",""time""
""fullscreenenter"",""1"",""2640""
","
","","","8389.799999952316","[""True""]","0","24","17290","6590","","","","","","","","","","","","","","","","","","",""
"pit-instructions","110","832263","0.0-2.0-23.0-1.0","battery-v0.2","","""event"",""trial"",""time""
""fullscreenenter"",""1"",""2640""
""blur"",""19"",""204555""
""focus"",""19"",""204607""
","""event"",""trial"",""time""
""blur"",""19"",""204555""
","""event"",""trial"",""time""
""focus"",""19"",""204607""
","""event"",""trial"",""time""
""fullscreenenter"",""1"",""2640""
","
","","[{""page_index"":0,""viewing_time"":1337.7999999523163}]","1338.0999999046326","","","","","","","","","","","","","","","","","","","","","","","",""
"pit-comprehension","111","839743","0.0-2.0-24.0-0.0","battery-v0.2","","""event"",""trial"",""time""
""fullscreenenter"",""1"",""2640""
""blur"",""19"",""204555""
""focus"",""19"",""204607""
","""event"",""trial"",""time""
""blur"",""19"",""204555""
","""event"",""trial"",""time""
""focus"",""19"",""204607""
","""event"",""trial"",""time""
""fullscreenenter"",""1"",""2640""
","
","","","7477.299999952316","[""True""]","0","24","17290","6590","","","","","","","","","","","","","","","","","","",""
"pit-instructions","112","845850","0.0-2.0-24.0-1.0","battery-v0.2","","""event"",""trial"",""time""
""fullscreenenter"",""1"",""2640""
""blur"",""19"",""204555""
""focus"",""19"",""204607""
","""event"",""trial"",""time""
""blur"",""19"",""204555""
","""event"",""trial"",""time""
""focus"",""19"",""204607""
","""event"",""trial"",""time""
""fullscreenenter"",""1"",""2640""
","
","","[{""page_index"":0,""viewing_time"":6073.899999856949}]","6074.299999952316","","","","","","","","","","","","","","","","","","","","","","","",""
"pit-comprehension","113","852421","0.0-2.0-25.0-0.0","battery-v0.2","","""event"",""trial"",""time""
""fullscreenenter"",""1"",""2640""
""blur"",""19"",""204555""
""focus"",""19"",""204607""
","""event"",""trial"",""time""
""blur"",""19"",""204555""
","""event"",""trial"",""time""
""focus"",""19"",""204607""
","""event"",""trial"",""time""
""fullscreenenter"",""1"",""2640""
","
","","","6568.5","[""True""]","0","24","17290","6590","","","","","","","","","","","","","","","","","","",""
"pit-instructions","114","856518","0.0-2.0-25.0-1.0","battery-v0.2","","""event"",""trial"",""time""
""fullscreenenter"",""1"",""2640""
""blur"",""19"",""204555""
""focus"",""19"",""204607""
","""event"",""trial"",""time""
""blur"",""19"",""204555""
","""event"",""trial"",""time""
""focus"",""19"",""204607""
","""event"",""trial"",""time""
""fullscreenenter"",""1"",""2640""
","
","","[{""page_index"":0,""viewing_time"":4068.7999999523163}]","4069","","","","","","","","","","","","","","","","","","","","","","","",""
"pit-comprehension","115","861342","0.0-2.0-26.0-0.0","battery-v0.2","","""event"",""trial"",""time""
""fullscreenenter"",""1"",""2640""
""blur"",""19"",""204555""
""focus"",""19"",""204607""
","""event"",""trial"",""time""
""blur"",""19"",""204555""
","""event"",""trial"",""time""
""focus"",""19"",""204607""
","""event"",""trial"",""time""
""fullscreenenter"",""1"",""2640""
","
","","","4822","[""False""]","0","24","17290","6590","","","","","","","","","","","","","","","","","","",""
"pit-instructions","116","863077","0.0-2.0-26.0-1.0","battery-v0.2","","""event"",""trial"",""time""
""fullscreenenter"",""1"",""2640""
""blur"",""19"",""204555""
""focus"",""19"",""204607""
","""event"",""trial"",""time""
""blur"",""19"",""204555""
","""event"",""trial"",""time""
""focus"",""19"",""204607""
","""event"",""trial"",""time""
""fullscreenenter"",""1"",""2640""
","
","","[{""page_index"":0,""viewing_time"":1701.3999998569489}]","1701.7000000476837","","","","","","","","","","","","","","","","","","","","","","","",""
"pit-instructions","117","882114","0.0-3.0","battery-v0.2","","""event"",""trial"",""time""
""fullscreenenter"",""1"",""2640""
""blur"",""19"",""204555""
""focus"",""19"",""204607""
","""event"",""trial"",""time""
""blur"",""19"",""204555""
","""event"",""trial"",""time""
""focus"",""19"",""204607""
","""event"",""trial"",""time""
""fullscreenenter"",""1"",""2640""
","
","","[{""page_index"":0,""viewing_time"":4085.7000000476837},{""page_index"":1,""viewing_time"":5199.700000047684},{""page_index"":2,""viewing_time"":9750.700000047684}]","19036.400000095367","","","","","","","","","","","","","","","","","","","","","","","",""
"pit-trial","118","885594","0.0-4.0","battery-v0.2","","""event"",""trial"",""time""
""fullscreenenter"",""1"",""2640""
""blur"",""19"",""204555""
""focus"",""19"",""204607""
","""event"",""trial"",""time""
""blur"",""19"",""204555""
","""event"",""trial"",""time""
""focus"",""19"",""204607""
","""event"",""trial"",""time""
""fullscreenenter"",""1"",""2640""
","
","","","615.5","","","24","17290","6590","&#9752;","elianto","#f73b6a7A"," "," ","1","0","[1468.5999999046326]","1","1","","","17290","1","3","3","lose","go","0"
"pit-trial","119","889116","0.0-5.0","battery-v0.2","","""event"",""trial"",""time""
""fullscreenenter"",""1"",""2640""
""blur"",""19"",""204555""
""focus"",""19"",""204607""
","""event"",""trial"",""time""
""blur"",""19"",""204555""
","""event"",""trial"",""time""
""focus"",""19"",""204607""
","""event"",""trial"",""time""
""fullscreenenter"",""1"",""2640""
","
","","","653.7000000476837","","","24","17290","6590","&#9730;","elianto","#3366ff99"," "," ","1","+10","[1504.2999999523163]","1","1","","","17290","2","1","1","win","go","0"
"pit-trial","120","893981","0.0-6.0","battery-v0.2","","""event"",""trial"",""time""
""fullscreenenter"",""1"",""2640""
""blur"",""19"",""204555""
""focus"",""19"",""204607""
","""event"",""trial"",""time""
""blur"",""19"",""204555""
","""event"",""trial"",""time""
""focus"",""19"",""204607""
","""event"",""trial"",""time""
""fullscreenenter"",""1"",""2640""
","
","","","-1","","","24","17290","6590","&#9728;","elianto","#f73b6a7A","-1","-1","1","0","[]","0","1","","","17290","3","0","4","lose","no-go","0"
"pit-trial","121","898843","0.0-7.0","battery-v0.2","","""event"",""trial"",""time""
""fullscreenenter"",""1"",""2640""
""blur"",""19"",""204555""
""focus"",""19"",""204607""
","""event"",""trial"",""time""
""blur"",""19"",""204555""
","""event"",""trial"",""time""
""focus"",""19"",""204607""
","""event"",""trial"",""time""
""fullscreenenter"",""1"",""2640""
","
","","","-1","","","24","17290","6590","&#9733;","elianto","#3366ff99","-1","-1","1","0","[]","0","1","","","17290","4","2","2","win","no-go","1"
"pit-trial","122","902509","0.0-8.0","battery-v0.2","","""event"",""trial"",""time""
""fullscreenenter"",""1"",""2640""
""blur"",""19"",""204555""
""focus"",""19"",""204607""
","""event"",""trial"",""time""
""blur"",""19"",""204555""
","""event"",""trial"",""time""
""focus"",""19"",""204607""
","""event"",""trial"",""time""
""fullscreenenter"",""1"",""2640""
","
","","","807.5","","","24","17290","6590","&#9730;","elianto","#3366ff99"," "," ","1","0","[1658.5999999046326]","1","1","","","17290","5","1","1","win","go","1"
"pit-trial","123","907379","0.0-9.0","battery-v0.2","","""event"",""trial"",""time""
""fullscreenenter"",""1"",""2640""
""blur"",""19"",""204555""
""focus"",""19"",""204607""
","""event"",""trial"",""time""
""blur"",""19"",""204555""
","""event"",""trial"",""time""
""focus"",""19"",""204607""
","""event"",""trial"",""time""
""fullscreenenter"",""1"",""2640""
","
","","","-1","","","24","17290","6590","&#9728;","elianto","#f73b6a7A","-1","-1","1","0","[]","0","1","","","17290","6","0","4","lose","no-go","0"
"pit-trial","124","910837","0.0-10.0","battery-v0.2","","""event"",""trial"",""time""
""fullscreenenter"",""1"",""2640""
""blur"",""19"",""204555""
""focus"",""19"",""204607""
","""event"",""trial"",""time""
""blur"",""19"",""204555""
","""event"",""trial"",""time""
""focus"",""19"",""204607""
","""event"",""trial"",""time""
""fullscreenenter"",""1"",""2640""
","
","","","600","","","24","17290","6590","&#9752;","elianto","#f73b6a7A"," "," ","1","-10","[1455.2000000476837]","1","1","","","17290","7","3","3","lose","go","1"
"pit-trial","125","915022","0.0-11.0","battery-v0.2","","""event"",""trial"",""time""
""fullscreenenter"",""1"",""2640""
""blur"",""19"",""204555""
""focus"",""19"",""204607""
","""event"",""trial"",""time""
""blur"",""19"",""204555""
","""event"",""trial"",""time""
""focus"",""19"",""204607""
","""event"",""trial"",""time""
""fullscreenenter"",""1"",""2640""
","
","","","1331.5","","","24","17290","6590","&#9733;","elianto","#3366ff99","-1"," ","0","0","[2183.2000000476837]","1","1","","","17290","8","2","2","win","no-go","0"
"pit-trial","126","919876","0.0-12.0","battery-v0.2","","""event"",""trial"",""time""
""fullscreenenter"",""1"",""2640""
""blur"",""19"",""204555""
""focus"",""19"",""204607""
","""event"",""trial"",""time""
""blur"",""19"",""204555""
","""event"",""trial"",""time""
""focus"",""19"",""204607""
","""event"",""trial"",""time""
""fullscreenenter"",""1"",""2640""
","
","","","-1","","","24","17290","6590","&#9733;","elianto","#3366ff99","-1","-1","1","0","[]","0","1","","","17290","9","2","2","win","no-go","1"
"pit-trial","127","924730","0.0-13.0","battery-v0.2","","""event"",""trial"",""time""
""fullscreenenter"",""1"",""2640""
""blur"",""19"",""204555""
""focus"",""19"",""204607""
","""event"",""trial"",""time""
""blur"",""19"",""204555""
","""event"",""trial"",""time""
""focus"",""19"",""204607""
","""event"",""trial"",""time""
""fullscreenenter"",""1"",""2640""
","
","","","-1","","","24","17290","6590","&#9728;","elianto","#f73b6a7A","-1","-1","1","-10","[]","0","1","","","17290","10","0","4","lose","no-go","1"
"pit-trial","128","928281","0.0-14.0","battery-v0.2","","""event"",""trial"",""time""
""fullscreenenter"",""1"",""2640""
""blur"",""19"",""204555""
""focus"",""19"",""204607""
","""event"",""trial"",""time""
""blur"",""19"",""204555""
","""event"",""trial"",""time""
""focus"",""19"",""204607""
","""event"",""trial"",""time""
""fullscreenenter"",""1"",""2640""
","
","","","697.4000000953674","","","24","17290","6590","&#9730;","elianto","#3366ff99"," "," ","1","+10","[1548.5]","1","1","","","17290","11","1","1","win","go","0"
"pit-trial","129","932059","0.0-15.0","battery-v0.2","","""event"",""trial"",""time""
""fullscreenenter"",""1"",""2640""
""blur"",""19"",""204555""
""focus"",""19"",""204607""
","""event"",""trial"",""time""
""blur"",""19"",""204555""
","""event"",""trial"",""time""
""focus"",""19"",""204607""
","""event"",""trial"",""time""
""fullscreenenter"",""1"",""2640""
","
","","","917.7000000476837","","","24","17290","6590","&#9752;","elianto","#f73b6a7A"," "," ","1","0","[1775.7000000476837]","1","1","","","17290","12","3","3","lose","go","0"
"pit-trial","130","936294","0.0-16.0","battery-v0.2","","""event"",""trial"",""time""
""fullscreenenter"",""1"",""2640""
""blur"",""19"",""204555""
""focus"",""19"",""204607""
","""event"",""trial"",""time""
""blur"",""19"",""204555""
","""event"",""trial"",""time""
""focus"",""19"",""204607""
","""event"",""trial"",""time""
""fullscreenenter"",""1"",""2640""
","
","","","1382.4000000953674","","","24","17290","6590","&#9730;","elianto","#3366ff99"," "," ","1","0","[2232.4000000953674]","1","1","","","17290","13","1","1","win","go","1"
"pit-trial","131","940048","0.0-17.0","battery-v0.2","","""event"",""trial"",""time""
""fullscreenenter"",""1"",""2640""
""blur"",""19"",""204555""
""focus"",""19"",""204607""
","""event"",""trial"",""time""
""blur"",""19"",""204555""
","""event"",""trial"",""time""
""focus"",""19"",""204607""
","""event"",""trial"",""time""
""fullscreenenter"",""1"",""2640""
","
","","","901.2999999523163","","","24","17290","6590","&#9752;","elianto","#f73b6a7A"," "," ","1","-10","[1751.6999998092651]","1","1","","","17290","14","3","3","lose","go","1"
"pit-trial","132","944901","0.0-18.0","battery-v0.2","","""event"",""trial"",""time""
""fullscreenenter"",""1"",""2640""
""blur"",""19"",""204555""
""focus"",""19"",""204607""
","""event"",""trial"",""time""
""blur"",""19"",""204555""
","""event"",""trial"",""time""
""focus"",""19"",""204607""
","""event"",""trial"",""time""
""fullscreenenter"",""1"",""2640""
","
","","","-1","","","24","17290","6590","&#9728;","elianto","#f73b6a7A","-1","-1","1","0","[]","0","1","","","17290","15","0","4","lose","no-go","0"
"pit-trial","133","949491","0.0-19.0","battery-v0.2","","""event"",""trial"",""time""
""fullscreenenter"",""1"",""2640""
""blur"",""19"",""204555""
""focus"",""19"",""204607""
","""event"",""trial"",""time""
""blur"",""19"",""204555""
","""event"",""trial"",""time""
""focus"",""19"",""204607""
","""event"",""trial"",""time""
""fullscreenenter"",""1"",""2640""
","
","","","1736.2000000476837","","","24","17290","6590","&#9733;","elianto","#3366ff99","-1"," ","0","+10","[2587.300000190735]","1","1","","","17290","16","2","2","win","no-go","1"
"pit-trial","134","953162","0.0-20.0","battery-v0.2","","""event"",""trial"",""time""
""fullscreenenter"",""1"",""2640""
""blur"",""19"",""204555""
""focus"",""19"",""204607""
","""event"",""trial"",""time""
""blur"",""19"",""204555""
","""event"",""trial"",""time""
""focus"",""19"",""204607""
","""event"",""trial"",""time""
""fullscreenenter"",""1"",""2640""
","
","","","817.9000000953674","","","24","17290","6590","&#9752;","elianto","#f73b6a7A"," "," ","1","0","[1668.6000001430511]","1","1","","","17290","17","3","3","lose","go","0"
"pit-trial","135","958016","0.0-21.0","battery-v0.2","","""event"",""trial"",""time""
""fullscreenenter"",""1"",""2640""
""blur"",""19"",""204555""
""focus"",""19"",""204607""
","""event"",""trial"",""time""
""blur"",""19"",""204555""
","""event"",""trial"",""time""
""focus"",""19"",""204607""
","""event"",""trial"",""time""
""fullscreenenter"",""1"",""2640""
","
","","","-1","","","24","17290","6590","&#9728;","elianto","#f73b6a7A","-1","-1","1","-10","[]","0","1","","","17290","18","0","4","lose","no-go","1"
"pit-trial","136","961721","0.0-22.0","battery-v0.2","","""event"",""trial"",""time""
""fullscreenenter"",""1"",""2640""
""blur"",""19"",""204555""
""focus"",""19"",""204607""
","""event"",""trial"",""time""
""blur"",""19"",""204555""
","""event"",""trial"",""time""
""focus"",""19"",""204607""
","""event"",""trial"",""time""
""fullscreenenter"",""1"",""2640""
","
","","","852.2999999523163","","","24","17290","6590","&#9733;","elianto","#3366ff99","-1"," ","0","0","[1702.6000001430511]","1","1","","","17290","19","2","2","win","no-go","0"
"pit-trial","137","965296","0.0-23.0","battery-v0.2","","""event"",""trial"",""time""
""fullscreenenter"",""1"",""2640""
""blur"",""19"",""204555""
""focus"",""19"",""204607""
","""event"",""trial"",""time""
""blur"",""19"",""204555""
","""event"",""trial"",""time""
""focus"",""19"",""204607""
","""event"",""trial"",""time""
""fullscreenenter"",""1"",""2640""
","
","","","721.9000000953674","","","24","17290","6590","&#9730;","elianto","#3366ff99"," "," ","1","+10","[1572.9000000953674]","1","1","","","17290","20","1","1","win","go","0"
"pit-instructions","138","978645","0.0-24.0","battery-v0.2","","""event"",""trial"",""time""
""fullscreenenter"",""1"",""2640""
""blur"",""19"",""204555""
""focus"",""19"",""204607""
","""event"",""trial"",""time""
""blur"",""19"",""204555""
","""event"",""trial"",""time""
""focus"",""19"",""204607""
","""event"",""trial"",""time""
""fullscreenenter"",""1"",""2640""
","
","","[{""page_index"":0,""viewing_time"":6142.5},{""page_index"":1,""viewing_time"":7204.700000047684}]","13347.5","","","","","","","","","","","","","","","","","","","","","","","",""
"pit-trial","139","982546","0.0-25.0","battery-v0.2","","""event"",""trial"",""time""
""fullscreenenter"",""1"",""2640""
""blur"",""19"",""204555""
""focus"",""19"",""204607""
","""event"",""trial"",""time""
""blur"",""19"",""204555""
","""event"",""trial"",""time""
""focus"",""19"",""204607""
","""event"",""trial"",""time""
""fullscreenenter"",""1"",""2640""
","
","","","1030.3999998569489","","","24","17290","6590","a","elianto","#f73b6a7A"," "," ","1","0","[1888.1000001430511]","1","2","","","17290","21","2","3","lose","go","0"
"pit-trial","140","987411","0.0-26.0","battery-v0.2","","""event"",""trial"",""time""
""fullscreenenter"",""1"",""2640""
""blur"",""19"",""204555""
""focus"",""19"",""204607""
","""event"",""trial"",""time""
""blur"",""19"",""204555""
","""event"",""trial"",""time""
""focus"",""19"",""204607""
","""event"",""trial"",""time""
""fullscreenenter"",""1"",""2640""
","
","","","-1","","","24","17290","6590","g","elianto","#f73b6a7A","-1","-1","1","0","[]","0","2","","","17290","22","3","4","lose","no-go","0"
"pit-trial","141","991364","0.0-27.0","battery-v0.2","","""event"",""trial"",""time""
""fullscreenenter"",""1"",""2640""
""blur"",""19"",""204555""
""focus"",""19"",""204607""
","""event"",""trial"",""time""
""blur"",""19"",""204555""
","""event"",""trial"",""time""
""focus"",""19"",""204607""
","""event"",""trial"",""time""
""fullscreenenter"",""1"",""2640""
","
","","","1087.8999998569489","","","24","17290","6590","l","elianto","#3366ff99","-1"," ","0","0","[1944.0999999046326]","1","2","","","17290","23","1","2","win","no-go","0"
"pit-trial","142","996042","0.0-28.0","battery-v0.2","","""event"",""trial"",""time""
""fullscreenenter"",""1"",""2640""
""blur"",""19"",""204555""
""focus"",""19"",""204607""
","""event"",""trial"",""time""
""blur"",""19"",""204555""
","""event"",""trial"",""time""
""focus"",""19"",""204607""
","""event"",""trial"",""time""
""fullscreenenter"",""1"",""2640""
","
","","","1821.2000000476837","","","24","17290","6590","u","elianto","#f73b6a7A"," "," ","1","0","[2672.7000000476837]","1","2","","","17290","24","0","3","lose","go","0"
"pit-trial","143","999891","0.0-29.0","battery-v0.2","","""event"",""trial"",""time""
""fullscreenenter"",""1"",""2640""
""blur"",""19"",""204555""
""focus"",""19"",""204607""
","""event"",""trial"",""time""
""blur"",""19"",""204555""
","""event"",""trial"",""time""
""focus"",""19"",""204607""
","""event"",""trial"",""time""
""fullscreenenter"",""1"",""2640""
","
","","","985.5","","","24","17290","6590","u","elianto","#f73b6a7A"," "," ","1","-10","[1841]","1","2","","","17290","25","0","3","lose","go","1"
"pit-trial","144","1004753","0.0-30.0","battery-v0.2","","""event"",""trial"",""time""
""fullscreenenter"",""1"",""2640""
""blur"",""19"",""204555""
""focus"",""19"",""204607""
","""event"",""trial"",""time""
""blur"",""19"",""204555""
","""event"",""trial"",""time""
""focus"",""19"",""204607""
","""event"",""trial"",""time""
""fullscreenenter"",""1"",""2640""
","
","","","-1","","","24","17290","6590","g","elianto","#f73b6a7A","-1","-1","1","0","[]","0","2","","","17290","26","3","4","lose","no-go","0"
"pit-trial","145","1008277","0.0-31.0","battery-v0.2","","""event"",""trial"",""time""
""fullscreenenter"",""1"",""2640""
""blur"",""19"",""204555""
""focus"",""19"",""204607""
","""event"",""trial"",""time""
""blur"",""19"",""204555""
","""event"",""trial"",""time""
""focus"",""19"",""204607""
","""event"",""trial"",""time""
""fullscreenenter"",""1"",""2640""
","
","","","657.6000001430511","","","24","17290","6590","a","elianto","#f73b6a7A"," "," ","1","-10","[1509.5]","1","2","","","17290","27","2","3","lose","go","1"
"pit-trial","146","1013129","0.0-32.0","battery-v0.2","","""event"",""trial"",""time""
""fullscreenenter"",""1"",""2640""
""blur"",""19"",""204555""
""focus"",""19"",""204607""
","""event"",""trial"",""time""
""blur"",""19"",""204555""
","""event"",""trial"",""time""
""focus"",""19"",""204607""
","""event"",""trial"",""time""
""fullscreenenter"",""1"",""2640""
","
","","","-1","","","24","17290","6590","l","elianto","#3366ff99","-1","-1","1","+10","[]","0","2","","","17290","28","1","2","win","no-go","0"
"pit-trial","147","1017318","0.0-33.0","battery-v0.2","","""event"",""trial"",""time""
""fullscreenenter"",""1"",""2640""
""blur"",""19"",""204555""
""focus"",""19"",""204607""
","""event"",""trial"",""time""
""blur"",""19"",""204555""
","""event"",""trial"",""time""
""focus"",""19"",""204607""
","""event"",""trial"",""time""
""fullscreenenter"",""1"",""2640""
","
","","","1336.6999998092651","","","24","17290","6590","u","elianto","#f73b6a7A"," "," ","1","-10","[2187.2999999523163]","1","2","","","17290","29","0","3","lose","go","1"
"pit-trial","148","1022171","0.0-34.0","battery-v0.2","","""event"",""trial"",""time""
""fullscreenenter"",""1"",""2640""
""blur"",""19"",""204555""
""focus"",""19"",""204607""
","""event"",""trial"",""time""
""blur"",""19"",""204555""
","""event"",""trial"",""time""
""focus"",""19"",""204607""
","""event"",""trial"",""time""
""fullscreenenter"",""1"",""2640""
","
","","","-1","","","24","17290","6590","g","elianto","#f73b6a7A","-1","-1","1","0","[]","0","2","","","17290","30","3","4","lose","no-go","0"
"pit-trial","149","1027023","0.0-35.0","battery-v0.2","","""event"",""trial"",""time""
""fullscreenenter"",""1"",""2640""
""blur"",""19"",""204555""
""focus"",""19"",""204607""
","""event"",""trial"",""time""
""blur"",""19"",""204555""
","""event"",""trial"",""time""
""focus"",""19"",""204607""
","""event"",""trial"",""time""
""fullscreenenter"",""1"",""2640""
","
","","","-1","","","24","17290","6590","l","elianto","#3366ff99","-1","-1","1","0","[]","0","2","","","17290","31","1","2","win","no-go","1"
"pit-trial","150","1030463","0.0-36.0","battery-v0.2","","""event"",""trial"",""time""
""fullscreenenter"",""1"",""2640""
""blur"",""19"",""204555""
""focus"",""19"",""204607""
","""event"",""trial"",""time""
""blur"",""19"",""204555""
","""event"",""trial"",""time""
""focus"",""19"",""204607""
","""event"",""trial"",""time""
""fullscreenenter"",""1"",""2640""
","
","","","586.7999999523163","","","24","17290","6590","a","elianto","#f73b6a7A"," "," ","1","0","[1437]","1","2","","","17290","32","2","3","lose","go","0"
"pit-trial","151","1035316","0.0-37.0","battery-v0.2","","""event"",""trial"",""time""
""fullscreenenter"",""1"",""2640""
""blur"",""19"",""204555""
""focus"",""19"",""204607""
","""event"",""trial"",""time""
""blur"",""19"",""204555""
","""event"",""trial"",""time""
""focus"",""19"",""204607""
","""event"",""trial"",""time""
""fullscreenenter"",""1"",""2640""
","
","","","-1","","","24","17290","6590","u","elianto","#f73b6a7A"," ","-1","0","-10","[]","0","2","","","17290","33","0","3","lose","go","0"
"pit-trial","152","1040168","0.0-38.0","battery-v0.2","","""event"",""trial"",""time""
""fullscreenenter"",""1"",""2640""
""blur"",""19"",""204555""
""focus"",""19"",""204607""
","""event"",""trial"",""time""
""blur"",""19"",""204555""
","""event"",""trial"",""time""
""focus"",""19"",""204607""
","""event"",""trial"",""time""
""fullscreenenter"",""1"",""2640""
","
","","","-1","","","24","17290","6590","g","elianto","#f73b6a7A","-1","-1","1","0","[]","0","2","","","17290","34","3","4","lose","no-go","0"
"pit-trial","153","1043741","0.0-39.0","battery-v0.2","","""event"",""trial"",""time""
""fullscreenenter"",""1"",""2640""
""blur"",""19"",""204555""
""focus"",""19"",""204607""
","""event"",""trial"",""time""
""blur"",""19"",""204555""
","""event"",""trial"",""time""
""focus"",""19"",""204607""
","""event"",""trial"",""time""
""fullscreenenter"",""1"",""2640""
","
","","","720","","","24","17290","6590","a","elianto","#f73b6a7A"," "," ","1","0","[1570.9000000953674]","1","2","","","17290","35","2","3","lose","go","0"
"pit-trial","154","1048595","0.0-40.0","battery-v0.2","","""event"",""trial"",""time""
""fullscreenenter"",""1"",""2640""
""blur"",""19"",""204555""
""focus"",""19"",""204607""
","""event"",""trial"",""time""
""blur"",""19"",""204555""
","""event"",""trial"",""time""
""focus"",""19"",""204607""
","""event"",""trial"",""time""
""fullscreenenter"",""1"",""2640""
","
","","","-1","","","24","17290","6590","l","elianto","#3366ff99","-1","-1","1","+10","[]","0","2","","","17290","36","1","2","win","no-go","0"
"pit-trial","155","1052134","0.0-41.0","battery-v0.2","","""event"",""trial"",""time""
""fullscreenenter"",""1"",""2640""
""blur"",""19"",""204555""
""focus"",""19"",""204607""
","""event"",""trial"",""time""
""blur"",""19"",""204555""
","""event"",""trial"",""time""
""focus"",""19"",""204607""
","""event"",""trial"",""time""
""fullscreenenter"",""1"",""2640""
","
","","","683.5999999046326","","","24","17290","6590","u","elianto","#f73b6a7A"," "," ","1","-10","[1535.5]","1","2","","","17290","37","0","3","lose","go","1"
"pit-trial","156","1055929","0.0-42.0","battery-v0.2","","""event"",""trial"",""time""
""fullscreenenter"",""1"",""2640""
""blur"",""19"",""204555""
""focus"",""19"",""204607""
","""event"",""trial"",""time""
""blur"",""19"",""204555""
","""event"",""trial"",""time""
""focus"",""19"",""204607""
","""event"",""trial"",""time""
""fullscreenenter"",""1"",""2640""
","
","","","940.9000000953674","","","24","17290","6590","a","elianto","#f73b6a7A"," "," ","1","0","[1791.9000000953674]","1","2","","","17290","38","2","3","lose","go","0"
"pit-trial","157","1060782","0.0-43.0","battery-v0.2","","""event"",""trial"",""time""
""fullscreenenter"",""1"",""2640""
""blur"",""19"",""204555""
""focus"",""19"",""204607""
","""event"",""trial"",""time""
""blur"",""19"",""204555""
","""event"",""trial"",""time""
""focus"",""19"",""204607""
","""event"",""trial"",""time""
""fullscreenenter"",""1"",""2640""
","
","","","-1","","","24","17290","6590","l","elianto","#3366ff99","-1","-1","1","0","[]","0","2","","","17290","39","1","2","win","no-go","1"
"pit-trial","158","1065635","0.0-44.0","battery-v0.2","","""event"",""trial"",""time""
""fullscreenenter"",""1"",""2640""
""blur"",""19"",""204555""
""focus"",""19"",""204607""
","""event"",""trial"",""time""
""blur"",""19"",""204555""
","""event"",""trial"",""time""
""focus"",""19"",""204607""
","""event"",""trial"",""time""
""fullscreenenter"",""1"",""2640""
","
","","","-1","","","24","17290","6590","g","elianto","#f73b6a7A","-1","-1","1","-10","[]","0","2","","","17290","40","3","4","lose","no-go","1"
"pit-trial","159","1070488","0.0-45.0","battery-v0.2","","""event"",""trial"",""time""
""fullscreenenter"",""1"",""2640""
""blur"",""19"",""204555""
""focus"",""19"",""204607""
","""event"",""trial"",""time""
""blur"",""19"",""204555""
","""event"",""trial"",""time""
""focus"",""19"",""204607""
","""event"",""trial"",""time""
""fullscreenenter"",""1"",""2640""
","
","","","-1","","","24","17290","6590","l","elianto","#3366ff99","-1","-1","1","+10","[]","0","2","","","17290","41","1","2","win","no-go","0"
"pit-trial","160","1075342","0.0-46.0","battery-v0.2","","""event"",""trial"",""time""
""fullscreenenter"",""1"",""2640""
""blur"",""19"",""204555""
""focus"",""19"",""204607""
","""event"",""trial"",""time""
""blur"",""19"",""204555""
","""event"",""trial"",""time""
""focus"",""19"",""204607""
","""event"",""trial"",""time""
""fullscreenenter"",""1"",""2640""
","
","","","-1","","","24","17290","6590","u","elianto","#f73b6a7A"," ","-1","0","-10","[]","0","2","","","17290","42","0","3","lose","go","0"
"pit-trial","161","1079035","0.0-47.0","battery-v0.2","","""event"",""trial"",""time""
""fullscreenenter"",""1"",""2640""
""blur"",""19"",""204555""
""focus"",""19"",""204607""
","""event"",""trial"",""time""
""blur"",""19"",""204555""
","""event"",""trial"",""time""
""focus"",""19"",""204607""
","""event"",""trial"",""time""
""fullscreenenter"",""1"",""2640""
","
","","","839","","","24","17290","6590","a","elianto","#f73b6a7A"," "," ","1","0","[1689.7999999523163]","1","2","","","17290","43","2","3","lose","go","0"
"pit-trial","162","1083888","0.0-48.0","battery-v0.2","","""event"",""trial"",""time""
""fullscreenenter"",""1"",""2640""
""blur"",""19"",""204555""
""focus"",""19"",""204607""
","""event"",""trial"",""time""
""blur"",""19"",""204555""
","""event"",""trial"",""time""
""focus"",""19"",""204607""
","""event"",""trial"",""time""
""fullscreenenter"",""1"",""2640""
","
","","","-1","","","24","17290","6590","g","elianto","#f73b6a7A","-1","-1","1","0","[]","0","2","","","17290","44","3","4","lose","no-go","0"
"pit-trial","163","1088742","0.0-49.0","battery-v0.2","","""event"",""trial"",""time""
""fullscreenenter"",""1"",""2640""
""blur"",""19"",""204555""
""focus"",""19"",""204607""
","""event"",""trial"",""time""
""blur"",""19"",""204555""
","""event"",""trial"",""time""
""focus"",""19"",""204607""
","""event"",""trial"",""time""
""fullscreenenter"",""1"",""2640""
","
","","","-1","","","24","17290","6590","g","elianto","#f73b6a7A","-1","-1","1","0","[]","0","2","","","17290","45","3","4","lose","no-go","0"
"pit-trial","164","1093594","0.0-50.0","battery-v0.2","","""event"",""trial"",""time""
""fullscreenenter"",""1"",""2640""
""blur"",""19"",""204555""
""focus"",""19"",""204607""
","""event"",""trial"",""time""
""blur"",""19"",""204555""
","""event"",""trial"",""time""
""focus"",""19"",""204607""
","""event"",""trial"",""time""
""fullscreenenter"",""1"",""2640""
","
","","","-1","","","24","17290","6590","u","elianto","#f73b6a7A"," ","-1","0","-10","[]","0","2","","","17290","46","0","3","lose","go","0"
"pit-trial","165","1097132","0.0-51.0","battery-v0.2","","""event"",""trial"",""time""
""fullscreenenter"",""1"",""2640""
""blur"",""19"",""204555""
""focus"",""19"",""204607""
","""event"",""trial"",""time""
""blur"",""19"",""204555""
","""event"",""trial"",""time""
""focus"",""19"",""204607""
","""event"",""trial"",""time""
""fullscreenenter"",""1"",""2640""
","
","","","684.8999998569489","","","24","17290","6590","a","elianto","#f73b6a7A"," "," ","1","-10","[1535.2999999523163]","1","2","","","17290","47","2","3","lose","go","1"
"pit-trial","166","1101986","0.0-52.0","battery-v0.2","","""event"",""trial"",""time""
""fullscreenenter"",""1"",""2640""
""blur"",""19"",""204555""
""focus"",""19"",""204607""
","""event"",""trial"",""time""
""blur"",""19"",""204555""
","""event"",""trial"",""time""
""focus"",""19"",""204607""
","""event"",""trial"",""time""
""fullscreenenter"",""1"",""2640""
","
","","","-1","","","24","17290","6590","l","elianto","#3366ff99","-1","-1","1","+10","[]","0","2","","","17290","48","1","2","win","no-go","0"
"pit-trial","167","1106284","0.0-53.0","battery-v0.2","","""event"",""trial"",""time""
""fullscreenenter"",""1"",""2640""
""blur"",""19"",""204555""
""focus"",""19"",""204607""
","""event"",""trial"",""time""
""blur"",""19"",""204555""
","""event"",""trial"",""time""
""focus"",""19"",""204607""
","""event"",""trial"",""time""
""fullscreenenter"",""1"",""2640""
","
","","","1446.2000000476837","","","24","17290","6590","u","elianto","#f73b6a7A"," "," ","1","0","[2296.300000190735]","1","2","","","17290","49","0","3","lose","go","0"
"pit-trial","168","1111137","0.0-54.0","battery-v0.2","","""event"",""trial"",""time""
""fullscreenenter"",""1"",""2640""
""blur"",""19"",""204555""
""focus"",""19"",""204607""
","""event"",""trial"",""time""
""blur"",""19"",""204555""
","""event"",""trial"",""time""
""focus"",""19"",""204607""
","""event"",""trial"",""time""
""fullscreenenter"",""1"",""2640""
","
","","","-1","","","24","17290","6590","g","elianto","#f73b6a7A","-1","-1","1","0","[]","0","2","","","17290","50","3","4","lose","no-go","0"
"pit-trial","169","1114546","0.0-55.0","battery-v0.2","","""event"",""trial"",""time""
""fullscreenenter"",""1"",""2640""
""blur"",""19"",""204555""
""focus"",""19"",""204607""
","""event"",""trial"",""time""
""blur"",""19"",""204555""
","""event"",""trial"",""time""
""focus"",""19"",""204607""
","""event"",""trial"",""time""
""fullscreenenter"",""1"",""2640""
","
","","","553.6000001430511","","","24","17290","6590","a","elianto","#f73b6a7A"," "," ","1","-10","[1405.7000000476837]","1","2","","","17290","51","2","3","lose","go","1"
"pit-trial","170","1119401","0.0-56.0","battery-v0.2","","""event"",""trial"",""time""
""fullscreenenter"",""1"",""2640""
""blur"",""19"",""204555""
""focus"",""19"",""204607""
","""event"",""trial"",""time""
""blur"",""19"",""204555""
","""event"",""trial"",""time""
""focus"",""19"",""204607""
","""event"",""trial"",""time""
""fullscreenenter"",""1"",""2640""
","
","","","-1","","","24","17290","6590","l","elianto","#3366ff99","-1","-1","1","0","[]","0","2","","","17290","52","1","2","win","no-go","1"
"pit-trial","171","1124255","0.0-57.0","battery-v0.2","","""event"",""trial"",""time""
""fullscreenenter"",""1"",""2640""
""blur"",""19"",""204555""
""focus"",""19"",""204607""
","""event"",""trial"",""time""
""blur"",""19"",""204555""
","""event"",""trial"",""time""
""focus"",""19"",""204607""
","""event"",""trial"",""time""
""fullscreenenter"",""1"",""2640""
","
","","","-1","","","24","17290","6590","l","elianto","#3366ff99","-1","-1","1","+10","[]","0","2","","","17290","53","1","2","win","no-go","0"
"pit-trial","172","1129108","0.0-58.0","battery-v0.2","","""event"",""trial"",""time""
""fullscreenenter"",""1"",""2640""
""blur"",""19"",""204555""
""focus"",""19"",""204607""
","""event"",""trial"",""time""
""blur"",""19"",""204555""
","""event"",""trial"",""time""
""focus"",""19"",""204607""
","""event"",""trial"",""time""
""fullscreenenter"",""1"",""2640""
","
","","","-1","","","24","17290","6590","g","elianto","#f73b6a7A","-1","-1","1","0","[]","0","2","","","17290","54","3","4","lose","no-go","0"
"pit-trial","173","1132657","0.0-59.0","battery-v0.2","","""event"",""trial"",""time""
""fullscreenenter"",""1"",""2640""
""blur"",""19"",""204555""
""focus"",""19"",""204607""
","""event"",""trial"",""time""
""blur"",""19"",""204555""
","""event"",""trial"",""time""
""focus"",""19"",""204607""
","""event"",""trial"",""time""
""fullscreenenter"",""1"",""2640""
","
","","","693.5","","","24","17290","6590","a","elianto","#f73b6a7A"," "," ","1","0","[1547.5]","1","2","","","17290","55","2","3","lose","go","0"
"pit-trial","174","1137512","0.0-60.0","battery-v0.2","","""event"",""trial"",""time""
""fullscreenenter"",""1"",""2640""
""blur"",""19"",""204555""
""focus"",""19"",""204607""
","""event"",""trial"",""time""
""blur"",""19"",""204555""
","""event"",""trial"",""time""
""focus"",""19"",""204607""
","""event"",""trial"",""time""
""fullscreenenter"",""1"",""2640""
","
","","","-1","","","24","17290","6590","u","elianto","#f73b6a7A"," ","-1","0","-10","[]","0","2","","","17290","56","0","3","lose","go","0"
"pit-trial","175","1142367","0.0-61.0","battery-v0.2","","""event"",""trial"",""time""
""fullscreenenter"",""1"",""2640""
""blur"",""19"",""204555""
""focus"",""19"",""204607""
","""event"",""trial"",""time""
""blur"",""19"",""204555""
","""event"",""trial"",""time""
""focus"",""19"",""204607""
","""event"",""trial"",""time""
""fullscreenenter"",""1"",""2640""
","
","","","-1","","","24","17290","6590","g","elianto","#f73b6a7A","-1","-1","1","0","[]","0","2","","","17290","57","3","4","lose","no-go","0"
"pit-trial","176","1145958","0.0-62.0","battery-v0.2","","""event"",""trial"",""time""
""fullscreenenter"",""1"",""2640""
""blur"",""19"",""204555""
""focus"",""19"",""204607""
","""event"",""trial"",""time""
""blur"",""19"",""204555""
","""event"",""trial"",""time""
""focus"",""19"",""204607""
","""event"",""trial"",""time""
""fullscreenenter"",""1"",""2640""
","
","","","737.2999999523163","","","24","17290","6590","u","elianto","#f73b6a7A"," "," ","1","0","[1588.7000000476837]","1","2","","","17290","58","0","3","lose","go","0"
"pit-trial","177","1149882","0.0-63.0","battery-v0.2","","""event"",""trial"",""time""
""fullscreenenter"",""1"",""2640""
""blur"",""19"",""204555""
""focus"",""19"",""204607""
","""event"",""trial"",""time""
""blur"",""19"",""204555""
","""event"",""trial"",""time""
""focus"",""19"",""204607""
","""event"",""trial"",""time""
""fullscreenenter"",""1"",""2640""
","
","","","1070.1999998092651","","","24","17290","6590","p","elianto","#3366ff99"," "," ","1","+10","[1921.1999998092651]","1","2","","","17290","59","4","1","win","go","0"
"pit-trial","178","1153746","0.0-64.0","battery-v0.2","","""event"",""trial"",""time""
""fullscreenenter"",""1"",""2640""
""blur"",""19"",""204555""
""focus"",""19"",""204607""
","""event"",""trial"",""time""
""blur"",""19"",""204555""
","""event"",""trial"",""time""
""focus"",""19"",""204607""
","""event"",""trial"",""time""
""fullscreenenter"",""1"",""2640""
","
","","","1010.1000001430511","","","24","17290","6590","a","elianto","#f73b6a7A"," "," ","1","-10","[1860.7999999523163]","1","2","","","17290","60","2","3","lose","go","1"
"pit-trial","179","1158600","0.0-65.0","battery-v0.2","","""event"",""trial"",""time""
""fullscreenenter"",""1"",""2640""
""blur"",""19"",""204555""
""focus"",""19"",""204607""
","""event"",""trial"",""time""
""blur"",""19"",""204555""
","""event"",""trial"",""time""
""focus"",""19"",""204607""
","""event"",""trial"",""time""
""fullscreenenter"",""1"",""2640""
","
","","","-1","","","24","17290","6590","g","elianto","#f73b6a7A","-1","-1","1","0","[]","0","2","","","17290","61","3","4","lose","no-go","0"
"pit-trial","180","1162141","0.0-66.0","battery-v0.2","","""event"",""trial"",""time""
""fullscreenenter"",""1"",""2640""
""blur"",""19"",""204555""
""focus"",""19"",""204607""
","""event"",""trial"",""time""
""blur"",""19"",""204555""
","""event"",""trial"",""time""
""focus"",""19"",""204607""
","""event"",""trial"",""time""
""fullscreenenter"",""1"",""2640""
","
","","","688","","","24","17290","6590","a","elianto","#f73b6a7A"," "," ","1","-10","[1538.6000001430511]","1","2","","","17290","62","2","3","lose","go","1"
"pit-trial","181","1165678","0.0-67.0","battery-v0.2","","""event"",""trial"",""time""
""fullscreenenter"",""1"",""2640""
""blur"",""19"",""204555""
""focus"",""19"",""204607""
","""event"",""trial"",""time""
""blur"",""19"",""204555""
","""event"",""trial"",""time""
""focus"",""19"",""204607""
","""event"",""trial"",""time""
""fullscreenenter"",""1"",""2640""
","
","","","684.2000000476837","","","24","17290","6590","p","elianto","#3366ff99"," "," ","1","+10","[1535.0999999046326]","1","2","","","17290","63","4","1","win","go","0"
"pit-trial","182","1170533","0.0-68.0","battery-v0.2","","""event"",""trial"",""time""
""fullscreenenter"",""1"",""2640""
""blur"",""19"",""204555""
""focus"",""19"",""204607""
","""event"",""trial"",""time""
""blur"",""19"",""204555""
","""event"",""trial"",""time""
""focus"",""19"",""204607""
","""event"",""trial"",""time""
""fullscreenenter"",""1"",""2640""
","
","","","-1","","","24","17290","6590","l","elianto","#3366ff99","-1","-1","1","+10","[]","0","2","","","17290","64","1","2","win","no-go","0"
"pit-trial","183","1174281","0.0-69.0","battery-v0.2","","""event"",""trial"",""time""
""fullscreenenter"",""1"",""2640""
""blur"",""19"",""204555""
""focus"",""19"",""204607""
","""event"",""trial"",""time""
""blur"",""19"",""204555""
","""event"",""trial"",""time""
""focus"",""19"",""204607""
","""event"",""trial"",""time""
""fullscreenenter"",""1"",""2640""
","
","","","895.5","","","24","17290","6590","s","elianto","#3366ff99","-1"," ","0","0","[1746]","1","2","","","17290","65","5","2","win","no-go","0"
"pit-trial","184","1179134","0.0-70.0","battery-v0.2","","""event"",""trial"",""time""
""fullscreenenter"",""1"",""2640""
""blur"",""19"",""204555""
""focus"",""19"",""204607""
","""event"",""trial"",""time""
""blur"",""19"",""204555""
","""event"",""trial"",""time""
""focus"",""19"",""204607""
","""event"",""trial"",""time""
""fullscreenenter"",""1"",""2640""
","
","","","-1","","","24","17290","6590","g","elianto","#f73b6a7A","-1","-1","1","0","[]","0","2","","","17290","66","3","4","lose","no-go","0"
"pit-trial","185","1183997","0.0-71.0","battery-v0.2","","""event"",""trial"",""time""
""fullscreenenter"",""1"",""2640""
""blur"",""19"",""204555""
""focus"",""19"",""204607""
","""event"",""trial"",""time""
""blur"",""19"",""204555""
","""event"",""trial"",""time""
""focus"",""19"",""204607""
","""event"",""trial"",""time""
""fullscreenenter"",""1"",""2640""
","
","","","-1","","","24","17290","6590","l","elianto","#3366ff99","-1","-1","1","+10","[]","0","2","","","17290","67","1","2","win","no-go","0"
"pit-trial","186","1187424","0.0-72.0","battery-v0.2","","""event"",""trial"",""time""
""fullscreenenter"",""1"",""2640""
""blur"",""19"",""204555""
""focus"",""19"",""204607""
","""event"",""trial"",""time""
""blur"",""19"",""204555""
","""event"",""trial"",""time""
""focus"",""19"",""204607""
","""event"",""trial"",""time""
""fullscreenenter"",""1"",""2640""
","
","","","573.4000000953674","","","24","17290","6590","p","elianto","#3366ff99"," "," ","1","+10","[1425]","1","2","","","17290","68","4","1","win","go","0"
"pit-trial","187","1190971","0.0-73.0","battery-v0.2","","""event"",""trial"",""time""
""fullscreenenter"",""1"",""2640""
""blur"",""19"",""204555""
""focus"",""19"",""204607""
","""event"",""trial"",""time""
""blur"",""19"",""204555""
","""event"",""trial"",""time""
""focus"",""19"",""204607""
","""event"",""trial"",""time""
""fullscreenenter"",""1"",""2640""
","
","","","693","","","24","17290","6590","p","elianto","#3366ff99"," "," ","1","+10","[1543.3999998569489]","1","2","","","17290","69","4","1","win","go","0"
"pit-trial","188","1195823","0.0-74.0","battery-v0.2","","""event"",""trial"",""time""
""fullscreenenter"",""1"",""2640""
""blur"",""19"",""204555""
""focus"",""19"",""204607""
","""event"",""trial"",""time""
""blur"",""19"",""204555""
