"trial_type","trial_index","time_elapsed","internal_node_id","task_version","subject_id","interactions","blur_events","focus_events","fullscreenenter_events","fullscreenexit_events","success","view_history","rt","responses","num_errors","age","subject","participantId","rune","rune_set","hex","correct","choice","accuracy","outcome","keys","total_keys","block","practice","value","sub","trial","stimulus","robot","valence","action","sham"
"pavlovia","0","10","0.0-0.0","battery-v0.2","","""event"",""trial"",""time""
""fullscreenenter"",""1"",""13749""
","
","
","""event"",""trial"",""time""
""fullscreenenter"",""1"",""13749""
","
","","","","","","","","","","","","","","","","","","","","","","","","","","",""
"fullscreen","1","14517","0.0-1.0","battery-v0.2","","""event"",""trial"",""time""
""fullscreenenter"",""1"",""13749""
","
","
","""event"",""trial"",""time""
""fullscreenenter"",""1"",""13749""
","
","true","","","","","","","","","","","","","","","","","","","","","","","","","",""
"pit-instructions","2","25611","0.0-2.0-0.0","battery-v0.2","","""event"",""trial"",""time""
""fullscreenenter"",""1"",""13749""
""blur"",""3"",""38095""
""focus"",""3"",""42211""
","""event"",""trial"",""time""
""blur"",""3"",""38095""
","""event"",""trial"",""time""
""focus"",""3"",""42211""
","""event"",""trial"",""time""
""fullscreenenter"",""1"",""13749""
","
","","[{""page_index"":0,""viewing_time"":11080}]","11080","","","","","","","","","","","","","","","","","","","","","","","",""
"pit-comprehension","3","47054","0.0-2.0-1.0-0.0","battery-v0.2","","""event"",""trial"",""time""
""fullscreenenter"",""1"",""13749""
""blur"",""3"",""38095""
""focus"",""3"",""42211""
","""event"",""trial"",""time""
""blur"",""3"",""38095""
","""event"",""trial"",""time""
""focus"",""3"",""42211""
","""event"",""trial"",""time""
""fullscreenenter"",""1"",""13749""
","
","","","21437","[""shark""]","0","20","12617","5540","","","","","","","","","","","","","","","","","","",""
"pit-instructions","4","48881","0.0-2.0-1.0-1.0","battery-v0.2","","""event"",""trial"",""time""
""fullscreenenter"",""1"",""13749""
""blur"",""3"",""38095""
""focus"",""3"",""42211""
","""event"",""trial"",""time""
""blur"",""3"",""38095""
","""event"",""trial"",""time""
""focus"",""3"",""42211""
","""event"",""trial"",""time""
""fullscreenenter"",""1"",""13749""
","
","","[{""page_index"":0,""viewing_time"":1816}]","1816","","","","","","","","","","","","","","","","","","","","","","","",""
"pit-comprehension","5","54300","0.0-2.0-2.0-0.0","battery-v0.2","","""event"",""trial"",""time""
""fullscreenenter"",""1"",""13749""
""blur"",""3"",""38095""
""focus"",""3"",""42211""
","""event"",""trial"",""time""
""blur"",""3"",""38095""
","""event"",""trial"",""time""
""focus"",""3"",""42211""
","""event"",""trial"",""time""
""fullscreenenter"",""1"",""13749""
","
","","","5414","[""tiger""]","0","20","12617","5540","","","","","","","","","","","","","","","","","","",""
"pit-instructions","6","56394","0.0-2.0-2.0-1.0","battery-v0.2","","""event"",""trial"",""time""
""fullscreenenter"",""1"",""13749""
""blur"",""3"",""38095""
""focus"",""3"",""42211""
","""event"",""trial"",""time""
""blur"",""3"",""38095""
","""event"",""trial"",""time""
""focus"",""3"",""42211""
","""event"",""trial"",""time""
""fullscreenenter"",""1"",""13749""
","
","","[{""page_index"":0,""viewing_time"":2086}]","2087","","","","","","","","","","","","","","","","","","","","","","","",""
"pit-instructions","7","289118","0.0-2.0-3.0","battery-v0.2","","""event"",""trial"",""time""
""fullscreenenter"",""1"",""13749""
""blur"",""3"",""38095""
""focus"",""3"",""42211""
","""event"",""trial"",""time""
""blur"",""3"",""38095""
","""event"",""trial"",""time""
""focus"",""3"",""42211""
","""event"",""trial"",""time""
""fullscreenenter"",""1"",""13749""
","
","","[{""page_index"":0,""viewing_time"":30985},{""page_index"":1,""viewing_time"":9664},{""page_index"":2,""viewing_time"":7012},{""page_index"":3,""viewing_time"":7782},{""page_index"":4,""viewing_time"":27273},{""page_index"":5,""viewing_time"":17436},{""page_index"":6,""viewing_time"":20909},{""page_index"":7,""viewing_time"":10776},{""page_index"":8,""viewing_time"":36438},{""page_index"":9,""viewing_time"":14017},{""page_index"":10,""viewing_time"":10875},{""page_index"":11,""viewing_time"":10412},{""page_index"":12,""viewing_time"":9878},{""page_index"":13,""viewing_time"":19259}]","232717","","","","","","","","","","","","","","","","","","","","","","","",""
"pit-trial","8","293099","0.0-2.0-4.0-0.0","battery-v0.2","","""event"",""trial"",""time""
""fullscreenenter"",""1"",""13749""
""blur"",""3"",""38095""
""focus"",""3"",""42211""
","""event"",""trial"",""time""
""blur"",""3"",""38095""
","""event"",""trial"",""time""
""focus"",""3"",""42211""
","""event"",""trial"",""time""
""fullscreenenter"",""1"",""13749""
","
","","","1122","","","20","12617","5540","&#9784;","elianto","#FFFFF080"," "," ","1","&#10004","[1972]","1","0","0","","","","","","","",""
"pit-trial","9","297022","0.0-2.0-4.1-0.1","battery-v0.2","","""event"",""trial"",""time""
""fullscreenenter"",""1"",""13749""
""blur"",""3"",""38095""
""focus"",""3"",""42211""
","""event"",""trial"",""time""
""blur"",""3"",""38095""
","""event"",""trial"",""time""
""focus"",""3"",""42211""
","""event"",""trial"",""time""
""fullscreenenter"",""1"",""13749""
","
","","","1064","","","20","12617","5540","&#9784;","elianto","#FFFFF080"," "," ","1","&#10004","[1915]","1","0","0","","","","","","","",""
"pit-trial","10","300500","0.0-2.0-4.2-0.2","battery-v0.2","","""event"",""trial"",""time""
""fullscreenenter"",""1"",""13749""
""blur"",""3"",""38095""
""focus"",""3"",""42211""
","""event"",""trial"",""time""
""blur"",""3"",""38095""
","""event"",""trial"",""time""
""focus"",""3"",""42211""
","""event"",""trial"",""time""
""fullscreenenter"",""1"",""13749""
","
","","","626","","","20","12617","5540","&#9784;","elianto","#FFFFF080"," "," ","1","&#10004","[1477]","1","0","0","","","","","","","",""
"pit-trial","11","305355","0.0-2.0-4.3-0.3","battery-v0.2","","""event"",""trial"",""time""
""fullscreenenter"",""1"",""13749""
""blur"",""3"",""38095""
""focus"",""3"",""42211""
","""event"",""trial"",""time""
""blur"",""3"",""38095""
","""event"",""trial"",""time""
""focus"",""3"",""42211""
","""event"",""trial"",""time""
""fullscreenenter"",""1"",""13749""
","
","","","-1","","","20","12617","5540","&#9784;","elianto","#FFFFF080"," ","-1","0","&#10060","[]","0","0","0","","","","","","","",""
"pit-trial","12","308635","0.0-2.0-4.4-0.4","battery-v0.2","","""event"",""trial"",""time""
""fullscreenenter"",""1"",""13749""
""blur"",""3"",""38095""
""focus"",""3"",""42211""
","""event"",""trial"",""time""
""blur"",""3"",""38095""
","""event"",""trial"",""time""
""focus"",""3"",""42211""
","""event"",""trial"",""time""
""fullscreenenter"",""1"",""13749""
","
","","","426","","","20","12617","5540","&#9784;","elianto","#FFFFF080"," "," ","1","&#10004","[1276]","1","0","0","","","","","","","",""
"pit-trial","13","311972","0.0-2.0-4.5-0.5","battery-v0.2","","""event"",""trial"",""time""
""fullscreenenter"",""1"",""13749""
""blur"",""3"",""38095""
""focus"",""3"",""42211""
","""event"",""trial"",""time""
""blur"",""3"",""38095""
","""event"",""trial"",""time""
""focus"",""3"",""42211""
","""event"",""trial"",""time""
""fullscreenenter"",""1"",""13749""
","
","","","480","","","20","12617","5540","&#9784;","elianto","#FFFFF080"," "," ","1","&#10004","[1329]","1","0","0","","","","","","","",""
"pit-trial","14","315643","0.0-2.0-4.6-0.6","battery-v0.2","","""event"",""trial"",""time""
""fullscreenenter"",""1"",""13749""
""blur"",""3"",""38095""
""focus"",""3"",""42211""
","""event"",""trial"",""time""
""blur"",""3"",""38095""
","""event"",""trial"",""time""
""focus"",""3"",""42211""
","""event"",""trial"",""time""
""fullscreenenter"",""1"",""13749""
","
","","","813","","","20","12617","5540","&#9784;","elianto","#FFFFF080"," "," ","1","&#10004","[1664]","1","0","0","","","","","","","",""
"pit-instructions","15","332106","0.0-2.0-4.6-1.6-0.6","battery-v0.2","","""event"",""trial"",""time""
""fullscreenenter"",""1"",""13749""
""blur"",""3"",""38095""
""focus"",""3"",""42211""
","""event"",""trial"",""time""
""blur"",""3"",""38095""
","""event"",""trial"",""time""
""focus"",""3"",""42211""
","""event"",""trial"",""time""
""fullscreenenter"",""1"",""13749""
","
","","[{""page_index"":0,""viewing_time"":7858},{""page_index"":1,""viewing_time"":8599}]","16457","","","","","","","","","","","","","","","","","","","","","","","",""
"pit-instructions","16","378029","0.0-2.0-5.0","battery-v0.2","","""event"",""trial"",""time""
""fullscreenenter"",""1"",""13749""
""blur"",""3"",""38095""
""focus"",""3"",""42211""
","""event"",""trial"",""time""
""blur"",""3"",""38095""
","""event"",""trial"",""time""
""focus"",""3"",""42211""
","""event"",""trial"",""time""
""fullscreenenter"",""1"",""13749""
","
","","[{""page_index"":0,""viewing_time"":12056},{""page_index"":1,""viewing_time"":7220},{""page_index"":2,""viewing_time"":6710},{""page_index"":3,""viewing_time"":19933}]","45920","","","","","","","","","","","","","","","","","","","","","","","",""
"pit-trial","17","382884","0.0-2.0-6.0-0.0","battery-v0.2","","""event"",""trial"",""time""
""fullscreenenter"",""1"",""13749""
""blur"",""3"",""38095""
""focus"",""3"",""42211""
","""event"",""trial"",""time""
""blur"",""3"",""38095""
","""event"",""trial"",""time""
""focus"",""3"",""42211""
","""event"",""trial"",""time""
""fullscreenenter"",""1"",""13749""
","
","","","-1","","","20","12617","5540","&#9854;","elianto","#FFFFF080","-1","-1","1","&#10004","[]","0","0","1","","","","","","","",""
"pit-trial","18","387739","0.0-2.0-6.1-0.1","battery-v0.2","","""event"",""trial"",""time""
""fullscreenenter"",""1"",""13749""
""blur"",""3"",""38095""
""focus"",""3"",""42211""
","""event"",""trial"",""time""
""blur"",""3"",""38095""
","""event"",""trial"",""time""
""focus"",""3"",""42211""
","""event"",""trial"",""time""
""fullscreenenter"",""1"",""13749""
","
","","","-1","","","20","12617","5540","&#9854;","elianto","#FFFFF080","-1","-1","1","&#10004","[]","0","0","1","","","","","","","",""
"pit-trial","19","392596","0.0-2.0-6.2-0.2","battery-v0.2","","""event"",""trial"",""time""
""fullscreenenter"",""1"",""13749""
""blur"",""3"",""38095""
""focus"",""3"",""42211""
","""event"",""trial"",""time""
""blur"",""3"",""38095""
","""event"",""trial"",""time""
""focus"",""3"",""42211""
","""event"",""trial"",""time""
""fullscreenenter"",""1"",""13749""
","
","","","-1","","","20","12617","5540","&#9854;","elianto","#FFFFF080","-1","-1","1","&#10004","[]","0","0","1","","","","","","","",""
"pit-trial","20","397450","0.0-2.0-6.3-0.3","battery-v0.2","","""event"",""trial"",""time""
""fullscreenenter"",""1"",""13749""
""blur"",""3"",""38095""
""focus"",""3"",""42211""
","""event"",""trial"",""time""
""blur"",""3"",""38095""
","""event"",""trial"",""time""
""focus"",""3"",""42211""
","""event"",""trial"",""time""
""fullscreenenter"",""1"",""13749""
","
","","","-1","","","20","12617","5540","&#9854;","elianto","#FFFFF080","-1","-1","1","&#10004","[]","0","0","1","","","","","","","",""
"pit-trial","21","402304","0.0-2.0-6.4-0.4","battery-v0.2","","""event"",""trial"",""time""
""fullscreenenter"",""1"",""13749""
""blur"",""3"",""38095""
""focus"",""3"",""42211""
","""event"",""trial"",""time""
""blur"",""3"",""38095""
","""event"",""trial"",""time""
""focus"",""3"",""42211""
","""event"",""trial"",""time""
""fullscreenenter"",""1"",""13749""
","
","","","-1","","","20","12617","5540","&#9854;","elianto","#FFFFF080","-1","-1","1","&#10004","[]","0","0","1","","","","","","","",""
"pit-instructions","22","655332","0.0-2.0-7.0","battery-v0.2","","""event"",""trial"",""time""
""fullscreenenter"",""1"",""13749""
""blur"",""3"",""38095""
""focus"",""3"",""42211""
","""event"",""trial"",""time""
""blur"",""3"",""38095""
","""event"",""trial"",""time""
""focus"",""3"",""42211""
","""event"",""trial"",""time""
""fullscreenenter"",""1"",""13749""
","
","","[{""page_index"":0,""viewing_time"":35892},{""page_index"":1,""viewing_time"":15972},{""page_index"":2,""viewing_time"":12275},{""page_index"":3,""viewing_time"":19422},{""page_index"":4,""viewing_time"":21374},{""page_index"":5,""viewing_time"":8083},{""page_index"":6,""viewing_time"":10528},{""page_index"":7,""viewing_time"":7707},{""page_index"":8,""viewing_time"":12017},{""page_index"":9,""viewing_time"":14485},{""page_index"":10,""viewing_time"":18089},{""page_index"":11,""viewing_time"":8450},{""page_index"":12,""viewing_time"":16016},{""page_index"":13,""viewing_time"":13200},{""page_index"":14,""viewing_time"":10651},{""page_index"":15,""viewing_time"":11872},{""page_index"":16,""viewing_time"":6904},{""page_index"":17,""viewing_time"":10088}]","253026","","","","","","","","","","","","","","","","","","","","","","","",""
"pit-trial","23","658988","0.0-2.0-8.0-0.0","battery-v0.2","","""event"",""trial"",""time""
""fullscreenenter"",""1"",""13749""
""blur"",""3"",""38095""
""focus"",""3"",""42211""
","""event"",""trial"",""time""
""blur"",""3"",""38095""
","""event"",""trial"",""time""
""focus"",""3"",""42211""
","""event"",""trial"",""time""
""fullscreenenter"",""1"",""13749""
","
","","","801","","","20","12617","5540","&#9776;","elianto","#3366ff99"," "," ","1","+10","[1652,2645]","2","0","1","","","","","","","",""
"pit-trial","24","662263","0.0-2.0-8.0-1.0","battery-v0.2","","""event"",""trial"",""time""
""fullscreenenter"",""1"",""13749""
""blur"",""3"",""38095""
""focus"",""3"",""42211""
","""event"",""trial"",""time""
""blur"",""3"",""38095""
","""event"",""trial"",""time""
""focus"",""3"",""42211""
","""event"",""trial"",""time""
""fullscreenenter"",""1"",""13749""
","
","","","420","","","20","12617","5540","&#9776;","elianto","#3366ff99"," "," ","1","+10","[1271]","1","0","1","","","","","","","",""
"pit-trial","25","665542","0.0-2.0-8.0-2.0","battery-v0.2","","""event"",""trial"",""time""
""fullscreenenter"",""1"",""13749""
""blur"",""3"",""38095""
""focus"",""3"",""42211""
","""event"",""trial"",""time""
""blur"",""3"",""38095""
","""event"",""trial"",""time""
""focus"",""3"",""42211""
","""event"",""trial"",""time""
""fullscreenenter"",""1"",""13749""
","
","","","422","","","20","12617","5540","&#9776;","elianto","#3366ff99"," "," ","1","+10","[1273]","1","0","1","","","","","","","",""
"pit-trial","26","668851","0.0-2.0-8.0-3.0","battery-v0.2","","""event"",""trial"",""time""
""fullscreenenter"",""1"",""13749""
""blur"",""3"",""38095""
""focus"",""3"",""42211""
","""event"",""trial"",""time""
""blur"",""3"",""38095""
","""event"",""trial"",""time""
""focus"",""3"",""42211""
","""event"",""trial"",""time""
""fullscreenenter"",""1"",""13749""
","
","","","452","","","20","12617","5540","&#9776;","elianto","#3366ff99"," "," ","1","0","[1305]","1","0","1","","","","","","","",""
"pit-trial","27","671945","0.0-2.0-8.0-4.0","battery-v0.2","","""event"",""trial"",""time""
""fullscreenenter"",""1"",""13749""
""blur"",""3"",""38095""
""focus"",""3"",""42211""
","""event"",""trial"",""time""
""blur"",""3"",""38095""
","""event"",""trial"",""time""
""focus"",""3"",""42211""
","""event"",""trial"",""time""
""fullscreenenter"",""1"",""13749""
","
","","","237","","","20","12617","5540","&#9776;","elianto","#3366ff99"," "," ","1","+10","[1087]","1","0","1","","","","","","","",""
"pit-trial","28","675220","0.0-2.0-8.1-0.1","battery-v0.2","","""event"",""trial"",""time""
""fullscreenenter"",""1"",""13749""
""blur"",""3"",""38095""
""focus"",""3"",""42211""
","""event"",""trial"",""time""
""blur"",""3"",""38095""
","""event"",""trial"",""time""
""focus"",""3"",""42211""
","""event"",""trial"",""time""
""fullscreenenter"",""1"",""13749""
","
","","","420","","","20","12617","5540","&#9776;","elianto","#3366ff99"," "," ","1","+10","[1270]","1","0","1","","","","","","","",""
"pit-trial","29","678249","0.0-2.0-8.1-1.1","battery-v0.2","","""event"",""trial"",""time""
""fullscreenenter"",""1"",""13749""
""blur"",""3"",""38095""
""focus"",""3"",""42211""
","""event"",""trial"",""time""
""blur"",""3"",""38095""
","""event"",""trial"",""time""
""focus"",""3"",""42211""
","""event"",""trial"",""time""
""fullscreenenter"",""1"",""13749""
","
","","","173","","","20","12617","5540","&#9776;","elianto","#3366ff99"," "," ","1","+10","[1023]","1","0","1","","","","","","","",""
"pit-trial","30","681525","0.0-2.0-8.1-2.1","battery-v0.2","","""event"",""trial"",""time""
""fullscreenenter"",""1"",""13749""
""blur"",""3"",""38095""
""focus"",""3"",""42211""
","""event"",""trial"",""time""
""blur"",""3"",""38095""
","""event"",""trial"",""time""
""focus"",""3"",""42211""
","""event"",""trial"",""time""
""fullscreenenter"",""1"",""13749""
","
","","","421","","","20","12617","5540","&#9776;","elianto","#3366ff99"," "," ","1","+10","[362,1271]","2","0","1","","","","","","","",""
"pit-trial","31","684478","0.0-2.0-8.1-3.1","battery-v0.2","","""event"",""trial"",""time""
""fullscreenenter"",""1"",""13749""
""blur"",""3"",""38095""
""focus"",""3"",""42211""
","""event"",""trial"",""time""
""blur"",""3"",""38095""
","""event"",""trial"",""time""
""focus"",""3"",""42211""
","""event"",""trial"",""time""
""fullscreenenter"",""1"",""13749""
","
","","","97","","","20","12617","5540","&#9776;","elianto","#3366ff99"," "," ","1","0","[947]","1","0","1","","","","","","","",""
"pit-trial","32","687353","0.0-2.0-8.1-4.1","battery-v0.2","","""event"",""trial"",""time""
""fullscreenenter"",""1"",""13749""
""blur"",""3"",""38095""
""focus"",""3"",""42211""
","""event"",""trial"",""time""
""blur"",""3"",""38095""
","""event"",""trial"",""time""
""focus"",""3"",""42211""
","""event"",""trial"",""time""
""fullscreenenter"",""1"",""13749""
","
","","","20","","","20","12617","5540","&#9776;","elianto","#3366ff99"," "," ","1","+10","[870]","1","0","1","","","","","","","",""
"pit-trial","33","692210","0.0-2.0-8.2-0.2","battery-v0.2","","""event"",""trial"",""time""
""fullscreenenter"",""1"",""13749""
""blur"",""3"",""38095""
""focus"",""3"",""42211""
","""event"",""trial"",""time""
""blur"",""3"",""38095""
","""event"",""trial"",""time""
""focus"",""3"",""42211""
","""event"",""trial"",""time""
""fullscreenenter"",""1"",""13749""
","
","","","-1","","","20","12617","5540","&#9776;","elianto","#3366ff99"," ","-1","0","0","[305,850,4683]","3","0","1","","","","","","","",""
"pit-trial","34","695487","0.0-2.0-8.2-1.2","battery-v0.2","","""event"",""trial"",""time""
""fullscreenenter"",""1"",""13749""
""blur"",""3"",""38095""
""focus"",""3"",""42211""
","""event"",""trial"",""time""
""blur"",""3"",""38095""
","""event"",""trial"",""time""
""focus"",""3"",""42211""
","""event"",""trial"",""time""
""fullscreenenter"",""1"",""13749""
","
","","","420","","","20","12617","5540","&#9776;","elianto","#3366ff99"," "," ","1","+10","[1272]","1","0","1","","","","","","","",""
"pit-trial","35","698418","0.0-2.0-8.2-2.2","battery-v0.2","","""event"",""trial"",""time""
""fullscreenenter"",""1"",""13749""
""blur"",""3"",""38095""
""focus"",""3"",""42211""
","""event"",""trial"",""time""
""blur"",""3"",""38095""
","""event"",""trial"",""time""
""focus"",""3"",""42211""
","""event"",""trial"",""time""
""fullscreenenter"",""1"",""13749""
","
","","","75","","","20","12617","5540","&#9776;","elianto","#3366ff99"," "," ","1","+10","[925]","1","0","1","","","","","","","",""
"pit-trial","36","701515","0.0-2.0-8.2-3.2","battery-v0.2","","""event"",""trial"",""time""
""fullscreenenter"",""1"",""13749""
""blur"",""3"",""38095""
""focus"",""3"",""42211""
","""event"",""trial"",""time""
""blur"",""3"",""38095""
","""event"",""trial"",""time""
""focus"",""3"",""42211""
","""event"",""trial"",""time""
""fullscreenenter"",""1"",""13749""
","
","","","243","","","20","12617","5540","&#9776;","elianto","#3366ff99"," "," ","1","0","[1092]","1","0","1","","","","","","","",""
"pit-trial","37","704554","0.0-2.0-8.2-4.2","battery-v0.2","","""event"",""trial"",""time""
""fullscreenenter"",""1"",""13749""
""blur"",""3"",""38095""
""focus"",""3"",""42211""
","""event"",""trial"",""time""
""blur"",""3"",""38095""
","""event"",""trial"",""time""
""focus"",""3"",""42211""
","""event"",""trial"",""time""
""fullscreenenter"",""1"",""13749""
","
","","","181","","","20","12617","5540","&#9776;","elianto","#3366ff99"," "," ","1","+10","[1033]","1","0","1","","","","","","","",""
"call-function","38","704558","0.0-2.0-9.0","battery-v0.2","","""event"",""trial"",""time""
""fullscreenenter"",""1"",""13749""
""blur"",""3"",""38095""
""focus"",""3"",""42211""
","""event"",""trial"",""time""
""blur"",""3"",""38095""
","""event"",""trial"",""time""
""focus"",""3"",""42211""
","""event"",""trial"",""time""
""fullscreenenter"",""1"",""13749""
","
","","","","","","","","","","","","","","","","","","","","","","","","","","",""
"pit-instructions","39","765186","0.0-2.0-10.0","battery-v0.2","","""event"",""trial"",""time""
""fullscreenenter"",""1"",""13749""
""blur"",""3"",""38095""
""focus"",""3"",""42211""
","""event"",""trial"",""time""
""blur"",""3"",""38095""
","""event"",""trial"",""time""
""focus"",""3"",""42211""
","""event"",""trial"",""time""
""fullscreenenter"",""1"",""13749""
","
","","[{""page_index"":0,""viewing_time"":9324},{""page_index"":1,""viewing_time"":10263},{""page_index"":2,""viewing_time"":19591},{""page_index"":3,""viewing_time"":11647},{""page_index"":4,""viewing_time"":9802}]","60627","","","","","","","","","","","","","","","","","","","","","","","",""
"pit-trial","40","769312","0.0-2.0-11.0-0.0","battery-v0.2","","""event"",""trial"",""time""
""fullscreenenter"",""1"",""13749""
""blur"",""3"",""38095""
""focus"",""3"",""42211""
","""event"",""trial"",""time""
""blur"",""3"",""38095""
","""event"",""trial"",""time""
""focus"",""3"",""42211""
","""event"",""trial"",""time""
""fullscreenenter"",""1"",""13749""
","
","","","1273","","","20","12617","5540","&#9761;","elianto","#3366ff99","-1"," ","0","0","[2123]","1","0","2","","","","","","","",""
"pit-trial","41","772408","0.0-2.0-11.0-1.0","battery-v0.2","","""event"",""trial"",""time""
""fullscreenenter"",""1"",""13749""
""blur"",""3"",""38095""
""focus"",""3"",""42211""
","""event"",""trial"",""time""
""blur"",""3"",""38095""
","""event"",""trial"",""time""
""focus"",""3"",""42211""
","""event"",""trial"",""time""
""fullscreenenter"",""1"",""13749""
","
","","","239","","","20","12617","5540","&#9761;","elianto","#3366ff99","-1"," ","0","0","[1091]","1","0","2","","","","","","","",""
"pit-trial","42","775584","0.0-2.0-11.0-2.0","battery-v0.2","","""event"",""trial"",""time""
""fullscreenenter"",""1"",""13749""
""blur"",""3"",""38095""
""focus"",""3"",""42211""
","""event"",""trial"",""time""
""blur"",""3"",""38095""
","""event"",""trial"",""time""
""focus"",""3"",""42211""
","""event"",""trial"",""time""
""fullscreenenter"",""1"",""13749""
","
","","","319","","","20","12617","5540","&#9761;","elianto","#3366ff99","-1"," ","0","0","[1169]","1","0","2","","","","","","","",""
"pit-trial","43","780438","0.0-2.0-11.0-3.0","battery-v0.2","","""event"",""trial"",""time""
""fullscreenenter"",""1"",""13749""
""blur"",""3"",""38095""
""focus"",""3"",""42211""
","""event"",""trial"",""time""
""blur"",""3"",""38095""
","""event"",""trial"",""time""
""focus"",""3"",""42211""
","""event"",""trial"",""time""
""fullscreenenter"",""1"",""13749""
","
","","","-1","","","20","12617","5540","&#9761;","elianto","#3366ff99","-1","-1","1","0","[]","0","0","2","","","","","","","",""
"pit-trial","44","783604","0.0-2.0-11.0-4.0","battery-v0.2","","""event"",""trial"",""time""
""fullscreenenter"",""1"",""13749""
""blur"",""3"",""38095""
""focus"",""3"",""42211""
","""event"",""trial"",""time""
""blur"",""3"",""38095""
","""event"",""trial"",""time""
""focus"",""3"",""42211""
","""event"",""trial"",""time""
""fullscreenenter"",""1"",""13749""
","
","","","312","","","20","12617","5540","&#9761;","elianto","#3366ff99","-1"," ","0","0","[1164]","1","0","2","","","","","","","",""
"pit-trial","45","786900","0.0-2.0-11.1-0.1","battery-v0.2","","""event"",""trial"",""time""
""fullscreenenter"",""1"",""13749""
""blur"",""3"",""38095""
""focus"",""3"",""42211""
","""event"",""trial"",""time""
""blur"",""3"",""38095""
","""event"",""trial"",""time""
""focus"",""3"",""42211""
","""event"",""trial"",""time""
""fullscreenenter"",""1"",""13749""
","
","","","437","","","20","12617","5540","&#9761;","elianto","#3366ff99","-1"," ","0","0","[1290]","1","0","2","","","","","","","",""
"pit-trial","46","789860","0.0-2.0-11.1-1.1","battery-v0.2","","""event"",""trial"",""time""
""fullscreenenter"",""1"",""13749""
""blur"",""3"",""38095""
""focus"",""3"",""42211""
","""event"",""trial"",""time""
""blur"",""3"",""38095""
","""event"",""trial"",""time""
""focus"",""3"",""42211""
","""event"",""trial"",""time""
""fullscreenenter"",""1"",""13749""
","
","","","103","","","20","12617","5540","&#9761;","elianto","#3366ff99","-1"," ","0","0","[955]","1","0","2","","","","","","","",""
"pit-trial","47","792857","0.0-2.0-11.1-2.1","battery-v0.2","","""event"",""trial"",""time""
""fullscreenenter"",""1"",""13749""
""blur"",""3"",""38095""
""focus"",""3"",""42211""
","""event"",""trial"",""time""
""blur"",""3"",""38095""
","""event"",""trial"",""time""
""focus"",""3"",""42211""
","""event"",""trial"",""time""
""fullscreenenter"",""1"",""13749""
","
","","","142","","","20","12617","5540","&#9761;","elianto","#3366ff99","-1"," ","0","0","[991]","1","0","2","","","","","","","",""
"pit-trial","48","795716","0.0-2.0-11.1-3.1","battery-v0.2","","""event"",""trial"",""time""
""fullscreenenter"",""1"",""13749""
""blur"",""3"",""38095""
""focus"",""3"",""42211""
","""event"",""trial"",""time""
""blur"",""3"",""38095""
","""event"",""trial"",""time""
""focus"",""3"",""42211""
","""event"",""trial"",""time""
""fullscreenenter"",""1"",""13749""
","
","","","3","","","20","12617","5540","&#9761;","elianto","#3366ff99","-1"," ","0","+10","[358,854]","2","0","2","","","","","","","",""
"pit-trial","49","798781","0.0-2.0-11.1-4.1","battery-v0.2","","""event"",""trial"",""time""
""fullscreenenter"",""1"",""13749""
""blur"",""3"",""38095""
""focus"",""3"",""42211""
","""event"",""trial"",""time""
""blur"",""3"",""38095""
","""event"",""trial"",""time""
""focus"",""3"",""42211""
","""event"",""trial"",""time""
""fullscreenenter"",""1"",""13749""
","
","","","209","","","20","12617","5540","&#9761;","elianto","#3366ff99","-1"," ","0","0","[220,1059]","2","0","2","","","","","","","",""
"pit-trial","50","801737","0.0-2.0-11.2-0.2","battery-v0.2","","""event"",""trial"",""time""
""fullscreenenter"",""1"",""13749""
""blur"",""3"",""38095""
""focus"",""3"",""42211""
","""event"",""trial"",""time""
""blur"",""3"",""38095""
","""event"",""trial"",""time""
""focus"",""3"",""42211""
","""event"",""trial"",""time""
""fullscreenenter"",""1"",""13749""
","
","","","100","","","20","12617","5540","&#9761;","elianto","#3366ff99","-1"," ","0","0","[491,950]","2","0","2","","","","","","","",""
"pit-trial","51","805029","0.0-2.0-11.2-1.2","battery-v0.2","","""event"",""trial"",""time""
""fullscreenenter"",""1"",""13749""
""blur"",""3"",""38095""
""focus"",""3"",""42211""
","""event"",""trial"",""time""
""blur"",""3"",""38095""
","""event"",""trial"",""time""
""focus"",""3"",""42211""
","""event"",""trial"",""time""
""fullscreenenter"",""1"",""13749""
","
","","","435","","","20","12617","5540","&#9761;","elianto","#3366ff99","-1"," ","0","0","[1288]","1","0","2","","","","","","","",""
"pit-trial","52","808228","0.0-2.0-11.2-2.2","battery-v0.2","","""event"",""trial"",""time""
""fullscreenenter"",""1"",""13749""
""blur"",""3"",""38095""
""focus"",""3"",""42211""
","""event"",""trial"",""time""
""blur"",""3"",""38095""
","""event"",""trial"",""time""
""focus"",""3"",""42211""
","""event"",""trial"",""time""
""fullscreenenter"",""1"",""13749""
","
","","","343","","","20","12617","5540","&#9761;","elianto","#3366ff99","-1"," ","0","0","[1197]","1","0","2","","","","","","","",""
"pit-trial","53","811569","0.0-2.0-11.2-3.2","battery-v0.2","","""event"",""trial"",""time""
""fullscreenenter"",""1"",""13749""
""blur"",""3"",""38095""
""focus"",""3"",""42211""
","""event"",""trial"",""time""
""blur"",""3"",""38095""
","""event"",""trial"",""time""
""focus"",""3"",""42211""
","""event"",""trial"",""time""
""fullscreenenter"",""1"",""13749""
","
","","","485","","","20","12617","5540","&#9761;","elianto","#3366ff99","-1"," ","0","+10","[1334]","1","0","2","","","","","","","",""
"pit-trial","54","814730","0.0-2.0-11.2-4.2","battery-v0.2","","""event"",""trial"",""time""
""fullscreenenter"",""1"",""13749""
""blur"",""3"",""38095""
""focus"",""3"",""42211""
","""event"",""trial"",""time""
""blur"",""3"",""38095""
","""event"",""trial"",""time""
""focus"",""3"",""42211""
","""event"",""trial"",""time""
""fullscreenenter"",""1"",""13749""
","
","","","305","","","20","12617","5540","&#9761;","elianto","#3366ff99","-1"," ","0","0","[1156]","1","0","2","","","","","","","",""
"pit-trial","55","817720","0.0-2.0-11.3-0.3","battery-v0.2","","""event"",""trial"",""time""
""fullscreenenter"",""1"",""13749""
""blur"",""3"",""38095""
""focus"",""3"",""42211""
","""event"",""trial"",""time""
""blur"",""3"",""38095""
","""event"",""trial"",""time""
""focus"",""3"",""42211""
","""event"",""trial"",""time""
""fullscreenenter"",""1"",""13749""
","
","","","135","","","20","12617","5540","&#9761;","elianto","#3366ff99","-1"," ","0","0","[985]","1","0","2","","","","","","","",""
"pit-trial","56","820770","0.0-2.0-11.3-1.3","battery-v0.2","","""event"",""trial"",""time""
""fullscreenenter"",""1"",""13749""
""blur"",""3"",""38095""
""focus"",""3"",""42211""
","""event"",""trial"",""time""
""blur"",""3"",""38095""
","""event"",""trial"",""time""
""focus"",""3"",""42211""
","""event"",""trial"",""time""
""fullscreenenter"",""1"",""13749""
","
","","","194","","","20","12617","5540","&#9761;","elianto","#3366ff99","-1"," ","0","0","[1044]","1","0","2","","","","","","","",""
"pit-trial","57","823882","0.0-2.0-11.3-2.3","battery-v0.2","","""event"",""trial"",""time""
""fullscreenenter"",""1"",""13749""
""blur"",""3"",""38095""
""focus"",""3"",""42211""
","""event"",""trial"",""time""
""blur"",""3"",""38095""
","""event"",""trial"",""time""
""focus"",""3"",""42211""
","""event"",""trial"",""time""
""fullscreenenter"",""1"",""13749""
","
","","","260","","","20","12617","5540","&#9761;","elianto","#3366ff99","-1"," ","0","0","[1109]","1","0","2","","","","","","","",""
"pit-trial","58","826784","0.0-2.0-11.3-3.3","battery-v0.2","","""event"",""trial"",""time""
""fullscreenenter"",""1"",""13749""
""blur"",""3"",""38095""
""focus"",""3"",""42211""
","""event"",""trial"",""time""
""blur"",""3"",""38095""
","""event"",""trial"",""time""
""focus"",""3"",""42211""
","""event"",""trial"",""time""
""fullscreenenter"",""1"",""13749""
","
","","","46","","","20","12617","5540","&#9761;","elianto","#3366ff99","-1"," ","0","+10","[897]","1","0","2","","","","","","","",""
"pit-trial","59","829730","0.0-2.0-11.3-4.3","battery-v0.2","","""event"",""trial"",""time""
""fullscreenenter"",""1"",""13749""
""blur"",""3"",""38095""
""focus"",""3"",""42211""
","""event"",""trial"",""time""
""blur"",""3"",""38095""
","""event"",""trial"",""time""
""focus"",""3"",""42211""
","""event"",""trial"",""time""
""fullscreenenter"",""1"",""13749""
","
","","","90","","","20","12617","5540","&#9761;","elianto","#3366ff99","-1"," ","0","0","[941]","1","0","2","","","","","","","",""
"call-function","60","829733","0.0-2.0-12.0","battery-v0.2","","""event"",""trial"",""time""
""fullscreenenter"",""1"",""13749""
""blur"",""3"",""38095""
""focus"",""3"",""42211""
","""event"",""trial"",""time""
""blur"",""3"",""38095""
","""event"",""trial"",""time""
""focus"",""3"",""42211""
","""event"",""trial"",""time""
""fullscreenenter"",""1"",""13749""
","
","","","","","","","","","","","","","","","","","","","","","","","","","","",""
"pit-instructions","61","882236","0.0-2.0-13.0","battery-v0.2","","""event"",""trial"",""time""
""fullscreenenter"",""1"",""13749""
""blur"",""3"",""38095""
""focus"",""3"",""42211""
","""event"",""trial"",""time""
""blur"",""3"",""38095""
","""event"",""trial"",""time""
""focus"",""3"",""42211""
","""event"",""trial"",""time""
""fullscreenenter"",""1"",""13749""
","
","","[{""page_index"":0,""viewing_time"":8779},{""page_index"":1,""viewing_time"":12243},{""page_index"":2,""viewing_time"":7165},{""page_index"":3,""viewing_time"":16656},{""page_index"":4,""viewing_time"":7659}]","52502","","","","","","","","","","","","","","","","","","","","","","","",""
"pit-trial","62","885762","0.0-2.0-14.0-0.0","battery-v0.2","","""event"",""trial"",""time""
""fullscreenenter"",""1"",""13749""
""blur"",""3"",""38095""
""focus"",""3"",""42211""
","""event"",""trial"",""time""
""blur"",""3"",""38095""
","""event"",""trial"",""time""
""focus"",""3"",""42211""
","""event"",""trial"",""time""
""fullscreenenter"",""1"",""13749""
","
","","","669","","","20","12617","5540","&#9826;","elianto","#f73b6a7A","-1"," ","0","-10","[1519]","1","0","3","","","","","","","",""
"pit-trial","63","890619","0.0-2.0-14.0-1.0","battery-v0.2","","""event"",""trial"",""time""
""fullscreenenter"",""1"",""13749""
""blur"",""3"",""38095""
""focus"",""3"",""42211""
","""event"",""trial"",""time""
""blur"",""3"",""38095""
","""event"",""trial"",""time""
""focus"",""3"",""42211""
","""event"",""trial"",""time""
""fullscreenenter"",""1"",""13749""
","
","","","-1","","","20","12617","5540","&#9826;","elianto","#f73b6a7A","-1","-1","1","0","[]","0","0","3","","","","","","","",""
"pit-trial","64","895474","0.0-2.0-14.0-2.0","battery-v0.2","","""event"",""trial"",""time""
""fullscreenenter"",""1"",""13749""
""blur"",""3"",""38095""
""focus"",""3"",""42211""
","""event"",""trial"",""time""
""blur"",""3"",""38095""
","""event"",""trial"",""time""
""focus"",""3"",""42211""
","""event"",""trial"",""time""
""fullscreenenter"",""1"",""13749""
","
","","","-1","","","20","12617","5540","&#9826;","elianto","#f73b6a7A","-1","-1","1","0","[]","0","0","3","","","","","","","",""
"pit-trial","65","900330","0.0-2.0-14.0-3.0","battery-v0.2","","""event"",""trial"",""time""
""fullscreenenter"",""1"",""13749""
""blur"",""3"",""38095""
""focus"",""3"",""42211""
","""event"",""trial"",""time""
""blur"",""3"",""38095""
","""event"",""trial"",""time""
""focus"",""3"",""42211""
","""event"",""trial"",""time""
""fullscreenenter"",""1"",""13749""
","
","","","-1","","","20","12617","5540","&#9826;","elianto","#f73b6a7A","-1","-1","1","-10","[]","0","0","3","","","","","","","",""
"pit-trial","66","905184","0.0-2.0-14.0-4.0","battery-v0.2","","""event"",""trial"",""time""
""fullscreenenter"",""1"",""13749""
""blur"",""3"",""38095""
""focus"",""3"",""42211""
","""event"",""trial"",""time""
""blur"",""3"",""38095""
","""event"",""trial"",""time""
""focus"",""3"",""42211""
","""event"",""trial"",""time""
""fullscreenenter"",""1"",""13749""
","
","","","-1","","","20","12617","5540","&#9826;","elianto","#f73b6a7A","-1","-1","1","0","[]","0","0","3","","","","","","","",""
"pit-trial","67","910041","0.0-2.0-14.1-0.1","battery-v0.2","","""event"",""trial"",""time""
""fullscreenenter"",""1"",""13749""
""blur"",""3"",""38095""
""focus"",""3"",""42211""
","""event"",""trial"",""time""
""blur"",""3"",""38095""
","""event"",""trial"",""time""
""focus"",""3"",""42211""
","""event"",""trial"",""time""
""fullscreenenter"",""1"",""13749""
","
","","","-1","","","20","12617","5540","&#9826;","elianto","#f73b6a7A","-1","-1","1","0","[]","0","0","3","","","","","","","",""
"pit-trial","68","914897","0.0-2.0-14.1-1.1","battery-v0.2","","""event"",""trial"",""time""
""fullscreenenter"",""1"",""13749""
""blur"",""3"",""38095""
""focus"",""3"",""42211""
","""event"",""trial"",""time""
""blur"",""3"",""38095""
","""event"",""trial"",""time""
""focus"",""3"",""42211""
","""event"",""trial"",""time""
""fullscreenenter"",""1"",""13749""
","
","","","-1","","","20","12617","5540","&#9826;","elianto","#f73b6a7A","-1","-1","1","0","[]","0","0","3","","","","","","","",""
"pit-trial","69","919752","0.0-2.0-14.1-2.1","battery-v0.2","","""event"",""trial"",""time""
""fullscreenenter"",""1"",""13749""
""blur"",""3"",""38095""
""focus"",""3"",""42211""
","""event"",""trial"",""time""
""blur"",""3"",""38095""
","""event"",""trial"",""time""
""focus"",""3"",""42211""
","""event"",""trial"",""time""
""fullscreenenter"",""1"",""13749""
","
","","","-1","","","20","12617","5540","&#9826;","elianto","#f73b6a7A","-1","-1","1","0","[]","0","0","3","","","","","","","",""
"pit-trial","70","924609","0.0-2.0-14.1-3.1","battery-v0.2","","""event"",""trial"",""time""
""fullscreenenter"",""1"",""13749""
""blur"",""3"",""38095""
""focus"",""3"",""42211""
","""event"",""trial"",""time""
""blur"",""3"",""38095""
","""event"",""trial"",""time""
""focus"",""3"",""42211""
","""event"",""trial"",""time""
""fullscreenenter"",""1"",""13749""
","
","","","-1","","","20","12617","5540","&#9826;","elianto","#f73b6a7A","-1","-1","1","-10","[]","0","0","3","","","","","","","",""
"pit-trial","71","929465","0.0-2.0-14.1-4.1","battery-v0.2","","""event"",""trial"",""time""
""fullscreenenter"",""1"",""13749""
""blur"",""3"",""38095""
""focus"",""3"",""42211""
","""event"",""trial"",""time""
""blur"",""3"",""38095""
","""event"",""trial"",""time""
""focus"",""3"",""42211""
","""event"",""trial"",""time""
""fullscreenenter"",""1"",""13749""
","
","","","-1","","","20","12617","5540","&#9826;","elianto","#f73b6a7A","-1","-1","1","0","[]","0","0","3","","","","","","","",""
"pit-trial","72","934322","0.0-2.0-14.2-0.2","battery-v0.2","","""event"",""trial"",""time""
""fullscreenenter"",""1"",""13749""
""blur"",""3"",""38095""
""focus"",""3"",""42211""
","""event"",""trial"",""time""
""blur"",""3"",""38095""
","""event"",""trial"",""time""
""focus"",""3"",""42211""
","""event"",""trial"",""time""
""fullscreenenter"",""1"",""13749""
","
","","","-1","","","20","12617","5540","&#9826;","elianto","#f73b6a7A","-1","-1","1","0","[]","0","0","3","","","","","","","",""
"pit-trial","73","939177","0.0-2.0-14.2-1.2","battery-v0.2","","""event"",""trial"",""time""
""fullscreenenter"",""1"",""13749""
""blur"",""3"",""38095""
""focus"",""3"",""42211""
","""event"",""trial"",""time""
""blur"",""3"",""38095""
","""event"",""trial"",""time""
""focus"",""3"",""42211""
","""event"",""trial"",""time""
""fullscreenenter"",""1"",""13749""
","
","","","-1","","","20","12617","5540","&#9826;","elianto","#f73b6a7A","-1","-1","1","0","[]","0","0","3","","","","","","","",""
"pit-trial","74","944032","0.0-2.0-14.2-2.2","battery-v0.2","","""event"",""trial"",""time""
""fullscreenenter"",""1"",""13749""
""blur"",""3"",""38095""
""focus"",""3"",""42211""
","""event"",""trial"",""time""
""blur"",""3"",""38095""
","""event"",""trial"",""time""
""focus"",""3"",""42211""
","""event"",""trial"",""time""
""fullscreenenter"",""1"",""13749""
","
","","","-1","","","20","12617","5540","&#9826;","elianto","#f73b6a7A","-1","-1","1","0","[]","0","0","3","","","","","","","",""
"pit-trial","75","948887","0.0-2.0-14.2-3.2","battery-v0.2","","""event"",""trial"",""time""
""fullscreenenter"",""1"",""13749""
""blur"",""3"",""38095""
""focus"",""3"",""42211""
","""event"",""trial"",""time""
""blur"",""3"",""38095""
","""event"",""trial"",""time""
""focus"",""3"",""42211""
","""event"",""trial"",""time""
""fullscreenenter"",""1"",""13749""
","
","","","-1","","","20","12617","5540","&#9826;","elianto","#f73b6a7A","-1","-1","1","-10","[]","0","0","3","","","","","","","",""
"pit-trial","76","953745","0.0-2.0-14.2-4.2","battery-v0.2","","""event"",""trial"",""time""
""fullscreenenter"",""1"",""13749""
""blur"",""3"",""38095""
""focus"",""3"",""42211""
","""event"",""trial"",""time""
""blur"",""3"",""38095""
","""event"",""trial"",""time""
""focus"",""3"",""42211""
","""event"",""trial"",""time""
""fullscreenenter"",""1"",""13749""
","
","","","-1","","","20","12617","5540","&#9826;","elianto","#f73b6a7A","-1","-1","1","0","[]","0","0","3","","","","","","","",""
"pit-trial","77","958603","0.0-2.0-14.3-0.3","battery-v0.2","","""event"",""trial"",""time""
""fullscreenenter"",""1"",""13749""
""blur"",""3"",""38095""
""focus"",""3"",""42211""
","""event"",""trial"",""time""
""blur"",""3"",""38095""
","""event"",""trial"",""time""
""focus"",""3"",""42211""
","""event"",""trial"",""time""
""fullscreenenter"",""1"",""13749""
","
","","","-1","","","20","12617","5540","&#9826;","elianto","#f73b6a7A","-1","-1","1","0","[]","0","0","3","","","","","","","",""
"pit-trial","78","963459","0.0-2.0-14.3-1.3","battery-v0.2","","""event"",""trial"",""time""
""fullscreenenter"",""1"",""13749""
""blur"",""3"",""38095""
""focus"",""3"",""42211""
","""event"",""trial"",""time""
""blur"",""3"",""38095""
","""event"",""trial"",""time""
""focus"",""3"",""42211""
","""event"",""trial"",""time""
""fullscreenenter"",""1"",""13749""
","
","","","-1","","","20","12617","5540","&#9826;","elianto","#f73b6a7A","-1","-1","1","0","[]","0","0","3","","","","","","","",""
"pit-trial","79","968314","0.0-2.0-14.3-2.3","battery-v0.2","","""event"",""trial"",""time""
""fullscreenenter"",""1"",""13749""
""blur"",""3"",""38095""
""focus"",""3"",""42211""
","""event"",""trial"",""time""
""blur"",""3"",""38095""
","""event"",""trial"",""time""
""focus"",""3"",""42211""
","""event"",""trial"",""time""
""fullscreenenter"",""1"",""13749""
","
","","","-1","","","20","12617","5540","&#9826;","elianto","#f73b6a7A","-1","-1","1","0","[]","0","0","3","","","","","","","",""
"pit-trial","80","973170","0.0-2.0-14.3-3.3","battery-v0.2","","""event"",""trial"",""time""
""fullscreenenter"",""1"",""13749""
""blur"",""3"",""38095""
""focus"",""3"",""42211""
","""event"",""trial"",""time""
""blur"",""3"",""38095""
","""event"",""trial"",""time""
""focus"",""3"",""42211""
","""event"",""trial"",""time""
""fullscreenenter"",""1"",""13749""
","
","","","-1","","","20","12617","5540","&#9826;","elianto","#f73b6a7A","-1","-1","1","-10","[]","0","0","3","","","","","","","",""
"pit-trial","81","978025","0.0-2.0-14.3-4.3","battery-v0.2","","""event"",""trial"",""time""
""fullscreenenter"",""1"",""13749""
""blur"",""3"",""38095""
""focus"",""3"",""42211""
","""event"",""trial"",""time""
""blur"",""3"",""38095""
","""event"",""trial"",""time""
""focus"",""3"",""42211""
","""event"",""trial"",""time""
""fullscreenenter"",""1"",""13749""
","
","","","-1","","","20","12617","5540","&#9826;","elianto","#f73b6a7A","-1","-1","1","0","[]","0","0","3","","","","","","","",""
"call-function","82","978028","0.0-2.0-15.0","battery-v0.2","","""event"",""trial"",""time""
""fullscreenenter"",""1"",""13749""
""blur"",""3"",""38095""
""focus"",""3"",""42211""
","""event"",""trial"",""time""
""blur"",""3"",""38095""
","""event"",""trial"",""time""
""focus"",""3"",""42211""
","""event"",""trial"",""time""
""fullscreenenter"",""1"",""13749""
","
","","","","","","","","","","","","","","","","","","","","","","","","","","",""
"pit-instructions","83","1036754","0.0-2.0-16.0","battery-v0.2","","""event"",""trial"",""time""
""fullscreenenter"",""1"",""13749""
""blur"",""3"",""38095""
""focus"",""3"",""42211""
","""event"",""trial"",""time""
""blur"",""3"",""38095""
","""event"",""trial"",""time""
""focus"",""3"",""42211""
","""event"",""trial"",""time""
""fullscreenenter"",""1"",""13749""
","
","","[{""page_index"":0,""viewing_time"":24184},{""page_index"":1,""viewing_time"":13576},{""page_index"":2,""viewing_time"":8279},{""page_index"":3,""viewing_time"":12686}]","58725","","","","","","","","","","","","","","","","","","","","","","","",""
"pit-trial","84","1040396","0.0-2.0-17.0-0.0","battery-v0.2","","""event"",""trial"",""time""
""fullscreenenter"",""1"",""13749""
""blur"",""3"",""38095""
""focus"",""3"",""42211""
","""event"",""trial"",""time""
""blur"",""3"",""38095""
","""event"",""trial"",""time""
""focus"",""3"",""42211""
","""event"",""trial"",""time""
""fullscreenenter"",""1"",""13749""
","
","","","788","","","20","12617","5540","&#9789;","elianto","#f73b6a7A"," "," ","1","0","[1638]","1","0","4","","","","","","","",""
"pit-trial","85","1043878","0.0-2.0-17.0-1.0","battery-v0.2","","""event"",""trial"",""time""
""fullscreenenter"",""1"",""13749""
""blur"",""3"",""38095""
""focus"",""3"",""42211""
","""event"",""trial"",""time""
""blur"",""3"",""38095""
","""event"",""trial"",""time""
""focus"",""3"",""42211""
","""event"",""trial"",""time""
""fullscreenenter"",""1"",""13749""
","
","","","628","","","20","12617","5540","&#9789;","elianto","#f73b6a7A"," "," ","1","0","[1477]","1","0","4","","","","","","","",""
"pit-trial","86","1047263","0.0-2.0-17.0-2.0","battery-v0.2","","""event"",""trial"",""time""
""fullscreenenter"",""1"",""13749""
""blur"",""3"",""38095""
""focus"",""3"",""42211""
","""event"",""trial"",""time""
""blur"",""3"",""38095""
","""event"",""trial"",""time""
""focus"",""3"",""42211""
","""event"",""trial"",""time""
""fullscreenenter"",""1"",""13749""
","
","","","528","","","20","12617","5540","&#9789;","elianto","#f73b6a7A"," "," ","1","0","[1379]","1","0","4","","","","","","","",""
"pit-trial","87","1051016","0.0-2.0-17.0-3.0","battery-v0.2","","""event"",""trial"",""time""
""fullscreenenter"",""1"",""13749""
""blur"",""3"",""38095""
""focus"",""3"",""42211""
","""event"",""trial"",""time""
""blur"",""3"",""38095""
","""event"",""trial"",""time""
""focus"",""3"",""42211""
","""event"",""trial"",""time""
""fullscreenenter"",""1"",""13749""
","
","","","899","","","20","12617","5540","&#9789;","elianto","#f73b6a7A"," "," ","1","-10","[1749]","1","0","4","","","","","","","",""
"pit-trial","88","1054676","0.0-2.0-17.0-4.0","battery-v0.2","","""event"",""trial"",""time""
""fullscreenenter"",""1"",""13749""
""blur"",""3"",""38095""
""focus"",""3"",""42211""
","""event"",""trial"",""time""
""blur"",""3"",""38095""
","""event"",""trial"",""time""
""focus"",""3"",""42211""
","""event"",""trial"",""time""
""fullscreenenter"",""1"",""13749""
","
","","","803","","","20","12617","5540","&#9789;","elianto","#f73b6a7A"," "," ","1","0","[1655]","1","0","4","","","","","","","",""
"pit-trial","89","1058844","0.0-2.0-17.1-0.1","battery-v0.2","","""event"",""trial"",""time""
""fullscreenenter"",""1"",""13749""
""blur"",""3"",""38095""
""focus"",""3"",""42211""
","""event"",""trial"",""time""
""blur"",""3"",""38095""
","""event"",""trial"",""time""
""focus"",""3"",""42211""
","""event"",""trial"",""time""
""fullscreenenter"",""1"",""13749""
","
","","","1311","","","20","12617","5540","&#9789;","elianto","#f73b6a7A"," "," ","1","0","[2162]","1","0","4","","","","","","","",""
"pit-trial","90","1062251","0.0-2.0-17.1-1.1","battery-v0.2","","""event"",""trial"",""time""
""fullscreenenter"",""1"",""13749""
""blur"",""3"",""38095""
""focus"",""3"",""42211""
","""event"",""trial"",""time""
""blur"",""3"",""38095""
","""event"",""trial"",""time""
""focus"",""3"",""42211""
","""event"",""trial"",""time""
""fullscreenenter"",""1"",""13749""
","
","","","551","","","20","12617","5540","&#9789;","elianto","#f73b6a7A"," "," ","1","0","[1402]","1","0","4","","","","","","","",""
"pit-trial","91","1066180","0.0-2.0-17.1-2.1","battery-v0.2","","""event"",""trial"",""time""
""fullscreenenter"",""1"",""13749""
""blur"",""3"",""38095""
""focus"",""3"",""42211""
","""event"",""trial"",""time""
""blur"",""3"",""38095""
","""event"",""trial"",""time""
""focus"",""3"",""42211""
","""event"",""trial"",""time""
""fullscreenenter"",""1"",""13749""
","
","","","1074","","","20","12617","5540","&#9789;","elianto","#f73b6a7A"," "," ","1","0","[1925]","1","0","4","","","","","","","",""
"pit-trial","92","1069535","0.0-2.0-17.1-3.1","battery-v0.2","","""event"",""trial"",""time""
""fullscreenenter"",""1"",""13749""
""blur"",""3"",""38095""
""focus"",""3"",""42211""
","""event"",""trial"",""time""
""blur"",""3"",""38095""
","""event"",""trial"",""time""
""focus"",""3"",""42211""
","""event"",""trial"",""time""
""fullscreenenter"",""1"",""13749""
","
","","","500","","","20","12617","5540","&#9789;","elianto","#f73b6a7A"," "," ","1","-10","[1351]","1","0","4","","","","","","","",""
"pit-trial","93","1074391","0.0-2.0-17.1-4.1","battery-v0.2","","""event"",""trial"",""time""
""fullscreenenter"",""1"",""13749""
""blur"",""3"",""38095""
""focus"",""3"",""42211""
","""event"",""trial"",""time""
""blur"",""3"",""38095""
","""event"",""trial"",""time""
""focus"",""3"",""42211""
","""event"",""trial"",""time""
""fullscreenenter"",""1"",""13749""
","
","","","-1","","","20","12617","5540","&#9789;","elianto","#f73b6a7A"," ","-1","0","-10","[]","0","0","4","","","","","","","",""
"pit-trial","94","1079247","0.0-2.0-17.2-0.2","battery-v0.2","","""event"",""trial"",""time""
""fullscreenenter"",""1"",""13749""
""blur"",""3"",""38095""
""focus"",""3"",""42211""
","""event"",""trial"",""time""
""blur"",""3"",""38095""
","""event"",""trial"",""time""
""focus"",""3"",""42211""
","""event"",""trial"",""time""
""fullscreenenter"",""1"",""13749""
","
","","","-1","","","20","12617","5540","&#9789;","elianto","#f73b6a7A"," ","-1","0","-10","[]","0","0","4","","","","","","","",""
"pit-trial","95","1084104","0.0-2.0-17.2-1.2","battery-v0.2","","""event"",""trial"",""time""
""fullscreenenter"",""1"",""13749""
""blur"",""3"",""38095""
""focus"",""3"",""42211""
","""event"",""trial"",""time""
""blur"",""3"",""38095""
","""event"",""trial"",""time""
""focus"",""3"",""42211""
","""event"",""trial"",""time""
""fullscreenenter"",""1"",""13749""
","
","","","-1","","","20","12617","5540","&#9789;","elianto","#f73b6a7A"," ","-1","0","-10","[]","0","0","4","","","","","","","",""
"pit-trial","96","1088958","0.0-2.0-17.2-2.2","battery-v0.2","","""event"",""trial"",""time""
""fullscreenenter"",""1"",""13749""
""blur"",""3"",""38095""
""focus"",""3"",""42211""
","""event"",""trial"",""time""
""blur"",""3"",""38095""
","""event"",""trial"",""time""
""focus"",""3"",""42211""
","""event"",""trial"",""time""
""fullscreenenter"",""1"",""13749""
","
","","","-1","","","20","12617","5540","&#9789;","elianto","#f73b6a7A"," ","-1","0","-10","[]","0","0","4","","","","","","","",""
"pit-trial","97","1093813","0.0-2.0-17.2-3.2","battery-v0.2","","""event"",""trial"",""time""
""fullscreenenter"",""1"",""13749""
""blur"",""3"",""38095""
""focus"",""3"",""42211""
","""event"",""trial"",""time""
""blur"",""3"",""38095""
","""event"",""trial"",""time""
""focus"",""3"",""42211""
","""event"",""trial"",""time""
""fullscreenenter"",""1"",""13749""
","
","","","-1","","","20","12617","5540","&#9789;","elianto","#f73b6a7A"," ","-1","0","0","[]","0","0","4","","","","","","","",""
"pit-trial","98","1098670","0.0-2.0-17.2-4.2","battery-v0.2","","""event"",""trial"",""time""
""fullscreenenter"",""1"",""13749""
""blur"",""3"",""38095""
""focus"",""3"",""42211""
","""event"",""trial"",""time""
""blur"",""3"",""38095""
","""event"",""trial"",""time""
""focus"",""3"",""42211""
","""event"",""trial"",""time""
""fullscreenenter"",""1"",""13749""
","
","","","-1","","","20","12617","5540","&#9789;","elianto","#f73b6a7A"," ","-1","0","-10","[]","0","0","4","","","","","","","",""
"pit-trial","99","1103528","0.0-2.0-17.3-0.3","battery-v0.2","","""event"",""trial"",""time""
""fullscreenenter"",""1"",""13749""
""blur"",""3"",""38095""
""focus"",""3"",""42211""
","""event"",""trial"",""time""
""blur"",""3"",""38095""
","""event"",""trial"",""time""
""focus"",""3"",""42211""
","""event"",""trial"",""time""
""fullscreenenter"",""1"",""13749""
","
","","","-1","","","20","12617","5540","&#9789;","elianto","#f73b6a7A"," ","-1","0","-10","[]","0","0","4","","","","","","","",""
"pit-trial","100","1108383","0.0-2.0-17.3-1.3","battery-v0.2","","""event"",""trial"",""time""
""fullscreenenter"",""1"",""13749""
""blur"",""3"",""38095""
""focus"",""3"",""42211""
","""event"",""trial"",""time""
""blur"",""3"",""38095""
","""event"",""trial"",""time""
""focus"",""3"",""42211""
","""event"",""trial"",""time""
""fullscreenenter"",""1"",""13749""
","
","","","-1","","","20","12617","5540","&#9789;","elianto","#f73b6a7A"," ","-1","0","-10","[]","0","0","4","","","","","","","",""
"pit-trial","101","1113238","0.0-2.0-17.3-2.3","battery-v0.2","","""event"",""trial"",""time""
""fullscreenenter"",""1"",""13749""
""blur"",""3"",""38095""
""focus"",""3"",""42211""
","""event"",""trial"",""time""
""blur"",""3"",""38095""
","""event"",""trial"",""time""
""focus"",""3"",""42211""
","""event"",""trial"",""time""
""fullscreenenter"",""1"",""13749""
","
","","","-1","","","20","12617","5540","&#9789;","elianto","#f73b6a7A"," ","-1","0","-10","[]","0","0","4","","","","","","","",""
"pit-trial","102","1118094","0.0-2.0-17.3-3.3","battery-v0.2","","""event"",""trial"",""time""
""fullscreenenter"",""1"",""13749""
""blur"",""3"",""38095""
""focus"",""3"",""42211""
","""event"",""trial"",""time""
""blur"",""3"",""38095""
","""event"",""trial"",""time""
""focus"",""3"",""42211""
","""event"",""trial"",""time""
""fullscreenenter"",""1"",""13749""
","
","","","-1","","","20","12617","5540","&#9789;","elianto","#f73b6a7A"," ","-1","0","0","[]","0","0","4","","","","","","","",""
"pit-trial","103","1122950","0.0-2.0-17.3-4.3","battery-v0.2","","""event"",""trial"",""time""
""fullscreenenter"",""1"",""13749""
""blur"",""3"",""38095""
""focus"",""3"",""42211""
","""event"",""trial"",""time""
""blur"",""3"",""38095""
","""event"",""trial"",""time""
""focus"",""3"",""42211""
","""event"",""trial"",""time""
""fullscreenenter"",""1"",""13749""
","
","","","-1","","","20","12617","5540","&#9789;","elianto","#f73b6a7A"," ","-1","0","-10","[]","0","0","4","","","","","","","",""
"call-function","104","1122954","0.0-2.0-18.0","battery-v0.2","","""event"",""trial"",""time""
""fullscreenenter"",""1"",""13749""
""blur"",""3"",""38095""
""focus"",""3"",""42211""
""blur"",""105"",""1252765""
""focus"",""105"",""1257024""
","""event"",""trial"",""time""
""blur"",""3"",""38095""
""blur"",""105"",""1252765""
","""event"",""trial"",""time""
""focus"",""3"",""42211""
""focus"",""105"",""1257024""
","""event"",""trial"",""time""
""fullscreenenter"",""1"",""13749""
","
","","","","","","","","","","","","","","","","","","","","","","","","","","",""
"pit-instructions","105","1266937","0.0-2.0-19.0","battery-v0.2","","""event"",""trial"",""time""
""fullscreenenter"",""1"",""13749""
""blur"",""3"",""38095""
""focus"",""3"",""42211""
""blur"",""105"",""1252765""
""focus"",""105"",""1257024""
","""event"",""trial"",""time""
""blur"",""3"",""38095""
""blur"",""105"",""1252765""
","""event"",""trial"",""time""
""focus"",""3"",""42211""
""focus"",""105"",""1257024""
","""event"",""trial"",""time""
""fullscreenenter"",""1"",""13749""
","
","","[{""page_index"":0,""viewing_time"":7114},{""page_index"":1,""viewing_time"":7789},{""page_index"":2,""viewing_time"":11164},{""page_index"":3,""viewing_time"":10233},{""page_index"":4,""viewing_time"":13936},{""page_index"":5,""viewing_time"":11036},{""page_index"":6,""viewing_time"":16813},{""page_index"":7,""viewing_time"":58889},{""page_index"":8,""viewing_time"":7006}]","143981","","","","","","","","","","","","","","","","","","","","","","","",""
"pit-comprehension","106","1280099","0.0-2.0-20.0-0.0","battery-v0.2","","""event"",""trial"",""time""
""fullscreenenter"",""1"",""13749""
""blur"",""3"",""38095""
""focus"",""3"",""42211""
""blur"",""105"",""1252765""
""focus"",""105"",""1257024""
","""event"",""trial"",""time""
""blur"",""3"",""38095""
""blur"",""105"",""1252765""
","""event"",""trial"",""time""
""focus"",""3"",""42211""
""focus"",""105"",""1257024""
","""event"",""trial"",""time""
""fullscreenenter"",""1"",""13749""
","
","","","13156","[""SPACE""]","0","20","12617","5540","","","","","","","","","","","","","","","","","","",""
"pit-instructions","107","1284986","0.0-2.0-20.0-1.0","battery-v0.2","","""event"",""trial"",""time""
""fullscreenenter"",""1"",""13749""
""blur"",""3"",""38095""
""focus"",""3"",""42211""
""blur"",""105"",""1252765""
""focus"",""105"",""1257024""
","""event"",""trial"",""time""
""blur"",""3"",""38095""
""blur"",""105"",""1252765""
","""event"",""trial"",""time""
""focus"",""3"",""42211""
""focus"",""105"",""1257024""
","""event"",""trial"",""time""
""fullscreenenter"",""1"",""13749""
","
","","[{""page_index"":0,""viewing_time"":4837}]","4837","","","","","","","","","","","","","","","","","","","","","","","",""
"pit-comprehension","108","1298666","0.0-2.0-21.0-0.0","battery-v0.2","","""event"",""trial"",""time""
""fullscreenenter"",""1"",""13749""
""blur"",""3"",""38095""
""focus"",""3"",""42211""
""blur"",""105"",""1252765""
""focus"",""105"",""1257024""
","""event"",""trial"",""time""
""blur"",""3"",""38095""
""blur"",""105"",""1252765""
","""event"",""trial"",""time""
""focus"",""3"",""42211""
""focus"",""105"",""1257024""
","""event"",""trial"",""time""
""fullscreenenter"",""1"",""13749""
","
","","","13674","[""10""]","0","20","12617","5540","","","","","","","","","","","","","","","","","","",""
"pit-instructions","109","1300801","0.0-2.0-21.0-1.0","battery-v0.2","","""event"",""trial"",""time""
""fullscreenenter"",""1"",""13749""
""blur"",""3"",""38095""
""focus"",""3"",""42211""
""blur"",""105"",""1252765""
""focus"",""105"",""1257024""
","""event"",""trial"",""time""
""blur"",""3"",""38095""
""blur"",""105"",""1252765""
","""event"",""trial"",""time""
""focus"",""3"",""42211""
""focus"",""105"",""1257024""
","""event"",""trial"",""time""
""fullscreenenter"",""1"",""13749""
","
","","[{""page_index"":0,""viewing_time"":2087}]","2088","","","","","","","","","","","","","","","","","","","","","","","",""
"pit-comprehension","110","1314206","0.0-2.0-22.0-0.0","battery-v0.2","","""event"",""trial"",""time""
""fullscreenenter"",""1"",""13749""
""blur"",""3"",""38095""
""focus"",""3"",""42211""
""blur"",""105"",""1252765""
""focus"",""105"",""1257024""
","""event"",""trial"",""time""
""blur"",""3"",""38095""
""blur"",""105"",""1252765""
","""event"",""trial"",""time""
""focus"",""3"",""42211""
""focus"",""105"",""1257024""
","""event"",""trial"",""time""
""fullscreenenter"",""1"",""13749""
","
","","","13400","[""5""]","1","20","12617","5540","","","","","","","","","","","","","","","","","","",""
"pit-instructions","111","1321724","0.0-2.0-22.0-1.0","battery-v0.2","","""event"",""trial"",""time""
""fullscreenenter"",""1"",""13749""
""blur"",""3"",""38095""
""focus"",""3"",""42211""
""blur"",""105"",""1252765""
""focus"",""105"",""1257024""
","""event"",""trial"",""time""
""blur"",""3"",""38095""
""blur"",""105"",""1252765""
","""event"",""trial"",""time""
""focus"",""3"",""42211""
""focus"",""105"",""1257024""
","""event"",""trial"",""time""
""fullscreenenter"",""1"",""13749""
","
","","[{""page_index"":0,""viewing_time"":7467}]","7468","","","","","","","","","","","","","","","","","","","","","","","",""
"pit-instructions","112","1322686","0.0-2.0-22.0-2.0-0.0","battery-v0.2","","""event"",""trial"",""time""
""fullscreenenter"",""1"",""13749""
""blur"",""3"",""38095""
""focus"",""3"",""42211""
""blur"",""105"",""1252765""
""focus"",""105"",""1257024""
","""event"",""trial"",""time""
""blur"",""3"",""38095""
""blur"",""105"",""1252765""
","""event"",""trial"",""time""
""focus"",""3"",""42211""
""focus"",""105"",""1257024""
","""event"",""trial"",""time""
""fullscreenenter"",""1"",""13749""
","
","","[{""page_index"":0,""viewing_time"":960}]","960","","","","","","","","","","","","","","","","","","","","","","","",""
"pit-comprehension","113","1329633","0.0-2.0-22.1-0.1","battery-v0.2","","""event"",""trial"",""time""
""fullscreenenter"",""1"",""13749""
""blur"",""3"",""38095""
""focus"",""3"",""42211""
""blur"",""105"",""1252765""
""focus"",""105"",""1257024""
","""event"",""trial"",""time""
""blur"",""3"",""38095""
""blur"",""105"",""1252765""
","""event"",""trial"",""time""
""focus"",""3"",""42211""
""focus"",""105"",""1257024""
","""event"",""trial"",""time""
""fullscreenenter"",""1"",""13749""
","
","","","6943","[""-10""]","1","20","12617","5540","","","","","","","","","","","","","","","","","","",""
"pit-instructions","114","1339314","0.0-2.0-22.1-1.1","battery-v0.2","","""event"",""trial"",""time""
""fullscreenenter"",""1"",""13749""
""blur"",""3"",""38095""
""focus"",""3"",""42211""
""blur"",""105"",""1252765""
""focus"",""105"",""1257024""
","""event"",""trial"",""time""
""blur"",""3"",""38095""
""blur"",""105"",""1252765""
","""event"",""trial"",""time""
""focus"",""3"",""42211""
""focus"",""105"",""1257024""
","""event"",""trial"",""time""
""fullscreenenter"",""1"",""13749""
","
","","[{""page_index"":0,""viewing_time"":9632}]","9632","","","","","","","","","","","","","","","","","","","","","","","",""
"pit-instructions","115","1341300","0.0-2.0-22.1-2.1-0.1","battery-v0.2","","""event"",""trial"",""time""
""fullscreenenter"",""1"",""13749""
""blur"",""3"",""38095""
""focus"",""3"",""42211""
""blur"",""105"",""1252765""
""focus"",""105"",""1257024""
","""event"",""trial"",""time""
""blur"",""3"",""38095""
""blur"",""105"",""1252765""
","""event"",""trial"",""time""
""focus"",""3"",""42211""
""focus"",""105"",""1257024""
","""event"",""trial"",""time""
""fullscreenenter"",""1"",""13749""
","
","","[{""page_index"":0,""viewing_time"":1983}]","1984","","","","","","","","","","","","","","","","","","","","","","","",""
"pit-comprehension","116","1348237","0.0-2.0-22.2-0.2","battery-v0.2","","""event"",""trial"",""time""
""fullscreenenter"",""1"",""13749""
""blur"",""3"",""38095""
""focus"",""3"",""42211""
""blur"",""105"",""1252765""
""focus"",""105"",""1257024""
","""event"",""trial"",""time""
""blur"",""3"",""38095""
""blur"",""105"",""1252765""
","""event"",""trial"",""time""
""focus"",""3"",""42211""
""focus"",""105"",""1257024""
","""event"",""trial"",""time""
""fullscreenenter"",""1"",""13749""
","
","","","6934","[""0""]","0","20","12617","5540","","","","","","","","","","","","","","","","","","",""
"pit-instructions","117","1355071","0.0-2.0-22.2-1.2","battery-v0.2","","""event"",""trial"",""time""
""fullscreenenter"",""1"",""13749""
""blur"",""3"",""38095""
""focus"",""3"",""42211""
""blur"",""105"",""1252765""
""focus"",""105"",""1257024""
","""event"",""trial"",""time""
""blur"",""3"",""38095""
""blur"",""105"",""1252765""
","""event"",""trial"",""time""
""focus"",""3"",""42211""
""focus"",""105"",""1257024""
","""event"",""trial"",""time""
""fullscreenenter"",""1"",""13749""
","
","","[{""page_index"":0,""viewing_time"":6785}]","6785","","","","","","","","","","","","","","","","","","","","","","","",""
"pit-comprehension","118","1372995","0.0-2.0-23.0-0.0","battery-v0.2","","""event"",""trial"",""time""
""fullscreenenter"",""1"",""13749""
""blur"",""3"",""38095""
""focus"",""3"",""42211""
""blur"",""105"",""1252765""
""focus"",""105"",""1257024""
","""event"",""trial"",""time""
""blur"",""3"",""38095""
""blur"",""105"",""1252765""
","""event"",""trial"",""time""
""focus"",""3"",""42211""
""focus"",""105"",""1257024""
","""event"",""trial"",""time""
""fullscreenenter"",""1"",""13749""
","
","","","17920","[""True""]","0","20","12617","5540","","","","","","","","","","","","","","","","","","",""
"pit-instructions","119","1375273","0.0-2.0-23.0-1.0","battery-v0.2","","""event"",""trial"",""time""
""fullscreenenter"",""1"",""13749""
""blur"",""3"",""38095""
""focus"",""3"",""42211""
""blur"",""105"",""1252765""
""focus"",""105"",""1257024""
","""event"",""trial"",""time""
""blur"",""3"",""38095""
""blur"",""105"",""1252765""
","""event"",""trial"",""time""
""focus"",""3"",""42211""
""focus"",""105"",""1257024""
","""event"",""trial"",""time""
""fullscreenenter"",""1"",""13749""
","
","","[{""page_index"":0,""viewing_time"":2235}]","2235","","","","","","","","","","","","","","","","","","","","","","","",""
"pit-comprehension","120","1388723","0.0-2.0-24.0-0.0","battery-v0.2","","""event"",""trial"",""time""
""fullscreenenter"",""1"",""13749""
""blur"",""3"",""38095""
""focus"",""3"",""42211""
""blur"",""105"",""1252765""
""focus"",""105"",""1257024""
","""event"",""trial"",""time""
""blur"",""3"",""38095""
""blur"",""105"",""1252765""
","""event"",""trial"",""time""
""focus"",""3"",""42211""
""focus"",""105"",""1257024""
","""event"",""trial"",""time""
""fullscreenenter"",""1"",""13749""
","
","","","13445","[""False""]","1","20","12617","5540","","","","","","","","","","","","","","","","","","",""
"pit-instructions","121","1396180","0.0-2.0-24.0-1.0","battery-v0.2","","""event"",""trial"",""time""
""fullscreenenter"",""1"",""13749""
""blur"",""3"",""38095""
""focus"",""3"",""42211""
""blur"",""105"",""1252765""
""focus"",""105"",""1257024""
","""event"",""trial"",""time""
""blur"",""3"",""38095""
""blur"",""105"",""1252765""
","""event"",""trial"",""time""
""focus"",""3"",""42211""
""focus"",""105"",""1257024""
","""event"",""trial"",""time""
""fullscreenenter"",""1"",""13749""
","
","","[{""page_index"":0,""viewing_time"":7404}]","7404","","","","","","","","","","","","","","","","","","","","","","","",""
"pit-instructions","122","1397287","0.0-2.0-24.0-2.0-0.0","battery-v0.2","","""event"",""trial"",""time""
""fullscreenenter"",""1"",""13749""
""blur"",""3"",""38095""
""focus"",""3"",""42211""
""blur"",""105"",""1252765""
""focus"",""105"",""1257024""
","""event"",""trial"",""time""
""blur"",""3"",""38095""
""blur"",""105"",""1252765""
","""event"",""trial"",""time""
""focus"",""3"",""42211""
""focus"",""105"",""1257024""
","""event"",""trial"",""time""
""fullscreenenter"",""1"",""13749""
","
","","[{""page_index"":0,""viewing_time"":1106}]","1106","","","","","","","","","","","","","","","","","","","","","","","",""
"pit-comprehension","123","1405220","0.0-2.0-24.1-0.1","battery-v0.2","","""event"",""trial"",""time""
""fullscreenenter"",""1"",""13749""
""blur"",""3"",""38095""
""focus"",""3"",""42211""
""blur"",""105"",""1252765""
""focus"",""105"",""1257024""
","""event"",""trial"",""time""
""blur"",""3"",""38095""
""blur"",""105"",""1252765""
","""event"",""trial"",""time""
""focus"",""3"",""42211""
""focus"",""105"",""1257024""
","""event"",""trial"",""time""
""fullscreenenter"",""1"",""13749""
","
","","","7928","[""True""]","0","20","12617","5540","","","","","","","","","","","","","","","","","","",""
"pit-instructions","124","1407916","0.0-2.0-24.1-1.1","battery-v0.2","","""event"",""trial"",""time""
""fullscreenenter"",""1"",""13749""
""blur"",""3"",""38095""
""focus"",""3"",""42211""
""blur"",""105"",""1252765""
""focus"",""105"",""1257024""
","""event"",""trial"",""time""
""blur"",""3"",""38095""
""blur"",""105"",""1252765""
","""event"",""trial"",""time""
""focus"",""3"",""42211""
""focus"",""105"",""1257024""
","""event"",""trial"",""time""
""fullscreenenter"",""1"",""13749""
","
","","[{""page_index"":0,""viewing_time"":2647}]","2648","","","","","","","","","","","","","","","","","","","","","","","",""
"pit-comprehension","125","1421668","0.0-2.0-25.0-0.0","battery-v0.2","","""event"",""trial"",""time""
""fullscreenenter"",""1"",""13749""
""blur"",""3"",""38095""
""focus"",""3"",""42211""
""blur"",""105"",""1252765""
""focus"",""105"",""1257024""
","""event"",""trial"",""time""
""blur"",""3"",""38095""
""blur"",""105"",""1252765""
","""event"",""trial"",""time""
""focus"",""3"",""42211""
""focus"",""105"",""1257024""
","""event"",""trial"",""time""
""fullscreenenter"",""1"",""13749""
","
","","","13748","[""True""]","0","20","12617","5540","","","","","","","","","","","","","","","","","","",""
"pit-instructions","126","1430407","0.0-2.0-25.0-1.0","battery-v0.2","","""event"",""trial"",""time""
""fullscreenenter"",""1"",""13749""
""blur"",""3"",""38095""
""focus"",""3"",""42211""
""blur"",""105"",""1252765""
""focus"",""105"",""1257024""
","""event"",""trial"",""time""
""blur"",""3"",""38095""
""blur"",""105"",""1252765""
","""event"",""trial"",""time""
""focus"",""3"",""42211""
""focus"",""105"",""1257024""
","""event"",""trial"",""time""
""fullscreenenter"",""1"",""13749""
","
","","[{""page_index"":0,""viewing_time"":8685}]","8685","","","","","","","","","","","","","","","","","","","","","","","",""
"pit-comprehension","127","1443528","0.0-2.0-26.0-0.0","battery-v0.2","","""event"",""trial"",""time""
""fullscreenenter"",""1"",""13749""
""blur"",""3"",""38095""
""focus"",""3"",""42211""
""blur"",""105"",""1252765""
""focus"",""105"",""1257024""
","""event"",""trial"",""time""
""blur"",""3"",""38095""
""blur"",""105"",""1252765""
","""event"",""trial"",""time""
""focus"",""3"",""42211""
""focus"",""105"",""1257024""
","""event"",""trial"",""time""
""fullscreenenter"",""1"",""13749""
","
","","","13118","[""True""]","1","20","12617","5540","","","","","","","","","","","","","","","","","","",""
"pit-instructions","128","1449378","0.0-2.0-26.0-1.0","battery-v0.2","","""event"",""trial"",""time""
""fullscreenenter"",""1"",""13749""
""blur"",""3"",""38095""
""focus"",""3"",""42211""
""blur"",""105"",""1252765""
""focus"",""105"",""1257024""
","""event"",""trial"",""time""
""blur"",""3"",""38095""
""blur"",""105"",""1252765""
","""event"",""trial"",""time""
""focus"",""3"",""42211""
""focus"",""105"",""1257024""
","""event"",""trial"",""time""
""fullscreenenter"",""1"",""13749""
","
","","[{""page_index"":0,""viewing_time"":5794}]","5795","","","","","","","","","","","","","","","","","","","","","","","",""
"pit-instructions","129","1450753","0.0-2.0-26.0-2.0-0.0","battery-v0.2","","""event"",""trial"",""time""
""fullscreenenter"",""1"",""13749""
""blur"",""3"",""38095""
""focus"",""3"",""42211""
""blur"",""105"",""1252765""
""focus"",""105"",""1257024""
","""event"",""trial"",""time""
""blur"",""3"",""38095""
""blur"",""105"",""1252765""
","""event"",""trial"",""time""
""focus"",""3"",""42211""
""focus"",""105"",""1257024""
","""event"",""trial"",""time""
""fullscreenenter"",""1"",""13749""
","
","","[{""page_index"":0,""viewing_time"":1373}]","1374","","","","","","","","","","","","","","","","","","","","","","","",""
"pit-comprehension","130","1455533","0.0-2.0-26.1-0.1","battery-v0.2","","""event"",""trial"",""time""
""fullscreenenter"",""1"",""13749""
""blur"",""3"",""38095""
""focus"",""3"",""42211""
""blur"",""105"",""1252765""
""focus"",""105"",""1257024""
","""event"",""trial"",""time""
""blur"",""3"",""38095""
""blur"",""105"",""1252765""
","""event"",""trial"",""time""
""focus"",""3"",""42211""
""focus"",""105"",""1257024""
","""event"",""trial"",""time""
""fullscreenenter"",""1"",""13749""
","
","","","4775","[""False""]","0","20","12617","5540","","","","","","","","","","","","","","","","","","",""
"pit-instructions","131","1458999","0.0-2.0-26.1-1.1","battery-v0.2","","""event"",""trial"",""time""
""fullscreenenter"",""1"",""13749""
""blur"",""3"",""38095""
""focus"",""3"",""42211""
""blur"",""105"",""1252765""
""focus"",""105"",""1257024""
","""event"",""trial"",""time""
""blur"",""3"",""38095""
""blur"",""105"",""1252765""
","""event"",""trial"",""time""
""focus"",""3"",""42211""
""focus"",""105"",""1257024""
","""event"",""trial"",""time""
""fullscreenenter"",""1"",""13749""
","
","","[{""page_index"":0,""viewing_time"":3417}]","3417","","","","","","","","","","","","","","","","","","","","","","","",""
"pit-instructions","132","1499322","0.0-3.0","battery-v0.2","","""event"",""trial"",""time""
""fullscreenenter"",""1"",""13749""
""blur"",""3"",""38095""
""focus"",""3"",""42211""
""blur"",""105"",""1252765""
""focus"",""105"",""1257024""
","""event"",""trial"",""time""
""blur"",""3"",""38095""
""blur"",""105"",""1252765""
","""event"",""trial"",""time""
""focus"",""3"",""42211""
""focus"",""105"",""1257024""
","""event"",""trial"",""time""
""fullscreenenter"",""1"",""13749""
","
","","[{""page_index"":0,""viewing_time"":14304},{""page_index"":1,""viewing_time"":12823},{""page_index"":2,""viewing_time"":13192}]","40319","","","","","","","","","","","","","","","","","","","","","","","",""
"pit-trial","133","1503337","0.0-4.0","battery-v0.2","","""event"",""trial"",""time""
""fullscreenenter"",""1"",""13749""
""blur"",""3"",""38095""
""focus"",""3"",""42211""
""blur"",""105"",""1252765""
""focus"",""105"",""1257024""
","""event"",""trial"",""time""
""blur"",""3"",""38095""
""blur"",""105"",""1252765""
","""event"",""trial"",""time""
""focus"",""3"",""42211""
""focus"",""105"",""1257024""
","""event"",""trial"",""time""
""fullscreenenter"",""1"",""13749""
","
","","","1157","","","20","12617","5540","&#9733;","elianto","#3366ff99","-1"," ","0","0","[2007]","1","1","","","12617","1","2","2","win","no-go","0"
"pit-trial","134","1506438","0.0-5.0","battery-v0.2","","""event"",""trial"",""time""
""fullscreenenter"",""1"",""13749""
""blur"",""3"",""38095""
""focus"",""3"",""42211""
""blur"",""105"",""1252765""
""focus"",""105"",""1257024""
","""event"",""trial"",""time""
""blur"",""3"",""38095""
""blur"",""105"",""1252765""
","""event"",""trial"",""time""
""focus"",""3"",""42211""
""focus"",""105"",""1257024""
","""event"",""trial"",""time""
""fullscreenenter"",""1"",""13749""
","
","","","244","","","20","12617","5540","&#9728;","elianto","#f73b6a7A","-1"," ","0","-10","[1094]","1","1","","","12617","2","0","4","lose","no-go","0"
"pit-trial","135","1509884","0.0-6.0","battery-v0.2","","""event"",""trial"",""time""
""fullscreenenter"",""1"",""13749""
""blur"",""3"",""38095""
""focus"",""3"",""42211""
""blur"",""105"",""1252765""
""focus"",""105"",""1257024""
","""event"",""trial"",""time""
""blur"",""3"",""38095""
""blur"",""105"",""1252765""
","""event"",""trial"",""time""
""focus"",""3"",""42211""
""focus"",""105"",""1257024""
","""event"",""trial"",""time""
""fullscreenenter"",""1"",""13749""
","
","","","591","","","20","12617","5540","&#9730;","elianto","#3366ff99"," "," ","1","+10","[1440]","1","1","","","12617","3","1","1","win","go","0"
"pit-trial","136","1514740","0.0-7.0","battery-v0.2","","""event"",""trial"",""time""
""fullscreenenter"",""1"",""13749""
""blur"",""3"",""38095""
""focus"",""3"",""42211""
""blur"",""105"",""1252765""
""focus"",""105"",""1257024""
","""event"",""trial"",""time""
""blur"",""3"",""38095""
""blur"",""105"",""1252765""
","""event"",""trial"",""time""
""focus"",""3"",""42211""
""focus"",""105"",""1257024""
","""event"",""trial"",""time""
""fullscreenenter"",""1"",""13749""
","
","","","-1","","","20","12617","5540","&#9752;","elianto","#f73b6a7A"," ","-1","0","0","[]","0","1","","","12617","4","3","3","lose","go","1"
"pit-trial","137","1519595","0.0-8.0","battery-v0.2","","""event"",""trial"",""time""
""fullscreenenter"",""1"",""13749""
""blur"",""3"",""38095""
""focus"",""3"",""42211""
""blur"",""105"",""1252765""
""focus"",""105"",""1257024""
","""event"",""trial"",""time""
""blur"",""3"",""38095""
""blur"",""105"",""1252765""
","""event"",""trial"",""time""
""focus"",""3"",""42211""
""focus"",""105"",""1257024""
","""event"",""trial"",""time""
""fullscreenenter"",""1"",""13749""
","
","","","-1","","","20","12617","5540","&#9728;","elianto","#f73b6a7A","-1","-1","1","0","[]","0","1","","","12617","5","0","4","lose","no-go","0"
"pit-trial","138","1522945","0.0-9.0","battery-v0.2","","""event"",""trial"",""time""
""fullscreenenter"",""1"",""13749""
""blur"",""3"",""38095""
""focus"",""3"",""42211""
""blur"",""105"",""1252765""
""focus"",""105"",""1257024""
","""event"",""trial"",""time""
""blur"",""3"",""38095""
""blur"",""105"",""1252765""
","""event"",""trial"",""time""
""focus"",""3"",""42211""
""focus"",""105"",""1257024""
","""event"",""trial"",""time""
""fullscreenenter"",""1"",""13749""
","
","","","492","","","20","12617","5540","&#9733;","elianto","#3366ff99","-1"," ","0","0","[1343]","1","1","","","12617","6","2","2","win","no-go","0"
"pit-trial","139","1526467","0.0-10.0","battery-v0.2","","""event"",""trial"",""time""
""fullscreenenter"",""1"",""13749""
""blur"",""3"",""38095""
""focus"",""3"",""42211""
""blur"",""105"",""1252765""
""focus"",""105"",""1257024""
","""event"",""trial"",""time""
""blur"",""3"",""38095""
""blur"",""105"",""1252765""
","""event"",""trial"",""time""
""focus"",""3"",""42211""
""focus"",""105"",""1257024""
","""event"",""trial"",""time""
""fullscreenenter"",""1"",""13749""
","
","","","667","","","20","12617","5540","&#9730;","elianto","#3366ff99"," "," ","1","+10","[1518]","1","1","","","12617","7","1","1","win","go","0"
"pit-trial","140","1531060","0.0-11.0","battery-v0.2","","""event"",""trial"",""time""
""fullscreenenter"",""1"",""13749""
""blur"",""3"",""38095""
""focus"",""3"",""42211""
""blur"",""105"",""1252765""
""focus"",""105"",""1257024""
","""event"",""trial"",""time""
""blur"",""3"",""38095""
""blur"",""105"",""1252765""
","""event"",""trial"",""time""
""focus"",""3"",""42211""
""focus"",""105"",""1257024""
","""event"",""trial"",""time""
""fullscreenenter"",""1"",""13749""
","
","","","1737","","","20","12617","5540","&#9752;","elianto","#f73b6a7A"," "," ","1","0","[2588]","1","1","","","12617","8","3","3","lose","go","0"
"pit-trial","141","1534729","0.0-12.0","battery-v0.2","","""event"",""trial"",""time""
""fullscreenenter"",""1"",""13749""
""blur"",""3"",""38095""
""focus"",""3"",""42211""
""blur"",""105"",""1252765""
""focus"",""105"",""1257024""
","""event"",""trial"",""time""
""blur"",""3"",""38095""
""blur"",""105"",""1252765""
","""event"",""trial"",""time""
""focus"",""3"",""42211""
""focus"",""105"",""1257024""
","""event"",""trial"",""time""
""fullscreenenter"",""1"",""13749""
","
","","","814","","","20","12617","5540","&#9728;","elianto","#f73b6a7A","-1"," ","0","-10","[1665]","1","1","","","12617","9","0","4","lose","no-go","0"
"pit-trial","142","1538190","0.0-13.0","battery-v0.2","","""event"",""trial"",""time""
""fullscreenenter"",""1"",""13749""
""blur"",""3"",""38095""
""focus"",""3"",""42211""
""blur"",""105"",""1252765""
""focus"",""105"",""1257024""
","""event"",""trial"",""time""
""blur"",""3"",""38095""
""blur"",""105"",""1252765""
","""event"",""trial"",""time""
""focus"",""3"",""42211""
""focus"",""105"",""1257024""
","""event"",""trial"",""time""
""fullscreenenter"",""1"",""13749""
","
","","","605","","","20","12617","5540","&#9733;","elianto","#3366ff99","-1"," ","0","0","[1455]","1","1","","","12617","10","2","2","win","no-go","0"
"pit-trial","143","1541650","0.0-14.0","battery-v0.2","","""event"",""trial"",""time""
""fullscreenenter"",""1"",""13749""
""blur"",""3"",""38095""
""focus"",""3"",""42211""
""blur"",""105"",""1252765""
""focus"",""105"",""1257024""
","""event"",""trial"",""time""
""blur"",""3"",""38095""
""blur"",""105"",""1252765""
","""event"",""trial"",""time""
""focus"",""3"",""42211""
""focus"",""105"",""1257024""
","""event"",""trial"",""time""
""fullscreenenter"",""1"",""13749""
","
","","","605","","","20","12617","5540","&#9730;","elianto","#3366ff99"," "," ","1","0","[1454]","1","1","","","12617","11","1","1","win","go","1"
"pit-trial","144","1546506","0.0-15.0","battery-v0.2","","""event"",""trial"",""time""
""fullscreenenter"",""1"",""13749""
""blur"",""3"",""38095""
""focus"",""3"",""42211""
""blur"",""105"",""1252765""
""focus"",""105"",""1257024""
","""event"",""trial"",""time""
""blur"",""3"",""38095""
""blur"",""105"",""1252765""
","""event"",""trial"",""time""
""focus"",""3"",""42211""
""focus"",""105"",""1257024""
","""event"",""trial"",""time""
""fullscreenenter"",""1"",""13749""
","
","","","-1","","","20","12617","5540","&#9752;","elianto","#f73b6a7A"," ","-1","0","-10","[]","0","1","","","12617","12","3","3","lose","go","0"
"pit-trial","145","1551362","0.0-16.0","battery-v0.2","","""event"",""trial"",""time""
""fullscreenenter"",""1"",""13749""
""blur"",""3"",""38095""
""focus"",""3"",""42211""
""blur"",""105"",""1252765""
""focus"",""105"",""1257024""
","""event"",""trial"",""time""
""blur"",""3"",""38095""
""blur"",""105"",""1252765""
","""event"",""trial"",""time""
""focus"",""3"",""42211""
""focus"",""105"",""1257024""
","""event"",""trial"",""time""
""fullscreenenter"",""1"",""13749""
","
","","","-1","","","20","12617","5540","&#9728;","elianto","#f73b6a7A","-1","-1","1","0","[]","0","1","","","12617","13","0","4","lose","no-go","0"
"pit-trial","146","1554728","0.0-17.0","battery-v0.2","","""event"",""trial"",""time""
""fullscreenenter"",""1"",""13749""
""blur"",""3"",""38095""
""focus"",""3"",""42211""
""blur"",""105"",""1252765""
""focus"",""105"",""1257024""
","""event"",""trial"",""time""
""blur"",""3"",""38095""
""blur"",""105"",""1252765""
","""event"",""trial"",""time""
""focus"",""3"",""42211""
""focus"",""105"",""1257024""
","""event"",""trial"",""time""
""fullscreenenter"",""1"",""13749""
","
","","","509","","","20","12617","5540","&#9730;","elianto","#3366ff99"," "," ","1","+10","[1360]","1","1","","","12617","14","1","1","win","go","0"
"pit-trial","147","1558119","0.0-18.0","battery-v0.2","","""event"",""trial"",""time""
""fullscreenenter"",""1"",""13749""
""blur"",""3"",""38095""
""focus"",""3"",""42211""
""blur"",""105"",""1252765""
""focus"",""105"",""1257024""
","""event"",""trial"",""time""
""blur"",""3"",""38095""
""blur"",""105"",""1252765""
","""event"",""trial"",""time""
""focus"",""3"",""42211""
""focus"",""105"",""1257024""
","""event"",""trial"",""time""
""fullscreenenter"",""1"",""13749""
","
","","","533","","","20","12617","5540","&#9733;","elianto","#3366ff99","-1"," ","0","0","[1384]","1","1","","","12617","15","2","2","win","no-go","0"
"pit-trial","148","1562975","0.0-19.0","battery-v0.2","","""event"",""trial"",""time""
""fullscreenenter"",""1"",""13749""
""blur"",""3"",""38095""
""focus"",""3"",""42211""
""blur"",""105"",""1252765""
""focus"",""105"",""1257024""
","""event"",""trial"",""time""
""blur"",""3"",""38095""
""blur"",""105"",""1252765""
","""event"",""trial"",""time""
""focus"",""3"",""42211""
""focus"",""105"",""1257024""
","""event"",""trial"",""time""
""fullscreenenter"",""1"",""13749""
","
","","","-1","","","20","12617","5540","&#9752;","elianto","#f73b6a7A"," ","-1","0","-10","[]","0","1","","","12617","16","3","3","lose","go","0"
"pit-trial","149","1566579","0.0-20.0","battery-v0.2","","""event"",""trial"",""time""
""fullscreenenter"",""1"",""13749""
""blur"",""3"",""38095""
""focus"",""3"",""42211""
""blur"",""105"",""1252765""
""focus"",""105"",""1257024""
","""event"",""trial"",""time""
""blur"",""3"",""38095""
""blur"",""105"",""1252765""
","""event"",""trial"",""time""
""focus"",""3"",""42211""
""focus"",""105"",""1257024""
","""event"",""trial"",""time""
""fullscreenenter"",""1"",""13749""
","
","","","748","","","20","12617","5540","&#9752;","elianto","#f73b6a7A"," "," ","1","0","[1600]","1","1","","","12617","17","3","3","lose","go","0"
"pit-trial","150","1571434","0.0-21.0","battery-v0.2","","""event"",""trial"",""time""
""fullscreenenter"",""1"",""13749""
""blur"",""3"",""38095""
""focus"",""3"",""42211""
""blur"",""105"",""1252765""
""focus"",""105"",""1257024""
","""event"",""trial"",""time""
""blur"",""3"",""38095""
""blur"",""105"",""1252765""
","""event"",""trial"",""time""
""focus"",""3"",""42211""
""focus"",""105"",""1257024""
","""event"",""trial"",""time""
""fullscreenenter"",""1"",""13749""
","
","","","-1","","","20","12617","5540","&#9728;","elianto","#f73b6a7A","-1","-1","1","0","[]","0","1","","","12617","18","0","4","lose","no-go","0"
"pit-trial","151","1574739","0.0-22.0","battery-v0.2","","""event"",""trial"",""time""
""fullscreenenter"",""1"",""13749""
""blur"",""3"",""38095""
""focus"",""3"",""42211""
""blur"",""105"",""1252765""
""focus"",""105"",""1257024""
","""event"",""trial"",""time""
""blur"",""3"",""38095""
""blur"",""105"",""1252765""
","""event"",""trial"",""time""
""focus"",""3"",""42211""
""focus"",""105"",""1257024""
","""event"",""trial"",""time""
""fullscreenenter"",""1"",""13749""
","
","","","450","","","20","12617","5540","&#9733;","elianto","#3366ff99","-1"," ","0","+10","[1301]","1","1","","","12617","19","2","2","win","no-go","1"
"pit-trial","152","1578251","0.0-23.0","battery-v0.2","","""event"",""trial"",""time""
""fullscreenenter"",""1"",""13749""
""blur"",""3"",""38095""
""focus"",""3"",""42211""
""blur"",""105"",""1252765""
""focus"",""105"",""1257024""
","""event"",""trial"",""time""
""blur"",""3"",""38095""
""blur"",""105"",""1252765""
","""event"",""trial"",""time""
""focus"",""3"",""42211""
""focus"",""105"",""1257024""
","""event"",""trial"",""time""
""fullscreenenter"",""1"",""13749""
","
","","","657","","","20","12617","5540","&#9730;","elianto","#3366ff99"," "," ","1","+10","[1507]","1","1","","","12617","20","1","1","win","go","0"
"pit-instructions","153","1592586","0.0-24.0","battery-v0.2","","""event"",""trial"",""time""
""fullscreenenter"",""1"",""13749""
""blur"",""3"",""38095""
""focus"",""3"",""42211""
""blur"",""105"",""1252765""
""focus"",""105"",""1257024""
","""event"",""trial"",""time""
""blur"",""3"",""38095""
""blur"",""105"",""1252765""
","""event"",""trial"",""time""
""focus"",""3"",""42211""
""focus"",""105"",""1257024""
","""event"",""trial"",""time""
""fullscreenenter"",""1"",""13749""
","
","","[{""page_index"":0,""viewing_time"":6423},{""page_index"":1,""viewing_time"":7908}]","14331","","","","","","","","","","","","","","","","","","","","","","","",""
"pit-trial","154","1597440","0.0-25.0","battery-v0.2","","""event"",""trial"",""time""
""fullscreenenter"",""1"",""13749""
""blur"",""3"",""38095""
""focus"",""3"",""42211""
""blur"",""105"",""1252765""
""focus"",""105"",""1257024""
","""event"",""trial"",""time""
""blur"",""3"",""38095""
""blur"",""105"",""1252765""
","""event"",""trial"",""time""
""focus"",""3"",""42211""
""focus"",""105"",""1257024""
","""event"",""trial"",""time""
""fullscreenenter"",""1"",""13749""
","
","","","-1","","","20","12617","5540","j","elianto","#f73b6a7A"," ","-1","0","-10","[]","0","2","","","12617","21","0","3","lose","go","0"
"pit-trial","155","1602296","0.0-26.0","battery-v0.2","","""event"",""trial"",""time""
""fullscreenenter"",""1"",""13749""
""blur"",""3"",""38095""
""focus"",""3"",""42211""
""blur"",""105"",""1252765""
""focus"",""105"",""1257024""
","""event"",""trial"",""time""
""blur"",""3"",""38095""
""blur"",""105"",""1252765""
","""event"",""trial"",""time""
""focus"",""3"",""42211""
""focus"",""105"",""1257024""
","""event"",""trial"",""time""
""fullscreenenter"",""1"",""13749""
","
","","","-1","","","20","12617","5540","e","elianto","#f73b6a7A"," ","-1","0","-10","[]","0","2","","","12617","22","2","3","lose","go","0"
"pit-trial","156","1607152","0.0-27.0","battery-v0.2","","""event"",""trial"",""time""
""fullscreenenter"",""1"",""13749""
""blur"",""3"",""38095""
""focus"",""3"",""42211""
""blur"",""105"",""1252765""
""focus"",""105"",""1257024""
","""event"",""trial"",""time""
""blur"",""3"",""38095""
""blur"",""105"",""1252765""
","""event"",""trial"",""time""
""focus"",""3"",""42211""
""focus"",""105"",""1257024""
","""event"",""trial"",""time""
""fullscreenenter"",""1"",""13749""
","
","","","-1","","","20","12617","5540","w","elianto","#f73b6a7A","-1","-1","1","0","[]","0","2","","","12617","23","3","4","lose","no-go","0"
"pit-trial","157","1612006","0.0-28.0","battery-v0.2","","""event"",""trial"",""time""
""fullscreenenter"",""1"",""13749""
""blur"",""3"",""38095""
""focus"",""3"",""42211""
""blur"",""105"",""1252765""
""focus"",""105"",""1257024""
","""event"",""trial"",""time""
""blur"",""3"",""38095""
""blur"",""105"",""1252765""
","""event"",""trial"",""time""
""focus"",""3"",""42211""
""focus"",""105"",""1257024""
","""event"",""trial"",""time""
""fullscreenenter"",""1"",""13749""
","
","","","-1","","","20","12617","5540","d","elianto","#3366ff99","-1","-1","1","+10","[4234]","1","2","","","12617","24","1","2","win","no-go","0"
"pit-trial","158","1616862","0.0-29.0","battery-v0.2","","""event"",""trial"",""time""
""fullscreenenter"",""1"",""13749""
""blur"",""3"",""38095""
""focus"",""3"",""42211""
""blur"",""105"",""1252765""
""focus"",""105"",""1257024""
","""event"",""trial"",""time""
""blur"",""3"",""38095""
""blur"",""105"",""1252765""
","""event"",""trial"",""time""
""focus"",""3"",""42211""
""focus"",""105"",""1257024""
","""event"",""trial"",""time""
""fullscreenenter"",""1"",""13749""
","
","","","-1","","","20","12617","5540","e","elianto","#f73b6a7A"," ","-1","0","0","[]","0","2","","","12617","25","2","3","lose","go","1"
"pit-trial","159","1621718","0.0-30.0","battery-v0.2","","""event"",""trial"",""time""
""fullscreenenter"",""1"",""13749""
""blur"",""3"",""38095""
""focus"",""3"",""42211""
""blur"",""105"",""1252765""
""focus"",""105"",""1257024""
","""event"",""trial"",""time""
""blur"",""3"",""38095""
""blur"",""105"",""1252765""
","""event"",""trial"",""time""
""focus"",""3"",""42211""
""focus"",""105"",""1257024""
","""event"",""trial"",""time""
""fullscreenenter"",""1"",""13749""
","
","","","-1","","","20","12617","5540","j","elianto","#f73b6a7A"," ","-1","0","-10","[]","0","2","","","12617","26","0","3","lose","go","0"
"pit-trial","160","1625111","0.0-31.0","battery-v0.2","","""event"",""trial"",""time""
""fullscreenenter"",""1"",""13749""
""blur"",""3"",""38095""
""focus"",""3"",""42211""
""blur"",""105"",""1252765""
""focus"",""105"",""1257024""
","""event"",""trial"",""time""
""blur"",""3"",""38095""
""blur"",""105"",""1252765""
","""event"",""trial"",""time""
""focus"",""3"",""42211""
""focus"",""105"",""1257024""
","""event"",""trial"",""time""
""fullscreenenter"",""1"",""13749""
","
","","","535","","","20","12617","5540","d","elianto","#3366ff99","-1"," ","0","0","[1386]","1","2","","","12617","27","1","2","win","no-go","0"
"pit-trial","161","1629966","0.0-32.0","battery-v0.2","","""event"",""trial"",""time""
""fullscreenenter"",""1"",""13749""
""blur"",""3"",""38095""
""focus"",""3"",""42211""
""blur"",""105"",""1252765""
""focus"",""105"",""1257024""
","""event"",""trial"",""time""
""blur"",""3"",""38095""
""blur"",""105"",""1252765""
","""event"",""trial"",""time""
""focus"",""3"",""42211""
""focus"",""105"",""1257024""
","""event"",""trial"",""time""
""fullscreenenter"",""1"",""13749""
","
","","","-1","","","20","12617","5540","w","elianto","#f73b6a7A","-1","-1","1","0","[]","0","2","","","12617","28","3","4","lose","no-go","0"
"pit-trial","162","1634822","0.0-33.0","battery-v0.2","","""event"",""trial"",""time""
""fullscreenenter"",""1"",""13749""
""blur"",""3"",""38095""
""focus"",""3"",""42211""
""blur"",""105"",""1252765""
""focus"",""105"",""1257024""
","""event"",""trial"",""time""
""blur"",""3"",""38095""
""blur"",""105"",""1252765""
","""event"",""trial"",""time""
""focus"",""3"",""42211""
""focus"",""105"",""1257024""
","""event"",""trial"",""time""
""fullscreenenter"",""1"",""13749""
","
","","","-1","","","20","12617","5540","j","elianto","#f73b6a7A"," ","-1","0","-10","[]","0","2","","","12617","29","0","3","lose","go","0"
"pit-trial","163","1639680","0.0-34.0","battery-v0.2","","""event"",""trial"",""time""
""fullscreenenter"",""1"",""13749""
""blur"",""3"",""38095""
""focus"",""3"",""42211""
""blur"",""105"",""1252765""
""focus"",""105"",""1257024""
","""event"",""trial"",""time""
""blur"",""3"",""38095""
""blur"",""105"",""1252765""
","""event"",""trial"",""time""
""focus"",""3"",""42211""
""focus"",""105"",""1257024""
","""event"",""trial"",""time""
""fullscreenenter"",""1"",""13749""
","
","","","-1","","","20","12617","5540","e","elianto","#f73b6a7A"," ","-1","0","-10","[]","0","2","","","12617","30","2","3","lose","go","0"
"pit-trial","164","1643049","0.0-35.0","battery-v0.2","","""event"",""trial"",""time""
""fullscreenenter"",""1"",""13749""
""blur"",""3"",""38095""
""focus"",""3"",""42211""
""blur"",""105"",""1252765""
""focus"",""105"",""1257024""
","""event"",""trial"",""time""
""blur"",""3"",""38095""
""blur"",""105"",""1252765""
","""event"",""trial"",""time""
""focus"",""3"",""42211""
""focus"",""105"",""1257024""
","""event"",""trial"",""time""
""fullscreenenter"",""1"",""13749""
","
","","","516","","","20","12617","5540","d","elianto","#3366ff99","-1"," ","0","0","[1366]","1","2","","","12617","31","1","2","win","no-go","0"
"pit-trial","165","1647903","0.0-36.0","battery-v0.2","","""event"",""trial"",""time""
""fullscreenenter"",""1"",""13749""
""blur"",""3"",""38095""
""focus"",""3"",""42211""
""blur"",""105"",""1252765""
""focus"",""105"",""1257024""
","""event"",""trial"",""time""
""blur"",""3"",""38095""
""blur"",""105"",""1252765""
","""event"",""trial"",""time""
""focus"",""3"",""42211""
""focus"",""105"",""1257024""
","""event"",""trial"",""time""
""fullscreenenter"",""1"",""13749""
","
","","","-1","","","20","12617","5540","w","elianto","#f73b6a7A","-1","-1","1","0","[]","0","2","","","12617","32","3","4","lose","no-go","0"
"pit-trial","166","1651684","0.0-37.0","battery-v0.2","","""event"",""trial"",""time""
""fullscreenenter"",""1"",""13749""
""blur"",""3"",""38095""
""focus"",""3"",""42211""
""blur"",""105"",""1252765""
""focus"",""105"",""1257024""
","""event"",""trial"",""time""
""blur"",""3"",""38095""
""blur"",""105"",""1252765""
","""event"",""trial"",""time""
""focus"",""3"",""42211""
""focus"",""105"",""1257024""
","""event"",""trial"",""time""
""fullscreenenter"",""1"",""13749""
","
","","","925","","","20","12617","5540","d","elianto","#3366ff99","-1"," ","0","0","[1775]","1","2","","","12617","33","1","2","win","no-go","0"
"pit-trial","167","1656540","0.0-38.0","battery-v0.2","","""event"",""trial"",""time""
""fullscreenenter"",""1"",""13749""
""blur"",""3"",""38095""
""focus"",""3"",""42211""
""blur"",""105"",""1252765""
""focus"",""105"",""1257024""
","""event"",""trial"",""time""
""blur"",""3"",""38095""
""blur"",""105"",""1252765""
","""event"",""trial"",""time""
""focus"",""3"",""42211""
""focus"",""105"",""1257024""
","""event"",""trial"",""time""
""fullscreenenter"",""1"",""13749""
","
","","","-1","","","20","12617","5540","j","elianto","#f73b6a7A"," ","-1","0","0","[]","0","2","","","12617","34","0","3","lose","go","1"
"pit-trial","168","1661397","0.0-39.0","battery-v0.2","","""event"",""trial"",""time""
""fullscreenenter"",""1"",""13749""
""blur"",""3"",""38095""
""focus"",""3"",""42211""
""blur"",""105"",""1252765""
""focus"",""105"",""1257024""
","""event"",""trial"",""time""
""blur"",""3"",""38095""
""blur"",""105"",""1252765""
","""event"",""trial"",""time""
""focus"",""3"",""42211""
""focus"",""105"",""1257024""
","""event"",""trial"",""time""
""fullscreenenter"",""1"",""13749""
","
","","","-1","","","20","12617","5540","e","elianto","#f73b6a7A"," ","-1","0","0","[]","0","2","","","12617","35","2","3","lose","go","1"
"pit-trial","169","1666253","0.0-40.0","battery-v0.2","","""event"",""trial"",""time""
""fullscreenenter"",""1"",""13749""
""blur"",""3"",""38095""
""focus"",""3"",""42211""
""blur"",""105"",""1252765""
""focus"",""105"",""1257024""
","""event"",""trial"",""time""
""blur"",""3"",""38095""
""blur"",""105"",""1252765""
","""event"",""trial"",""time""
""focus"",""3"",""42211""
""focus"",""105"",""1257024""
","""event"",""trial"",""time""
""fullscreenenter"",""1"",""13749""
","
","","","-1","","","20","12617","5540","w","elianto","#f73b6a7A","-1","-1","1","0","[]","0","2","","","12617","36","3","4","lose","no-go","0"
"pit-trial","170","1669611","0.0-41.0","battery-v0.2","","""event"",""trial"",""time""
""fullscreenenter"",""1"",""13749""
""blur"",""3"",""38095""
""focus"",""3"",""42211""
""blur"",""105"",""1252765""
""focus"",""105"",""1257024""
","""event"",""trial"",""time""
""blur"",""3"",""38095""
""blur"",""105"",""1252765""
","""event"",""trial"",""time""
""focus"",""3"",""42211""
""focus"",""105"",""1257024""
","""event"",""trial"",""time""
""fullscreenenter"",""1"",""13749""
","
","","","500","","","20","12617","5540","d","elianto","#3366ff99","-1"," ","0","0","[1352]","1","2","","","12617","37","1","2","win","no-go","0"
"pit-trial","171","1674467","0.0-42.0","battery-v0.2","","""event"",""trial"",""time""
""fullscreenenter"",""1"",""13749""
""blur"",""3"",""38095""
""focus"",""3"",""42211""
""blur"",""105"",""1252765""
""focus"",""105"",""1257024""
","""event"",""trial"",""time""
""blur"",""3"",""38095""
""blur"",""105"",""1252765""
","""event"",""trial"",""time""
""focus"",""3"",""42211""
""focus"",""105"",""1257024""
","""event"",""trial"",""time""
""fullscreenenter"",""1"",""13749""
","
","","","-1","","","20","12617","5540","e","elianto","#f73b6a7A"," ","-1","0","-10","[]","0","2","","","12617","38","2","3","lose","go","0"
"pit-trial","172","1678319","0.0-43.0","battery-v0.2","","""event"",""trial"",""time""
""fullscreenenter"",""1"",""13749""
""blur"",""3"",""38095""
""focus"",""3"",""42211""
""blur"",""105"",""1252765""
""focus"",""105"",""1257024""
","""event"",""trial"",""time""
""blur"",""3"",""38095""
""blur"",""105"",""1252765""
","""event"",""trial"",""time""
""focus"",""3"",""42211""
""focus"",""105"",""1257024""
","""event"",""trial"",""time""
""fullscreenenter"",""1"",""13749""
","
","","","998","","","20","12617","5540","j","elianto","#f73b6a7A"," "," ","1","0","[1848]","1","2","","","12617","39","0","3","lose","go","0"
"pit-trial","173","1683173","0.0-44.0","battery-v0.2","","""event"",""trial"",""time""
""fullscreenenter"",""1"",""13749""
""blur"",""3"",""38095""
""focus"",""3"",""42211""
""blur"",""105"",""1252765""
""focus"",""105"",""1257024""
","""event"",""trial"",""time""
""blur"",""3"",""38095""
""blur"",""105"",""1252765""
","""event"",""trial"",""time""
""focus"",""3"",""42211""
""focus"",""105"",""1257024""
","""event"",""trial"",""time""
""fullscreenenter"",""1"",""13749""
","
","","","-1","","","20","12617","5540","w","elianto","#f73b6a7A","-1","-1","1","0","[]","0","2","","","12617","40","3","4","lose","no-go","0"
