"trial_type","trial_index","time_elapsed","internal_node_id","task_version","subject_id","interactions","blur_events","focus_events","fullscreenenter_events","fullscreenexit_events","success","view_history","rt","responses","num_errors","age","subject","participantId","rune","rune_set","hex","correct","choice","accuracy","outcome","keys","total_keys","block","practice","value","sub","trial","stimulus","robot","valence","action","sham"
"pavlovia","0","19","0.0-0.0","battery-v0.2","","""event"",""trial"",""time""
""fullscreenenter"",""1"",""6836""
","
","
","""event"",""trial"",""time""
""fullscreenenter"",""1"",""6836""
","
","","","","","","","","","","","","","","","","","","","","","","","","","","",""
"fullscreen","1","7816","0.0-1.0","battery-v0.2","","""event"",""trial"",""time""
""fullscreenenter"",""1"",""6836""
","
","
","""event"",""trial"",""time""
""fullscreenenter"",""1"",""6836""
","
","true","","","","","","","","","","","","","","","","","","","","","","","","","",""
"pit-instructions","2","32186","0.0-2.0-0.0","battery-v0.2","","""event"",""trial"",""time""
""fullscreenenter"",""1"",""6836""
","
","
","""event"",""trial"",""time""
""fullscreenenter"",""1"",""6836""
","
","","[{""page_index"":0,""viewing_time"":24363.900000000023}]","24364.600000000093","","","","","","","","","","","","","","","","","","","","","","","",""
"pit-comprehension","3","47791","0.0-2.0-1.0-0.0","battery-v0.2","","""event"",""trial"",""time""
""fullscreenenter"",""1"",""6836""
","
","
","""event"",""trial"",""time""
""fullscreenenter"",""1"",""6836""
","
","","","15600.70000000007","[""shark""]","0","10","11526","5285","","","","","","","","","","","","","","","","","","",""
"pit-instructions","4","50019","0.0-2.0-1.0-1.0","battery-v0.2","","""event"",""trial"",""time""
""fullscreenenter"",""1"",""6836""
","
","
","""event"",""trial"",""time""
""fullscreenenter"",""1"",""6836""
","
","","[{""page_index"":0,""viewing_time"":2221}]","2221.4000000000233","","","","","","","","","","","","","","","","","","","","","","","",""
"pit-comprehension","5","53786","0.0-2.0-2.0-0.0","battery-v0.2","","""event"",""trial"",""time""
""fullscreenenter"",""1"",""6836""
","
","
","""event"",""trial"",""time""
""fullscreenenter"",""1"",""6836""
","
","","","3764","[""tiger""]","0","10","11526","5285","","","","","","","","","","","","","","","","","","",""
"pit-instructions","6","55862","0.0-2.0-2.0-1.0","battery-v0.2","","""event"",""trial"",""time""
""fullscreenenter"",""1"",""6836""
","
","
","""event"",""trial"",""time""
""fullscreenenter"",""1"",""6836""
","
","","[{""page_index"":0,""viewing_time"":2073.5999999999767}]","2074","","","","","","","","","","","","","","","","","","","","","","","",""
"pit-instructions","7","162159","0.0-2.0-3.0","battery-v0.2","","""event"",""trial"",""time""
""fullscreenenter"",""1"",""6836""
","
","
","""event"",""trial"",""time""
""fullscreenenter"",""1"",""6836""
","
","","[{""page_index"":0,""viewing_time"":8624.400000000023},{""page_index"":1,""viewing_time"":7932.900000000023},{""page_index"":2,""viewing_time"":6650.699999999953},{""page_index"":3,""viewing_time"":5634.400000000023},{""page_index"":4,""viewing_time"":6207.400000000023},{""page_index"":5,""viewing_time"":6133.5},{""page_index"":6,""viewing_time"":10054.699999999953},{""page_index"":7,""viewing_time"":7630.600000000093},{""page_index"":8,""viewing_time"":6362.699999999953},{""page_index"":9,""viewing_time"":8473.099999999977},{""page_index"":10,""viewing_time"":8113.20000000007},{""page_index"":11,""viewing_time"":10010.29999999993},{""page_index"":12,""viewing_time"":8411.5},{""page_index"":13,""viewing_time"":6054.800000000047}]","106294.6000000001","","","","","","","","","","","","","","","","","","","","","","","",""
"pit-trial","8","166382","0.0-2.0-4.0-0.0","battery-v0.2","","""event"",""trial"",""time""
""fullscreenenter"",""1"",""6836""
","
","
","""event"",""trial"",""time""
""fullscreenenter"",""1"",""6836""
","
","","","1358.8000000000466","","","10","11526","5285","&#9784;","elianto","#FFFFF080"," "," ","1","&#10004","[2215.0999999999767]","1","0","0","","","","","","","",""
"pit-trial","9","169866","0.0-2.0-4.1-0.1","battery-v0.2","","""event"",""trial"",""time""
""fullscreenenter"",""1"",""6836""
","
","
","""event"",""trial"",""time""
""fullscreenenter"",""1"",""6836""
","
","","","628.5","","","10","11526","5285","&#9784;","elianto","#FFFFF080"," "," ","1","&#10004","[1481]","1","0","0","","","","","","","",""
"pit-trial","10","173353","0.0-2.0-4.2-0.2","battery-v0.2","","""event"",""trial"",""time""
""fullscreenenter"",""1"",""6836""
","
","
","""event"",""trial"",""time""
""fullscreenenter"",""1"",""6836""
","
","","","629.9000000000233","","","10","11526","5285","&#9784;","elianto","#FFFFF080"," "," ","1","&#10004","[1481.0999999999767]","1","0","0","","","","","","","",""
"pit-trial","11","176800","0.0-2.0-4.3-0.3","battery-v0.2","","""event"",""trial"",""time""
""fullscreenenter"",""1"",""6836""
","
","
","""event"",""trial"",""time""
""fullscreenenter"",""1"",""6836""
","
","","","592.3000000000466","","","10","11526","5285","&#9784;","elianto","#FFFFF080"," "," ","1","&#10004","[1444.5]","1","0","0","","","","","","","",""
"pit-trial","12","180196","0.0-2.0-4.4-0.4","battery-v0.2","","""event"",""trial"",""time""
""fullscreenenter"",""1"",""6836""
","
","
","""event"",""trial"",""time""
""fullscreenenter"",""1"",""6836""
","
","","","537.5","","","10","11526","5285","&#9784;","elianto","#FFFFF080"," "," ","1","&#10004","[1389]","1","0","0","","","","","","","",""
"pit-instructions","13","204947","0.0-2.0-5.0","battery-v0.2","","""event"",""trial"",""time""
""fullscreenenter"",""1"",""6836""
","
","
","""event"",""trial"",""time""
""fullscreenenter"",""1"",""6836""
","
","","[{""page_index"":0,""viewing_time"":5807.599999999977},{""page_index"":1,""viewing_time"":5453.900000000023},{""page_index"":2,""viewing_time"":8318.29999999993},{""page_index"":3,""viewing_time"":5167.70000000007}]","24748.29999999993","","","","","","","","","","","","","","","","","","","","","","","",""
"pit-trial","14","209801","0.0-2.0-6.0-0.0","battery-v0.2","","""event"",""trial"",""time""
""fullscreenenter"",""1"",""6836""
","
","
","""event"",""trial"",""time""
""fullscreenenter"",""1"",""6836""
","
","","","-1","","","10","11526","5285","&#9854;","elianto","#FFFFF080","-1","-1","1","&#10004","[]","0","0","1","","","","","","","",""
"pit-trial","15","214655","0.0-2.0-6.1-0.1","battery-v0.2","","""event"",""trial"",""time""
""fullscreenenter"",""1"",""6836""
","
","
","""event"",""trial"",""time""
""fullscreenenter"",""1"",""6836""
","
","","","-1","","","10","11526","5285","&#9854;","elianto","#FFFFF080","-1","-1","1","&#10004","[]","0","0","1","","","","","","","",""
"pit-trial","16","219514","0.0-2.0-6.2-0.2","battery-v0.2","","""event"",""trial"",""time""
""fullscreenenter"",""1"",""6836""
","
","
","""event"",""trial"",""time""
""fullscreenenter"",""1"",""6836""
","
","","","-1","","","10","11526","5285","&#9854;","elianto","#FFFFF080","-1","-1","1","&#10004","[]","0","0","1","","","","","","","",""
"pit-trial","17","224373","0.0-2.0-6.3-0.3","battery-v0.2","","""event"",""trial"",""time""
""fullscreenenter"",""1"",""6836""
","
","
","""event"",""trial"",""time""
""fullscreenenter"",""1"",""6836""
","
","","","-1","","","10","11526","5285","&#9854;","elianto","#FFFFF080","-1","-1","1","&#10004","[]","0","0","1","","","","","","","",""
"pit-trial","18","229235","0.0-2.0-6.4-0.4","battery-v0.2","","""event"",""trial"",""time""
""fullscreenenter"",""1"",""6836""
","
","
","""event"",""trial"",""time""
""fullscreenenter"",""1"",""6836""
","
","","","-1","","","10","11526","5285","&#9854;","elianto","#FFFFF080","-1","-1","1","&#10004","[]","0","0","1","","","","","","","",""
"pit-instructions","19","363887","0.0-2.0-7.0","battery-v0.2","","""event"",""trial"",""time""
""fullscreenenter"",""1"",""6836""
","
","
","""event"",""trial"",""time""
""fullscreenenter"",""1"",""6836""
","
","","[{""page_index"":0,""viewing_time"":5893.300000000047},{""page_index"":1,""viewing_time"":8195.79999999993},{""page_index"":2,""viewing_time"":6425.70000000007},{""page_index"":3,""viewing_time"":6156.599999999977},{""page_index"":4,""viewing_time"":6606},{""page_index"":5,""viewing_time"":6603.800000000047},{""page_index"":6,""viewing_time"":5722.099999999977},{""page_index"":7,""viewing_time"":10750.099999999977},{""page_index"":8,""viewing_time"":6971.599999999977},{""page_index"":9,""viewing_time"":5815.099999999977},{""page_index"":10,""viewing_time"":7322.800000000047},{""page_index"":11,""viewing_time"":5522},{""page_index"":12,""viewing_time"":8588.800000000047},{""page_index"":13,""viewing_time"":8585},{""page_index"":14,""viewing_time"":9113.79999999993},{""page_index"":15,""viewing_time"":10121.300000000047},{""page_index"":16,""viewing_time"":6461.79999999993},{""page_index"":17,""viewing_time"":9794.70000000007}]","134650.59999999998","","","","","","","","","","","","","","","","","","","","","","","",""
"pit-trial","20","367663","0.0-2.0-8.0-0.0","battery-v0.2","","""event"",""trial"",""time""
""fullscreenenter"",""1"",""6836""
","
","
","""event"",""trial"",""time""
""fullscreenenter"",""1"",""6836""
","
","","","915.5","","","10","11526","5285","&#9776;","elianto","#3366ff99"," "," ","1","+10","[1773.3000000000466]","1","0","1","","","","","","","",""
"pit-trial","21","370932","0.0-2.0-8.0-1.0","battery-v0.2","","""event"",""trial"",""time""
""fullscreenenter"",""1"",""6836""
","
","
","""event"",""trial"",""time""
""fullscreenenter"",""1"",""6836""
","
","","","411.80000000004657","","","10","11526","5285","&#9776;","elianto","#3366ff99"," "," ","1","+10","[1264.1999999999534]","1","0","1","","","","","","","",""
"pit-trial","22","374307","0.0-2.0-8.0-2.0","battery-v0.2","","""event"",""trial"",""time""
""fullscreenenter"",""1"",""6836""
","
","
","""event"",""trial"",""time""
""fullscreenenter"",""1"",""6836""
","
","","","518.5","","","10","11526","5285","&#9776;","elianto","#3366ff99"," "," ","1","+10","[1370.1999999999534]","1","0","1","","","","","","","",""
"pit-trial","23","377786","0.0-2.0-8.0-3.0","battery-v0.2","","""event"",""trial"",""time""
""fullscreenenter"",""1"",""6836""
","
","
","""event"",""trial"",""time""
""fullscreenenter"",""1"",""6836""
","
","","","621","","","10","11526","5285","&#9776;","elianto","#3366ff99"," "," ","1","0","[1476.7000000000698]","1","0","1","","","","","","","",""
"pit-trial","24","382645","0.0-2.0-8.0-4.0","battery-v0.2","","""event"",""trial"",""time""
""fullscreenenter"",""1"",""6836""
","
","
","""event"",""trial"",""time""
""fullscreenenter"",""1"",""6836""
","
","","","-1","","","10","11526","5285","&#9776;","elianto","#3366ff99"," ","-1","0","0","[]","0","0","1","","","","","","","",""
"pit-trial","25","385885","0.0-2.0-8.1-0.1","battery-v0.2","","""event"",""trial"",""time""
""fullscreenenter"",""1"",""6836""
","
","
","""event"",""trial"",""time""
""fullscreenenter"",""1"",""6836""
","
","","","382.79999999993015","","","10","11526","5285","&#9776;","elianto","#3366ff99"," "," ","1","+10","[1234.1999999999534]","1","0","1","","","","","","","",""
"pit-trial","26","389222","0.0-2.0-8.1-1.1","battery-v0.2","","""event"",""trial"",""time""
""fullscreenenter"",""1"",""6836""
","
","
","""event"",""trial"",""time""
""fullscreenenter"",""1"",""6836""
","
","","","478.20000000006985","","","10","11526","5285","&#9776;","elianto","#3366ff99"," "," ","1","+10","[1332.5999999999767]","1","0","1","","","","","","","",""
"pit-trial","27","392520","0.0-2.0-8.1-2.1","battery-v0.2","","""event"",""trial"",""time""
""fullscreenenter"",""1"",""6836""
","
","
","""event"",""trial"",""time""
""fullscreenenter"",""1"",""6836""
","
","","","443.5","","","10","11526","5285","&#9776;","elianto","#3366ff99"," "," ","1","+10","[1294.5999999999767,3028.6999999999534]","2","0","1","","","","","","","",""
"pit-trial","28","395832","0.0-2.0-8.1-3.1","battery-v0.2","","""event"",""trial"",""time""
""fullscreenenter"",""1"",""6836""
","
","
","""event"",""trial"",""time""
""fullscreenenter"",""1"",""6836""
","
","","","452.80000000004657","","","10","11526","5285","&#9776;","elianto","#3366ff99"," "," ","1","0","[1307.3000000000466]","1","0","1","","","","","","","",""
"pit-trial","29","399174","0.0-2.0-8.1-4.1","battery-v0.2","","""event"",""trial"",""time""
""fullscreenenter"",""1"",""6836""
","
","
","""event"",""trial"",""time""
""fullscreenenter"",""1"",""6836""
","
","","","483.9000000000233","","","10","11526","5285","&#9776;","elianto","#3366ff99"," "," ","1","+10","[1335.1999999999534]","1","0","1","","","","","","","",""
"pit-trial","30","402460","0.0-2.0-8.2-0.2","battery-v0.2","","""event"",""trial"",""time""
""fullscreenenter"",""1"",""6836""
","
","
","""event"",""trial"",""time""
""fullscreenenter"",""1"",""6836""
","
","","","429.19999999995343","","","10","11526","5285","&#9776;","elianto","#3366ff99"," "," ","1","+10","[1279.0999999999767]","1","0","1","","","","","","","",""
"pit-trial","31","405743","0.0-2.0-8.2-1.2","battery-v0.2","","""event"",""trial"",""time""
""fullscreenenter"",""1"",""6836""
","
","
","""event"",""trial"",""time""
""fullscreenenter"",""1"",""6836""
","
","","","425.29999999993015","","","10","11526","5285","&#9776;","elianto","#3366ff99"," "," ","1","+10","[1277.1999999999534]","1","0","1","","","","","","","",""
"pit-trial","32","410601","0.0-2.0-8.2-2.2","battery-v0.2","","""event"",""trial"",""time""
""fullscreenenter"",""1"",""6836""
","
","
","""event"",""trial"",""time""
""fullscreenenter"",""1"",""6836""
","
","","","-1","","","10","11526","5285","&#9776;","elianto","#3366ff99"," ","-1","0","0","[4093.9000000000233]","1","0","1","","","","","","","",""
"pit-trial","33","413936","0.0-2.0-8.2-3.2","battery-v0.2","","""event"",""trial"",""time""
""fullscreenenter"",""1"",""6836""
","
","
","""event"",""trial"",""time""
""fullscreenenter"",""1"",""6836""
","
","","","478.4000000000233","","","10","11526","5285","&#9776;","elianto","#3366ff99"," "," ","1","0","[1329.9000000000233]","1","0","1","","","","","","","",""
"pit-trial","34","416948","0.0-2.0-8.2-4.2","battery-v0.2","","""event"",""trial"",""time""
""fullscreenenter"",""1"",""6836""
","
","
","""event"",""trial"",""time""
""fullscreenenter"",""1"",""6836""
","
","","","159.20000000006985","","","10","11526","5285","&#9776;","elianto","#3366ff99"," "," ","1","+10","[1010.0999999999767]","1","0","1","","","","","","","",""
"call-function","35","416950","0.0-2.0-9.0","battery-v0.2","","""event"",""trial"",""time""
""fullscreenenter"",""1"",""6836""
","
","
","""event"",""trial"",""time""
""fullscreenenter"",""1"",""6836""
","
","","","","","","","","","","","","","","","","","","","","","","","","","","",""
"pit-instructions","36","467370","0.0-2.0-10.0","battery-v0.2","","""event"",""trial"",""time""
""fullscreenenter"",""1"",""6836""
","
","
","""event"",""trial"",""time""
""fullscreenenter"",""1"",""6836""
","
","","[{""page_index"":0,""viewing_time"":7752.399999999907},{""page_index"":1,""viewing_time"":8289},{""page_index"":2,""viewing_time"":12464.40000000014},{""page_index"":3,""viewing_time"":12451.300000000047},{""page_index"":4,""viewing_time"":9462.199999999953}]","50419.69999999995","","","","","","","","","","","","","","","","","","","","","","","",""
"pit-trial","37","472228","0.0-2.0-11.0-0.0","battery-v0.2","","""event"",""trial"",""time""
""fullscreenenter"",""1"",""6836""
","
","
","""event"",""trial"",""time""
""fullscreenenter"",""1"",""6836""
","
","","","-1","","","10","11526","5285","&#9761;","elianto","#3366ff99","-1","-1","1","+10","[]","0","0","2","","","","","","","",""
"pit-trial","38","477086","0.0-2.0-11.0-1.0","battery-v0.2","","""event"",""trial"",""time""
""fullscreenenter"",""1"",""6836""
","
","
","""event"",""trial"",""time""
""fullscreenenter"",""1"",""6836""
","
","","","-1","","","10","11526","5285","&#9761;","elianto","#3366ff99","-1","-1","1","+10","[]","0","0","2","","","","","","","",""
"pit-trial","39","481189","0.0-2.0-11.0-2.0","battery-v0.2","","""event"",""trial"",""time""
""fullscreenenter"",""1"",""6836""
","
","
","""event"",""trial"",""time""
""fullscreenenter"",""1"",""6836""
","
","","","1246.8000000000466","","","10","11526","5285","&#9761;","elianto","#3366ff99","-1"," ","0","0","[2098.6999999999534]","1","0","2","","","","","","","",""
"pit-trial","40","486050","0.0-2.0-11.0-3.0","battery-v0.2","","""event"",""trial"",""time""
""fullscreenenter"",""1"",""6836""
","
","
","""event"",""trial"",""time""
""fullscreenenter"",""1"",""6836""
","
","","","-1","","","10","11526","5285","&#9761;","elianto","#3366ff99","-1","-1","1","0","[]","0","0","2","","","","","","","",""
"pit-trial","41","489645","0.0-2.0-11.0-4.0","battery-v0.2","","""event"",""trial"",""time""
""fullscreenenter"",""1"",""6836""
","
","
","""event"",""trial"",""time""
""fullscreenenter"",""1"",""6836""
","
","","","739.1999999999534","","","10","11526","5285","&#9761;","elianto","#3366ff99","-1"," ","0","0","[1590.5999999998603]","1","0","2","","","","","","","",""
"pit-trial","42","492672","0.0-2.0-11.1-0.1","battery-v0.2","","""event"",""trial"",""time""
""fullscreenenter"",""1"",""6836""
","
","
","""event"",""trial"",""time""
""fullscreenenter"",""1"",""6836""
","
","","","170.60000000009313","","","10","11526","5285","&#9761;","elianto","#3366ff99","-1"," ","0","0","[1022.4000000001397]","1","0","2","","","","","","","",""
"pit-trial","43","497387","0.0-2.0-11.1-1.1","battery-v0.2","","""event"",""trial"",""time""
""fullscreenenter"",""1"",""6836""
","
","
","""event"",""trial"",""time""
""fullscreenenter"",""1"",""6836""
","
","","","1860.8000000000466","","","10","11526","5285","&#9761;","elianto","#3366ff99","-1"," ","0","0","[2711.600000000093]","1","0","2","","","","","","","",""
"pit-trial","44","502245","0.0-2.0-11.1-2.1","battery-v0.2","","""event"",""trial"",""time""
""fullscreenenter"",""1"",""6836""
","
","
","""event"",""trial"",""time""
""fullscreenenter"",""1"",""6836""
","
","","","-1","","","10","11526","5285","&#9761;","elianto","#3366ff99","-1","-1","1","+10","[]","0","0","2","","","","","","","",""
"pit-trial","45","507103","0.0-2.0-11.1-3.1","battery-v0.2","","""event"",""trial"",""time""
""fullscreenenter"",""1"",""6836""
","
","
","""event"",""trial"",""time""
""fullscreenenter"",""1"",""6836""
","
","","","-1","","","10","11526","5285","&#9761;","elianto","#3366ff99","-1","-1","1","0","[]","0","0","2","","","","","","","",""
"pit-trial","46","511964","0.0-2.0-11.1-4.1","battery-v0.2","","""event"",""trial"",""time""
""fullscreenenter"",""1"",""6836""
","
","
","""event"",""trial"",""time""
""fullscreenenter"",""1"",""6836""
","
","","","-1","","","10","11526","5285","&#9761;","elianto","#3366ff99","-1","-1","1","+10","[]","0","0","2","","","","","","","",""
"pit-trial","47","516823","0.0-2.0-11.2-0.2","battery-v0.2","","""event"",""trial"",""time""
""fullscreenenter"",""1"",""6836""
","
","
","""event"",""trial"",""time""
""fullscreenenter"",""1"",""6836""
","
","","","-1","","","10","11526","5285","&#9761;","elianto","#3366ff99","-1","-1","1","+10","[]","0","0","2","","","","","","","",""
"pit-trial","48","521682","0.0-2.0-11.2-1.2","battery-v0.2","","""event"",""trial"",""time""
""fullscreenenter"",""1"",""6836""
","
","
","""event"",""trial"",""time""
""fullscreenenter"",""1"",""6836""
","
","","","-1","","","10","11526","5285","&#9761;","elianto","#3366ff99","-1","-1","1","+10","[]","0","0","2","","","","","","","",""
"pit-trial","49","526314","0.0-2.0-11.2-2.2","battery-v0.2","","""event"",""trial"",""time""
""fullscreenenter"",""1"",""6836""
","
","
","""event"",""trial"",""time""
""fullscreenenter"",""1"",""6836""
","
","","","1775.7999999998137","","","10","11526","5285","&#9761;","elianto","#3366ff99","-1"," ","0","0","[2627]","1","0","2","","","","","","","",""
"pit-trial","50","530234","0.0-2.0-11.2-3.2","battery-v0.2","","""event"",""trial"",""time""
""fullscreenenter"",""1"",""6836""
","
","
","""event"",""trial"",""time""
""fullscreenenter"",""1"",""6836""
","
","","","1065.2000000001863","","","10","11526","5285","&#9761;","elianto","#3366ff99","-1"," ","0","+10","[1916.5]","1","0","2","","","","","","","",""
"pit-trial","51","535093","0.0-2.0-11.2-4.2","battery-v0.2","","""event"",""trial"",""time""
""fullscreenenter"",""1"",""6836""
","
","
","""event"",""trial"",""time""
""fullscreenenter"",""1"",""6836""
","
","","","-1","","","10","11526","5285","&#9761;","elianto","#3366ff99","-1","-1","1","+10","[]","0","0","2","","","","","","","",""
"pit-trial","52","538294","0.0-2.0-11.3-0.3","battery-v0.2","","""event"",""trial"",""time""
""fullscreenenter"",""1"",""6836""
","
","
","""event"",""trial"",""time""
""fullscreenenter"",""1"",""6836""
","
","","","344.5","","","10","11526","5285","&#9761;","elianto","#3366ff99","-1"," ","0","0","[1195.3999999999069]","1","0","2","","","","","","","",""
"pit-trial","53","542115","0.0-2.0-11.3-1.3","battery-v0.2","","""event"",""trial"",""time""
""fullscreenenter"",""1"",""6836""
","
","
","""event"",""trial"",""time""
""fullscreenenter"",""1"",""6836""
","
","","","964.5","","","10","11526","5285","&#9761;","elianto","#3366ff99","-1"," ","0","0","[1815.9000000001397]","1","0","2","","","","","","","",""
"pit-trial","54","545499","0.0-2.0-11.3-2.3","battery-v0.2","","""event"",""trial"",""time""
""fullscreenenter"",""1"",""6836""
","
","
","""event"",""trial"",""time""
""fullscreenenter"",""1"",""6836""
","
","","","525.7000000001863","","","10","11526","5285","&#9761;","elianto","#3366ff99","-1"," ","0","0","[1378.5]","1","0","2","","","","","","","",""
"pit-trial","55","550358","0.0-2.0-11.3-3.3","battery-v0.2","","""event"",""trial"",""time""
""fullscreenenter"",""1"",""6836""
","
","
","""event"",""trial"",""time""
""fullscreenenter"",""1"",""6836""
","
","","","-1","","","10","11526","5285","&#9761;","elianto","#3366ff99","-1","-1","1","0","[]","0","0","2","","","","","","","",""
"pit-trial","56","555217","0.0-2.0-11.3-4.3","battery-v0.2","","""event"",""trial"",""time""
""fullscreenenter"",""1"",""6836""
","
","
","""event"",""trial"",""time""
""fullscreenenter"",""1"",""6836""
","
","","","-1","","","10","11526","5285","&#9761;","elianto","#3366ff99","-1","-1","1","+10","[]","0","0","2","","","","","","","",""
"call-function","57","555218","0.0-2.0-12.0","battery-v0.2","","""event"",""trial"",""time""
""fullscreenenter"",""1"",""6836""
","
","
","""event"",""trial"",""time""
""fullscreenenter"",""1"",""6836""
","
","","","","","","","","","","","","","","","","","","","","","","","","","","",""
"pit-instructions","58","590624","0.0-2.0-13.0","battery-v0.2","","""event"",""trial"",""time""
""fullscreenenter"",""1"",""6836""
","
","
","""event"",""trial"",""time""
""fullscreenenter"",""1"",""6836""
","
","","[{""page_index"":0,""viewing_time"":7250.800000000047},{""page_index"":1,""viewing_time"":8482},{""page_index"":2,""viewing_time"":3145.1999999999534},{""page_index"":3,""viewing_time"":11143},{""page_index"":4,""viewing_time"":5383.600000000093}]","35405.10000000009","","","","","","","","","","","","","","","","","","","","","","","",""
"pit-trial","59","594510","0.0-2.0-14.0-0.0","battery-v0.2","","""event"",""trial"",""time""
""fullscreenenter"",""1"",""6836""
","
","
","""event"",""trial"",""time""
""fullscreenenter"",""1"",""6836""
","
","","","1024.0999999998603","","","10","11526","5285","&#9826;","elianto","#f73b6a7A","-1"," ","0","-10","[1882.8000000000466]","1","0","3","","","","","","","",""
"pit-trial","60","599369","0.0-2.0-14.0-1.0","battery-v0.2","","""event"",""trial"",""time""
""fullscreenenter"",""1"",""6836""
","
","
","""event"",""trial"",""time""
""fullscreenenter"",""1"",""6836""
","
","","","-1","","","10","11526","5285","&#9826;","elianto","#f73b6a7A","-1","-1","1","0","[]","0","0","3","","","","","","","",""
"pit-trial","61","603969","0.0-2.0-14.0-2.0","battery-v0.2","","""event"",""trial"",""time""
""fullscreenenter"",""1"",""6836""
","
","
","""event"",""trial"",""time""
""fullscreenenter"",""1"",""6836""
","
","","","1745.1999999999534","","","10","11526","5285","&#9826;","elianto","#f73b6a7A","-1"," ","0","-10","[2596.4000000001397]","1","0","3","","","","","","","",""
"pit-trial","62","608826","0.0-2.0-14.0-3.0","battery-v0.2","","""event"",""trial"",""time""
""fullscreenenter"",""1"",""6836""
","
","
","""event"",""trial"",""time""
""fullscreenenter"",""1"",""6836""
","
","","","-1","","","10","11526","5285","&#9826;","elianto","#f73b6a7A","-1","-1","1","-10","[]","0","0","3","","","","","","","",""
"pit-trial","63","612339","0.0-2.0-14.0-4.0","battery-v0.2","","""event"",""trial"",""time""
""fullscreenenter"",""1"",""6836""
","
","
","""event"",""trial"",""time""
""fullscreenenter"",""1"",""6836""
","
","","","657.3999999999069","","","10","11526","5285","&#9826;","elianto","#f73b6a7A","-1"," ","0","-10","[1510.0999999998603]","1","0","3","","","","","","","",""
"pit-trial","64","616484","0.0-2.0-14.1-0.1","battery-v0.2","","""event"",""trial"",""time""
""fullscreenenter"",""1"",""6836""
","
","
","""event"",""trial"",""time""
""fullscreenenter"",""1"",""6836""
","
","","","1287.7999999998137","","","10","11526","5285","&#9826;","elianto","#f73b6a7A","-1"," ","0","-10","[2138.8000000000466]","1","0","3","","","","","","","",""
"pit-trial","65","621341","0.0-2.0-14.1-1.1","battery-v0.2","","""event"",""trial"",""time""
""fullscreenenter"",""1"",""6836""
","
","
","""event"",""trial"",""time""
""fullscreenenter"",""1"",""6836""
","
","","","-1","","","10","11526","5285","&#9826;","elianto","#f73b6a7A","-1","-1","1","0","[]","0","0","3","","","","","","","",""
"pit-trial","66","626196","0.0-2.0-14.1-2.1","battery-v0.2","","""event"",""trial"",""time""
""fullscreenenter"",""1"",""6836""
","
","
","""event"",""trial"",""time""
""fullscreenenter"",""1"",""6836""
","
","","","-1","","","10","11526","5285","&#9826;","elianto","#f73b6a7A","-1","-1","1","0","[]","0","0","3","","","","","","","",""
"pit-trial","67","631051","0.0-2.0-14.1-3.1","battery-v0.2","","""event"",""trial"",""time""
""fullscreenenter"",""1"",""6836""
","
","
","""event"",""trial"",""time""
""fullscreenenter"",""1"",""6836""
","
","","","-1","","","10","11526","5285","&#9826;","elianto","#f73b6a7A","-1","-1","1","-10","[]","0","0","3","","","","","","","",""
"pit-trial","68","635907","0.0-2.0-14.1-4.1","battery-v0.2","","""event"",""trial"",""time""
""fullscreenenter"",""1"",""6836""
","
","
","""event"",""trial"",""time""
""fullscreenenter"",""1"",""6836""
","
","","","-1","","","10","11526","5285","&#9826;","elianto","#f73b6a7A","-1","-1","1","0","[]","0","0","3","","","","","","","",""
"pit-trial","69","640764","0.0-2.0-14.2-0.2","battery-v0.2","","""event"",""trial"",""time""
""fullscreenenter"",""1"",""6836""
","
","
","""event"",""trial"",""time""
""fullscreenenter"",""1"",""6836""
","
","","","-1","","","10","11526","5285","&#9826;","elianto","#f73b6a7A","-1","-1","1","0","[]","0","0","3","","","","","","","",""
"pit-trial","70","645622","0.0-2.0-14.2-1.2","battery-v0.2","","""event"",""trial"",""time""
""fullscreenenter"",""1"",""6836""
","
","
","""event"",""trial"",""time""
""fullscreenenter"",""1"",""6836""
","
","","","-1","","","10","11526","5285","&#9826;","elianto","#f73b6a7A","-1","-1","1","0","[]","0","0","3","","","","","","","",""
"pit-trial","71","650483","0.0-2.0-14.2-2.2","battery-v0.2","","""event"",""trial"",""time""
""fullscreenenter"",""1"",""6836""
","
","
","""event"",""trial"",""time""
""fullscreenenter"",""1"",""6836""
","
","","","-1","","","10","11526","5285","&#9826;","elianto","#f73b6a7A","-1","-1","1","0","[]","0","0","3","","","","","","","",""
"pit-trial","72","654421","0.0-2.0-14.2-3.2","battery-v0.2","","""event"",""trial"",""time""
""fullscreenenter"",""1"",""6836""
","
","
","""event"",""trial"",""time""
""fullscreenenter"",""1"",""6836""
","
","","","1082.1999999999534","","","10","11526","5285","&#9826;","elianto","#f73b6a7A","-1"," ","0","0","[1934.5]","1","0","3","","","","","","","",""
"pit-trial","73","657647","0.0-2.0-14.2-4.2","battery-v0.2","","""event"",""trial"",""time""
""fullscreenenter"",""1"",""6836""
","
","
","""event"",""trial"",""time""
""fullscreenenter"",""1"",""6836""
","
","","","367.60000000009313","","","10","11526","5285","&#9826;","elianto","#f73b6a7A","-1"," ","0","-10","[1219.1000000000931]","1","0","3","","","","","","","",""
"pit-trial","74","662504","0.0-2.0-14.3-0.3","battery-v0.2","","""event"",""trial"",""time""
""fullscreenenter"",""1"",""6836""
","
","
","""event"",""trial"",""time""
""fullscreenenter"",""1"",""6836""
","
","","","-1","","","10","11526","5285","&#9826;","elianto","#f73b6a7A","-1","-1","1","0","[]","0","0","3","","","","","","","",""
"pit-trial","75","667364","0.0-2.0-14.3-1.3","battery-v0.2","","""event"",""trial"",""time""
""fullscreenenter"",""1"",""6836""
","
","
","""event"",""trial"",""time""
""fullscreenenter"",""1"",""6836""
","
","","","-1","","","10","11526","5285","&#9826;","elianto","#f73b6a7A","-1","-1","1","0","[]","0","0","3","","","","","","","",""
"pit-trial","76","672221","0.0-2.0-14.3-2.3","battery-v0.2","","""event"",""trial"",""time""
""fullscreenenter"",""1"",""6836""
","
","
","""event"",""trial"",""time""
""fullscreenenter"",""1"",""6836""
","
","","","-1","","","10","11526","5285","&#9826;","elianto","#f73b6a7A","-1","-1","1","0","[]","0","0","3","","","","","","","",""
"pit-trial","77","675352","0.0-2.0-14.3-3.3","battery-v0.2","","""event"",""trial"",""time""
""fullscreenenter"",""1"",""6836""
","
","
","""event"",""trial"",""time""
""fullscreenenter"",""1"",""6836""
","
","","","272.10000000009313","","","10","11526","5285","&#9826;","elianto","#f73b6a7A","-1"," ","0","0","[1123.4000000001397]","1","0","3","","","","","","","",""
"pit-trial","78","680212","0.0-2.0-14.3-4.3","battery-v0.2","","""event"",""trial"",""time""
""fullscreenenter"",""1"",""6836""
","
","
","""event"",""trial"",""time""
""fullscreenenter"",""1"",""6836""
","
","","","-1","","","10","11526","5285","&#9826;","elianto","#f73b6a7A","-1","-1","1","0","[]","0","0","3","","","","","","","",""
"call-function","79","680214","0.0-2.0-15.0","battery-v0.2","","""event"",""trial"",""time""
""fullscreenenter"",""1"",""6836""
","
","
","""event"",""trial"",""time""
""fullscreenenter"",""1"",""6836""
","
","","","","","","","","","","","","","","","","","","","","","","","","","","",""
"pit-instructions","80","713961","0.0-2.0-16.0","battery-v0.2","","""event"",""trial"",""time""
""fullscreenenter"",""1"",""6836""
","
","
","""event"",""trial"",""time""
""fullscreenenter"",""1"",""6836""
","
","","[{""page_index"":0,""viewing_time"":8424.300000000047},{""page_index"":1,""viewing_time"":12713.299999999814},{""page_index"":2,""viewing_time"":6428.800000000047},{""page_index"":3,""viewing_time"":6179.5}]","33746.59999999986","","","","","","","","","","","","","","","","","","","","","","","",""
"pit-trial","81","717107","0.0-2.0-17.0-0.0","battery-v0.2","","""event"",""trial"",""time""
""fullscreenenter"",""1"",""6836""
","
","
","""event"",""trial"",""time""
""fullscreenenter"",""1"",""6836""
","
","","","291.69999999995343","","","10","11526","5285","&#9789;","elianto","#f73b6a7A"," "," ","1","0","[1142.6000000000931]","1","0","4","","","","","","","",""
"pit-trial","82","720399","0.0-2.0-17.0-1.0","battery-v0.2","","""event"",""trial"",""time""
""fullscreenenter"",""1"",""6836""
","
","
","""event"",""trial"",""time""
""fullscreenenter"",""1"",""6836""
","
","","","431.19999999995343","","","10","11526","5285","&#9789;","elianto","#f73b6a7A"," "," ","1","0","[1287.3000000000466]","1","0","4","","","","","","","",""
"pit-trial","83","725257","0.0-2.0-17.0-2.0","battery-v0.2","","""event"",""trial"",""time""
""fullscreenenter"",""1"",""6836""
","
","
","""event"",""trial"",""time""
""fullscreenenter"",""1"",""6836""
","
","","","-1","","","10","11526","5285","&#9789;","elianto","#f73b6a7A"," ","-1","0","-10","[]","0","0","4","","","","","","","",""
"pit-trial","84","728403","0.0-2.0-17.0-3.0","battery-v0.2","","""event"",""trial"",""time""
""fullscreenenter"",""1"",""6836""
","
","
","""event"",""trial"",""time""
""fullscreenenter"",""1"",""6836""
","
","","","286.5","","","10","11526","5285","&#9789;","elianto","#f73b6a7A"," "," ","1","-10","[1138.5]","1","0","4","","","","","","","",""
"pit-trial","85","732103","0.0-2.0-17.0-4.0","battery-v0.2","","""event"",""trial"",""time""
""fullscreenenter"",""1"",""6836""
","
","
","""event"",""trial"",""time""
""fullscreenenter"",""1"",""6836""
","
","","","842.6000000000931","","","10","11526","5285","&#9789;","elianto","#f73b6a7A"," "," ","1","0","[1694.5999999998603]","1","0","4","","","","","","","",""
"pit-trial","86","735345","0.0-2.0-17.1-0.1","battery-v0.2","","""event"",""trial"",""time""
""fullscreenenter"",""1"",""6836""
","
","
","""event"",""trial"",""time""
""fullscreenenter"",""1"",""6836""
","
","","","384.4000000001397","","","10","11526","5285","&#9789;","elianto","#f73b6a7A"," "," ","1","0","[1236.4000000001397]","1","0","4","","","","","","","",""
"pit-trial","87","738486","0.0-2.0-17.1-1.1","battery-v0.2","","""event"",""trial"",""time""
""fullscreenenter"",""1"",""6836""
","
","
","""event"",""trial"",""time""
""fullscreenenter"",""1"",""6836""
","
","","","283.19999999995343","","","10","11526","5285","&#9789;","elianto","#f73b6a7A"," "," ","1","0","[1136.6999999999534]","1","0","4","","","","","","","",""
"pit-trial","88","741575","0.0-2.0-17.1-2.1","battery-v0.2","","""event"",""trial"",""time""
""fullscreenenter"",""1"",""6836""
","
","
","""event"",""trial"",""time""
""fullscreenenter"",""1"",""6836""
","
","","","232.89999999990687","","","10","11526","5285","&#9789;","elianto","#f73b6a7A"," "," ","1","0","[1084.1000000000931]","1","0","4","","","","","","","",""
"pit-trial","89","744896","0.0-2.0-17.1-3.1","battery-v0.2","","""event"",""trial"",""time""
""fullscreenenter"",""1"",""6836""
","
","
","""event"",""trial"",""time""
""fullscreenenter"",""1"",""6836""
","
","","","463.60000000009313","","","10","11526","5285","&#9789;","elianto","#f73b6a7A"," "," ","1","-10","[1315.3000000000466]","1","0","4","","","","","","","",""
"pit-trial","90","748258","0.0-2.0-17.1-4.1","battery-v0.2","","""event"",""trial"",""time""
""fullscreenenter"",""1"",""6836""
","
","
","""event"",""trial"",""time""
""fullscreenenter"",""1"",""6836""
","
","","","499.70000000018626","","","10","11526","5285","&#9789;","elianto","#f73b6a7A"," "," ","1","0","[1354.9000000001397]","1","0","4","","","","","","","",""
"pit-trial","91","751465","0.0-2.0-17.2-0.2","battery-v0.2","","""event"",""trial"",""time""
""fullscreenenter"",""1"",""6836""
","
","
","""event"",""trial"",""time""
""fullscreenenter"",""1"",""6836""
","
","","","348.69999999995343","","","10","11526","5285","&#9789;","elianto","#f73b6a7A"," "," ","1","0","[1200.1999999999534]","1","0","4","","","","","","","",""
"pit-trial","92","754562","0.0-2.0-17.2-1.2","battery-v0.2","","""event"",""trial"",""time""
""fullscreenenter"",""1"",""6836""
","
","
","""event"",""trial"",""time""
""fullscreenenter"",""1"",""6836""
","
","","","237.70000000018626","","","10","11526","5285","&#9789;","elianto","#f73b6a7A"," "," ","1","0","[1090]","1","0","4","","","","","","","",""
"pit-trial","93","757674","0.0-2.0-17.2-2.2","battery-v0.2","","""event"",""trial"",""time""
""fullscreenenter"",""1"",""6836""
","
","
","""event"",""trial"",""time""
""fullscreenenter"",""1"",""6836""
","
","","","256","","","10","11526","5285","&#9789;","elianto","#f73b6a7A"," "," ","1","0","[1106.5]","1","0","4","","","","","","","",""
"pit-trial","94","762532","0.0-2.0-17.2-3.2","battery-v0.2","","""event"",""trial"",""time""
""fullscreenenter"",""1"",""6836""
","
","
","""event"",""trial"",""time""
""fullscreenenter"",""1"",""6836""
","
","","","-1","","","10","11526","5285","&#9789;","elianto","#f73b6a7A"," ","-1","0","0","[]","0","0","4","","","","","","","",""
"pit-trial","95","767392","0.0-2.0-17.2-4.2","battery-v0.2","","""event"",""trial"",""time""
""fullscreenenter"",""1"",""6836""
","
","
","""event"",""trial"",""time""
""fullscreenenter"",""1"",""6836""
","
","","","-1","","","10","11526","5285","&#9789;","elianto","#f73b6a7A"," ","-1","0","-10","[]","0","0","4","","","","","","","",""
"pit-trial","96","770601","0.0-2.0-17.3-0.3","battery-v0.2","","""event"",""trial"",""time""
""fullscreenenter"",""1"",""6836""
","
","
","""event"",""trial"",""time""
""fullscreenenter"",""1"",""6836""
","
","","","352.10000000009313","","","10","11526","5285","&#9789;","elianto","#f73b6a7A"," "," ","1","0","[1205.5]","1","0","4","","","","","","","",""
"pit-trial","97","773818","0.0-2.0-17.3-1.3","battery-v0.2","","""event"",""trial"",""time""
""fullscreenenter"",""1"",""6836""
","
","
","""event"",""trial"",""time""
""fullscreenenter"",""1"",""6836""
","
","","","361.80000000004657","","","10","11526","5285","&#9789;","elianto","#f73b6a7A"," "," ","1","0","[1212.8000000000466,3011.399999999907]","2","0","4","","","","","","","",""
"pit-trial","98","777345","0.0-2.0-17.3-2.3","battery-v0.2","","""event"",""trial"",""time""
""fullscreenenter"",""1"",""6836""
","
","
","""event"",""trial"",""time""
""fullscreenenter"",""1"",""6836""
","
","","","672.6000000000931","","","10","11526","5285","&#9789;","elianto","#f73b6a7A"," "," ","1","0","[769.5,1523.3000000000466,2239.8000000000466]","3","0","4","","","","","","","",""
"pit-trial","99","782202","0.0-2.0-17.3-3.3","battery-v0.2","","""event"",""trial"",""time""
""fullscreenenter"",""1"",""6836""
","
","
","""event"",""trial"",""time""
""fullscreenenter"",""1"",""6836""
","
","","","-1","","","10","11526","5285","&#9789;","elianto","#f73b6a7A"," ","-1","0","0","[]","0","0","4","","","","","","","",""
"pit-trial","100","787059","0.0-2.0-17.3-4.3","battery-v0.2","","""event"",""trial"",""time""
""fullscreenenter"",""1"",""6836""
","
","
","""event"",""trial"",""time""
""fullscreenenter"",""1"",""6836""
","
","","","-1","","","10","11526","5285","&#9789;","elianto","#f73b6a7A"," ","-1","0","-10","[822.2000000001863,3698,4296.600000000093,4594.700000000186]","4","0","4","","","","","","","",""
"call-function","101","787061","0.0-2.0-18.0","battery-v0.2","","""event"",""trial"",""time""
""fullscreenenter"",""1"",""6836""
","
","
","""event"",""trial"",""time""
""fullscreenenter"",""1"",""6836""
","
","","","","","","","","","","","","","","","","","","","","","","","","","","",""
"pit-instructions","102","880473","0.0-2.0-19.0","battery-v0.2","","""event"",""trial"",""time""
""fullscreenenter"",""1"",""6836""
","
","
","""event"",""trial"",""time""
""fullscreenenter"",""1"",""6836""
","
","","[{""page_index"":0,""viewing_time"":9107.59999999986},{""page_index"":1,""viewing_time"":9606.40000000014},{""page_index"":2,""viewing_time"":15658.399999999907},{""page_index"":3,""viewing_time"":10576.600000000093},{""page_index"":4,""viewing_time"":9474.399999999907},{""page_index"":5,""viewing_time"":10195.90000000014},{""page_index"":6,""viewing_time"":10226.699999999953},{""page_index"":7,""viewing_time"":13035.699999999953},{""page_index"":8,""viewing_time"":5528.899999999907}]","93411","","","","","","","","","","","","","","","","","","","","","","","",""
"pit-comprehension","103","891380","0.0-2.0-20.0-0.0","battery-v0.2","","""event"",""trial"",""time""
""fullscreenenter"",""1"",""6836""
","
","
","""event"",""trial"",""time""
""fullscreenenter"",""1"",""6836""
","
","","","10904.199999999953","[""SPACE""]","0","10","11526","5285","","","","","","","","","","","","","","","","","","",""
"pit-instructions","104","894111","0.0-2.0-20.0-1.0","battery-v0.2","","""event"",""trial"",""time""
""fullscreenenter"",""1"",""6836""
","
","
","""event"",""trial"",""time""
""fullscreenenter"",""1"",""6836""
","
","","[{""page_index"":0,""viewing_time"":2700}]","2700.8000000000466","","","","","","","","","","","","","","","","","","","","","","","",""
"pit-comprehension","105","905839","0.0-2.0-21.0-0.0","battery-v0.2","","""event"",""trial"",""time""
""fullscreenenter"",""1"",""6836""
","
","
","""event"",""trial"",""time""
""fullscreenenter"",""1"",""6836""
","
","","","11724.300000000047","[""10""]","0","10","11526","5285","","","","","","","","","","","","","","","","","","",""
"pit-instructions","106","908980","0.0-2.0-21.0-1.0","battery-v0.2","","""event"",""trial"",""time""
""fullscreenenter"",""1"",""6836""
","
","
","""event"",""trial"",""time""
""fullscreenenter"",""1"",""6836""
","
","","[{""page_index"":0,""viewing_time"":3112}]","3112.3000000000466","","","","","","","","","","","","","","","","","","","","","","","",""
"pit-comprehension","107","920847","0.0-2.0-22.0-0.0","battery-v0.2","","""event"",""trial"",""time""
""fullscreenenter"",""1"",""6836""
","
","
","""event"",""trial"",""time""
""fullscreenenter"",""1"",""6836""
","
","","","11863.199999999953","[""-10""]","1","10","11526","5285","","","","","","","","","","","","","","","","","","",""
"pit-instructions","108","922573","0.0-2.0-22.0-1.0","battery-v0.2","","""event"",""trial"",""time""
""fullscreenenter"",""1"",""6836""
","
","
","""event"",""trial"",""time""
""fullscreenenter"",""1"",""6836""
","
","","[{""page_index"":0,""viewing_time"":1695.7000000001863}]","1696.3000000000466","","","","","","","","","","","","","","","","","","","","","","","",""
"pit-instructions","109","924412","0.0-2.0-22.0-2.0-0.0","battery-v0.2","","""event"",""trial"",""time""
""fullscreenenter"",""1"",""6836""
","
","
","""event"",""trial"",""time""
""fullscreenenter"",""1"",""6836""
","
","","[{""page_index"":0,""viewing_time"":1837.8000000000466}]","1838.1000000000931","","","","","","","","","","","","","","","","","","","","","","","",""
"pit-comprehension","110","933332","0.0-2.0-22.1-0.1","battery-v0.2","","""event"",""trial"",""time""
""fullscreenenter"",""1"",""6836""
","
","
","""event"",""trial"",""time""
""fullscreenenter"",""1"",""6836""
","
","","","8917.59999999986","[""0""]","0","10","11526","5285","","","","","","","","","","","","","","","","","","",""
"pit-instructions","111","935743","0.0-2.0-22.1-1.1","battery-v0.2","","""event"",""trial"",""time""
""fullscreenenter"",""1"",""6836""
","
","
","""event"",""trial"",""time""
""fullscreenenter"",""1"",""6836""
","
","","[{""page_index"":0,""viewing_time"":2381.0999999998603}]","2381.399999999907","","","","","","","","","","","","","","","","","","","","","","","",""
"pit-comprehension","112","948443","0.0-2.0-23.0-0.0","battery-v0.2","","""event"",""trial"",""time""
""fullscreenenter"",""1"",""6836""
","
","
","""event"",""trial"",""time""
""fullscreenenter"",""1"",""6836""
","
","","","12696.800000000047","[""True""]","0","10","11526","5285","","","","","","","","","","","","","","","","","","",""
"pit-instructions","113","950275","0.0-2.0-23.0-1.0","battery-v0.2","","""event"",""trial"",""time""
""fullscreenenter"",""1"",""6836""
","
","
","""event"",""trial"",""time""
""fullscreenenter"",""1"",""6836""
","
","","[{""page_index"":0,""viewing_time"":1801.6999999999534}]","1802.1000000000931","","","","","","","","","","","","","","","","","","","","","","","",""
"pit-comprehension","114","958714","0.0-2.0-24.0-0.0","battery-v0.2","","""event"",""trial"",""time""
""fullscreenenter"",""1"",""6836""
","
","
","""event"",""trial"",""time""
""fullscreenenter"",""1"",""6836""
","
","","","8436.199999999953","[""True""]","0","10","11526","5285","","","","","","","","","","","","","","","","","","",""
"pit-instructions","115","960364","0.0-2.0-24.0-1.0","battery-v0.2","","""event"",""trial"",""time""
""fullscreenenter"",""1"",""6836""
","
","
","""event"",""trial"",""time""
""fullscreenenter"",""1"",""6836""
","
","","[{""page_index"":0,""viewing_time"":1619.6999999999534}]","1620.1000000000931","","","","","","","","","","","","","","","","","","","","","","","",""
"pit-comprehension","116","966972","0.0-2.0-25.0-0.0","battery-v0.2","","""event"",""trial"",""time""
""fullscreenenter"",""1"",""6836""
","
","
","""event"",""trial"",""time""
""fullscreenenter"",""1"",""6836""
","
","","","6604.5","[""True""]","0","10","11526","5285","","","","","","","","","","","","","","","","","","",""
"pit-instructions","117","968513","0.0-2.0-25.0-1.0","battery-v0.2","","""event"",""trial"",""time""
""fullscreenenter"",""1"",""6836""
","
","
","""event"",""trial"",""time""
""fullscreenenter"",""1"",""6836""
","
","","[{""page_index"":0,""viewing_time"":1511.9000000001397}]","1512.2000000001863","","","","","","","","","","","","","","","","","","","","","","","",""
"pit-comprehension","118","973352","0.0-2.0-26.0-0.0","battery-v0.2","","""event"",""trial"",""time""
""fullscreenenter"",""1"",""6836""
","
","
","""event"",""trial"",""time""
""fullscreenenter"",""1"",""6836""
","
","","","4836.199999999953","[""False""]","0","10","11526","5285","","","","","","","","","","","","","","","","","","",""
"pit-instructions","119","974965","0.0-2.0-26.0-1.0","battery-v0.2","","""event"",""trial"",""time""
""fullscreenenter"",""1"",""6836""
","
","
","""event"",""trial"",""time""
""fullscreenenter"",""1"",""6836""
","
","","[{""page_index"":0,""viewing_time"":1578.9000000001397}]","1579.3000000000466","","","","","","","","","","","","","","","","","","","","","","","",""
"pit-instructions","120","996137","0.0-3.0","battery-v0.2","","""event"",""trial"",""time""
""fullscreenenter"",""1"",""6836""
","
","
","""event"",""trial"",""time""
""fullscreenenter"",""1"",""6836""
","
","","[{""page_index"":0,""viewing_time"":6511.100000000093},{""page_index"":1,""viewing_time"":6474.899999999907},{""page_index"":2,""viewing_time"":8184.600000000093}]","21171","","","","","","","","","","","","","","","","","","","","","","","",""
"pit-trial","121","999756","0.0-4.0","battery-v0.2","","""event"",""trial"",""time""
""fullscreenenter"",""1"",""6836""
","
","
","""event"",""trial"",""time""
""fullscreenenter"",""1"",""6836""
","
","","","743.3999999999069","","","10","11526","5285","&#9752;","elianto","#f73b6a7A"," "," ","1","-10","[1609]","1","1","","","11526","1","3","3","lose","go","1"
"pit-trial","122","1003210","0.0-5.0","battery-v0.2","","""event"",""trial"",""time""
""fullscreenenter"",""1"",""6836""
","
","
","""event"",""trial"",""time""
""fullscreenenter"",""1"",""6836""
","
","","","594.3999999999069","","","10","11526","5285","&#9733;","elianto","#3366ff99","-1"," ","0","0","[1449.1999999999534]","1","1","","","11526","2","2","2","win","no-go","0"
"pit-trial","123","1006584","0.0-6.0","battery-v0.2","","""event"",""trial"",""time""
""fullscreenenter"",""1"",""6836""
","
","
","""event"",""trial"",""time""
""fullscreenenter"",""1"",""6836""
","
","","","516.1000000000931","","","10","11526","5285","&#9730;","elianto","#3366ff99"," "," ","1","+10","[1369]","1","1","","","11526","3","1","1","win","go","0"
"pit-trial","124","1011443","0.0-7.0","battery-v0.2","","""event"",""trial"",""time""
""fullscreenenter"",""1"",""6836""
","
","
","""event"",""trial"",""time""
""fullscreenenter"",""1"",""6836""
","
","","","-1","","","10","11526","5285","&#9728;","elianto","#f73b6a7A","-1","-1","1","-10","[]","0","1","","","11526","4","0","4","lose","no-go","1"
"pit-trial","125","1015505","0.0-8.0","battery-v0.2","","""event"",""trial"",""time""
""fullscreenenter"",""1"",""6836""
","
","
","""event"",""trial"",""time""
""fullscreenenter"",""1"",""6836""
","
","","","1202.7000000001863","","","10","11526","5285","&#9752;","elianto","#f73b6a7A"," "," ","1","0","[2055.8000000000466]","1","1","","","11526","5","3","3","lose","go","0"
"pit-trial","126","1019308","0.0-9.0","battery-v0.2","","""event"",""trial"",""time""
""fullscreenenter"",""1"",""6836""
","
","
","""event"",""trial"",""time""
""fullscreenenter"",""1"",""6836""
","
","","","945.6000000000931","","","10","11526","5285","&#9730;","elianto","#3366ff99"," "," ","1","+10","[1796.8999999999069]","1","1","","","11526","6","1","1","win","go","0"
"pit-trial","127","1022373","0.0-10.0","battery-v0.2","","""event"",""trial"",""time""
""fullscreenenter"",""1"",""6836""
","
","
","""event"",""trial"",""time""
""fullscreenenter"",""1"",""6836""
","
","","","207.5","","","10","11526","5285","&#9728;","elianto","#f73b6a7A","-1"," ","0","-10","[1058.6999999999534,2533.0999999998603]","2","1","","","11526","7","0","4","lose","no-go","0"
"pit-trial","128","1025354","0.0-11.0","battery-v0.2","","""event"",""trial"",""time""
""fullscreenenter"",""1"",""6836""
","
","
","""event"",""trial"",""time""
""fullscreenenter"",""1"",""6836""
","
","","","117","","","10","11526","5285","&#9733;","elianto","#3366ff99","-1"," ","0","0","[220.19999999995343,971.9000000001397,2527.4000000001397]","3","1","","","11526","8","2","2","win","no-go","0"
"pit-trial","129","1028646","0.0-12.0","battery-v0.2","","""event"",""trial"",""time""
""fullscreenenter"",""1"",""6836""
","
","
","""event"",""trial"",""time""
""fullscreenenter"",""1"",""6836""
","
","","","432.19999999995343","","","10","11526","5285","&#9733;","elianto","#3366ff99","-1"," ","0","0","[1287.5,2040,2986.100000000093]","3","1","","","11526","9","2","2","win","no-go","0"
"pit-trial","130","1032708","0.0-13.0","battery-v0.2","","""event"",""trial"",""time""
""fullscreenenter"",""1"",""6836""
","
","
","""event"",""trial"",""time""
""fullscreenenter"",""1"",""6836""
","
","","","1208.1999999999534","","","10","11526","5285","&#9730;","elianto","#3366ff99"," "," ","1","+10","[2059.5]","1","1","","","11526","10","1","1","win","go","0"
"pit-trial","131","1037564","0.0-14.0","battery-v0.2","","""event"",""trial"",""time""
""fullscreenenter"",""1"",""6836""
","
","
","""event"",""trial"",""time""
""fullscreenenter"",""1"",""6836""
","
","","","-1","","","10","11526","5285","&#9752;","elianto","#f73b6a7A"," ","-1","0","-10","[216.80000000004657]","1","1","","","11526","11","3","3","lose","go","0"
"pit-trial","132","1041171","0.0-15.0","battery-v0.2","","""event"",""trial"",""time""
""fullscreenenter"",""1"",""6836""
","
","
","""event"",""trial"",""time""
""fullscreenenter"",""1"",""6836""
","
","","","752.3000000000466","","","10","11526","5285","&#9728;","elianto","#f73b6a7A","-1"," ","0","-10","[1603.8000000000466]","1","1","","","11526","12","0","4","lose","no-go","0"
"pit-trial","133","1045226","0.0-16.0","battery-v0.2","","""event"",""trial"",""time""
""fullscreenenter"",""1"",""6836""
","
","
","""event"",""trial"",""time""
""fullscreenenter"",""1"",""6836""
","
","","","1186.8000000000466","","","10","11526","5285","&#9752;","elianto","#f73b6a7A"," "," ","1","-10","[2046.6999999999534]","1","1","","","11526","13","3","3","lose","go","1"
"pit-trial","134","1048156","0.0-17.0","battery-v0.2","","""event"",""trial"",""time""
""fullscreenenter"",""1"",""6836""
","
","
","""event"",""trial"",""time""
""fullscreenenter"",""1"",""6836""
","
","","","71.10000000009313","","","10","11526","5285","&#9733;","elianto","#3366ff99","-1"," ","0","0","[923.5999999998603]","1","1","","","11526","14","2","2","win","no-go","0"
"pit-trial","135","1051212","0.0-18.0","battery-v0.2","","""event"",""trial"",""time""
""fullscreenenter"",""1"",""6836""
","
","
","""event"",""trial"",""time""
""fullscreenenter"",""1"",""6836""
","
","","","202.5","","","10","11526","5285","&#9728;","elianto","#f73b6a7A","-1"," ","0","-10","[1053.8999999999069]","1","1","","","11526","15","0","4","lose","no-go","0"
"pit-trial","136","1055342","0.0-19.0","battery-v0.2","","""event"",""trial"",""time""
""fullscreenenter"",""1"",""6836""
","
","
","""event"",""trial"",""time""
""fullscreenenter"",""1"",""6836""
","
","","","1271.8000000000466","","","10","11526","5285","&#9730;","elianto","#3366ff99"," "," ","1","+10","[2123]","1","1","","","11526","16","1","1","win","go","0"
"pit-trial","137","1060199","0.0-20.0","battery-v0.2","","""event"",""trial"",""time""
""fullscreenenter"",""1"",""6836""
","
","
","""event"",""trial"",""time""
""fullscreenenter"",""1"",""6836""
","
","","","-1","","","10","11526","5285","&#9733;","elianto","#3366ff99","-1","-1","1","0","[]","0","1","","","11526","17","2","2","win","no-go","1"
"pit-trial","138","1065060","0.0-21.0","battery-v0.2","","""event"",""trial"",""time""
""fullscreenenter"",""1"",""6836""
","
","
","""event"",""trial"",""time""
""fullscreenenter"",""1"",""6836""
","
","","","-1","","","10","11526","5285","&#9728;","elianto","#f73b6a7A","-1","-1","1","0","[]","0","1","","","11526","18","0","4","lose","no-go","0"
"pit-trial","139","1069221","0.0-22.0","battery-v0.2","","""event"",""trial"",""time""
""fullscreenenter"",""1"",""6836""
","
","
","""event"",""trial"",""time""
""fullscreenenter"",""1"",""6836""
","
","","","1302.2999999998137","","","10","11526","5285","&#9730;","elianto","#3366ff99"," "," ","1","+10","[2156]","1","1","","","11526","19","1","1","win","go","0"
"pit-trial","140","1074073","0.0-23.0","battery-v0.2","","""event"",""trial"",""time""
""fullscreenenter"",""1"",""6836""
","
","
","""event"",""trial"",""time""
""fullscreenenter"",""1"",""6836""
","
","","","-1","","","10","11526","5285","&#9752;","elianto","#f73b6a7A"," ","-1","0","-10","[]","0","1","","","11526","20","3","3","lose","go","0"
"pit-instructions","141","1089209","0.0-24.0","battery-v0.2","","""event"",""trial"",""time""
""fullscreenenter"",""1"",""6836""
","
","
","""event"",""trial"",""time""
""fullscreenenter"",""1"",""6836""
","
","","[{""page_index"":0,""viewing_time"":6638.600000000093},{""page_index"":1,""viewing_time"":8494.5}]","15133.90000000014","","","","","","","","","","","","","","","","","","","","","","","",""
"pit-trial","142","1092984","0.0-25.0","battery-v0.2","","""event"",""trial"",""time""
""fullscreenenter"",""1"",""6836""
","
","
","""event"",""trial"",""time""
""fullscreenenter"",""1"",""6836""
","
","","","917.0999999998603","","","10","11526","5285","u","elianto","#f73b6a7A"," "," ","1","0","[1770.3999999999069]","1","2","","","11526","21","0","3","lose","go","0"
"pit-trial","143","1096672","0.0-26.0","battery-v0.2","","""event"",""trial"",""time""
""fullscreenenter"",""1"",""6836""
","
","
","""event"",""trial"",""time""
""fullscreenenter"",""1"",""6836""
","
","","","835.2999999998137","","","10","11526","5285","l","elianto","#3366ff99","-1"," ","0","+10","[1685.7999999998137]","1","2","","","11526","22","1","2","win","no-go","1"
"pit-trial","144","1101532","0.0-27.0","battery-v0.2","","""event"",""trial"",""time""
""fullscreenenter"",""1"",""6836""
","
","
","""event"",""trial"",""time""
""fullscreenenter"",""1"",""6836""
","
","","","-1","","","10","11526","5285","g","elianto","#f73b6a7A","-1","-1","1","0","[]","0","2","","","11526","23","3","4","lose","no-go","0"
"pit-trial","145","1106392","0.0-28.0","battery-v0.2","","""event"",""trial"",""time""
""fullscreenenter"",""1"",""6836""
","
","
","""event"",""trial"",""time""
""fullscreenenter"",""1"",""6836""
","
","","","-1","","","10","11526","5285","a","elianto","#f73b6a7A"," ","-1","0","-10","[]","0","2","","","11526","24","2","3","lose","go","0"
"pit-trial","146","1110232","0.0-29.0","battery-v0.2","","""event"",""trial"",""time""
""fullscreenenter"",""1"",""6836""
","
","
","""event"",""trial"",""time""
""fullscreenenter"",""1"",""6836""
","
","","","982","","","10","11526","5285","a","elianto","#f73b6a7A"," "," ","1","0","[1832.8999999999069]","1","2","","","11526","25","2","3","lose","go","0"
"pit-trial","147","1115086","0.0-30.0","battery-v0.2","","""event"",""trial"",""time""
""fullscreenenter"",""1"",""6836""
","
","
","""event"",""trial"",""time""
""fullscreenenter"",""1"",""6836""
","
","","","-1","","","10","11526","5285","u","elianto","#f73b6a7A"," ","-1","0","-10","[]","0","2","","","11526","26","0","3","lose","go","0"
"pit-trial","148","1119613","0.0-31.0","battery-v0.2","","""event"",""trial"",""time""
""fullscreenenter"",""1"",""6836""
","
","
","""event"",""trial"",""time""
""fullscreenenter"",""1"",""6836""
","
","","","1668.1999999999534","","","10","11526","5285","g","elianto","#f73b6a7A","-1"," ","0","-10","[2520.100000000093]","1","2","","","11526","27","3","4","lose","no-go","0"
"pit-trial","149","1124472","0.0-32.0","battery-v0.2","","""event"",""trial"",""time""
""fullscreenenter"",""1"",""6836""
","
","
","""event"",""trial"",""time""
""fullscreenenter"",""1"",""6836""
","
","","","-1","","","10","11526","5285","l","elianto","#3366ff99","-1","-1","1","+10","[3211.7000000001863]","1","2","","","11526","28","1","2","win","no-go","0"
"pit-trial","150","1128757","0.0-33.0","battery-v0.2","","""event"",""trial"",""time""
""fullscreenenter"",""1"",""6836""
","
","
","""event"",""trial"",""time""
""fullscreenenter"",""1"",""6836""
","
","","","1432.1000000000931","","","10","11526","5285","u","elianto","#f73b6a7A"," "," ","1","0","[2283.5]","1","2","","","11526","29","0","3","lose","go","0"
"pit-trial","151","1132753","0.0-34.0","battery-v0.2","","""event"",""trial"",""time""
""fullscreenenter"",""1"",""6836""
","
","
","""event"",""trial"",""time""
""fullscreenenter"",""1"",""6836""
","
","","","1140.3999999999069","","","10","11526","5285","a","elianto","#f73b6a7A"," "," ","1","0","[1992.5]","1","2","","","11526","30","2","3","lose","go","0"
"pit-trial","152","1137614","0.0-35.0","battery-v0.2","","""event"",""trial"",""time""
""fullscreenenter"",""1"",""6836""
","
","
","""event"",""trial"",""time""
""fullscreenenter"",""1"",""6836""
","
","","","-1","","","10","11526","5285","g","elianto","#f73b6a7A","-1","-1","1","0","[]","0","2","","","11526","31","3","4","lose","no-go","0"
"pit-trial","153","1141584","0.0-36.0","battery-v0.2","","""event"",""trial"",""time""
""fullscreenenter"",""1"",""6836""
","
","
","""event"",""trial"",""time""
""fullscreenenter"",""1"",""6836""
","
","","","1113.3999999999069","","","10","11526","5285","l","elianto","#3366ff99","-1"," ","0","0","[1964.0999999998603]","1","2","","","11526","32","1","2","win","no-go","0"
"pit-trial","154","1146443","0.0-37.0","battery-v0.2","","""event"",""trial"",""time""
""fullscreenenter"",""1"",""6836""
","
","
","""event"",""trial"",""time""
""fullscreenenter"",""1"",""6836""
","
","","","-1","","","10","11526","5285","g","elianto","#f73b6a7A","-1","-1","1","0","[]","0","2","","","11526","33","3","4","lose","no-go","0"
"pit-trial","155","1149959","0.0-38.0","battery-v0.2","","""event"",""trial"",""time""
""fullscreenenter"",""1"",""6836""
","
","
","""event"",""trial"",""time""
""fullscreenenter"",""1"",""6836""
","
","","","656.6000000000931","","","10","11526","5285","l","elianto","#3366ff99","-1"," ","0","0","[1509.8000000000466,2161.600000000093,2683.100000000093]","3","2","","","11526","34","1","2","win","no-go","0"
"pit-trial","156","1154428","0.0-39.0","battery-v0.2","","""event"",""trial"",""time""
""fullscreenenter"",""1"",""6836""
","
","
","""event"",""trial"",""time""
""fullscreenenter"",""1"",""6836""
","
","","","1611.0999999998603","","","10","11526","5285","a","elianto","#f73b6a7A"," "," ","1","-10","[2461.6999999999534]","1","2","","","11526","35","2","3","lose","go","1"
"pit-trial","157","1158455","0.0-40.0","battery-v0.2","","""event"",""trial"",""time""
""fullscreenenter"",""1"",""6836""
","
","
","""event"",""trial"",""time""
""fullscreenenter"",""1"",""6836""
","
","","","1164","","","10","11526","5285","u","elianto","#f73b6a7A"," "," ","1","0","[2025.3999999999069]","1","2","","","11526","36","0","3","lose","go","0"
"pit-trial","158","1161436","0.0-41.0","battery-v0.2","","""event"",""trial"",""time""
""fullscreenenter"",""1"",""6836""
","
","
","""event"",""trial"",""time""
""fullscreenenter"",""1"",""6836""
","
","","","124.5999999998603","","","10","11526","5285","g","elianto","#f73b6a7A","-1"," ","0","-10","[975.6999999999534]","1","2","","","11526","37","3","4","lose","no-go","0"
"pit-trial","159","1164585","0.0-42.0","battery-v0.2","","""event"",""trial"",""time""
""fullscreenenter"",""1"",""6836""
","
","
","""event"",""trial"",""time""
""fullscreenenter"",""1"",""6836""
","
","","","290.89999999990687","","","10","11526","5285","u","elianto","#f73b6a7A"," "," ","1","0","[1142.7999999998137]","1","2","","","11526","38","0","3","lose","go","0"
"pit-trial","160","1168064","0.0-43.0","battery-v0.2","","""event"",""trial"",""time""
""fullscreenenter"",""1"",""6836""
","
","
","""event"",""trial"",""time""
""fullscreenenter"",""1"",""6836""
","
","","","622.0999999998603","","","10","11526","5285","l","elianto","#3366ff99","-1"," ","0","+10","[735.0999999998603,1473.0999999998603]","2","2","","","11526","39","1","2","win","no-go","1"
"pit-trial","161","1172926","0.0-44.0","battery-v0.2","","""event"",""trial"",""time""
""fullscreenenter"",""1"",""6836""
","
","
","""event"",""trial"",""time""
""fullscreenenter"",""1"",""6836""
","
","","","-1","","","10","11526","5285","a","elianto","#f73b6a7A"," ","-1","0","-10","[4666.399999999907]","1","2","","","11526","40","2","3","lose","go","0"
"pit-trial","162","1176721","0.0-45.0","battery-v0.2","","""event"",""trial"",""time""
""fullscreenenter"",""1"",""6836""
","
","
","""event"",""trial"",""time""
""fullscreenenter"",""1"",""6836""
","
","","","934.8000000000466","","","10","11526","5285","a","elianto","#f73b6a7A"," "," ","1","0","[1787.3000000000466,3165.5]","2","2","","","11526","41","2","3","lose","go","0"
"pit-trial","163","1181582","0.0-46.0","battery-v0.2","","""event"",""trial"",""time""
""fullscreenenter"",""1"",""6836""
","
","
","""event"",""trial"",""time""
""fullscreenenter"",""1"",""6836""
","
","","","-1","","","10","11526","5285","l","elianto","#3366ff99","-1","-1","1","+10","[]","0","2","","","11526","42","1","2","win","no-go","0"
"pit-trial","164","1185940","0.0-47.0","battery-v0.2","","""event"",""trial"",""time""
""fullscreenenter"",""1"",""6836""
","
","
","""event"",""trial"",""time""
""fullscreenenter"",""1"",""6836""
","
","","","1497","","","10","11526","5285","u","elianto","#f73b6a7A"," "," ","1","-10","[2350.5,3233.3000000000466]","2","2","","","11526","43","0","3","lose","go","1"
"pit-trial","165","1190252","0.0-48.0","battery-v0.2","","""event"",""trial"",""time""
""fullscreenenter"",""1"",""6836""
","
","
","""event"",""trial"",""time""
""fullscreenenter"",""1"",""6836""
","
","","","1442.3999999999069","","","10","11526","5285","g","elianto","#f73b6a7A","-1"," ","0","-10","[2305.899999999907]","1","2","","","11526","44","3","4","lose","no-go","0"
"pit-trial","166","1193369","0.0-49.0","battery-v0.2","","""event"",""trial"",""time""
""fullscreenenter"",""1"",""6836""
","
","
","""event"",""trial"",""time""
""fullscreenenter"",""1"",""6836""
","
","","","260.30000000004657","","","10","11526","5285","g","elianto","#f73b6a7A","-1"," ","0","-10","[1111.6999999999534,2180.5,2817.5]","3","2","","","11526","45","3","4","lose","no-go","0"
"pit-trial","167","1196755","0.0-50.0","battery-v0.2","","""event"",""trial"",""time""
""fullscreenenter"",""1"",""6836""
","
","
","""event"",""trial"",""time""
""fullscreenenter"",""1"",""6836""
","
","","","529.2999999998137","","","10","11526","5285","l","elianto","#3366ff99","-1"," ","0","0","[838.8000000000466,1380.6000000000931,2116.600000000093,2549.3000000000466,2998.4000000001397]","5","2","","","11526","46","1","2","win","no-go","0"
"pit-trial","168","1200597","0.0-51.0","battery-v0.2","","""event"",""trial"",""time""
""fullscreenenter"",""1"",""6836""
","
","
","""event"",""trial"",""time""
""fullscreenenter"",""1"",""6836""
","
","","","984.6999999999534","","","10","11526","5285","u","elianto","#f73b6a7A"," "," ","1","-10","[1835.9000000001397,2703,3319.4000000001397]","3","2","","","11526","47","0","3","lose","go","1"
"pit-trial","169","1204974","0.0-52.0","battery-v0.2","","""event"",""trial"",""time""
""fullscreenenter"",""1"",""6836""
","
","
","""event"",""trial"",""time""
""fullscreenenter"",""1"",""6836""
","
","","","1515.3000000000466","","","10","11526","5285","a","elianto","#f73b6a7A"," "," ","1","-10","[294.69999999995343,2372.1999999999534,3265.3000000000466,3688.100000000093]","4","2","","","11526","48","2","3","lose","go","1"
"pit-trial","170","1209833","0.0-53.0","battery-v0.2","","""event"",""trial"",""time""
""fullscreenenter"",""1"",""6836""
","
","
","""event"",""trial"",""time""
""fullscreenenter"",""1"",""6836""
","
","","","-1","","","10","11526","5285","g","elianto","#f73b6a7A","-1","-1","1","0","[]","0","2","","","11526","49","3","4","lose","no-go","0"
"pit-trial","171","1214692","0.0-54.0","battery-v0.2","","""event"",""trial"",""time""
""fullscreenenter"",""1"",""6836""
","
","
","""event"",""trial"",""time""
""fullscreenenter"",""1"",""6836""
","
","","","-1","","","10","11526","5285","l","elianto","#3366ff99","-1","-1","1","+10","[]","0","2","","","11526","50","1","2","win","no-go","0"
"pit-trial","172","1219550","0.0-55.0","battery-v0.2","","""event"",""trial"",""time""
""fullscreenenter"",""1"",""6836""
","
","
","""event"",""trial"",""time""
""fullscreenenter"",""1"",""6836""
","
","","","-1","","","10","11526","5285","a","elianto","#f73b6a7A"," ","-1","0","-10","[3233.5,4368.100000000093]","2","2","","","11526","51","2","3","lose","go","0"
"pit-trial","173","1222603","0.0-56.0","battery-v0.2","","""event"",""trial"",""time""
""fullscreenenter"",""1"",""6836""
","
","
","""event"",""trial"",""time""
""fullscreenenter"",""1"",""6836""
","
","","","198.4000000001397","","","10","11526","5285","u","elianto","#f73b6a7A"," "," ","1","0","[1049.3000000000466]","1","2","","","11526","52","0","3","lose","go","0"
"pit-trial","174","1225467","0.0-57.0","battery-v0.2","","""event"",""trial"",""time""
""fullscreenenter"",""1"",""6836""
","
","
","""event"",""trial"",""time""
""fullscreenenter"",""1"",""6836""
","
","","","6.399999999906868","","","10","11526","5285","l","elianto","#3366ff99","-1"," ","0","0","[857.5]","1","2","","","11526","53","1","2","win","no-go","0"
"pit-trial","175","1230032","0.0-58.0","battery-v0.2","","""event"",""trial"",""time""
""fullscreenenter"",""1"",""6836""
","
","
","""event"",""trial"",""time""
""fullscreenenter"",""1"",""6836""
","
","","","1709.5","","","10","11526","5285","u","elianto","#f73b6a7A"," "," ","1","-10","[147.39999999990687,2560.6999999999534,3730.5999999998603]","3","2","","","11526","54","0","3","lose","go","1"
"pit-trial","176","1234668","0.0-59.0","battery-v0.2","","""event"",""trial"",""time""
""fullscreenenter"",""1"",""6836""
","
","
","""event"",""trial"",""time""
""fullscreenenter"",""1"",""6836""
","
","","","1778.1000000000931","","","10","11526","5285","g","elianto","#f73b6a7A","-1"," ","0","-10","[371.80000000004657,2630]","2","2","","","11526","55","3","4","lose","no-go","0"
"pit-trial","177","1239526","0.0-60.0","battery-v0.2","","""event"",""trial"",""time""
""fullscreenenter"",""1"",""6836""
","
","
","""event"",""trial"",""time""
""fullscreenenter"",""1"",""6836""
","
","","","-1","","","10","11526","5285","a","elianto","#f73b6a7A"," ","-1","0","-10","[810.5,4288.699999999953]","2","2","","","11526","56","2","3","lose","go","0"
"pit-trial","178","1244387","0.0-61.0","battery-v0.2","","""event"",""trial"",""time""
""fullscreenenter"",""1"",""6836""
","
","
","""event"",""trial"",""time""
""fullscreenenter"",""1"",""6836""
","
","","","-1","","","10","11526","5285","u","elianto","#f73b6a7A"," ","-1","0","-10","[2938.4000000001397]","1","2","","","11526","57","0","3","lose","go","0"
"pit-trial","179","1247562","0.0-62.0","battery-v0.2","","""event"",""trial"",""time""
""fullscreenenter"",""1"",""6836""
","
","
","""event"",""trial"",""time""
""fullscreenenter"",""1"",""6836""
","
","","","316.0999999998603","","","10","11526","5285","p","elianto","#3366ff99"," "," ","1","+10","[1169]","1","2","","","11526","58","4","1","win","go","0"
"pit-trial","180","1250904","0.0-63.0","battery-v0.2","","""event"",""trial"",""time""
""fullscreenenter"",""1"",""6836""
","
","
","""event"",""trial"",""time""
""fullscreenenter"",""1"",""6836""
","
","","","485.69999999995343","","","10","11526","5285","g","elianto","#f73b6a7A","-1"," ","0","-10","[1336.6999999999534]","1","2","","","11526","59","3","4","lose","no-go","0"
"pit-trial","181","1254149","0.0-64.0","battery-v0.2","","""event"",""trial"",""time""
""fullscreenenter"",""1"",""6836""
","
","
","""event"",""trial"",""time""
""fullscreenenter"",""1"",""6836""
","
","","","387.0999999998603","","","10","11526","5285","a","elianto","#f73b6a7A"," "," ","1","0","[1239.1000000000931]","1","2","","","11526","60","2","3","lose","go","0"
"pit-trial","182","1258268","0.0-65.0","battery-v0.2","","""event"",""trial"",""time""
""fullscreenenter"",""1"",""6836""
","
","
","""event"",""trial"",""time""
""fullscreenenter"",""1"",""6836""
","
","","","1261.1000000000931","","","10","11526","5285","p","elianto","#3366ff99"," "," ","1","+10","[2112.3000000000466]","1","2","","","11526","61","4","1","win","go","0"
"pit-trial","183","1262061","0.0-66.0","battery-v0.2","","""event"",""trial"",""time""
""fullscreenenter"",""1"",""6836""
","
","
","""event"",""trial"",""time""
""fullscreenenter"",""1"",""6836""
","
","","","935.3000000000466","","","10","11526","5285","g","elianto","#f73b6a7A","-1"," ","0","-10","[1786.7000000001863]","1","2","","","11526","62","3","4","lose","no-go","0"
"pit-trial","184","1265922","0.0-67.0","battery-v0.2","","""event"",""trial"",""time""
""fullscreenenter"",""1"",""6836""
","
","
","""event"",""trial"",""time""
""fullscreenenter"",""1"",""6836""
","
","","","1002.3000000000466","","","10","11526","5285","a","elianto","#f73b6a7A"," "," ","1","0","[1854.1999999999534]","1","2","","","11526","63","2","3","lose","go","0"
"pit-trial","185","1270084","0.0-68.0","battery-v0.2","","""event"",""trial"",""time""
""fullscreenenter"",""1"",""6836""
","
","
","""event"",""trial"",""time""
""fullscreenenter"",""1"",""6836""
","
","","","1308","","","10","11526","5285","l","elianto","#3366ff99","-1"," ","0","+10","[2159.600000000093]","1","2","","","11526","64","1","2","win","no-go","1"
"pit-trial","186","1273968","0.0-69.0","battery-v0.2","","""event"",""trial"",""time""
""fullscreenenter"",""1"",""6836""
","
","
","""event"",""trial"",""time""
""fullscreenenter"",""1"",""6836""
","
","","","1027.5999999998603","","","10","11526","5285","p","elianto","#3366ff99"," "," ","1","+10","[1882.5999999998603]","1","2","","","11526","65","4","1","win","go","0"
"pit-trial","187","1276958","0.0-70.0","battery-v0.2","","""event"",""trial"",""time""
""fullscreenenter"",""1"",""6836""
","
","
","""event"",""trial"",""time""
""fullscreenenter"",""1"",""6836""
","
","","","134.39999999990687","","","10","11526","5285","l","elianto","#3366ff99","-1"," ","0","0","[91.30000000004657,984.8000000000466]","2","2","","","11526","66","1","2","win","no-go","0"
"pit-trial","188","1281815","0.0-71.0","battery-v0.2","","""event"",""trial"",""time""
""fullscreenenter"",""1"",""6836""
","
","
","""event"",""trial"",""time""
""fullscreenenter"",""1"",""6836""
","
","","","-1","","","10","11526","5285","s","elianto","#3366ff99","-1","-1","1","+10","[565.5,3174,4482.5]","3","2","","","11526","67","5","2","win","no-go","0"
"pit-trial","189","1286674","0.0-72.0","battery-v0.2","","""event"",""trial"",""time""
""fullscreenenter"",""1"",""6836""
","
","
","""event"",""trial"",""time""
""fullscreenenter"",""1"",""6836""
","
","","","-1","","","10","11526","5285","g","elianto","#f73b6a7A","-1","-1","1","0","[]","0","2","","","11526","68","3","4","lose","no-go","0"
"pit-trial","190","1290960","0.0-73.0","battery-v0.2","","""event"",""trial"",""time""
""fullscreenenter"",""1"",""6836""
","
","
","""event"",""trial"",""time""
""fullscreenenter"",""1"",""6836""
","
","","","1428","","","10","11526","5285","s","elianto","#3366ff99","-1"," ","0","+10","[2280.1999999999534]","1","2","","","11526","69","5","2","win","no-go","1"
"pit-trial","191","1294607","0.0-74.0","battery-v0.2","","""event"",""trial"",""time""
""fullscreenenter"",""1"",""6836""
","
","
","""event"",""trial"",""time""
""fullscreenenter"",""1"",""6836""
","
","","","788.1000000000931","","","10","11526","5285","p","elianto","#3366ff99"," "," ","1","+10","[1643.4000000001397,3087.5]","2","2","","","11526","70","4","1","win","go","0"
"pit-trial","192","1297534","0.0-75.0","battery-v0.2","","""event"",""trial"",""time""
""fullscreenenter"",""1"",""6836""
","
","
","""event"",""trial"",""time""
""fullscreenenter"",""1"",""6836""
","
","","","71.9000000001397","","","10","11526","5285","l","elianto","#3366ff99","-1"," ","0","0","[178.5,922.6000000000931,1527.2000000001863]","3","2","","","11526","71","1","2","win","no-go","0"
"pit-trial","193","1300526","0.0-76.0","battery-v0.2","","""event"",""trial"",""time""
""fullscreenenter"",""1"",""6836""
","
","
","""event"",""trial"",""time""
""fullscreenenter"",""1"",""6836""
","
","","","138.4000000001397","","","10","11526","5285","a","elianto","#f73b6a7A"," "," ","1","0","[989,1446.8999999999069,1831.6000000000931,2210.899999999907]","4","2","","","11526","72","2","3","lose","go","0"
"pit-trial","194","1304219","0.0-77.0","battery-v0.2","","""event"",""trial"",""time""
""fullscreenenter"",""1"",""6836""
","
","
","""event"",""trial"",""time""
""fullscreenenter"",""1"",""6836""
","
","","","830","","","10","11526","5285","l","elianto","#3366ff99","-1"," ","0","0","[1686.1000000000931]","1","2","","","11526","73","1","2","win","no-go","0"
"pit-trial","195","1309073","0.0-78.0","battery-v0.2","","""event"",""trial"",""time""
""fullscreenenter"",""1"",""6836""
","
","
","""event"",""trial"",""time""
""fullscreenenter"",""1"",""6836""
","
","","","-1","","","10","11526","5285","g","elianto","#f73b6a7A","-1","-1","1","-10","[]","0","2","","","11526","74","3","4","lose","no-go","1"
"pit-trial","196","1313366","0.0-79.0","battery-v0.2","","""event"",""trial"",""time""
""fullscreenenter"",""1"",""6836""
","
","
","""event"",""trial"",""time""
""fullscreenenter"",""1"",""6836""
","
","","","1437.1999999999534","","","10","11526","5285","s","elianto","#3366ff99","-1"," ","0","0","[2288.100000000093]","1","2","","","11526","75","5","2","win","no-go","0"
"pit-trial","197","1317103","0.0-80.0","battery-v0.2","","""event"",""trial"",""time""
""fullscreenenter"",""1"",""6836""
","
","
","""event"",""trial"",""time""
""fullscreenenter"",""1"",""6836""
","
","","","879.6999999999534","","","10","11526","5285","p","elianto","#3366ff99"," "," ","1","+10","[1731.5]","1","2","","","11526","76","4","1","win","go","0"
"pit-trial","198","1321358","0.0-81.0","battery-v0.2","","""event"",""trial"",""time""
""fullscreenenter"",""1"",""6836""
","
","
","""event"",""trial"",""time""
""fullscreenenter"",""1"",""6836""
","
","","","1399.1999999999534","","","10","11526","5285","g","elianto","#f73b6a7A","-1"," ","0","0","[2250.899999999907]","1","2","","","11526","77","3","4","lose","no-go","1"
"pit-trial","199","1325441","0.0-82.0","battery-v0.2","","""event"",""trial"",""time""
""fullscreenenter"",""1"",""6836""
","
","
","""event"",""trial"",""time""
""fullscreenenter"",""1"",""6836""
","
","","","1227.5","","","10","11526","5285","p","elianto","#3366ff99"," "," ","1","+10","[2079.3000000000466]","1","2","","","11526","78","4","1","win","go","0"
"pit-trial","200","1329310","0.0-83.0","battery-v0.2","","""event"",""trial"",""time""
""fullscreenenter"",""1"",""6836""
","
","
","""event"",""trial"",""time""
""fullscreenenter"",""1"",""6836""
","
","","","1011.3000000000466","","","10","11526","5285","s","elianto","#3366ff99","-1"," ","0","0","[1863.0999999998603]","1","2","","","11526","79","5","2","win","no-go","0"
"pit-trial","201","1333341","0.0-84.0","battery-v0.2","","""event"",""trial"",""time""
""fullscreenenter"",""1"",""6836""
","
","
","""event"",""trial"",""time""
""fullscreenenter"",""1"",""6836""
","
","","","1172.5999999998603","","","10","11526","5285","p","elianto","#3366ff99"," "," ","1","0","[2023.4000000001397]","1","2","","","11526","80","4","1","win","go","1"
"pit-trial","202","1337340","0.0-85.0","battery-v0.2","","""event"",""trial"",""time""
""fullscreenenter"",""1"",""6836""
","
","
","""event"",""trial"",""time""
""fullscreenenter"",""1"",""6836""
","
","","","1145.3000000000466","","","10","11526","5285","p","elianto","#3366ff99"," "," ","1","0","[1996.4000000001397]","1","2","","","11526","81","4","1","win","go","1"
"pit-trial","203","1342194","0.0-86.0","battery-v0.2","","""event"",""trial"",""time""
""fullscreenenter"",""1"",""6836""
","
","
","""event"",""trial"",""time""
""fullscreenenter"",""1"",""6836""
","
","","","-1","","","10","11526","5285","s","elianto","#3366ff99","-1","-1","1","+10","[]","0","2","","","11526","82","5","2","win","no-go","0"
"pit-trial","204","1347051","0.0-87.0","battery-v0.2","","""event"",""trial"",""time""
""fullscreenenter"",""1"",""6836""
","
","
","""event"",""trial"",""time""
""fullscreenenter"",""1"",""6836""
","
","","","-1","","","10","11526","5285","g","elianto","#f73b6a7A","-1","-1","1","0","[]","0","2","","","11526","83","3","4","lose","no-go","0"
"pit-trial","205","1351372","0.0-88.0","battery-v0.2","","""event"",""trial"",""time""
""fullscreenenter"",""1"",""6836""
","
","
","""event"",""trial"",""time""
""fullscreenenter"",""1"",""6836""
","
","","","1466","","","10","11526","5285","e","elianto","#f73b6a7A","-1"," ","0","-10","[2317.5]","1","2","","","11526","84","7","4","lose","no-go","0"
"pit-trial","206","1356232","0.0-89.0","battery-v0.2","","""event"",""trial"",""time""
""fullscreenenter"",""1"",""6836""
","
","
","""event"",""trial"",""time""
""fullscreenenter"",""1"",""6836""
","
","","","-1","","","10","11526","5285","s","elianto","#3366ff99","-1","-1","1","+10","[]","0","2","","","11526","85","5","2","win","no-go","0"
"pit-trial","207","1361088","0.0-90.0","battery-v0.2","","""event"",""trial"",""time""
""fullscreenenter"",""1"",""6836""
","
","
","""event"",""trial"",""time""
""fullscreenenter"",""1"",""6836""
","
","","","-1","","","10","11526","5285","w","elianto","#f73b6a7A"," ","-1","0","-10","[]","0","2","","","11526","86","6","3","lose","go","0"
"pit-trial","208","1365945","0.0-91.0","battery-v0.2","","""event"",""trial"",""time""
""fullscreenenter"",""1"",""6836""
","
","
","""event"",""trial"",""time""
""fullscreenenter"",""1"",""6836""
","
","","","-1","","","10","11526","5285","e","elianto","#f73b6a7A","-1","-1","1","0","[]","0","2","","","11526","87","7","4","lose","no-go","0"
"pit-trial","209","1370800","0.0-92.0","battery-v0.2","","""event"",""trial"",""time""
""fullscreenenter"",""1"",""6836""
","
","
","""event"",""trial"",""time""
""fullscreenenter"",""1"",""6836""
","
","","","-1","","","10","11526","5285","p","elianto","#3366ff99"," ","-1","0","0","[]","0","2","","","11526","88","4","1","win","go","0"
"pit-trial","210","1375659","0.0-93.0","battery-v0.2","","""event"",""trial"",""time""
""fullscreenenter"",""1"",""6836""
","
","
","""event"",""trial"",""time""
""fullscreenenter"",""1"",""6836""
","
","","","-1","","","10","11526","5285","e","elianto","#f73b6a7A","-1","-1","1","0","[]","0","2","","","11526","89","7","4","lose","no-go","0"
"pit-trial","211","1379397","0.0-94.0","battery-v0.2","","""event"",""trial"",""time""
""fullscreenenter"",""1"",""6836""
","
","
","""event"",""trial"",""time""
""fullscreenenter"",""1"",""6836""
","
","","","880.6000000000931","","","10","11526","5285","s","elianto","#3366ff99","-1"," ","0","0","[1732.6000000000931]","1","2","","","11526","90","5","2","win","no-go","0"
"pit-trial","212","1384256","0.0-95.0","battery-v0.2","","""event"",""trial"",""time""
""fullscreenenter"",""1"",""6836""
","
","
","""event"",""trial"",""time""
""fullscreenenter"",""1"",""6836""
","
","","","-1","","","10","11526","5285","w","elianto","#f73b6a7A"," ","-1","0","-10","[]","0","2","","","11526","91","6","3","lose","go","0"
"pit-trial","213","1389115","0.0-96.0","battery-v0.2","","""event"",""trial"",""time""
""fullscreenenter"",""1"",""6836""
","
","
","""event"",""trial"",""time""
""fullscreenenter"",""1"",""6836""
","
","","","-1","","","10","11526","5285","p","elianto","#3366ff99"," ","-1","0","0","[]","0","2","","","11526","92","4","1","win","go","0"
"pit-trial","214","1393974","0.0-97.0","battery-v0.2","","""event"",""trial"",""time""
""fullscreenenter"",""1"",""6836""
","
","
","""event"",""trial"",""time""
""fullscreenenter"",""1"",""6836""
","
","","","-1","","","10","11526","5285","d","elianto","#3366ff99"," ","-1","0","+10","[]","0","2","","","11526","93","8","1","win","go","1"
"pit-trial","215","1398740","0.0-98.0","battery-v0.2","","""event"",""trial"",""time""
""fullscreenenter"",""1"",""6836""
","
","
","""event"",""trial"",""time""
""fullscreenenter"",""1"",""6836""
","
","","","1904.1999999999534","","","10","11526","5285","s","elianto","#3366ff99","-1"," ","0","0","[2759.1999999999534]","1","2","","","11526","94","5","2","win","no-go","0"
"pit-trial","216","1403598","0.0-99.0","battery-v0.2","","""event"",""trial"",""time""
""fullscreenenter"",""1"",""6836""
","
","
","""event"",""trial"",""time""
""fullscreenenter"",""1"",""6836""
","
","","","-1","","","10","11526","5285","w","elianto","#f73b6a7A"," ","-1","0","-10","[3815.8000000000466]","1","2","","","11526","95","6","3","lose","go","0"
"pit-trial","217","1408459","0.0-100.0","battery-v0.2","","""event"",""trial"",""time""
""fullscreenenter"",""1"",""6836""
","
","
","""event"",""trial"",""time""
""fullscreenenter"",""1"",""6836""
","
","","","-1","","","10","11526","5285","e","elianto","#f73b6a7A","-1","-1","1","0","[]","0","2","","","11526","96","7","4","lose","no-go","0"
"pit-trial","218","1413317","0.0-101.0","battery-v0.2","","""event"",""trial"",""time""
""fullscreenenter"",""1"",""6836""
","
","
","""event"",""trial"",""time""
""fullscreenenter"",""1"",""6836""
","
","","","-1","","","10","11526","5285","w","elianto","#f73b6a7A"," ","-1","0","0","[]","0","2","","","11526","97","6","3","lose","go","1"
"pit-trial","219","1418175","0.0-102.0","battery-v0.2","","""event"",""trial"",""time""
""fullscreenenter"",""1"",""6836""
","
","
","""event"",""trial"",""time""
""fullscreenenter"",""1"",""6836""
","
","","","-1","","","10","11526","5285","d","elianto","#3366ff99"," ","-1","0","0","[4051.1999999999534]","1","2","","","11526","98","8","1","win","go","0"
"pit-trial","220","1423032","0.0-103.0","battery-v0.2","","""event"",""trial"",""time""
""fullscreenenter"",""1"",""6836""
","
","
","""event"",""trial"",""time""
""fullscreenenter"",""1"",""6836""
","
","","","-1","","","10","11526","5285","e","elianto","#f73b6a7A","-1","-1","1","0","[]","0","2","","","11526","99","7","4","lose","no-go","0"
"pit-trial","221","1427892","0.0-104.0","battery-v0.2","","""event"",""trial"",""time""
""fullscreenenter"",""1"",""6836""
","
","
","""event"",""trial"",""time""
""fullscreenenter"",""1"",""6836""
","
","","","-1","","","10","11526","5285","s","elianto","#3366ff99","-1","-1","1","+10","[3698.1999999999534]","1","2","","","11526","100","5","2","win","no-go","0"
"pit-trial","222","1432751","0.0-105.0","battery-v0.2","","""event"",""trial"",""time""
""fullscreenenter"",""1"",""6836""
","
","
","""event"",""trial"",""time""
""fullscreenenter"",""1"",""6836""
","
","","","-1","","","10","11526","5285","s","elianto","#3366ff99","-1","-1","1","+10","[]","0","2","","","11526","101","5","2","win","no-go","0"
"pit-trial","223","1437616","0.0-106.0","battery-v0.2","","""event"",""trial"",""time""
""fullscreenenter"",""1"",""6836""
","
","
","""event"",""trial"",""time""
""fullscreenenter"",""1"",""6836""
","
","","","-1","","","10","11526","5285","e","elianto","#f73b6a7A","-1","-1","1","0","[]","0","2","","","11526","102","7","4","lose","no-go","0"
"pit-trial","224","1441632","0.0-107.0","battery-v0.2","","""event"",""trial"",""time""
""fullscreenenter"",""1"",""6836""
","
","
","""event"",""trial"",""time""
""fullscreenenter"",""1"",""6836""
","
","","","1159.8000000000466","","","10","11526","5285","j","elianto","#3366ff99"," "," ","1","+10","[2010.6999999999534]","1","2","","","11526","103","9","1","win","go","0"
"pit-trial","225","1446387","0.0-108.0","battery-v0.2","","""event"",""trial"",""time""
""fullscreenenter"",""1"",""6836""
","
","
","""event"",""trial"",""time""
""fullscreenenter"",""1"",""6836""
","
","","","1897.8000000000466","","","10","11526","5285","d","elianto","#3366ff99"," "," ","1","+10","[2749.399999999907]","1","2","","","11526","104","8","1","win","go","0"
"pit-trial","226","1451240","0.0-109.0","battery-v0.2","","""event"",""trial"",""time""
""fullscreenenter"",""1"",""6836""
","
","
","""event"",""trial"",""time""
""fullscreenenter"",""1"",""6836""
","
","","","-1","","","10","11526","5285","w","elianto","#f73b6a7A"," ","-1","0","0","[]","0","2","","","11526","105","6","3","lose","go","1"
"pit-trial","227","1456098","0.0-110.0","battery-v0.2","","""event"",""trial"",""time""
""fullscreenenter"",""1"",""6836""
","
","
","""event"",""trial"",""time""
""fullscreenenter"",""1"",""6836""
","
","","","-1","","","10","11526","5285","p","elianto","#3366ff99"," ","-1","0","0","[3438.6999999999534]","1","2","","","11526","106","4","1","win","go","0"
"pit-trial","228","1460589","0.0-111.0","battery-v0.2","","""event"",""trial"",""time""
""fullscreenenter"",""1"",""6836""
","
","
","""event"",""trial"",""time""
""fullscreenenter"",""1"",""6836""
","
","","","1633.9000000001397","","","10","11526","5285","j","elianto","#3366ff99"," "," ","1","+10","[2485.5]","1","2","","","11526","107","9","1","win","go","0"
"pit-trial","229","1464138","0.0-112.0","battery-v0.2","","""event"",""trial"",""time""
""fullscreenenter"",""1"",""6836""
","
","
","""event"",""trial"",""time""
""fullscreenenter"",""1"",""6836""
","
","","","686.4000000001397","","","10","11526","5285","d","elianto","#3366ff99"," "," ","1","+10","[1542]","1","2","","","11526","108","8","1","win","go","0"
"pit-trial","230","1467709","0.0-113.0","battery-v0.2","","""event"",""trial"",""time""
""fullscreenenter"",""1"",""6836""
","
","
","""event"",""trial"",""time""
""fullscreenenter"",""1"",""6836""
","
","","","707.3000000000466","","","10","11526","5285","s","elianto","#3366ff99","-1"," ","0","0","[215.60000000009313,1569.1999999999534]","2","2","","","11526","109","5","2","win","no-go","0"
"pit-trial","231","1471082","0.0-114.0","battery-v0.2","","""event"",""trial"",""time""
""fullscreenenter"",""1"",""6836""
","
","
","""event"",""trial"",""time""
""fullscreenenter"",""1"",""6836""
","
","","","515.3999999999069","","","10","11526","5285","d","elianto","#3366ff99"," "," ","1","+10","[1365.8000000002794]","1","2","","","11526","110","8","1","win","go","0"
"pit-trial","232","1474672","0.0-115.0","battery-v0.2","","""event"",""trial"",""time""
""fullscreenenter"",""1"",""6836""
","
","
","""event"",""trial"",""time""
""fullscreenenter"",""1"",""6836""
","
","","","734.3999999999069","","","10","11526","5285","j","elianto","#3366ff99"," "," ","1","+10","[1586.1000000000931]","1","2","","","11526","111","9","1","win","go","0"
"pit-trial","233","1477932","0.0-116.0","battery-v0.2","","""event"",""trial"",""time""
""fullscreenenter"",""1"",""6836""
","
","
","""event"",""trial"",""time""
""fullscreenenter"",""1"",""6836""
","
","","","404.59999999962747","","","10","11526","5285","w","elianto","#f73b6a7A"," "," ","1","0","[1256.5999999996275]","1","2","","","11526","112","6","3","lose","go","0"
"pit-trial","234","1481130","0.0-117.0","battery-v0.2","","""event"",""trial"",""time""
""fullscreenenter"",""1"",""6836""
","
","
","""event"",""trial"",""time""
""fullscreenenter"",""1"",""6836""
","
","","","337","","","10","11526","5285","s","elianto","#3366ff99","-1"," ","0","0","[1192.8999999999069]","1","2","","","11526","113","5","2","win","no-go","0"
"pit-trial","235","1484261","0.0-118.0","battery-v0.2","","""event"",""trial"",""time""
""fullscreenenter"",""1"",""6836""
","
","
","""event"",""trial"",""time""
""fullscreenenter"",""1"",""6836""
","
","","","262.09999999962747","","","10","11526","5285","w","elianto","#f73b6a7A"," "," ","1","0","[1123.5]","1","2","","","11526","114","6","3","lose","go","0"
"pit-trial","236","1488041","0.0-119.0","battery-v0.2","","""event"",""trial"",""time""
""fullscreenenter"",""1"",""6836""
","
","
","""event"",""trial"",""time""
""fullscreenenter"",""1"",""6836""
","
","","","927","","","10","11526","5285","d","elianto","#3366ff99"," "," ","1","+10","[1777.7999999998137]","1","2","","","11526","115","8","1","win","go","0"
"pit-trial","237","1491230","0.0-120.0","battery-v0.2","","""event"",""trial"",""time""
""fullscreenenter"",""1"",""6836""
","
","
","""event"",""trial"",""time""
""fullscreenenter"",""1"",""6836""
","
","","","335.29999999981374","","","10","11526","5285","j","elianto","#3366ff99"," "," ","1","0","[1186.5]","1","2","","","11526","116","9","1","win","go","1"
"pit-trial","238","1496089","0.0-121.0","battery-v0.2","","""event"",""trial"",""time""
""fullscreenenter"",""1"",""6836""
","
","
","""event"",""trial"",""time""
""fullscreenenter"",""1"",""6836""
","
","","","-1","","","10","11526","5285","w","elianto","#f73b6a7A"," ","-1","0","0","[]","0","2","","","11526","117","6","3","lose","go","1"
"pit-trial","239","1500048","0.0-122.0","battery-v0.2","","""event"",""trial"",""time""
""fullscreenenter"",""1"",""6836""
","
","
","""event"",""trial"",""time""
""fullscreenenter"",""1"",""6836""
","
","","","1100.6000000000931","","","10","11526","5285","d","elianto","#3366ff99"," "," ","1","+10","[1951.8999999999069]","1","2","","","11526","118","8","1","win","go","0"
"pit-trial","240","1504048","0.0-123.0","battery-v0.2","","""event"",""trial"",""time""
""fullscreenenter"",""1"",""6836""
","
","
","""event"",""trial"",""time""
""fullscreenenter"",""1"",""6836""
","
","","","1142.8999999999069","","","10","11526","5285","s","elianto","#3366ff99","-1"," ","0","0","[801.3000000002794,1993.7000000001863]","2","2","","","11526","119","5","2","win","no-go","0"
"pit-trial","241","1508569","0.0-124.0","battery-v0.2","","""event"",""trial"",""time""
""fullscreenenter"",""1"",""6836""
","
","
","""event"",""trial"",""time""
""fullscreenenter"",""1"",""6836""
","
","","","1666.8999999999069","","","10","11526","5285","j","elianto","#3366ff99"," "," ","1","+10","[2518]","1","2","","","11526","120","9","1","win","go","0"
"pit-trial","242","1512245","0.0-125.0","battery-v0.2","","""event"",""trial"",""time""
""fullscreenenter"",""1"",""6836""
","
","
","""event"",""trial"",""time""
""fullscreenenter"",""1"",""6836""
","
","","","818.2999999998137","","","10","11526","5285","d","elianto","#3366ff99"," "," ","1","+10","[1669.0999999996275]","1","2","","","11526","121","8","1","win","go","0"
"pit-trial","243","1517103","0.0-126.0","battery-v0.2","","""event"",""trial"",""time""
""fullscreenenter"",""1"",""6836""
","
","
","""event"",""trial"",""time""
""fullscreenenter"",""1"",""6836""
","
","","","-1","","","10","11526","5285","w","elianto","#f73b6a7A"," ","-1","0","-10","[]","0","2","","","11526","122","6","3","lose","go","0"
"pit-trial","244","1521965","0.0-127.0","battery-v0.2","","""event"",""trial"",""time""
""fullscreenenter"",""1"",""6836""
","
","
","""event"",""trial"",""time""
""fullscreenenter"",""1"",""6836""
","
","","","-1","","","10","11526","5285","j","elianto","#3366ff99"," ","-1","0","0","[]","0","2","","","11526","123","9","1","win","go","0"
"pit-trial","245","1526825","0.0-128.0","battery-v0.2","","""event"",""trial"",""time""
""fullscreenenter"",""1"",""6836""
","
","
","""event"",""trial"",""time""
""fullscreenenter"",""1"",""6836""
","
","","","-1","","","10","11526","5285","e","elianto","#f73b6a7A","-1","-1","1","0","[]","0","2","","","11526","124","7","4","lose","no-go","0"
"pit-trial","246","1531685","0.0-129.0","battery-v0.2","","""event"",""trial"",""time""
""fullscreenenter"",""1"",""6836""
","
","
","""event"",""trial"",""time""
""fullscreenenter"",""1"",""6836""
","
","","","-1","","","10","11526","5285","j","elianto","#3366ff99"," ","-1","0","0","[]","0","2","","","11526","125","9","1","win","go","0"
"pit-trial","247","1536544","0.0-130.0","battery-v0.2","","""event"",""trial"",""time""
""fullscreenenter"",""1"",""6836""
","
","
","""event"",""trial"",""time""
""fullscreenenter"",""1"",""6836""
","
","","","-1","","","10","11526","5285","d","elianto","#3366ff99"," ","-1","0","+10","[]","0","2","","","11526","126","8","1","win","go","1"
"pit-trial","248","1541403","0.0-131.0","battery-v0.2","","""event"",""trial"",""time""
""fullscreenenter"",""1"",""6836""
","
","
","""event"",""trial"",""time""
""fullscreenenter"",""1"",""6836""
","
","","","-1","","","10","11526","5285","e","elianto","#f73b6a7A","-1","-1","1","0","[]","0","2","","","11526","127","7","4","lose","no-go","0"
"pit-trial","249","1546263","0.0-132.0","battery-v0.2","","""event"",""trial"",""time""
""fullscreenenter"",""1"",""6836""
","
","
","""event"",""trial"",""time""
""fullscreenenter"",""1"",""6836""
","
","","","-1","","","10","11526","5285","w","elianto","#f73b6a7A"," ","-1","0","-10","[]","0","2","","","11526","128","6","3","lose","go","0"
"pit-trial","250","1551119","0.0-133.0","battery-v0.2","","""event"",""trial"",""time""
""fullscreenenter"",""1"",""6836""
","
","
","""event"",""trial"",""time""
""fullscreenenter"",""1"",""6836""
","
","","","-1","","","10","11526","5285","w","elianto","#f73b6a7A"," ","-1","0","-10","[]","0","2","","","11526","129","6","3","lose","go","0"
"pit-trial","251","1555975","0.0-134.0","battery-v0.2","","""event"",""trial"",""time""
""fullscreenenter"",""1"",""6836""
","
","
","""event"",""trial"",""time""
""fullscreenenter"",""1"",""6836""
","
","","","-1","","","10","11526","5285","e","elianto","#f73b6a7A","-1","-1","1","0","[]","0","2","","","11526","130","7","4","lose","no-go","0"
"pit-trial","252","1559700","0.0-135.0","battery-v0.2","","""event"",""trial"",""time""
""fullscreenenter"",""1"",""6836""
","
","
","""event"",""trial"",""time""
""fullscreenenter"",""1"",""6836""
","
","","","867.2999999998137","","","10","11526","5285","d","elianto","#3366ff99"," "," ","1","+10","[1718.7000000001863]","1","2","","","11526","131","8","1","win","go","0"
"pit-trial","253","1564327","0.0-136.0","battery-v0.2","","""event"",""trial"",""time""
""fullscreenenter"",""1"",""6836""
","
","
","""event"",""trial"",""time""
""fullscreenenter"",""1"",""6836""
","
","","","1773.7000000001863","","","10","11526","5285","j","elianto","#3366ff99"," "," ","1","+10","[2624]","1","2","","","11526","132","9","1","win","go","0"
"pit-trial","254","1568392","0.0-137.0","battery-v0.2","","""event"",""trial"",""time""
""fullscreenenter"",""1"",""6836""
","
","
","""event"",""trial"",""time""
""fullscreenenter"",""1"",""6836""
","
","","","1208.1999999997206","","","10","11526","5285","j","elianto","#3366ff99"," "," ","1","0","[2060.1999999997206,3922.5999999996275]","2","2","","","11526","133","9","1","win","go","1"
"pit-trial","255","1573249","0.0-138.0","battery-v0.2","","""event"",""trial"",""time""
""fullscreenenter"",""1"",""6836""
","
","
","""event"",""trial"",""time""
""fullscreenenter"",""1"",""6836""
","
","","","-1","","","10","11526","5285","e","elianto","#f73b6a7A","-1","-1","1","0","[]","0","2","","","11526","134","7","4","lose","no-go","0"
"pit-trial","256","1577132","0.0-139.0","battery-v0.2","","""event"",""trial"",""time""
""fullscreenenter"",""1"",""6836""
","
","
","""event"",""trial"",""time""
""fullscreenenter"",""1"",""6836""
","
","","","1023.8000000002794","","","10","11526","5285","d","elianto","#3366ff99"," "," ","1","+10","[1875.1000000000931]","1","2","","","11526","135","8","1","win","go","0"
"pit-trial","257","1581991","0.0-140.0","battery-v0.2","","""event"",""trial"",""time""
""fullscreenenter"",""1"",""6836""
","
","
","""event"",""trial"",""time""
""fullscreenenter"",""1"",""6836""
","
","","","-1","","","10","11526","5285","w","elianto","#f73b6a7A"," ","-1","0","0","[]","0","2","","","11526","136","6","3","lose","go","1"
"pit-trial","258","1586849","0.0-141.0","battery-v0.2","","""event"",""trial"",""time""
""fullscreenenter"",""1"",""6836""
","
","
","""event"",""trial"",""time""
""fullscreenenter"",""1"",""6836""
","
","","","-1","","","10","11526","5285","d","elianto","#3366ff99"," ","-1","0","+10","[]","0","2","","","11526","137","8","1","win","go","1"
"pit-trial","259","1591709","0.0-142.0","battery-v0.2","","""event"",""trial"",""time""
""fullscreenenter"",""1"",""6836""
","
","
","""event"",""trial"",""time""
""fullscreenenter"",""1"",""6836""
","
","","","-1","","","10","11526","5285","w","elianto","#f73b6a7A"," ","-1","0","0","[]","0","2","","","11526","138","6","3","lose","go","1"
"pit-trial","260","1596568","0.0-143.0","battery-v0.2","","""event"",""trial"",""time""
""fullscreenenter"",""1"",""6836""
","
","
","""event"",""trial"",""time""
""fullscreenenter"",""1"",""6836""
","
","","","-1","","","10","11526","5285","e","elianto","#f73b6a7A","-1","-1","1","0","[3303.7000000001863]","1","2","","","11526","139","7","4","lose","no-go","0"
"pit-trial","261","1600579","0.0-144.0","battery-v0.2","","""event"",""trial"",""time""
""fullscreenenter"",""1"",""6836""
","
","
","""event"",""trial"",""time""
""fullscreenenter"",""1"",""6836""
","
","","","1153.8000000002794","","","10","11526","5285","j","elianto","#3366ff99"," "," ","1","+10","[2006.3999999999069]","1","2","","","11526","140","9","1","win","go","0"
"pit-instructions","262","1694564","0.0-145.0","battery-v0.2","","""event"",""trial"",""time""
""fullscreenenter"",""1"",""6836""
","
","
","""event"",""trial"",""time""
""fullscreenenter"",""1"",""6836""
","
","","[{""page_index"":0,""viewing_time"":84747.90000000037},{""page_index"":1,""viewing_time"":9235.5}]","93983.70000000019","","","","","","","","","","","","","","","","","","","","","","","",""
"pit-trial","263","1698728","0.0-146.0","battery-v0.2","","""event"",""trial"",""time""
""fullscreenenter"",""1"",""6836""
","
","
","""event"",""trial"",""time""
""fullscreenenter"",""1"",""6836""
","
