"trial_type","trial_index","time_elapsed","internal_node_id","task_version","subject_id","interactions","blur_events","focus_events","fullscreenenter_events","fullscreenexit_events","success","view_history","rt","responses","num_errors","age","subject","participantId","rune","rune_set","hex","correct","choice","accuracy","outcome","keys","total_keys","block","practice","value","sub","trial","stimulus","robot","valence","action","sham"
"pavlovia","0","6","0.0-0.0","battery-v0.2","","""event"",""trial"",""time""
""fullscreenenter"",""1"",""3769""
","
","
","""event"",""trial"",""time""
""fullscreenenter"",""1"",""3769""
","
","","","","","","","","","","","","","","","","","","","","","","","","","","",""
"fullscreen","1","4756","0.0-1.0","battery-v0.2","","""event"",""trial"",""time""
""fullscreenenter"",""1"",""3769""
","
","
","""event"",""trial"",""time""
""fullscreenenter"",""1"",""3769""
","
","true","","","","","","","","","","","","","","","","","","","","","","","","","",""
"pit-instructions","2","9205","0.0-2.0-0.0","battery-v0.2","","""event"",""trial"",""time""
""fullscreenenter"",""1"",""3769""
","
","
","""event"",""trial"",""time""
""fullscreenenter"",""1"",""3769""
","
","","[{""page_index"":0,""viewing_time"":4444.79999999702}]","4445.599999997765","","","","","","","","","","","","","","","","","","","","","","","",""
"pit-comprehension","3","25657","0.0-2.0-1.0-0.0","battery-v0.2","","""event"",""trial"",""time""
""fullscreenenter"",""1"",""3769""
","
","
","""event"",""trial"",""time""
""fullscreenenter"",""1"",""3769""
","
","","","16446","[""turtle""]","1","12","19798","7134","","","","","","","","","","","","","","","","","","",""
"pit-instructions","4","27004","0.0-2.0-1.0-1.0","battery-v0.2","","""event"",""trial"",""time""
""fullscreenenter"",""1"",""3769""
","
","
","""event"",""trial"",""time""
""fullscreenenter"",""1"",""3769""
","
","","[{""page_index"":0,""viewing_time"":1340.199999999255}]","1340.699999999255","","","","","","","","","","","","","","","","","","","","","","","",""
"pit-instructions","5","27805","0.0-2.0-1.0-2.0-0.0","battery-v0.2","","""event"",""trial"",""time""
""fullscreenenter"",""1"",""3769""
","
","
","""event"",""trial"",""time""
""fullscreenenter"",""1"",""3769""
","
","","[{""page_index"":0,""viewing_time"":798.2999999970198}]","798.8999999985099","","","","","","","","","","","","","","","","","","","","","","","",""
"pit-comprehension","6","57673","0.0-2.0-1.1-0.1","battery-v0.2","","""event"",""trial"",""time""
""fullscreenenter"",""1"",""3769""
","
","
","""event"",""trial"",""time""
""fullscreenenter"",""1"",""3769""
","
","","","29863.599999997765","[""shark""]","0","12","19798","7134","","","","","","","","","","","","","","","","","","",""
"pit-instructions","7","58988","0.0-2.0-1.1-1.1","battery-v0.2","","""event"",""trial"",""time""
""fullscreenenter"",""1"",""3769""
","
","
","""event"",""trial"",""time""
""fullscreenenter"",""1"",""3769""
","
","","[{""page_index"":0,""viewing_time"":1311.6000000014901}]","1312.2000000029802","","","","","","","","","","","","","","","","","","","","","","","",""
"pit-comprehension","8","63807","0.0-2.0-2.0-0.0","battery-v0.2","","""event"",""trial"",""time""
""fullscreenenter"",""1"",""3769""
","
","
","""event"",""trial"",""time""
""fullscreenenter"",""1"",""3769""
","
","","","4813.89999999851","[""tiger""]","0","12","19798","7134","","","","","","","","","","","","","","","","","","",""
"pit-instructions","9","65072","0.0-2.0-2.0-1.0","battery-v0.2","","""event"",""trial"",""time""
""fullscreenenter"",""1"",""3769""
","
","
","""event"",""trial"",""time""
""fullscreenenter"",""1"",""3769""
","
","","[{""page_index"":0,""viewing_time"":1260.2999999970198}]","1260.8999999985099","","","","","","","","","","","","","","","","","","","","","","","",""
"pit-instructions","10","159989","0.0-2.0-3.0","battery-v0.2","","""event"",""trial"",""time""
""fullscreenenter"",""1"",""3769""
","
","
","""event"",""trial"",""time""
""fullscreenenter"",""1"",""3769""
","
","","[{""page_index"":0,""viewing_time"":8078.89999999851},{""page_index"":1,""viewing_time"":5767.10000000149},{""page_index"":2,""viewing_time"":8183.199999999255},{""page_index"":3,""viewing_time"":5732.800000000745},{""page_index"":4,""viewing_time"":5134.199999999255},{""page_index"":5,""viewing_time"":6416.800000000745},{""page_index"":6,""viewing_time"":7266.300000000745},{""page_index"":7,""viewing_time"":6567.89999999851},{""page_index"":8,""viewing_time"":6499.5},{""page_index"":9,""viewing_time"":9784},{""page_index"":10,""viewing_time"":7432.900000002235},{""page_index"":11,""viewing_time"":7500.29999999702},{""page_index"":12,""viewing_time"":6121.10000000149},{""page_index"":13,""viewing_time"":4429.300000000745}]","94915","","","","","","","","","","","","","","","","","","","","","","","",""
"pit-trial","11","164434","0.0-2.0-4.0-0.0","battery-v0.2","","""event"",""trial"",""time""
""fullscreenenter"",""1"",""3769""
","
","
","""event"",""trial"",""time""
""fullscreenenter"",""1"",""3769""
","
","","","1587.800000000745","","","12","19798","7134","&#9784;","elianto","#FFFFF080"," "," ","1","&#10004","[553.0999999977648,2439.300000000745]","2","0","0","","","","","","","",""
"pit-trial","12","167784","0.0-2.0-4.1-0.1","battery-v0.2","","""event"",""trial"",""time""
""fullscreenenter"",""1"",""3769""
","
","
","""event"",""trial"",""time""
""fullscreenenter"",""1"",""3769""
","
","","","493","","","12","19798","7134","&#9784;","elianto","#FFFFF080"," "," ","1","&#10004","[1344.800000000745,2499.800000000745]","2","0","0","","","","","","","",""
"pit-trial","13","171300","0.0-2.0-4.2-0.2","battery-v0.2","","""event"",""trial"",""time""
""fullscreenenter"",""1"",""3769""
","
","
","""event"",""trial"",""time""
""fullscreenenter"",""1"",""3769""
","
","","","660.3000000007451","","","12","19798","7134","&#9784;","elianto","#FFFFF080"," "," ","1","&#10004","[1511.300000000745,3503.10000000149]","2","0","0","","","","","","","",""
"pit-trial","14","174744","0.0-2.0-4.3-0.3","battery-v0.2","","""event"",""trial"",""time""
""fullscreenenter"",""1"",""3769""
","
","
","""event"",""trial"",""time""
""fullscreenenter"",""1"",""3769""
","
","","","589.0999999977648","","","12","19798","7134","&#9784;","elianto","#FFFFF080"," "," ","1","&#10004","[1439.6000000014901,2189.300000000745]","2","0","0","","","","","","","",""
"pit-trial","15","178162","0.0-2.0-4.4-0.4","battery-v0.2","","""event"",""trial"",""time""
""fullscreenenter"",""1"",""3769""
","
","
","""event"",""trial"",""time""
""fullscreenenter"",""1"",""3769""
","
","","","561.6999999992549","","","12","19798","7134","&#9784;","elianto","#FFFFF080"," "," ","1","&#10004","[1413,2046.199999999255]","2","0","0","","","","","","","",""
"pit-instructions","16","198089","0.0-2.0-5.0","battery-v0.2","","""event"",""trial"",""time""
""fullscreenenter"",""1"",""3769""
","
","
","""event"",""trial"",""time""
""fullscreenenter"",""1"",""3769""
","
","","[{""page_index"":0,""viewing_time"":4572.199999999255},{""page_index"":1,""viewing_time"":5200},{""page_index"":2,""viewing_time"":4350.199999999255},{""page_index"":3,""viewing_time"":5800.300000000745}]","19923.39999999851","","","","","","","","","","","","","","","","","","","","","","","",""
"pit-trial","17","202946","0.0-2.0-6.0-0.0","battery-v0.2","","""event"",""trial"",""time""
""fullscreenenter"",""1"",""3769""
","
","
","""event"",""trial"",""time""
""fullscreenenter"",""1"",""3769""
","
","","","-1","","","12","19798","7134","&#9854;","elianto","#FFFFF080","-1","-1","1","&#10004","[]","0","0","1","","","","","","","",""
"pit-trial","18","207801","0.0-2.0-6.1-0.1","battery-v0.2","","""event"",""trial"",""time""
""fullscreenenter"",""1"",""3769""
","
","
","""event"",""trial"",""time""
""fullscreenenter"",""1"",""3769""
","
","","","-1","","","12","19798","7134","&#9854;","elianto","#FFFFF080","-1","-1","1","&#10004","[]","0","0","1","","","","","","","",""
"pit-trial","19","212658","0.0-2.0-6.2-0.2","battery-v0.2","","""event"",""trial"",""time""
""fullscreenenter"",""1"",""3769""
","
","
","""event"",""trial"",""time""
""fullscreenenter"",""1"",""3769""
","
","","","-1","","","12","19798","7134","&#9854;","elianto","#FFFFF080","-1","-1","1","&#10004","[]","0","0","1","","","","","","","",""
"pit-trial","20","217514","0.0-2.0-6.3-0.3","battery-v0.2","","""event"",""trial"",""time""
""fullscreenenter"",""1"",""3769""
","
","
","""event"",""trial"",""time""
""fullscreenenter"",""1"",""3769""
","
","","","-1","","","12","19798","7134","&#9854;","elianto","#FFFFF080","-1","-1","1","&#10004","[]","0","0","1","","","","","","","",""
"pit-trial","21","222371","0.0-2.0-6.4-0.4","battery-v0.2","","""event"",""trial"",""time""
""fullscreenenter"",""1"",""3769""
","
","
","""event"",""trial"",""time""
""fullscreenenter"",""1"",""3769""
","
","","","-1","","","12","19798","7134","&#9854;","elianto","#FFFFF080","-1","-1","1","&#10004","[]","0","0","1","","","","","","","",""
"pit-instructions","22","345291","0.0-2.0-7.0","battery-v0.2","","""event"",""trial"",""time""
""fullscreenenter"",""1"",""3769""
","
","
","""event"",""trial"",""time""
""fullscreenenter"",""1"",""3769""
","
","","[{""page_index"":0,""viewing_time"":5296.60000000149},{""page_index"":1,""viewing_time"":7217.099999997765},{""page_index"":2,""viewing_time"":5066.10000000149},{""page_index"":3,""viewing_time"":6817.39999999851},{""page_index"":4,""viewing_time"":6282.699999999255},{""page_index"":5,""viewing_time"":5934.10000000149},{""page_index"":6,""viewing_time"":5050.10000000149},{""page_index"":7,""viewing_time"":7880.5},{""page_index"":8,""viewing_time"":6345.699999999255},{""page_index"":9,""viewing_time"":7723.89999999851},{""page_index"":10,""viewing_time"":6067},{""page_index"":11,""viewing_time"":5233.699999999255},{""page_index"":12,""viewing_time"":9499.800000000745},{""page_index"":13,""viewing_time"":10367.400000002235},{""page_index"":14,""viewing_time"":7599.89999999851},{""page_index"":15,""viewing_time"":6450.800000000745},{""page_index"":16,""viewing_time"":7366.099999997765},{""page_index"":17,""viewing_time"":6717.70000000298}]","122917.19999999925","","","","","","","","","","","","","","","","","","","","","","","",""
"pit-trial","23","348737","0.0-2.0-8.0-0.0","battery-v0.2","","""event"",""trial"",""time""
""fullscreenenter"",""1"",""3769""
","
","
","""event"",""trial"",""time""
""fullscreenenter"",""1"",""3769""
","
","","","590.2000000029802","","","12","19798","7134","&#9776;","elianto","#3366ff99"," "," ","1","+10","[1441.4000000022352]","1","0","1","","","","","","","",""
"pit-trial","24","351853","0.0-2.0-8.0-1.0","battery-v0.2","","""event"",""trial"",""time""
""fullscreenenter"",""1"",""3769""
","
","
","""event"",""trial"",""time""
""fullscreenenter"",""1"",""3769""
","
","","","260.4000000022352","","","12","19798","7134","&#9776;","elianto","#3366ff99"," "," ","1","+10","[1111.7000000029802]","1","0","1","","","","","","","",""
"pit-trial","25","355287","0.0-2.0-8.0-2.0","battery-v0.2","","""event"",""trial"",""time""
""fullscreenenter"",""1"",""3769""
","
","
","""event"",""trial"",""time""
""fullscreenenter"",""1"",""3769""
","
","","","577.0999999977648","","","12","19798","7134","&#9776;","elianto","#3366ff99"," "," ","1","+10","[1429.1000000014901]","1","0","1","","","","","","","",""
"pit-trial","26","358740","0.0-2.0-8.0-3.0","battery-v0.2","","""event"",""trial"",""time""
""fullscreenenter"",""1"",""3769""
","
","
","""event"",""trial"",""time""
""fullscreenenter"",""1"",""3769""
","
","","","596.9000000022352","","","12","19798","7134","&#9776;","elianto","#3366ff99"," "," ","1","0","[1448.2000000029802]","1","0","1","","","","","","","",""
"pit-trial","27","362713","0.0-2.0-8.0-4.0","battery-v0.2","","""event"",""trial"",""time""
""fullscreenenter"",""1"",""3769""
","
","
","""event"",""trial"",""time""
""fullscreenenter"",""1"",""3769""
","
","","","1118","","","12","19798","7134","&#9776;","elianto","#3366ff99"," "," ","1","+10","[1969.0999999977648]","1","0","1","","","","","","","",""
"pit-trial","28","366183","0.0-2.0-8.1-0.1","battery-v0.2","","""event"",""trial"",""time""
""fullscreenenter"",""1"",""3769""
","
","
","""event"",""trial"",""time""
""fullscreenenter"",""1"",""3769""
","
","","","613.6999999992549","","","12","19798","7134","&#9776;","elianto","#3366ff99"," "," ","1","+10","[1464.9000000022352]","1","0","1","","","","","","","",""
"pit-trial","29","369751","0.0-2.0-8.1-1.1","battery-v0.2","","""event"",""trial"",""time""
""fullscreenenter"",""1"",""3769""
","
","
","""event"",""trial"",""time""
""fullscreenenter"",""1"",""3769""
","
","","","713","","","12","19798","7134","&#9776;","elianto","#3366ff99"," "," ","1","+10","[1564.199999999255]","1","0","1","","","","","","","",""
"pit-trial","30","373114","0.0-2.0-8.1-2.1","battery-v0.2","","""event"",""trial"",""time""
""fullscreenenter"",""1"",""3769""
","
","
","""event"",""trial"",""time""
""fullscreenenter"",""1"",""3769""
","
","","","506.8999999985099","","","12","19798","7134","&#9776;","elianto","#3366ff99"," "," ","1","+10","[1358.800000000745]","1","0","1","","","","","","","",""
"pit-trial","31","377374","0.0-2.0-8.1-3.1","battery-v0.2","","""event"",""trial"",""time""
""fullscreenenter"",""1"",""3769""
","
","
","""event"",""trial"",""time""
""fullscreenenter"",""1"",""3769""
","
","","","1404.199999999255","","","12","19798","7134","&#9776;","elianto","#3366ff99"," "," ","1","0","[2255.199999999255]","1","0","1","","","","","","","",""
"pit-trial","32","380533","0.0-2.0-8.1-4.1","battery-v0.2","","""event"",""trial"",""time""
""fullscreenenter"",""1"",""3769""
","
","
","""event"",""trial"",""time""
""fullscreenenter"",""1"",""3769""
","
","","","303.69999999925494","","","12","19798","7134","&#9776;","elianto","#3366ff99"," "," ","1","+10","[1154]","1","0","1","","","","","","","",""
"pit-trial","33","384090","0.0-2.0-8.2-0.2","battery-v0.2","","""event"",""trial"",""time""
""fullscreenenter"",""1"",""3769""
","
","
","""event"",""trial"",""time""
""fullscreenenter"",""1"",""3769""
","
","","","701.5999999977648","","","12","19798","7134","&#9776;","elianto","#3366ff99"," "," ","1","+10","[1552.800000000745]","1","0","1","","","","","","","",""
"pit-trial","34","387598","0.0-2.0-8.2-1.2","battery-v0.2","","""event"",""trial"",""time""
""fullscreenenter"",""1"",""3769""
","
","
","""event"",""trial"",""time""
""fullscreenenter"",""1"",""3769""
","
","","","652.8999999985099","","","12","19798","7134","&#9776;","elianto","#3366ff99"," "," ","1","+10","[1503.199999999255]","1","0","1","","","","","","","",""
"pit-trial","35","390879","0.0-2.0-8.2-2.2","battery-v0.2","","""event"",""trial"",""time""
""fullscreenenter"",""1"",""3769""
","
","
","""event"",""trial"",""time""
""fullscreenenter"",""1"",""3769""
","
","","","424.4000000022352","","","12","19798","7134","&#9776;","elianto","#3366ff99"," "," ","1","+10","[1275.8999999985099]","1","0","1","","","","","","","",""
"pit-trial","36","394769","0.0-2.0-8.2-3.2","battery-v0.2","","""event"",""trial"",""time""
""fullscreenenter"",""1"",""3769""
","
","
","""event"",""trial"",""time""
""fullscreenenter"",""1"",""3769""
","
","","","1034.5999999977648","","","12","19798","7134","&#9776;","elianto","#3366ff99"," "," ","1","0","[1885.699999999255]","1","0","1","","","","","","","",""
"pit-trial","37","398113","0.0-2.0-8.2-4.2","battery-v0.2","","""event"",""trial"",""time""
""fullscreenenter"",""1"",""3769""
","
","
","""event"",""trial"",""time""
""fullscreenenter"",""1"",""3769""
","
","","","488.19999999925494","","","12","19798","7134","&#9776;","elianto","#3366ff99"," "," ","1","+10","[1340]","1","0","1","","","","","","","",""
"call-function","38","398116","0.0-2.0-9.0","battery-v0.2","","""event"",""trial"",""time""
""fullscreenenter"",""1"",""3769""
","
","
","""event"",""trial"",""time""
""fullscreenenter"",""1"",""3769""
","
","","","","","","","","","","","","","","","","","","","","","","","","","","",""
"pit-instructions","39","436958","0.0-2.0-10.0","battery-v0.2","","""event"",""trial"",""time""
""fullscreenenter"",""1"",""3769""
","
","
","""event"",""trial"",""time""
""fullscreenenter"",""1"",""3769""
","
","","[{""page_index"":0,""viewing_time"":5639.800000000745},{""page_index"":1,""viewing_time"":6400.300000000745},{""page_index"":2,""viewing_time"":9650.800000000745},{""page_index"":3,""viewing_time"":9648.699999999255},{""page_index"":4,""viewing_time"":7501.800000000745}]","38841.900000002235","","","","","","","","","","","","","","","","","","","","","","","",""
"pit-trial","40","440107","0.0-2.0-11.0-0.0","battery-v0.2","","""event"",""trial"",""time""
""fullscreenenter"",""1"",""3769""
","
","
","""event"",""trial"",""time""
""fullscreenenter"",""1"",""3769""
","
","","","294.5999999977648","","","12","19798","7134","&#9761;","elianto","#3366ff99","-1"," ","0","0","[1144.6000000014901]","1","0","2","","","","","","","",""
"pit-trial","41","443393","0.0-2.0-11.0-1.0","battery-v0.2","","""event"",""trial"",""time""
""fullscreenenter"",""1"",""3769""
","
","
","""event"",""trial"",""time""
""fullscreenenter"",""1"",""3769""
","
","","","430.4000000022352","","","12","19798","7134","&#9761;","elianto","#3366ff99","-1"," ","0","0","[1282.199999999255]","1","0","2","","","","","","","",""
"pit-trial","42","448249","0.0-2.0-11.0-2.0","battery-v0.2","","""event"",""trial"",""time""
""fullscreenenter"",""1"",""3769""
","
","
","""event"",""trial"",""time""
""fullscreenenter"",""1"",""3769""
","
","","","-1","","","12","19798","7134","&#9761;","elianto","#3366ff99","-1","-1","1","+10","[]","0","0","2","","","","","","","",""
"pit-trial","43","453106","0.0-2.0-11.0-3.0","battery-v0.2","","""event"",""trial"",""time""
""fullscreenenter"",""1"",""3769""
","
","
","""event"",""trial"",""time""
""fullscreenenter"",""1"",""3769""
","
","","","-1","","","12","19798","7134","&#9761;","elianto","#3366ff99","-1","-1","1","0","[]","0","0","2","","","","","","","",""
"pit-trial","44","457963","0.0-2.0-11.0-4.0","battery-v0.2","","""event"",""trial"",""time""
""fullscreenenter"",""1"",""3769""
","
","
","""event"",""trial"",""time""
""fullscreenenter"",""1"",""3769""
","
","","","-1","","","12","19798","7134","&#9761;","elianto","#3366ff99","-1","-1","1","+10","[]","0","0","2","","","","","","","",""
"pit-trial","45","462820","0.0-2.0-11.1-0.1","battery-v0.2","","""event"",""trial"",""time""
""fullscreenenter"",""1"",""3769""
","
","
","""event"",""trial"",""time""
""fullscreenenter"",""1"",""3769""
","
","","","-1","","","12","19798","7134","&#9761;","elianto","#3366ff99","-1","-1","1","+10","[]","0","0","2","","","","","","","",""
"pit-trial","46","467676","0.0-2.0-11.1-1.1","battery-v0.2","","""event"",""trial"",""time""
""fullscreenenter"",""1"",""3769""
","
","
","""event"",""trial"",""time""
""fullscreenenter"",""1"",""3769""
","
","","","-1","","","12","19798","7134","&#9761;","elianto","#3366ff99","-1","-1","1","+10","[]","0","0","2","","","","","","","",""
"pit-trial","47","472532","0.0-2.0-11.1-2.1","battery-v0.2","","""event"",""trial"",""time""
""fullscreenenter"",""1"",""3769""
","
","
","""event"",""trial"",""time""
""fullscreenenter"",""1"",""3769""
","
","","","-1","","","12","19798","7134","&#9761;","elianto","#3366ff99","-1","-1","1","+10","[]","0","0","2","","","","","","","",""
"pit-trial","48","477387","0.0-2.0-11.1-3.1","battery-v0.2","","""event"",""trial"",""time""
""fullscreenenter"",""1"",""3769""
","
","
","""event"",""trial"",""time""
""fullscreenenter"",""1"",""3769""
","
","","","-1","","","12","19798","7134","&#9761;","elianto","#3366ff99","-1","-1","1","0","[]","0","0","2","","","","","","","",""
"pit-trial","49","482242","0.0-2.0-11.1-4.1","battery-v0.2","","""event"",""trial"",""time""
""fullscreenenter"",""1"",""3769""
","
","
","""event"",""trial"",""time""
""fullscreenenter"",""1"",""3769""
","
","","","-1","","","12","19798","7134","&#9761;","elianto","#3366ff99","-1","-1","1","+10","[]","0","0","2","","","","","","","",""
"pit-trial","50","487098","0.0-2.0-11.2-0.2","battery-v0.2","","""event"",""trial"",""time""
""fullscreenenter"",""1"",""3769""
","
","
","""event"",""trial"",""time""
""fullscreenenter"",""1"",""3769""
","
","","","-1","","","12","19798","7134","&#9761;","elianto","#3366ff99","-1","-1","1","+10","[]","0","0","2","","","","","","","",""
"pit-trial","51","491955","0.0-2.0-11.2-1.2","battery-v0.2","","""event"",""trial"",""time""
""fullscreenenter"",""1"",""3769""
","
","
","""event"",""trial"",""time""
""fullscreenenter"",""1"",""3769""
","
","","","-1","","","12","19798","7134","&#9761;","elianto","#3366ff99","-1","-1","1","+10","[]","0","0","2","","","","","","","",""
"pit-trial","52","496811","0.0-2.0-11.2-2.2","battery-v0.2","","""event"",""trial"",""time""
""fullscreenenter"",""1"",""3769""
","
","
","""event"",""trial"",""time""
""fullscreenenter"",""1"",""3769""
","
","","","-1","","","12","19798","7134","&#9761;","elianto","#3366ff99","-1","-1","1","+10","[]","0","0","2","","","","","","","",""
"pit-trial","53","501667","0.0-2.0-11.2-3.2","battery-v0.2","","""event"",""trial"",""time""
""fullscreenenter"",""1"",""3769""
","
","
","""event"",""trial"",""time""
""fullscreenenter"",""1"",""3769""
","
","","","-1","","","12","19798","7134","&#9761;","elianto","#3366ff99","-1","-1","1","0","[]","0","0","2","","","","","","","",""
"pit-trial","54","506524","0.0-2.0-11.2-4.2","battery-v0.2","","""event"",""trial"",""time""
""fullscreenenter"",""1"",""3769""
","
","
","""event"",""trial"",""time""
""fullscreenenter"",""1"",""3769""
","
","","","-1","","","12","19798","7134","&#9761;","elianto","#3366ff99","-1","-1","1","+10","[]","0","0","2","","","","","","","",""
"pit-trial","55","511380","0.0-2.0-11.3-0.3","battery-v0.2","","""event"",""trial"",""time""
""fullscreenenter"",""1"",""3769""
","
","
","""event"",""trial"",""time""
""fullscreenenter"",""1"",""3769""
","
","","","-1","","","12","19798","7134","&#9761;","elianto","#3366ff99","-1","-1","1","+10","[]","0","0","2","","","","","","","",""
"pit-trial","56","516236","0.0-2.0-11.3-1.3","battery-v0.2","","""event"",""trial"",""time""
""fullscreenenter"",""1"",""3769""
","
","
","""event"",""trial"",""time""
""fullscreenenter"",""1"",""3769""
","
","","","-1","","","12","19798","7134","&#9761;","elianto","#3366ff99","-1","-1","1","+10","[]","0","0","2","","","","","","","",""
"pit-trial","57","521091","0.0-2.0-11.3-2.3","battery-v0.2","","""event"",""trial"",""time""
""fullscreenenter"",""1"",""3769""
","
","
","""event"",""trial"",""time""
""fullscreenenter"",""1"",""3769""
","
","","","-1","","","12","19798","7134","&#9761;","elianto","#3366ff99","-1","-1","1","+10","[]","0","0","2","","","","","","","",""
"pit-trial","58","525946","0.0-2.0-11.3-3.3","battery-v0.2","","""event"",""trial"",""time""
""fullscreenenter"",""1"",""3769""
","
","
","""event"",""trial"",""time""
""fullscreenenter"",""1"",""3769""
","
","","","-1","","","12","19798","7134","&#9761;","elianto","#3366ff99","-1","-1","1","0","[]","0","0","2","","","","","","","",""
"pit-trial","59","530802","0.0-2.0-11.3-4.3","battery-v0.2","","""event"",""trial"",""time""
""fullscreenenter"",""1"",""3769""
","
","
","""event"",""trial"",""time""
""fullscreenenter"",""1"",""3769""
","
","","","-1","","","12","19798","7134","&#9761;","elianto","#3366ff99","-1","-1","1","+10","[]","0","0","2","","","","","","","",""
"call-function","60","530804","0.0-2.0-12.0","battery-v0.2","","""event"",""trial"",""time""
""fullscreenenter"",""1"",""3769""
","
","
","""event"",""trial"",""time""
""fullscreenenter"",""1"",""3769""
","
","","","","","","","","","","","","","","","","","","","","","","","","","","",""
"pit-instructions","61","563807","0.0-2.0-13.0","battery-v0.2","","""event"",""trial"",""time""
""fullscreenenter"",""1"",""3769""
","
","
","""event"",""trial"",""time""
""fullscreenenter"",""1"",""3769""
","
","","[{""page_index"":0,""viewing_time"":4735.199999999255},{""page_index"":1,""viewing_time"":7299.900000002235},{""page_index"":2,""viewing_time"":3417.2999999970198},{""page_index"":3,""viewing_time"":12599.70000000298},{""page_index"":4,""viewing_time"":4950}]","33002.699999999255","","","","","","","","","","","","","","","","","","","","","","","",""
"pit-trial","62","567128","0.0-2.0-14.0-0.0","battery-v0.2","","""event"",""trial"",""time""
""fullscreenenter"",""1"",""3769""
","
","
","""event"",""trial"",""time""
""fullscreenenter"",""1"",""3769""
","
","","","464.29999999701977","","","12","19798","7134","&#9826;","elianto","#f73b6a7A","-1"," ","0","-10","[1316.0999999977648]","1","0","3","","","","","","","",""
"pit-trial","63","571984","0.0-2.0-14.0-1.0","battery-v0.2","","""event"",""trial"",""time""
""fullscreenenter"",""1"",""3769""
","
","
","""event"",""trial"",""time""
""fullscreenenter"",""1"",""3769""
","
","","","-1","","","12","19798","7134","&#9826;","elianto","#f73b6a7A","-1","-1","1","0","[]","0","0","3","","","","","","","",""
"pit-trial","64","576841","0.0-2.0-14.0-2.0","battery-v0.2","","""event"",""trial"",""time""
""fullscreenenter"",""1"",""3769""
","
","
","""event"",""trial"",""time""
""fullscreenenter"",""1"",""3769""
","
","","","-1","","","12","19798","7134","&#9826;","elianto","#f73b6a7A","-1","-1","1","0","[]","0","0","3","","","","","","","",""
"pit-trial","65","581697","0.0-2.0-14.0-3.0","battery-v0.2","","""event"",""trial"",""time""
""fullscreenenter"",""1"",""3769""
","
","
","""event"",""trial"",""time""
""fullscreenenter"",""1"",""3769""
","
","","","-1","","","12","19798","7134","&#9826;","elianto","#f73b6a7A","-1","-1","1","-10","[]","0","0","3","","","","","","","",""
"pit-trial","66","586555","0.0-2.0-14.0-4.0","battery-v0.2","","""event"",""trial"",""time""
""fullscreenenter"",""1"",""3769""
","
","
","""event"",""trial"",""time""
""fullscreenenter"",""1"",""3769""
","
","","","-1","","","12","19798","7134","&#9826;","elianto","#f73b6a7A","-1","-1","1","0","[]","0","0","3","","","","","","","",""
"pit-trial","67","591412","0.0-2.0-14.1-0.1","battery-v0.2","","""event"",""trial"",""time""
""fullscreenenter"",""1"",""3769""
","
","
","""event"",""trial"",""time""
""fullscreenenter"",""1"",""3769""
","
","","","-1","","","12","19798","7134","&#9826;","elianto","#f73b6a7A","-1","-1","1","0","[]","0","0","3","","","","","","","",""
"pit-trial","68","596269","0.0-2.0-14.1-1.1","battery-v0.2","","""event"",""trial"",""time""
""fullscreenenter"",""1"",""3769""
","
","
","""event"",""trial"",""time""
""fullscreenenter"",""1"",""3769""
","
","","","-1","","","12","19798","7134","&#9826;","elianto","#f73b6a7A","-1","-1","1","0","[]","0","0","3","","","","","","","",""
"pit-trial","69","601125","0.0-2.0-14.1-2.1","battery-v0.2","","""event"",""trial"",""time""
""fullscreenenter"",""1"",""3769""
","
","
","""event"",""trial"",""time""
""fullscreenenter"",""1"",""3769""
","
","","","-1","","","12","19798","7134","&#9826;","elianto","#f73b6a7A","-1","-1","1","0","[]","0","0","3","","","","","","","",""
"pit-trial","70","605981","0.0-2.0-14.1-3.1","battery-v0.2","","""event"",""trial"",""time""
""fullscreenenter"",""1"",""3769""
","
","
","""event"",""trial"",""time""
""fullscreenenter"",""1"",""3769""
","
","","","-1","","","12","19798","7134","&#9826;","elianto","#f73b6a7A","-1","-1","1","-10","[]","0","0","3","","","","","","","",""
"pit-trial","71","610837","0.0-2.0-14.1-4.1","battery-v0.2","","""event"",""trial"",""time""
""fullscreenenter"",""1"",""3769""
","
","
","""event"",""trial"",""time""
""fullscreenenter"",""1"",""3769""
","
","","","-1","","","12","19798","7134","&#9826;","elianto","#f73b6a7A","-1","-1","1","0","[]","0","0","3","","","","","","","",""
"pit-trial","72","615693","0.0-2.0-14.2-0.2","battery-v0.2","","""event"",""trial"",""time""
""fullscreenenter"",""1"",""3769""
","
","
","""event"",""trial"",""time""
""fullscreenenter"",""1"",""3769""
","
","","","-1","","","12","19798","7134","&#9826;","elianto","#f73b6a7A","-1","-1","1","0","[]","0","0","3","","","","","","","",""
"pit-trial","73","620550","0.0-2.0-14.2-1.2","battery-v0.2","","""event"",""trial"",""time""
""fullscreenenter"",""1"",""3769""
","
","
","""event"",""trial"",""time""
""fullscreenenter"",""1"",""3769""
","
","","","-1","","","12","19798","7134","&#9826;","elianto","#f73b6a7A","-1","-1","1","0","[]","0","0","3","","","","","","","",""
"pit-trial","74","625405","0.0-2.0-14.2-2.2","battery-v0.2","","""event"",""trial"",""time""
""fullscreenenter"",""1"",""3769""
","
","
","""event"",""trial"",""time""
""fullscreenenter"",""1"",""3769""
","
","","","-1","","","12","19798","7134","&#9826;","elianto","#f73b6a7A","-1","-1","1","0","[]","0","0","3","","","","","","","",""
"pit-trial","75","630261","0.0-2.0-14.2-3.2","battery-v0.2","","""event"",""trial"",""time""
""fullscreenenter"",""1"",""3769""
","
","
","""event"",""trial"",""time""
""fullscreenenter"",""1"",""3769""
","
","","","-1","","","12","19798","7134","&#9826;","elianto","#f73b6a7A","-1","-1","1","-10","[]","0","0","3","","","","","","","",""
"pit-trial","76","635118","0.0-2.0-14.2-4.2","battery-v0.2","","""event"",""trial"",""time""
""fullscreenenter"",""1"",""3769""
","
","
","""event"",""trial"",""time""
""fullscreenenter"",""1"",""3769""
","
","","","-1","","","12","19798","7134","&#9826;","elianto","#f73b6a7A","-1","-1","1","0","[]","0","0","3","","","","","","","",""
"pit-trial","77","639975","0.0-2.0-14.3-0.3","battery-v0.2","","""event"",""trial"",""time""
""fullscreenenter"",""1"",""3769""
","
","
","""event"",""trial"",""time""
""fullscreenenter"",""1"",""3769""
","
","","","-1","","","12","19798","7134","&#9826;","elianto","#f73b6a7A","-1","-1","1","0","[]","0","0","3","","","","","","","",""
"pit-trial","78","644832","0.0-2.0-14.3-1.3","battery-v0.2","","""event"",""trial"",""time""
""fullscreenenter"",""1"",""3769""
","
","
","""event"",""trial"",""time""
""fullscreenenter"",""1"",""3769""
","
","","","-1","","","12","19798","7134","&#9826;","elianto","#f73b6a7A","-1","-1","1","0","[]","0","0","3","","","","","","","",""
"pit-trial","79","649688","0.0-2.0-14.3-2.3","battery-v0.2","","""event"",""trial"",""time""
""fullscreenenter"",""1"",""3769""
","
","
","""event"",""trial"",""time""
""fullscreenenter"",""1"",""3769""
","
","","","-1","","","12","19798","7134","&#9826;","elianto","#f73b6a7A","-1","-1","1","0","[]","0","0","3","","","","","","","",""
"pit-trial","80","654544","0.0-2.0-14.3-3.3","battery-v0.2","","""event"",""trial"",""time""
""fullscreenenter"",""1"",""3769""
","
","
","""event"",""trial"",""time""
""fullscreenenter"",""1"",""3769""
","
","","","-1","","","12","19798","7134","&#9826;","elianto","#f73b6a7A","-1","-1","1","-10","[]","0","0","3","","","","","","","",""
"pit-trial","81","659401","0.0-2.0-14.3-4.3","battery-v0.2","","""event"",""trial"",""time""
""fullscreenenter"",""1"",""3769""
","
","
","""event"",""trial"",""time""
""fullscreenenter"",""1"",""3769""
","
","","","-1","","","12","19798","7134","&#9826;","elianto","#f73b6a7A","-1","-1","1","0","[]","0","0","3","","","","","","","",""
"call-function","82","659403","0.0-2.0-15.0","battery-v0.2","","""event"",""trial"",""time""
""fullscreenenter"",""1"",""3769""
","
","
","""event"",""trial"",""time""
""fullscreenenter"",""1"",""3769""
","
","","","","","","","","","","","","","","","","","","","","","","","","","","",""
"pit-instructions","83","685841","0.0-2.0-16.0","battery-v0.2","","""event"",""trial"",""time""
""fullscreenenter"",""1"",""3769""
","
","
","""event"",""trial"",""time""
""fullscreenenter"",""1"",""3769""
","
","","[{""page_index"":0,""viewing_time"":6487},{""page_index"":1,""viewing_time"":9167.5},{""page_index"":2,""viewing_time"":5799.70000000298},{""page_index"":3,""viewing_time"":4983.199999999255}]","26437.900000002235","","","","","","","","","","","","","","","","","","","","","","","",""
"pit-trial","84","688991","0.0-2.0-17.0-0.0","battery-v0.2","","""event"",""trial"",""time""
""fullscreenenter"",""1"",""3769""
","
","
","""event"",""trial"",""time""
""fullscreenenter"",""1"",""3769""
","
","","","295.20000000298023","","","12","19798","7134","&#9789;","elianto","#f73b6a7A"," "," ","1","0","[1145.5]","1","0","4","","","","","","","",""
"pit-trial","85","692141","0.0-2.0-17.0-1.0","battery-v0.2","","""event"",""trial"",""time""
""fullscreenenter"",""1"",""3769""
","
","
","""event"",""trial"",""time""
""fullscreenenter"",""1"",""3769""
","
","","","295.19999999925494","","","12","19798","7134","&#9789;","elianto","#f73b6a7A"," "," ","1","0","[482.5,1145.199999999255]","2","0","4","","","","","","","",""
"pit-trial","86","695394","0.0-2.0-17.0-2.0","battery-v0.2","","""event"",""trial"",""time""
""fullscreenenter"",""1"",""3769""
","
","
","""event"",""trial"",""time""
""fullscreenenter"",""1"",""3769""
","
","","","397.5999999977648","","","12","19798","7134","&#9789;","elianto","#f73b6a7A"," "," ","1","0","[1247.9000000022352]","1","0","4","","","","","","","",""
"pit-trial","87","698440","0.0-2.0-17.0-3.0","battery-v0.2","","""event"",""trial"",""time""
""fullscreenenter"",""1"",""3769""
","
","
","""event"",""trial"",""time""
""fullscreenenter"",""1"",""3769""
","
","","","191.10000000149012","","","12","19798","7134","&#9789;","elianto","#f73b6a7A"," "," ","1","-10","[1041.6000000014901]","1","0","4","","","","","","","",""
"pit-trial","88","701500","0.0-2.0-17.0-4.0","battery-v0.2","","""event"",""trial"",""time""
""fullscreenenter"",""1"",""3769""
","
","
","""event"",""trial"",""time""
""fullscreenenter"",""1"",""3769""
","
","","","205.5","","","12","19798","7134","&#9789;","elianto","#f73b6a7A"," "," ","1","0","[1056.699999999255]","1","0","4","","","","","","","",""
"pit-trial","89","704504","0.0-2.0-17.1-0.1","battery-v0.2","","""event"",""trial"",""time""
""fullscreenenter"",""1"",""3769""
","
","
","""event"",""trial"",""time""
""fullscreenenter"",""1"",""3769""
","
","","","146.20000000298023","","","12","19798","7134","&#9789;","elianto","#f73b6a7A"," "," ","1","0","[998.1000000014901]","1","0","4","","","","","","","",""
"pit-trial","90","707701","0.0-2.0-17.1-1.1","battery-v0.2","","""event"",""trial"",""time""
""fullscreenenter"",""1"",""3769""
","
","
","""event"",""trial"",""time""
""fullscreenenter"",""1"",""3769""
","
","","","340.9000000022352","","","12","19798","7134","&#9789;","elianto","#f73b6a7A"," "," ","1","0","[1192.800000000745]","1","0","4","","","","","","","",""
"pit-trial","91","710703","0.0-2.0-17.1-2.1","battery-v0.2","","""event"",""trial"",""time""
""fullscreenenter"",""1"",""3769""
","
","
","""event"",""trial"",""time""
""fullscreenenter"",""1"",""3769""
","
","","","146.80000000074506","","","12","19798","7134","&#9789;","elianto","#f73b6a7A"," "," ","1","0","[139.90000000223517,997.8000000007451,1550.2000000029802]","3","0","4","","","","","","","",""
"pit-trial","92","713707","0.0-2.0-17.1-3.1","battery-v0.2","","""event"",""trial"",""time""
""fullscreenenter"",""1"",""3769""
","
","
","""event"",""trial"",""time""
""fullscreenenter"",""1"",""3769""
","
","","","149","","","12","19798","7134","&#9789;","elianto","#f73b6a7A"," "," ","1","-10","[999.7000000029802,2281.60000000149]","2","0","4","","","","","","","",""
"pit-trial","93","717780","0.0-2.0-17.1-4.1","battery-v0.2","","""event"",""trial"",""time""
""fullscreenenter"",""1"",""3769""
","
","
","""event"",""trial"",""time""
""fullscreenenter"",""1"",""3769""
","
","","","1217.8999999985099","","","12","19798","7134","&#9789;","elianto","#f73b6a7A"," "," ","1","0","[2068.39999999851]","1","0","4","","","","","","","",""
"pit-trial","94","720668","0.0-2.0-17.2-0.2","battery-v0.2","","""event"",""trial"",""time""
""fullscreenenter"",""1"",""3769""
","
","
","""event"",""trial"",""time""
""fullscreenenter"",""1"",""3769""
","
","","","31.699999999254942","","","12","19798","7134","&#9789;","elianto","#f73b6a7A"," "," ","1","0","[882.6999999992549]","1","0","4","","","","","","","",""
"pit-trial","95","724117","0.0-2.0-17.2-1.2","battery-v0.2","","""event"",""trial"",""time""
""fullscreenenter"",""1"",""3769""
","
","
","""event"",""trial"",""time""
""fullscreenenter"",""1"",""3769""
","
","","","593.3000000007451","","","12","19798","7134","&#9789;","elianto","#f73b6a7A"," "," ","1","0","[1444.7999999970198]","1","0","4","","","","","","","",""
"pit-trial","96","727823","0.0-2.0-17.2-2.2","battery-v0.2","","""event"",""trial"",""time""
""fullscreenenter"",""1"",""3769""
","
","
","""event"",""trial"",""time""
""fullscreenenter"",""1"",""3769""
","
","","","850.2999999970198","","","12","19798","7134","&#9789;","elianto","#f73b6a7A"," "," ","1","0","[1701.5]","1","0","4","","","","","","","",""
"pit-trial","97","731493","0.0-2.0-17.2-3.2","battery-v0.2","","""event"",""trial"",""time""
""fullscreenenter"",""1"",""3769""
","
","
","""event"",""trial"",""time""
""fullscreenenter"",""1"",""3769""
","
","","","814.5","","","12","19798","7134","&#9789;","elianto","#f73b6a7A"," "," ","1","-10","[1665.699999999255]","1","0","4","","","","","","","",""
"pit-trial","98","734833","0.0-2.0-17.2-4.2","battery-v0.2","","""event"",""trial"",""time""
""fullscreenenter"",""1"",""3769""
","
","
","""event"",""trial"",""time""
""fullscreenenter"",""1"",""3769""
","
","","","485.80000000074506","","","12","19798","7134","&#9789;","elianto","#f73b6a7A"," "," ","1","0","[1335.699999999255]","1","0","4","","","","","","","",""
"pit-trial","99","738093","0.0-2.0-17.3-0.3","battery-v0.2","","""event"",""trial"",""time""
""fullscreenenter"",""1"",""3769""
","
","
","""event"",""trial"",""time""
""fullscreenenter"",""1"",""3769""
","
","","","403.19999999925494","","","12","19798","7134","&#9789;","elianto","#f73b6a7A"," "," ","1","0","[1255.199999999255]","1","0","4","","","","","","","",""
"pit-trial","100","741749","0.0-2.0-17.3-1.3","battery-v0.2","","""event"",""trial"",""time""
""fullscreenenter"",""1"",""3769""
","
","
","""event"",""trial"",""time""
""fullscreenenter"",""1"",""3769""
","
","","","801.5","","","12","19798","7134","&#9789;","elianto","#f73b6a7A"," "," ","1","0","[788.8999999985099,1651.5999999977648]","2","0","4","","","","","","","",""
"pit-trial","101","746605","0.0-2.0-17.3-2.3","battery-v0.2","","""event"",""trial"",""time""
""fullscreenenter"",""1"",""3769""
","
","
","""event"",""trial"",""time""
""fullscreenenter"",""1"",""3769""
","
","","","-1","","","12","19798","7134","&#9789;","elianto","#f73b6a7A"," ","-1","0","-10","[]","0","0","4","","","","","","","",""
"pit-trial","102","749978","0.0-2.0-17.3-3.3","battery-v0.2","","""event"",""trial"",""time""
""fullscreenenter"",""1"",""3769""
","
","
","""event"",""trial"",""time""
""fullscreenenter"",""1"",""3769""
","
","","","517.3000000007451","","","12","19798","7134","&#9789;","elianto","#f73b6a7A"," "," ","1","-10","[209.69999999925494,1368.5999999977648]","2","0","4","","","","","","","",""
"pit-trial","103","752994","0.0-2.0-17.3-4.3","battery-v0.2","","""event"",""trial"",""time""
""fullscreenenter"",""1"",""3769""
","
","
","""event"",""trial"",""time""
""fullscreenenter"",""1"",""3769""
","
","","","161.69999999925494","","","12","19798","7134","&#9789;","elianto","#f73b6a7A"," "," ","1","0","[1012.0999999977648]","1","0","4","","","","","","","",""
"call-function","104","752996","0.0-2.0-18.0","battery-v0.2","","""event"",""trial"",""time""
""fullscreenenter"",""1"",""3769""
","
","
","""event"",""trial"",""time""
""fullscreenenter"",""1"",""3769""
","
","","","","","","","","","","","","","","","","","","","","","","","","","","",""
"pit-instructions","105","811425","0.0-2.0-19.0","battery-v0.2","","""event"",""trial"",""time""
""fullscreenenter"",""1"",""3769""
","
","
","""event"",""trial"",""time""
""fullscreenenter"",""1"",""3769""
","
","","[{""page_index"":0,""viewing_time"":6743.699999999255},{""page_index"":1,""viewing_time"":5883.199999999255},{""page_index"":2,""viewing_time"":9584.300000000745},{""page_index"":3,""viewing_time"":6349.699999999255},{""page_index"":4,""viewing_time"":6850.20000000298},{""page_index"":5,""viewing_time"":8100.099999997765},{""page_index"":6,""viewing_time"":6483.400000002235},{""page_index"":7,""viewing_time"":4733.099999997765},{""page_index"":8,""viewing_time"":3700.699999999255}]","58429","","","","","","","","","","","","","","","","","","","","","","","",""
"pit-comprehension","106","819243","0.0-2.0-20.0-0.0","battery-v0.2","","""event"",""trial"",""time""
""fullscreenenter"",""1"",""3769""
","
","
","""event"",""trial"",""time""
""fullscreenenter"",""1"",""3769""
","
","","","7814.10000000149","[""SPACE""]","0","12","19798","7134","","","","","","","","","","","","","","","","","","",""
"pit-instructions","107","822175","0.0-2.0-20.0-1.0","battery-v0.2","","""event"",""trial"",""time""
""fullscreenenter"",""1"",""3769""
","
","
","""event"",""trial"",""time""
""fullscreenenter"",""1"",""3769""
","
","","[{""page_index"":0,""viewing_time"":2910.2999999970198}]","2910.7999999970198","","","","","","","","","","","","","","","","","","","","","","","",""
"pit-comprehension","108","829959","0.0-2.0-21.0-0.0","battery-v0.2","","""event"",""trial"",""time""
""fullscreenenter"",""1"",""3769""
","
","
","""event"",""trial"",""time""
""fullscreenenter"",""1"",""3769""
","
","","","7779.60000000149","[""10""]","0","12","19798","7134","","","","","","","","","","","","","","","","","","",""
"pit-instructions","109","831508","0.0-2.0-21.0-1.0","battery-v0.2","","""event"",""trial"",""time""
""fullscreenenter"",""1"",""3769""
","
","
","""event"",""trial"",""time""
""fullscreenenter"",""1"",""3769""
","
","","[{""page_index"":0,""viewing_time"":1527.6000000014901}]","1528.2000000029802","","","","","","","","","","","","","","","","","","","","","","","",""
"pit-comprehension","110","838026","0.0-2.0-22.0-0.0","battery-v0.2","","""event"",""trial"",""time""
""fullscreenenter"",""1"",""3769""
","
","
","""event"",""trial"",""time""
""fullscreenenter"",""1"",""3769""
","
","","","6514.199999999255","[""0""]","0","12","19798","7134","","","","","","","","","","","","","","","","","","",""
"pit-instructions","111","840059","0.0-2.0-22.0-1.0","battery-v0.2","","""event"",""trial"",""time""
""fullscreenenter"",""1"",""3769""
","
","
","""event"",""trial"",""time""
""fullscreenenter"",""1"",""3769""
","
","","[{""page_index"":0,""viewing_time"":2008.199999999255}]","2008.7999999970198","","","","","","","","","","","","","","","","","","","","","","","",""
"pit-comprehension","112","849626","0.0-2.0-23.0-0.0","battery-v0.2","","""event"",""trial"",""time""
""fullscreenenter"",""1"",""3769""
","
","
","""event"",""trial"",""time""
""fullscreenenter"",""1"",""3769""
","
","","","9562.699999999255","[""True""]","0","12","19798","7134","","","","","","","","","","","","","","","","","","",""
"pit-instructions","113","851375","0.0-2.0-23.0-1.0","battery-v0.2","","""event"",""trial"",""time""
""fullscreenenter"",""1"",""3769""
","
","
","""event"",""trial"",""time""
""fullscreenenter"",""1"",""3769""
","
","","[{""page_index"":0,""viewing_time"":1725.199999999255}]","1725.5999999977648","","","","","","","","","","","","","","","","","","","","","","","",""
"pit-comprehension","114","862260","0.0-2.0-24.0-0.0","battery-v0.2","","""event"",""trial"",""time""
""fullscreenenter"",""1"",""3769""
","
","
","""event"",""trial"",""time""
""fullscreenenter"",""1"",""3769""
","
","","","10881","[""True""]","0","12","19798","7134","","","","","","","","","","","","","","","","","","",""
"pit-instructions","115","864342","0.0-2.0-24.0-1.0","battery-v0.2","","""event"",""trial"",""time""
""fullscreenenter"",""1"",""3769""
","
","
","""event"",""trial"",""time""
""fullscreenenter"",""1"",""3769""
","
","","[{""page_index"":0,""viewing_time"":2057.89999999851}]","2058.39999999851","","","","","","","","","","","","","","","","","","","","","","","",""
"pit-comprehension","116","871927","0.0-2.0-25.0-0.0","battery-v0.2","","""event"",""trial"",""time""
""fullscreenenter"",""1"",""3769""
","
","
","""event"",""trial"",""time""
""fullscreenenter"",""1"",""3769""
","
","","","7579.900000002235","[""True""]","0","12","19798","7134","","","","","","","","","","","","","","","","","","",""
"pit-instructions","117","873725","0.0-2.0-25.0-1.0","battery-v0.2","","""event"",""trial"",""time""
""fullscreenenter"",""1"",""3769""
","
","
","""event"",""trial"",""time""
""fullscreenenter"",""1"",""3769""
","
","","[{""page_index"":0,""viewing_time"":1776}]","1776.3999999985099","","","","","","","","","","","","","","","","","","","","","","","",""
"pit-comprehension","118","879827","0.0-2.0-26.0-0.0","battery-v0.2","","""event"",""trial"",""time""
""fullscreenenter"",""1"",""3769""
","
","
","""event"",""trial"",""time""
""fullscreenenter"",""1"",""3769""
","
","","","6097.300000000745","[""False""]","0","12","19798","7134","","","","","","","","","","","","","","","","","","",""
"pit-instructions","119","881525","0.0-2.0-26.0-1.0","battery-v0.2","","""event"",""trial"",""time""
""fullscreenenter"",""1"",""3769""
","
","
","""event"",""trial"",""time""
""fullscreenenter"",""1"",""3769""
","
","","[{""page_index"":0,""viewing_time"":1673.0999999977648}]","1673.699999999255","","","","","","","","","","","","","","","","","","","","","","","",""
"pit-instructions","120","900675","0.0-3.0","battery-v0.2","","""event"",""trial"",""time""
""fullscreenenter"",""1"",""3769""
","
","
","""event"",""trial"",""time""
""fullscreenenter"",""1"",""3769""
","
","","[{""page_index"":0,""viewing_time"":4897.10000000149},{""page_index"":1,""viewing_time"":5716.79999999702},{""page_index"":2,""viewing_time"":8533.300000000745}]","19147.60000000149","","","","","","","","","","","","","","","","","","","","","","","",""
"pit-trial","121","904097","0.0-4.0","battery-v0.2","","""event"",""trial"",""time""
""fullscreenenter"",""1"",""3769""
","
","
","""event"",""trial"",""time""
""fullscreenenter"",""1"",""3769""
","
","","","563.3999999985099","","","12","19798","7134","&#9728;","elianto","#f73b6a7A","-1"," ","0","-10","[1414.300000000745]","1","1","","","19798","1","0","4","lose","no-go","0"
"pit-trial","122","908748","0.0-5.0","battery-v0.2","","""event"",""trial"",""time""
""fullscreenenter"",""1"",""3769""
","
","
","""event"",""trial"",""time""
""fullscreenenter"",""1"",""3769""
","
","","","1797.4000000022352","","","12","19798","7134","&#9752;","elianto","#f73b6a7A"," "," ","1","0","[2648]","1","1","","","19798","2","3","3","lose","go","0"
"pit-trial","123","912908","0.0-6.0","battery-v0.2","","""event"",""trial"",""time""
""fullscreenenter"",""1"",""3769""
","
","
","""event"",""trial"",""time""
""fullscreenenter"",""1"",""3769""
","
","","","1302.699999999255","","","12","19798","7134","&#9733;","elianto","#3366ff99","-1"," ","0","0","[2154.300000000745]","1","1","","","19798","3","2","2","win","no-go","0"
"pit-trial","124","916694","0.0-7.0","battery-v0.2","","""event"",""trial"",""time""
""fullscreenenter"",""1"",""3769""
","
","
","""event"",""trial"",""time""
""fullscreenenter"",""1"",""3769""
","
","","","930.1999999992549","","","12","19798","7134","&#9730;","elianto","#3366ff99"," "," ","1","+10","[1781.199999999255]","1","1","","","19798","4","1","1","win","go","0"
"pit-trial","125","920225","0.0-8.0","battery-v0.2","","""event"",""trial"",""time""
""fullscreenenter"",""1"",""3769""
","
","
","""event"",""trial"",""time""
""fullscreenenter"",""1"",""3769""
","
","","","675.5","","","12","19798","7134","&#9730;","elianto","#3366ff99"," "," ","1","+10","[1526]","1","1","","","19798","5","1","1","win","go","0"
"pit-trial","126","924354","0.0-9.0","battery-v0.2","","""event"",""trial"",""time""
""fullscreenenter"",""1"",""3769""
","
","
","""event"",""trial"",""time""
""fullscreenenter"",""1"",""3769""
","
","","","1273.7999999970198","","","12","19798","7134","&#9733;","elianto","#3366ff99","-1"," ","0","0","[2124.39999999851]","1","1","","","19798","6","2","2","win","no-go","0"
"pit-trial","127","929210","0.0-10.0","battery-v0.2","","""event"",""trial"",""time""
""fullscreenenter"",""1"",""3769""
","
","
","""event"",""trial"",""time""
""fullscreenenter"",""1"",""3769""
","
","","","-1","","","12","19798","7134","&#9728;","elianto","#f73b6a7A","-1","-1","1","-10","[]","0","1","","","19798","7","0","4","lose","no-go","1"
"pit-trial","128","934066","0.0-11.0","battery-v0.2","","""event"",""trial"",""time""
""fullscreenenter"",""1"",""3769""
","
","
","""event"",""trial"",""time""
""fullscreenenter"",""1"",""3769""
","
","","","-1","","","12","19798","7134","&#9752;","elianto","#f73b6a7A"," ","-1","0","-10","[]","0","1","","","19798","8","3","3","lose","go","0"
"pit-trial","129","937738","0.0-12.0","battery-v0.2","","""event"",""trial"",""time""
""fullscreenenter"",""1"",""3769""
","
","
","""event"",""trial"",""time""
""fullscreenenter"",""1"",""3769""
","
","","","815.2999999970198","","","12","19798","7134","&#9752;","elianto","#f73b6a7A"," "," ","1","0","[1666.699999999255]","1","1","","","19798","9","3","3","lose","go","0"
"pit-trial","130","941290","0.0-13.0","battery-v0.2","","""event"",""trial"",""time""
""fullscreenenter"",""1"",""3769""
","
","
","""event"",""trial"",""time""
""fullscreenenter"",""1"",""3769""
","
","","","695.3999999985099","","","12","19798","7134","&#9730;","elianto","#3366ff99"," "," ","1","+10","[1547.2999999970198]","1","1","","","19798","10","1","1","win","go","0"
"pit-trial","131","946146","0.0-14.0","battery-v0.2","","""event"",""trial"",""time""
""fullscreenenter"",""1"",""3769""
","
","
","""event"",""trial"",""time""
""fullscreenenter"",""1"",""3769""
","
","","","-1","","","12","19798","7134","&#9733;","elianto","#3366ff99","-1","-1","1","+10","[]","0","1","","","19798","11","2","2","win","no-go","0"
"pit-trial","132","950007","0.0-15.0","battery-v0.2","","""event"",""trial"",""time""
""fullscreenenter"",""1"",""3769""
","
","
","""event"",""trial"",""time""
""fullscreenenter"",""1"",""3769""
","
","","","1006.1999999992549","","","12","19798","7134","&#9728;","elianto","#f73b6a7A","-1"," ","0","-10","[1857.1000000014901]","1","1","","","19798","12","0","4","lose","no-go","0"
"pit-trial","133","953767","0.0-16.0","battery-v0.2","","""event"",""trial"",""time""
""fullscreenenter"",""1"",""3769""
","
","
","""event"",""trial"",""time""
""fullscreenenter"",""1"",""3769""
","
","","","903.6999999992549","","","12","19798","7134","&#9730;","elianto","#3366ff99"," "," ","1","+10","[1755.1000000014901]","1","1","","","19798","13","1","1","win","go","0"
"pit-trial","134","957581","0.0-17.0","battery-v0.2","","""event"",""trial"",""time""
""fullscreenenter"",""1"",""3769""
","
","
","""event"",""trial"",""time""
""fullscreenenter"",""1"",""3769""
","
","","","957.6999999992549","","","12","19798","7134","&#9752;","elianto","#f73b6a7A"," "," ","1","0","[1809.3999999985099]","1","1","","","19798","14","3","3","lose","go","0"
"pit-trial","135","960914","0.0-18.0","battery-v0.2","","""event"",""trial"",""time""
""fullscreenenter"",""1"",""3769""
","
","
","""event"",""trial"",""time""
""fullscreenenter"",""1"",""3769""
","
","","","478","","","12","19798","7134","&#9728;","elianto","#f73b6a7A","-1"," ","0","-10","[1328.3999999985099]","1","1","","","19798","15","0","4","lose","no-go","0"
"pit-trial","136","964572","0.0-19.0","battery-v0.2","","""event"",""trial"",""time""
""fullscreenenter"",""1"",""3769""
","
","
","""event"",""trial"",""time""
""fullscreenenter"",""1"",""3769""
","
","","","801.5","","","12","19798","7134","&#9733;","elianto","#3366ff99","-1"," ","0","0","[1652.8999999985099]","1","1","","","19798","16","2","2","win","no-go","0"
"pit-trial","137","968327","0.0-20.0","battery-v0.2","","""event"",""trial"",""time""
""fullscreenenter"",""1"",""3769""
","
","
","""event"",""trial"",""time""
""fullscreenenter"",""1"",""3769""
","
","","","899.1000000014901","","","12","19798","7134","&#9733;","elianto","#3366ff99","-1"," ","0","0","[1750.7000000029802]","1","1","","","19798","17","2","2","win","no-go","0"
"pit-trial","138","973038","0.0-21.0","battery-v0.2","","""event"",""trial"",""time""
""fullscreenenter"",""1"",""3769""
","
","
","""event"",""trial"",""time""
""fullscreenenter"",""1"",""3769""
","
","","","1855.6000000014901","","","12","19798","7134","&#9730;","elianto","#3366ff99"," "," ","1","0","[2706.400000002235]","1","1","","","19798","18","1","1","win","go","1"
"pit-trial","139","977894","0.0-22.0","battery-v0.2","","""event"",""trial"",""time""
""fullscreenenter"",""1"",""3769""
","
","
","""event"",""trial"",""time""
""fullscreenenter"",""1"",""3769""
","
","","","-1","","","12","19798","7134","&#9728;","elianto","#f73b6a7A","-1","-1","1","0","[]","0","1","","","19798","19","0","4","lose","no-go","0"
"pit-trial","140","982572","0.0-23.0","battery-v0.2","","""event"",""trial"",""time""
""fullscreenenter"",""1"",""3769""
","
","
","""event"",""trial"",""time""
""fullscreenenter"",""1"",""3769""
","
","","","1822","","","12","19798","7134","&#9752;","elianto","#f73b6a7A"," "," ","1","0","[2672.60000000149]","1","1","","","19798","20","3","3","lose","go","0"
"pit-instructions","141","994609","0.0-24.0","battery-v0.2","","""event"",""trial"",""time""
""fullscreenenter"",""1"",""3769""
","
","
","""event"",""trial"",""time""
""fullscreenenter"",""1"",""3769""
","
","","[{""page_index"":0,""viewing_time"":5635.099999997765},{""page_index"":1,""viewing_time"":6399.60000000149}]","12035.29999999702","","","","","","","","","","","","","","","","","","","","","","","",""
"pit-trial","142","998758","0.0-25.0","battery-v0.2","","""event"",""trial"",""time""
""fullscreenenter"",""1"",""3769""
","
","
","""event"",""trial"",""time""
""fullscreenenter"",""1"",""3769""
","
","","","1292.1000000014901","","","12","19798","7134","u","elianto","#f73b6a7A"," "," ","1","0","[2142.199999999255]","1","2","","","19798","21","0","3","lose","go","0"
"pit-trial","143","1002716","0.0-26.0","battery-v0.2","","""event"",""trial"",""time""
""fullscreenenter"",""1"",""3769""
","
","
","""event"",""trial"",""time""
""fullscreenenter"",""1"",""3769""
","
","","","1103","","","12","19798","7134","g","elianto","#f73b6a7A","-1"," ","0","-10","[1953.6000000014901]","1","2","","","19798","22","3","4","lose","no-go","0"
"pit-trial","144","1006449","0.0-27.0","battery-v0.2","","""event"",""trial"",""time""
""fullscreenenter"",""1"",""3769""
","
","
","""event"",""trial"",""time""
""fullscreenenter"",""1"",""3769""
","
","","","877","","","12","19798","7134","a","elianto","#f73b6a7A"," "," ","1","0","[1727.4000000022352]","1","2","","","19798","23","2","3","lose","go","0"
"pit-trial","145","1010054","0.0-28.0","battery-v0.2","","""event"",""trial"",""time""
""fullscreenenter"",""1"",""3769""
","
","
","""event"",""trial"",""time""
""fullscreenenter"",""1"",""3769""
","
","","","749.1999999992549","","","12","19798","7134","l","elianto","#3366ff99","-1"," ","0","+10","[1600.199999999255]","1","2","","","19798","24","1","2","win","no-go","1"
"pit-trial","146","1013646","0.0-29.0","battery-v0.2","","""event"",""trial"",""time""
""fullscreenenter"",""1"",""3769""
","
","
","""event"",""trial"",""time""
""fullscreenenter"",""1"",""3769""
","
","","","736.6999999992549","","","12","19798","7134","u","elianto","#f73b6a7A"," "," ","1","-10","[1587.5999999977648]","1","2","","","19798","25","0","3","lose","go","1"
"pit-trial","147","1017280","0.0-30.0","battery-v0.2","","""event"",""trial"",""time""
""fullscreenenter"",""1"",""3769""
","
","
","""event"",""trial"",""time""
""fullscreenenter"",""1"",""3769""
","
","","","778.5999999977648","","","12","19798","7134","l","elianto","#3366ff99","-1"," ","0","0","[1629.1000000014901]","1","2","","","19798","26","1","2","win","no-go","0"
"pit-trial","148","1020961","0.0-31.0","battery-v0.2","","""event"",""trial"",""time""
""fullscreenenter"",""1"",""3769""
","
","
","""event"",""trial"",""time""
""fullscreenenter"",""1"",""3769""
","
","","","825.1000000014901","","","12","19798","7134","a","elianto","#f73b6a7A"," "," ","1","-10","[1676]","1","2","","","19798","27","2","3","lose","go","1"
"pit-trial","149","1025817","0.0-32.0","battery-v0.2","","""event"",""trial"",""time""
""fullscreenenter"",""1"",""3769""
","
","
","""event"",""trial"",""time""
""fullscreenenter"",""1"",""3769""
","
","","","-1","","","12","19798","7134","g","elianto","#f73b6a7A","-1","-1","1","-10","[]","0","2","","","19798","28","3","4","lose","no-go","1"
"pit-trial","150","1029387","0.0-33.0","battery-v0.2","","""event"",""trial"",""time""
""fullscreenenter"",""1"",""3769""
","
","
","""event"",""trial"",""time""
""fullscreenenter"",""1"",""3769""
","
","","","714.4000000022352","","","12","19798","7134","a","elianto","#f73b6a7A"," "," ","1","0","[1565.199999999255]","1","2","","","19798","29","2","3","lose","go","0"
"pit-trial","151","1033122","0.0-34.0","battery-v0.2","","""event"",""trial"",""time""
""fullscreenenter"",""1"",""3769""
","
","
","""event"",""trial"",""time""
""fullscreenenter"",""1"",""3769""
","
","","","879","","","12","19798","7134","u","elianto","#f73b6a7A"," "," ","1","0","[1730.199999999255]","1","2","","","19798","30","0","3","lose","go","0"
"pit-trial","152","1037978","0.0-35.0","battery-v0.2","","""event"",""trial"",""time""
""fullscreenenter"",""1"",""3769""
","
","
","""event"",""trial"",""time""
""fullscreenenter"",""1"",""3769""
","
","","","-1","","","12","19798","7134","g","elianto","#f73b6a7A","-1","-1","1","0","[]","0","2","","","19798","31","3","4","lose","no-go","0"
"pit-trial","153","1041593","0.0-36.0","battery-v0.2","","""event"",""trial"",""time""
""fullscreenenter"",""1"",""3769""
","
","
","""event"",""trial"",""time""
""fullscreenenter"",""1"",""3769""
","
","","","759.1000000014901","","","12","19798","7134","l","elianto","#3366ff99","-1"," ","0","0","[1609.300000000745]","1","2","","","19798","32","1","2","win","no-go","0"
"pit-trial","154","1046449","0.0-37.0","battery-v0.2","","""event"",""trial"",""time""
""fullscreenenter"",""1"",""3769""
","
","
","""event"",""trial"",""time""
""fullscreenenter"",""1"",""3769""
","
","","","-1","","","12","19798","7134","g","elianto","#f73b6a7A","-1","-1","1","0","[]","0","2","","","19798","33","3","4","lose","no-go","0"
"pit-trial","155","1050315","0.0-38.0","battery-v0.2","","""event"",""trial"",""time""
""fullscreenenter"",""1"",""3769""
","
","
","""event"",""trial"",""time""
""fullscreenenter"",""1"",""3769""
","
","","","1008.8999999985099","","","12","19798","7134","l","elianto","#3366ff99","-1"," ","0","+10","[1860.3999999985099]","1","2","","","19798","34","1","2","win","no-go","1"
"pit-trial","156","1054642","0.0-39.0","battery-v0.2","","""event"",""trial"",""time""
""fullscreenenter"",""1"",""3769""
","
","
","""event"",""trial"",""time""
""fullscreenenter"",""1"",""3769""
","
","","","1472","","","12","19798","7134","a","elianto","#f73b6a7A"," "," ","1","0","[2322.699999999255]","1","2","","","19798","35","2","3","lose","go","0"
"pit-trial","157","1059499","0.0-40.0","battery-v0.2","","""event"",""trial"",""time""
""fullscreenenter"",""1"",""3769""
","
","
","""event"",""trial"",""time""
""fullscreenenter"",""1"",""3769""
","
","","","-1","","","12","19798","7134","u","elianto","#f73b6a7A"," ","-1","0","-10","[2917.699999999255]","1","2","","","19798","36","0","3","lose","go","0"
"pit-trial","158","1063163","0.0-41.0","battery-v0.2","","""event"",""trial"",""time""
""fullscreenenter"",""1"",""3769""
","
","
","""event"",""trial"",""time""
""fullscreenenter"",""1"",""3769""
","
","","","808.2999999970198","","","12","19798","7134","a","elianto","#f73b6a7A"," "," ","1","0","[1658.9000000022352]","1","2","","","19798","37","2","3","lose","go","0"
"pit-trial","159","1067263","0.0-42.0","battery-v0.2","","""event"",""trial"",""time""
""fullscreenenter"",""1"",""3769""
","
","
","""event"",""trial"",""time""
""fullscreenenter"",""1"",""3769""
","
","","","1246.4000000022352","","","12","19798","7134","l","elianto","#3366ff99","-1"," ","0","0","[2097.300000000745]","1","2","","","19798","38","1","2","win","no-go","0"
"pit-trial","160","1071319","0.0-43.0","battery-v0.2","","""event"",""trial"",""time""
""fullscreenenter"",""1"",""3769""
","
","
","""event"",""trial"",""time""
""fullscreenenter"",""1"",""3769""
","
","","","1200.699999999255","","","12","19798","7134","u","elianto","#f73b6a7A"," "," ","1","0","[2051.099999997765]","1","2","","","19798","39","0","3","lose","go","0"
"pit-trial","161","1076176","0.0-44.0","battery-v0.2","","""event"",""trial"",""time""
""fullscreenenter"",""1"",""3769""
","
","
","""event"",""trial"",""time""
""fullscreenenter"",""1"",""3769""
","
","","","-1","","","12","19798","7134","g","elianto","#f73b6a7A","-1","-1","1","0","[]","0","2","","","19798","40","3","4","lose","no-go","0"
"pit-trial","162","1079824","0.0-45.0","battery-v0.2","","""event"",""trial"",""time""
""fullscreenenter"",""1"",""3769""
","
","
","""event"",""trial"",""time""
""fullscreenenter"",""1"",""3769""
","
","","","791","","","12","19798","7134","l","elianto","#3366ff99","-1"," ","0","0","[1642.6000000014901]","1","2","","","19798","41","1","2","win","no-go","0"
"pit-trial","163","1083624","0.0-46.0","battery-v0.2","","""event"",""trial"",""time""
""fullscreenenter"",""1"",""3769""
","
","
","""event"",""trial"",""time""
""fullscreenenter"",""1"",""3769""
","
","","","943.8000000007451","","","12","19798","7134","u","elianto","#f73b6a7A"," "," ","1","0","[1795.300000000745]","1","2","","","19798","42","0","3","lose","go","0"
"pit-trial","164","1087567","0.0-47.0","battery-v0.2","","""event"",""trial"",""time""
""fullscreenenter"",""1"",""3769""
","
","
","""event"",""trial"",""time""
""fullscreenenter"",""1"",""3769""
","
","","","1087.300000000745","","","12","19798","7134","a","elianto","#f73b6a7A"," "," ","1","0","[1938.699999999255]","1","2","","","19798","43","2","3","lose","go","0"
"pit-trial","165","1092424","0.0-48.0","battery-v0.2","","""event"",""trial"",""time""
""fullscreenenter"",""1"",""3769""
","
","
","""event"",""trial"",""time""
""fullscreenenter"",""1"",""3769""
","
","","","-1","","","12","19798","7134","g","elianto","#f73b6a7A","-1","-1","1","0","[]","0","2","","","19798","44","3","4","lose","no-go","0"
"pit-trial","166","1097280","0.0-49.0","battery-v0.2","","""event"",""trial"",""time""
""fullscreenenter"",""1"",""3769""
","
","
","""event"",""trial"",""time""
""fullscreenenter"",""1"",""3769""
","
","","","-1","","","12","19798","7134","g","elianto","#f73b6a7A","-1","-1","1","0","[]","0","2","","","19798","45","3","4","lose","no-go","0"
"pit-trial","167","1101164","0.0-50.0","battery-v0.2","","""event"",""trial"",""time""
""fullscreenenter"",""1"",""3769""
","
","
","""event"",""trial"",""time""
""fullscreenenter"",""1"",""3769""
","
","","","1028.5","","","12","19798","7134","a","elianto","#f73b6a7A"," "," ","1","-10","[1879.699999999255]","1","2","","","19798","46","2","3","lose","go","1"
"pit-trial","168","1104752","0.0-51.0","battery-v0.2","","""event"",""trial"",""time""
""fullscreenenter"",""1"",""3769""
","
","
","""event"",""trial"",""time""
""fullscreenenter"",""1"",""3769""
","
","","","733.3000000007451","","","12","19798","7134","l","elianto","#3366ff99","-1"," ","0","0","[1583.8999999985099]","1","2","","","19798","47","1","2","win","no-go","0"
"pit-trial","169","1108137","0.0-52.0","battery-v0.2","","""event"",""trial"",""time""
""fullscreenenter"",""1"",""3769""
","
","
","""event"",""trial"",""time""
""fullscreenenter"",""1"",""3769""
","
","","","530.4000000022352","","","12","19798","7134","u","elianto","#f73b6a7A"," "," ","1","0","[1380.800000000745]","1","2","","","19798","48","0","3","lose","go","0"
"pit-trial","170","1112007","0.0-53.0","battery-v0.2","","""event"",""trial"",""time""
""fullscreenenter"",""1"",""3769""
","
","
","""event"",""trial"",""time""
""fullscreenenter"",""1"",""3769""
","
","","","1013.1000000014901","","","12","19798","7134","u","elianto","#f73b6a7A"," "," ","1","0","[1864.800000000745]","1","2","","","19798","49","0","3","lose","go","0"
"pit-trial","171","1115486","0.0-54.0","battery-v0.2","","""event"",""trial"",""time""
""fullscreenenter"",""1"",""3769""
","
","
","""event"",""trial"",""time""
""fullscreenenter"",""1"",""3769""
","
","","","622.8000000007451","","","12","19798","7134","a","elianto","#f73b6a7A"," "," ","1","0","[1474.0999999977648]","1","2","","","19798","50","2","3","lose","go","0"
"pit-trial","172","1118933","0.0-55.0","battery-v0.2","","""event"",""trial"",""time""
""fullscreenenter"",""1"",""3769""
","
","
","""event"",""trial"",""time""
""fullscreenenter"",""1"",""3769""
","
","","","590.6000000014901","","","12","19798","7134","l","elianto","#3366ff99","-1"," ","0","0","[1442.5]","1","2","","","19798","51","1","2","win","no-go","0"
"pit-trial","173","1123789","0.0-56.0","battery-v0.2","","""event"",""trial"",""time""
""fullscreenenter"",""1"",""3769""
","
","
","""event"",""trial"",""time""
""fullscreenenter"",""1"",""3769""
","
","","","-1","","","12","19798","7134","g","elianto","#f73b6a7A","-1","-1","1","0","[]","0","2","","","19798","52","3","4","lose","no-go","0"
"pit-trial","174","1127780","0.0-57.0","battery-v0.2","","""event"",""trial"",""time""
""fullscreenenter"",""1"",""3769""
","
","
","""event"",""trial"",""time""
""fullscreenenter"",""1"",""3769""
","
","","","1135.6000000014901","","","12","19798","7134","l","elianto","#3366ff99","-1"," ","0","0","[1986.9000000022352]","1","2","","","19798","53","1","2","win","no-go","0"
"pit-trial","175","1131271","0.0-58.0","battery-v0.2","","""event"",""trial"",""time""
""fullscreenenter"",""1"",""3769""
","
","
","""event"",""trial"",""time""
""fullscreenenter"",""1"",""3769""
","
","","","635.7000000029802","","","12","19798","7134","u","elianto","#f73b6a7A"," "," ","1","-10","[1486.800000000745]","1","2","","","19798","54","0","3","lose","go","1"
"pit-trial","176","1136128","0.0-59.0","battery-v0.2","","""event"",""trial"",""time""
""fullscreenenter"",""1"",""3769""
","
","
","""event"",""trial"",""time""
""fullscreenenter"",""1"",""3769""
","
","","","-1","","","12","19798","7134","g","elianto","#f73b6a7A","-1","-1","1","0","[]","0","2","","","19798","55","3","4","lose","no-go","0"
"pit-trial","177","1140117","0.0-60.0","battery-v0.2","","""event"",""trial"",""time""
""fullscreenenter"",""1"",""3769""
","
","
","""event"",""trial"",""time""
""fullscreenenter"",""1"",""3769""
","
","","","1134.5999999977648","","","12","19798","7134","a","elianto","#f73b6a7A"," "," ","1","0","[1984.800000000745]","1","2","","","19798","56","2","3","lose","go","0"
"pit-trial","178","1144973","0.0-61.0","battery-v0.2","","""event"",""trial"",""time""
""fullscreenenter"",""1"",""3769""
","
","
","""event"",""trial"",""time""
""fullscreenenter"",""1"",""3769""
","
","","","-1","","","12","19798","7134","g","elianto","#f73b6a7A","-1","-1","1","0","[]","0","2","","","19798","57","3","4","lose","no-go","0"
"pit-trial","179","1149068","0.0-62.0","battery-v0.2","","""event"",""trial"",""time""
""fullscreenenter"",""1"",""3769""
","
","
","""event"",""trial"",""time""
""fullscreenenter"",""1"",""3769""
","
","","","1238.199999999255","","","12","19798","7134","p","elianto","#3366ff99"," "," ","1","+10","[2089.900000002235]","1","2","","","19798","58","4","1","win","go","0"
"pit-trial","180","1152724","0.0-63.0","battery-v0.2","","""event"",""trial"",""time""
""fullscreenenter"",""1"",""3769""
","
","
","""event"",""trial"",""time""
""fullscreenenter"",""1"",""3769""
","
","","","800","","","12","19798","7134","a","elianto","#f73b6a7A"," "," ","1","0","[1651.5]","1","2","","","19798","59","2","3","lose","go","0"
"pit-trial","181","1156635","0.0-64.0","battery-v0.2","","""event"",""trial"",""time""
""fullscreenenter"",""1"",""3769""
","
","
","""event"",""trial"",""time""
""fullscreenenter"",""1"",""3769""
","
","","","1054.7000000029802","","","12","19798","7134","u","elianto","#f73b6a7A"," "," ","1","0","[1905.800000000745]","1","2","","","19798","60","0","3","lose","go","0"
"pit-trial","182","1160594","0.0-65.0","battery-v0.2","","""event"",""trial"",""time""
""fullscreenenter"",""1"",""3769""
","
","
","""event"",""trial"",""time""
""fullscreenenter"",""1"",""3769""
","
","","","1103.5","","","12","19798","7134","l","elianto","#3366ff99","-1"," ","0","0","[1954.699999999255]","1","2","","","19798","61","1","2","win","no-go","0"
"pit-trial","183","1164394","0.0-66.0","battery-v0.2","","""event"",""trial"",""time""
""fullscreenenter"",""1"",""3769""
","
","
","""event"",""trial"",""time""
""fullscreenenter"",""1"",""3769""
","
","","","944.1000000014901","","","12","19798","7134","p","elianto","#3366ff99"," "," ","1","+10","[1794.7999999970198]","1","2","","","19798","62","4","1","win","go","0"
"pit-trial","184","1169251","0.0-67.0","battery-v0.2","","""event"",""trial"",""time""
""fullscreenenter"",""1"",""3769""
","
","
","""event"",""trial"",""time""
""fullscreenenter"",""1"",""3769""
","
","","","-1","","","12","19798","7134","g","elianto","#f73b6a7A","-1","-1","1","-10","[]","0","2","","","19798","63","3","4","lose","no-go","1"
"pit-trial","185","1173262","0.0-68.0","battery-v0.2","","""event"",""trial"",""time""
""fullscreenenter"",""1"",""3769""
","
","
","""event"",""trial"",""time""
""fullscreenenter"",""1"",""3769""
","
","","","1154.0999999977648","","","12","19798","7134","a","elianto","#f73b6a7A"," "," ","1","0","[2005.699999999255]","1","2","","","19798","64","2","3","lose","go","0"
"pit-trial","186","1178118","0.0-69.0","battery-v0.2","","""event"",""trial"",""time""
""fullscreenenter"",""1"",""3769""
","
","
","""event"",""trial"",""time""
""fullscreenenter"",""1"",""3769""
","
","","","-1","","","12","19798","7134","g","elianto","#f73b6a7A","-1","-1","1","-10","[]","0","2","","","19798","65","3","4","lose","no-go","1"
"pit-trial","187","1181732","0.0-70.0","battery-v0.2","","""event"",""trial"",""time""
""fullscreenenter"",""1"",""3769""
","
","
","""event"",""trial"",""time""
""fullscreenenter"",""1"",""3769""
","
","","","757.6000000014901","","","12","19798","7134","p","elianto","#3366ff99"," "," ","1","+10","[1608.6000000014901]","1","2","","","19798","66","4","1","win","go","0"
"pit-trial","188","1185721","0.0-71.0","battery-v0.2","","""event"",""trial"",""time""
""fullscreenenter"",""1"",""3769""
","
","
","""event"",""trial"",""time""
""fullscreenenter"",""1"",""3769""
","
","","","1133.199999999255","","","12","19798","7134","s","elianto","#3366ff99","-1"," ","0","0","[1984.8999999985099]","1","2","","","19798","67","5","2","win","no-go","0"
"pit-trial","189","1189251","0.0-72.0","battery-v0.2","","""event"",""trial"",""time""
""fullscreenenter"",""1"",""3769""
","
","
","""event"",""trial"",""time""
""fullscreenenter"",""1"",""3769""
","
","","","672.8000000007451","","","12","19798","7134","l","elianto","#3366ff99","-1"," ","0","0","[1524.5]","1","2","","","19798","68","1","2","win","no-go","0"
"pit-trial","190","1194107","0.0-73.0","battery-v0.2","","""event"",""trial"",""time""
""fullscreenenter"",""1"",""3769""
","
","
","""event"",""trial"",""time""
""fullscreenenter"",""1"",""3769""
","
","","","-1","","","12","19798","7134","s","elianto","#3366ff99","-1","-1","1","0","[]","0","2","","","19798","69","5","2","win","no-go","1"
"pit-trial","191","1197742","0.0-74.0","battery-v0.2","","""event"",""trial"",""time""
""fullscreenenter"",""1"",""3769""
","
","
","""event"",""trial"",""time""
""fullscreenenter"",""1"",""3769""
","
","","","778.4000000022352","","","12","19798","7134","a","elianto","#f73b6a7A"," "," ","1","0","[1629.3999999985099]","1","2","","","19798","70","2","3","lose","go","0"
"pit-trial","192","1201445","0.0-75.0","battery-v0.2","","""event"",""trial"",""time""
""fullscreenenter"",""1"",""3769""
","
","
","""event"",""trial"",""time""
""fullscreenenter"",""1"",""3769""
","
","","","848.1999999992549","","","12","19798","7134","p","elianto","#3366ff99"," "," ","1","0","[1699.3999999985099]","1","2","","","19798","71","4","1","win","go","1"
"pit-trial","193","1205234","0.0-76.0","battery-v0.2","","""event"",""trial"",""time""
""fullscreenenter"",""1"",""3769""
","
","
","""event"",""trial"",""time""
""fullscreenenter"",""1"",""3769""
","
","","","933","","","12","19798","7134","l","elianto","#3366ff99","-1"," ","0","+10","[1783.5]","1","2","","","19798","72","1","2","win","no-go","1"
"pit-trial","194","1208683","0.0-77.0","battery-v0.2","","""event"",""trial"",""time""
""fullscreenenter"",""1"",""3769""
","
","
","""event"",""trial"",""time""
""fullscreenenter"",""1"",""3769""
","
","","","594.4000000022352","","","12","19798","7134","g","elianto","#f73b6a7A","-1"," ","0","-10","[1444.800000000745]","1","2","","","19798","73","3","4","lose","no-go","0"
"pit-trial","195","1213539","0.0-78.0","battery-v0.2","","""event"",""trial"",""time""
""fullscreenenter"",""1"",""3769""
","
","
","""event"",""trial"",""time""
""fullscreenenter"",""1"",""3769""
","
","","","-1","","","12","19798","7134","p","elianto","#3366ff99"," ","-1","0","0","[]","0","2","","","19798","74","4","1","win","go","0"
"pit-trial","196","1217487","0.0-79.0","battery-v0.2","","""event"",""trial"",""time""
""fullscreenenter"",""1"",""3769""
","
","
","""event"",""trial"",""time""
""fullscreenenter"",""1"",""3769""
","
","","","1093.800000000745","","","12","19798","7134","s","elianto","#3366ff99","-1"," ","0","0","[1945.199999999255]","1","2","","","19798","75","5","2","win","no-go","0"
"pit-trial","197","1221388","0.0-80.0","battery-v0.2","","""event"",""trial"",""time""
""fullscreenenter"",""1"",""3769""
","
","
","""event"",""trial"",""time""
""fullscreenenter"",""1"",""3769""
","
","","","1044.800000000745","","","12","19798","7134","l","elianto","#3366ff99","-1"," ","0","0","[1896.4000000022352]","1","2","","","19798","76","1","2","win","no-go","0"
"pit-trial","198","1225320","0.0-81.0","battery-v0.2","","""event"",""trial"",""time""
""fullscreenenter"",""1"",""3769""
","
","
","""event"",""trial"",""time""
""fullscreenenter"",""1"",""3769""
","
","","","1076.5","","","12","19798","7134","p","elianto","#3366ff99"," "," ","1","+10","[1927.5999999977648]","1","2","","","19798","77","4","1","win","go","0"
"pit-trial","199","1230177","0.0-82.0","battery-v0.2","","""event"",""trial"",""time""
""fullscreenenter"",""1"",""3769""
","
","
","""event"",""trial"",""time""
""fullscreenenter"",""1"",""3769""
","
","","","-1","","","12","19798","7134","g","elianto","#f73b6a7A","-1","-1","1","0","[]","0","2","","","19798","78","3","4","lose","no-go","0"
"pit-trial","200","1234895","0.0-83.0","battery-v0.2","","""event"",""trial"",""time""
""fullscreenenter"",""1"",""3769""
","
","
","""event"",""trial"",""time""
""fullscreenenter"",""1"",""3769""
","
","","","1862.2999999970198","","","12","19798","7134","s","elianto","#3366ff99","-1"," ","0","0","[2713.2999999970198]","1","2","","","19798","79","5","2","win","no-go","0"
"pit-trial","201","1238947","0.0-84.0","battery-v0.2","","""event"",""trial"",""time""
""fullscreenenter"",""1"",""3769""
","
","
","""event"",""trial"",""time""
""fullscreenenter"",""1"",""3769""
","
","","","1196.4000000022352","","","12","19798","7134","p","elianto","#3366ff99"," "," ","1","+10","[2046.800000000745]","1","2","","","19798","80","4","1","win","go","0"
"pit-trial","202","1243803","0.0-85.0","battery-v0.2","","""event"",""trial"",""time""
""fullscreenenter"",""1"",""3769""
","
","
","""event"",""trial"",""time""
""fullscreenenter"",""1"",""3769""
","
","","","-1","","","12","19798","7134","e","elianto","#f73b6a7A","-1","-1","1","0","[2919.60000000149]","1","2","","","19798","81","7","4","lose","no-go","0"
"pit-trial","203","1248659","0.0-86.0","battery-v0.2","","""event"",""trial"",""time""
""fullscreenenter"",""1"",""3769""
","
","
","""event"",""trial"",""time""
""fullscreenenter"",""1"",""3769""
","
","","","-1","","","12","19798","7134","s","elianto","#3366ff99","-1","-1","1","+10","[2875.300000000745]","1","2","","","19798","82","5","2","win","no-go","0"
"pit-trial","204","1252319","0.0-87.0","battery-v0.2","","""event"",""trial"",""time""
""fullscreenenter"",""1"",""3769""
","
","
","""event"",""trial"",""time""
""fullscreenenter"",""1"",""3769""
","
","","","805.3000000007451","","","12","19798","7134","p","elianto","#3366ff99"," "," ","1","+10","[1655.800000000745]","1","2","","","19798","83","4","1","win","go","0"
"pit-trial","205","1257175","0.0-88.0","battery-v0.2","","""event"",""trial"",""time""
""fullscreenenter"",""1"",""3769""
","
","
","""event"",""trial"",""time""
""fullscreenenter"",""1"",""3769""
","
","","","-1","","","12","19798","7134","g","elianto","#f73b6a7A","-1","-1","1","0","[]","0","2","","","19798","84","3","4","lose","no-go","0"
"pit-trial","206","1262031","0.0-89.0","battery-v0.2","","""event"",""trial"",""time""
""fullscreenenter"",""1"",""3769""
","
","
","""event"",""trial"",""time""
""fullscreenenter"",""1"",""3769""
","
","","","-1","","","12","19798","7134","s","elianto","#3366ff99","-1","-1","1","+10","[2913.2000000029802]","1","2","","","19798","85","5","2","win","no-go","0"
"pit-trial","207","1266308","0.0-90.0","battery-v0.2","","""event"",""trial"",""time""
""fullscreenenter"",""1"",""3769""
","
","
","""event"",""trial"",""time""
""fullscreenenter"",""1"",""3769""
","
","","","1421.199999999255","","","12","19798","7134","w","elianto","#f73b6a7A"," "," ","1","-10","[2272]","1","2","","","19798","86","6","3","lose","go","1"
"pit-trial","208","1270103","0.0-91.0","battery-v0.2","","""event"",""trial"",""time""
""fullscreenenter"",""1"",""3769""
","
","
","""event"",""trial"",""time""
""fullscreenenter"",""1"",""3769""
","
","","","938.6999999992549","","","12","19798","7134","p","elianto","#3366ff99"," "," ","1","0","[1789.800000000745]","1","2","","","19798","87","4","1","win","go","1"
"pit-trial","209","1274960","0.0-92.0","battery-v0.2","","""event"",""trial"",""time""
""fullscreenenter"",""1"",""3769""
","
","
","""event"",""trial"",""time""
""fullscreenenter"",""1"",""3769""
","
","","","-1","","","12","19798","7134","e","elianto","#f73b6a7A","-1","-1","1","0","[]","0","2","","","19798","88","7","4","lose","no-go","0"
"pit-trial","210","1279816","0.0-93.0","battery-v0.2","","""event"",""trial"",""time""
""fullscreenenter"",""1"",""3769""
","
","
","""event"",""trial"",""time""
""fullscreenenter"",""1"",""3769""
","
","","","-1","","","12","19798","7134","e","elianto","#f73b6a7A","-1","-1","1","0","[]","0","2","","","19798","89","7","4","lose","no-go","0"
"pit-trial","211","1284380","0.0-94.0","battery-v0.2","","""event"",""trial"",""time""
""fullscreenenter"",""1"",""3769""
","
","
","""event"",""trial"",""time""
""fullscreenenter"",""1"",""3769""
","
","","","1707.800000000745","","","12","19798","7134","w","elianto","#f73b6a7A"," "," ","1","0","[2558.900000002235]","1","2","","","19798","90","6","3","lose","go","0"
"pit-trial","212","1288266","0.0-95.0","battery-v0.2","","""event"",""trial"",""time""
""fullscreenenter"",""1"",""3769""
","
","
","""event"",""trial"",""time""
""fullscreenenter"",""1"",""3769""
","
","","","1031","","","12","19798","7134","s","elianto","#3366ff99","-1"," ","0","0","[1881.300000000745]","1","2","","","19798","91","5","2","win","no-go","0"
"pit-trial","213","1291758","0.0-96.0","battery-v0.2","","""event"",""trial"",""time""
""fullscreenenter"",""1"",""3769""
","
","
","""event"",""trial"",""time""
""fullscreenenter"",""1"",""3769""
","
","","","637.7000000029802","","","12","19798","7134","p","elianto","#3366ff99"," "," ","1","0","[1488.300000000745]","1","2","","","19798","92","4","1","win","go","1"
"pit-trial","214","1295260","0.0-97.0","battery-v0.2","","""event"",""trial"",""time""
""fullscreenenter"",""1"",""3769""
","
","
","""event"",""trial"",""time""
""fullscreenenter"",""1"",""3769""
","
","","","646.1999999992549","","","12","19798","7134","d","elianto","#3366ff99"," "," ","1","+10","[1497.300000000745]","1","2","","","19798","93","8","1","win","go","0"
"pit-trial","215","1298828","0.0-98.0","battery-v0.2","","""event"",""trial"",""time""
""fullscreenenter"",""1"",""3769""
","
","
","""event"",""trial"",""time""
""fullscreenenter"",""1"",""3769""
","
","","","712.3999999985099","","","12","19798","7134","s","elianto","#3366ff99","-1"," ","0","0","[1562.9000000022352]","1","2","","","19798","94","5","2","win","no-go","0"
"pit-trial","216","1303684","0.0-99.0","battery-v0.2","","""event"",""trial"",""time""
""fullscreenenter"",""1"",""3769""
","
","
","""event"",""trial"",""time""
""fullscreenenter"",""1"",""3769""
","
","","","-1","","","12","19798","7134","e","elianto","#f73b6a7A","-1","-1","1","-10","[]","0","2","","","19798","95","7","4","lose","no-go","1"
"pit-trial","217","1307790","0.0-100.0","battery-v0.2","","""event"",""trial"",""time""
""fullscreenenter"",""1"",""3769""
","
","
","""event"",""trial"",""time""
""fullscreenenter"",""1"",""3769""
","
","","","1249.8999999985099","","","12","19798","7134","w","elianto","#f73b6a7A"," "," ","1","0","[2100.699999999255]","1","2","","","19798","96","6","3","lose","go","0"
"pit-trial","218","1312646","0.0-101.0","battery-v0.2","","""event"",""trial"",""time""
""fullscreenenter"",""1"",""3769""
","
","
","""event"",""trial"",""time""
""fullscreenenter"",""1"",""3769""
","
","","","-1","","","12","19798","7134","s","elianto","#3366ff99","-1","-1","1","+10","[3012.300000000745,3286.599999997765]","2","2","","","19798","97","5","2","win","no-go","0"
"pit-trial","219","1316698","0.0-102.0","battery-v0.2","","""event"",""trial"",""time""
""fullscreenenter"",""1"",""3769""
","
","
","""event"",""trial"",""time""
""fullscreenenter"",""1"",""3769""
","
","","","1196.300000000745","","","12","19798","7134","d","elianto","#3366ff99"," "," ","1","+10","[2046.800000000745]","1","2","","","19798","98","8","1","win","go","0"
"pit-trial","220","1320734","0.0-103.0","battery-v0.2","","""event"",""trial"",""time""
""fullscreenenter"",""1"",""3769""
","
","
","""event"",""trial"",""time""
""fullscreenenter"",""1"",""3769""
","
","","","1180.0999999977648","","","12","19798","7134","e","elianto","#f73b6a7A","-1"," ","0","-10","[2030.5999999977648]","1","2","","","19798","99","7","4","lose","no-go","0"
"pit-trial","221","1324349","0.0-104.0","battery-v0.2","","""event"",""trial"",""time""
""fullscreenenter"",""1"",""3769""
","
","
","""event"",""trial"",""time""
""fullscreenenter"",""1"",""3769""
","
","","","757.8999999985099","","","12","19798","7134","w","elianto","#f73b6a7A"," "," ","1","0","[1609.5]","1","2","","","19798","100","6","3","lose","go","0"
"pit-trial","222","1327628","0.0-105.0","battery-v0.2","","""event"",""trial"",""time""
""fullscreenenter"",""1"",""3769""
","
","
","""event"",""trial"",""time""
""fullscreenenter"",""1"",""3769""
","
","","","424.30000000074506","","","12","19798","7134","s","elianto","#3366ff99","-1"," ","0","0","[1274.5]","1","2","","","19798","101","5","2","win","no-go","0"
"pit-trial","223","1331376","0.0-106.0","battery-v0.2","","""event"",""trial"",""time""
""fullscreenenter"",""1"",""3769""
","
","
","""event"",""trial"",""time""
""fullscreenenter"",""1"",""3769""
","
","","","892.6999999992549","","","12","19798","7134","d","elianto","#3366ff99"," "," ","1","+10","[1743.199999999255]","1","2","","","19798","102","8","1","win","go","0"
"pit-trial","224","1335644","0.0-107.0","battery-v0.2","","""event"",""trial"",""time""
""fullscreenenter"",""1"",""3769""
","
","
","""event"",""trial"",""time""
""fullscreenenter"",""1"",""3769""
","
","","","1412.699999999255","","","12","19798","7134","e","elianto","#f73b6a7A","-1"," ","0","0","[2264.39999999851]","1","2","","","19798","103","7","4","lose","no-go","1"
"pit-trial","225","1339342","0.0-108.0","battery-v0.2","","""event"",""trial"",""time""
""fullscreenenter"",""1"",""3769""
","
","
","""event"",""trial"",""time""
""fullscreenenter"",""1"",""3769""
","
","","","842.6999999992549","","","12","19798","7134","j","elianto","#3366ff99"," "," ","1","0","[1692.699999999255]","1","2","","","19798","104","9","1","win","go","1"
"pit-trial","226","1343012","0.0-109.0","battery-v0.2","","""event"",""trial"",""time""
""fullscreenenter"",""1"",""3769""
","
","
","""event"",""trial"",""time""
""fullscreenenter"",""1"",""3769""
","
","","","814","","","12","19798","7134","d","elianto","#3366ff99"," "," ","1","+10","[1664.6000000014901]","1","2","","","19798","105","8","1","win","go","0"
"pit-trial","227","1346803","0.0-110.0","battery-v0.2","","""event"",""trial"",""time""
""fullscreenenter"",""1"",""3769""
","
","
","""event"",""trial"",""time""
""fullscreenenter"",""1"",""3769""
","
","","","935.5","","","12","19798","7134","w","elianto","#f73b6a7A"," "," ","1","-10","[1786.300000000745]","1","2","","","19798","106","6","3","lose","go","1"
"pit-trial","228","1350724","0.0-111.0","battery-v0.2","","""event"",""trial"",""time""
""fullscreenenter"",""1"",""3769""
","
","
","""event"",""trial"",""time""
""fullscreenenter"",""1"",""3769""
","
","","","1065.199999999255","","","12","19798","7134","j","elianto","#3366ff99"," "," ","1","+10","[1917]","1","2","","","19798","107","9","1","win","go","0"
"pit-trial","229","1354236","0.0-112.0","battery-v0.2","","""event"",""trial"",""time""
""fullscreenenter"",""1"",""3769""
","
","
","""event"",""trial"",""time""
""fullscreenenter"",""1"",""3769""
","
","","","655.8000000007451","","","12","19798","7134","p","elianto","#3366ff99"," "," ","1","0","[1507.1000000014901]","1","2","","","19798","108","4","1","win","go","1"
"pit-trial","230","1358111","0.0-113.0","battery-v0.2","","""event"",""trial"",""time""
""fullscreenenter"",""1"",""3769""
","
","
","""event"",""trial"",""time""
""fullscreenenter"",""1"",""3769""
","
","","","1018.5999999977648","","","12","19798","7134","j","elianto","#3366ff99"," "," ","1","+10","[1870.1000000014901]","1","2","","","19798","109","9","1","win","go","0"
"pit-trial","231","1361934","0.0-114.0","battery-v0.2","","""event"",""trial"",""time""
""fullscreenenter"",""1"",""3769""
","
","
","""event"",""trial"",""time""
""fullscreenenter"",""1"",""3769""
","
","","","966.3000000007451","","","12","19798","7134","s","elianto","#3366ff99","-1"," ","0","0","[1817.3999999985099]","1","2","","","19798","110","5","2","win","no-go","0"
"pit-trial","232","1366357","0.0-115.0","battery-v0.2","","""event"",""trial"",""time""
""fullscreenenter"",""1"",""3769""
","
","
","""event"",""trial"",""time""
""fullscreenenter"",""1"",""3769""
","
","","","1567.6000000014901","","","12","19798","7134","w","elianto","#f73b6a7A"," "," ","1","0","[2418.60000000149]","1","2","","","19798","111","6","3","lose","go","0"
"pit-trial","233","1370035","0.0-116.0","battery-v0.2","","""event"",""trial"",""time""
""fullscreenenter"",""1"",""3769""
","
","
","""event"",""trial"",""time""
""fullscreenenter"",""1"",""3769""
","
","","","821.6000000014901","","","12","19798","7134","d","elianto","#3366ff99"," "," ","1","0","[1673.3999999985099]","1","2","","","19798","112","8","1","win","go","1"
"pit-trial","234","1373630","0.0-117.0","battery-v0.2","","""event"",""trial"",""time""
""fullscreenenter"",""1"",""3769""
","
","
","""event"",""trial"",""time""
""fullscreenenter"",""1"",""3769""
","
","","","738.6000000014901","","","12","19798","7134","j","elianto","#3366ff99"," "," ","1","+10","[1590.300000000745]","1","2","","","19798","113","9","1","win","go","0"
"pit-trial","235","1378486","0.0-118.0","battery-v0.2","","""event"",""trial"",""time""
""fullscreenenter"",""1"",""3769""
","
","
","""event"",""trial"",""time""
""fullscreenenter"",""1"",""3769""
","
","","","-1","","","12","19798","7134","w","elianto","#f73b6a7A"," ","-1","0","-10","[]","0","2","","","19798","114","6","3","lose","go","0"
"pit-trial","236","1382105","0.0-119.0","battery-v0.2","","""event"",""trial"",""time""
""fullscreenenter"",""1"",""3769""
","
","
","""event"",""trial"",""time""
""fullscreenenter"",""1"",""3769""
","
","","","763","","","12","19798","7134","s","elianto","#3366ff99","-1"," ","0","0","[1614.199999999255]","1","2","","","19798","115","5","2","win","no-go","0"
"pit-trial","237","1385764","0.0-120.0","battery-v0.2","","""event"",""trial"",""time""
""fullscreenenter"",""1"",""3769""
","
","
","""event"",""trial"",""time""
""fullscreenenter"",""1"",""3769""
","
","","","801.8000000007451","","","12","19798","7134","d","elianto","#3366ff99"," "," ","1","+10","[1653]","1","2","","","19798","116","8","1","win","go","0"
"pit-trial","238","1389211","0.0-121.0","battery-v0.2","","""event"",""trial"",""time""
""fullscreenenter"",""1"",""3769""
","
","
","""event"",""trial"",""time""
""fullscreenenter"",""1"",""3769""
","
","","","591","","","12","19798","7134","d","elianto","#3366ff99"," "," ","1","+10","[1442.1000000014901]","1","2","","","19798","117","8","1","win","go","0"
"pit-trial","239","1394066","0.0-122.0","battery-v0.2","","""event"",""trial"",""time""
""fullscreenenter"",""1"",""3769""
","
","
","""event"",""trial"",""time""
""fullscreenenter"",""1"",""3769""
","
","","","-1","","","12","19798","7134","s","elianto","#3366ff99","-1","-1","1","+10","[]","0","2","","","19798","118","5","2","win","no-go","0"
"pit-trial","240","1398922","0.0-123.0","battery-v0.2","","""event"",""trial"",""time""
""fullscreenenter"",""1"",""3769""
","
","
","""event"",""trial"",""time""
""fullscreenenter"",""1"",""3769""
","
","","","-1","","","12","19798","7134","w","elianto","#f73b6a7A"," ","-1","0","-10","[2855]","1","2","","","19798","119","6","3","lose","go","0"
"pit-trial","241","1402495","0.0-124.0","battery-v0.2","","""event"",""trial"",""time""
""fullscreenenter"",""1"",""3769""
","
","
","""event"",""trial"",""time""
""fullscreenenter"",""1"",""3769""
","
","","","716.9000000022352","","","12","19798","7134","j","elianto","#3366ff99"," "," ","1","+10","[1568.699999999255]","1","2","","","19798","120","9","1","win","go","0"
"pit-trial","242","1406267","0.0-125.0","battery-v0.2","","""event"",""trial"",""time""
""fullscreenenter"",""1"",""3769""
","
","
","""event"",""trial"",""time""
""fullscreenenter"",""1"",""3769""
","
","","","916.1000000014901","","","12","19798","7134","j","elianto","#3366ff99"," "," ","1","0","[1766.5]","1","2","","","19798","121","9","1","win","go","1"
"pit-trial","243","1410296","0.0-126.0","battery-v0.2","","""event"",""trial"",""time""
""fullscreenenter"",""1"",""3769""
","
","
","""event"",""trial"",""time""
""fullscreenenter"",""1"",""3769""
","
","","","1174.800000000745","","","12","19798","7134","w","elianto","#f73b6a7A"," "," ","1","0","[2026]","1","2","","","19798","122","6","3","lose","go","0"
"pit-trial","244","1414062","0.0-127.0","battery-v0.2","","""event"",""trial"",""time""
""fullscreenenter"",""1"",""3769""
","
","
","""event"",""trial"",""time""
""fullscreenenter"",""1"",""3769""
","
","","","909.6000000014901","","","12","19798","7134","e","elianto","#f73b6a7A","-1"," ","0","0","[1760.6000000014901]","1","2","","","19798","123","7","4","lose","no-go","1"
"pit-trial","245","1417715","0.0-128.0","battery-v0.2","","""event"",""trial"",""time""
""fullscreenenter"",""1"",""3769""
","
","
","""event"",""trial"",""time""
""fullscreenenter"",""1"",""3769""
","
","","","797.6999999992549","","","12","19798","7134","d","elianto","#3366ff99"," "," ","1","+10","[1648.2999999970198]","1","2","","","19798","124","8","1","win","go","0"
"pit-trial","246","1421957","0.0-129.0","battery-v0.2","","""event"",""trial"",""time""
""fullscreenenter"",""1"",""3769""
","
","
","""event"",""trial"",""time""
""fullscreenenter"",""1"",""3769""
","
","","","1386.699999999255","","","12","19798","7134","e","elianto","#f73b6a7A","-1"," ","0","-10","[2237.300000000745]","1","2","","","19798","125","7","4","lose","no-go","0"
"pit-trial","247","1425570","0.0-130.0","battery-v0.2","","""event"",""trial"",""time""
""fullscreenenter"",""1"",""3769""
","
","
","""event"",""trial"",""time""
""fullscreenenter"",""1"",""3769""
","
","","","757.5","","","12","19798","7134","d","elianto","#3366ff99"," "," ","1","+10","[1608.5999999977648]","1","2","","","19798","126","8","1","win","go","0"
"pit-trial","248","1429155","0.0-131.0","battery-v0.2","","""event"",""trial"",""time""
""fullscreenenter"",""1"",""3769""
","
","
","""event"",""trial"",""time""
""fullscreenenter"",""1"",""3769""
","
","","","728.1999999992549","","","12","19798","7134","j","elianto","#3366ff99"," "," ","1","+10","[1579.5]","1","2","","","19798","127","9","1","win","go","0"
"pit-trial","249","1434011","0.0-132.0","battery-v0.2","","""event"",""trial"",""time""
""fullscreenenter"",""1"",""3769""
","
","
","""event"",""trial"",""time""
""fullscreenenter"",""1"",""3769""
","
","","","-1","","","12","19798","7134","w","elianto","#f73b6a7A"," ","-1","0","-10","[2867.099999997765]","1","2","","","19798","128","6","3","lose","go","0"
"pit-trial","250","1437673","0.0-133.0","battery-v0.2","","""event"",""trial"",""time""
""fullscreenenter"",""1"",""3769""
","
","
","""event"",""trial"",""time""
""fullscreenenter"",""1"",""3769""
","
","","","807.6000000014901","","","12","19798","7134","d","elianto","#3366ff99"," "," ","1","0","[1657.8999999985099]","1","2","","","19798","129","8","1","win","go","1"
"pit-trial","251","1442344","0.0-134.0","battery-v0.2","","""event"",""trial"",""time""
""fullscreenenter"",""1"",""3769""
","
","
","""event"",""trial"",""time""
""fullscreenenter"",""1"",""3769""
","
","","","1814.199999999255","","","12","19798","7134","w","elianto","#f73b6a7A"," "," ","1","0","[2665.60000000149]","1","2","","","19798","130","6","3","lose","go","0"
"pit-trial","252","1446083","0.0-135.0","battery-v0.2","","""event"",""trial"",""time""
""fullscreenenter"",""1"",""3769""
","
","
","""event"",""trial"",""time""
""fullscreenenter"",""1"",""3769""
","
","","","883.9000000022352","","","12","19798","7134","e","elianto","#f73b6a7A","-1"," ","0","0","[1734.800000000745]","1","2","","","19798","131","7","4","lose","no-go","1"
"pit-trial","253","1449693","0.0-136.0","battery-v0.2","","""event"",""trial"",""time""
""fullscreenenter"",""1"",""3769""
","
","
","""event"",""trial"",""time""
""fullscreenenter"",""1"",""3769""
","
","","","755.6999999992549","","","12","19798","7134","j","elianto","#3366ff99"," "," ","1","+10","[1606.3999999985099]","1","2","","","19798","132","9","1","win","go","0"
"pit-trial","254","1453821","0.0-137.0","battery-v0.2","","""event"",""trial"",""time""
""fullscreenenter"",""1"",""3769""
","
","
","""event"",""trial"",""time""
""fullscreenenter"",""1"",""3769""
","
","","","1271.3999999985099","","","12","19798","7134","e","elianto","#f73b6a7A","-1"," ","0","-10","[2122.699999999255]","1","2","","","19798","133","7","4","lose","no-go","0"
"pit-trial","255","1457576","0.0-138.0","battery-v0.2","","""event"",""trial"",""time""
""fullscreenenter"",""1"",""3769""
","
","
","""event"",""trial"",""time""
""fullscreenenter"",""1"",""3769""
","
","","","898.1999999992549","","","12","19798","7134","d","elianto","#3366ff99"," "," ","1","0","[1749.9000000022352]","1","2","","","19798","134","8","1","win","go","1"
"pit-trial","256","1461226","0.0-139.0","battery-v0.2","","""event"",""trial"",""time""
""fullscreenenter"",""1"",""3769""
","
","
","""event"",""trial"",""time""
""fullscreenenter"",""1"",""3769""
","
","","","795.0999999977648","","","12","19798","7134","j","elianto","#3366ff99"," "," ","1","0","[1645.699999999255]","1","2","","","19798","135","9","1","win","go","1"
"pit-trial","257","1465813","0.0-140.0","battery-v0.2","","""event"",""trial"",""time""
""fullscreenenter"",""1"",""3769""
","
","
","""event"",""trial"",""time""
""fullscreenenter"",""1"",""3769""
","
","","","1732","","","12","19798","7134","w","elianto","#f73b6a7A"," "," ","1","0","[2582.5]","1","2","","","19798","136","6","3","lose","go","0"
"pit-trial","258","1470039","0.0-141.0","battery-v0.2","","""event"",""trial"",""time""
""fullscreenenter"",""1"",""3769""
","
","
","""event"",""trial"",""time""
""fullscreenenter"",""1"",""3769""
","
","","","1371.1000000014901","","","12","19798","7134","e","elianto","#f73b6a7A","-1"," ","0","-10","[2222.10000000149]","1","2","","","19798","137","7","4","lose","no-go","0"
"pit-trial","259","1473444","0.0-142.0","battery-v0.2","","""event"",""trial"",""time""
""fullscreenenter"",""1"",""3769""
","
","
","""event"",""trial"",""time""
""fullscreenenter"",""1"",""3769""
","
","","","548","","","12","19798","7134","j","elianto","#3366ff99"," "," ","1","+10","[1399.3999999985099]","1","2","","","19798","138","9","1","win","go","0"
"pit-trial","260","1477103","0.0-143.0","battery-v0.2","","""event"",""trial"",""time""
""fullscreenenter"",""1"",""3769""
","
","
","""event"",""trial"",""time""
""fullscreenenter"",""1"",""3769""
","
","","","802.7000000029802","","","12","19798","7134","d","elianto","#3366ff99"," "," ","1","0","[1654]","1","2","","","19798","139","8","1","win","go","1"
"pit-trial","261","1481959","0.0-144.0","battery-v0.2","","""event"",""trial"",""time""
""fullscreenenter"",""1"",""3769""
","
","
","""event"",""trial"",""time""
""fullscreenenter"",""1"",""3769""
","
","","","-1","","","12","19798","7134","w","elianto","#f73b6a7A"," ","-1","0","-10","[]","0","2","","","19798","140","6","3","lose","go","0"
"pit-instructions","262","1500961","0.0-145.0","battery-v0.2","","""event"",""trial"",""time""
""fullscreenenter"",""1"",""3769""
","
","
","""event"",""trial"",""time""
""fullscreenenter"",""1"",""3769""
","
","","[{""page_index"":0,""viewing_time"":5732.199999999255},{""page_index"":1,""viewing_time"":13266.800000000745}]","18999.400000002235","","","","","","","","","","","","","","","","","","","","","","","",""
"pit-trial","263","1505208","0.0-146.0","battery-v0.2","","""event"",""trial"",""time""
""fullscreenenter"",""1"",""3769""
","
","
","""event"",""trial"",""time""
""fullscreenenter"",""1"",""3769""
","
","","","1390.5999999977648","","","12","19798","7134","t","elianto","#f73b6a7A","-1"," ","0","0","[2241.60000000149]","1","3","","","19798","141","2","4","lose","no-go","1"
