"trial_type","trial_index","time_elapsed","internal_node_id","task_version","subject_id","interactions","blur_events","focus_events","fullscreenenter_events","fullscreenexit_events","success","view_history","rt","responses","num_errors","age","subject","participantId","rune","rune_set","hex","correct","choice","accuracy","outcome","keys","total_keys","block","practice","value","sub","trial","stimulus","robot","valence","action","sham"
"pavlovia","0","18","0.0-0.0","battery-v0.2","","""event"",""trial"",""time""
""fullscreenenter"",""1"",""5156""
","
","
","""event"",""trial"",""time""
""fullscreenenter"",""1"",""5156""
","
","","","","","","","","","","","","","","","","","","","","","","","","","","",""
"fullscreen","1","6150","0.0-1.0","battery-v0.2","","""event"",""trial"",""time""
""fullscreenenter"",""1"",""5156""
","
","
","""event"",""trial"",""time""
""fullscreenenter"",""1"",""5156""
","
","true","","","","","","","","","","","","","","","","","","","","","","","","","",""
"pit-instructions","2","20368","0.0-2.0-0.0","battery-v0.2","","""event"",""trial"",""time""
""fullscreenenter"",""1"",""5156""
","
","
","""event"",""trial"",""time""
""fullscreenenter"",""1"",""5156""
","
","","[{""page_index"":0,""viewing_time"":14212.40000000596}]","14214.09999999404","","","","","","","","","","","","","","","","","","","","","","","",""
"pit-comprehension","3","22705","0.0-2.0-1.0-0.0","battery-v0.2","","""event"",""trial"",""time""
""fullscreenenter"",""1"",""5156""
","
","
","""event"",""trial"",""time""
""fullscreenenter"",""1"",""5156""
","
","","","2327.7000000178814","[""shark""]","0","19","4228","3097","","","","","","","","","","","","","","","","","","",""
"pit-instructions","4","24035","0.0-2.0-1.0-1.0","battery-v0.2","","""event"",""trial"",""time""
""fullscreenenter"",""1"",""5156""
","
","
","""event"",""trial"",""time""
""fullscreenenter"",""1"",""5156""
","
","","[{""page_index"":0,""viewing_time"":1295.4000000059605}]","1295.9000000059605","","","","","","","","","","","","","","","","","","","","","","","",""
"pit-comprehension","5","25799","0.0-2.0-2.0-0.0","battery-v0.2","","""event"",""trial"",""time""
""fullscreenenter"",""1"",""5156""
","
","
","""event"",""trial"",""time""
""fullscreenenter"",""1"",""5156""
","
","","","1756.5","[""tiger""]","0","19","4228","3097","","","","","","","","","","","","","","","","","","",""
"pit-instructions","6","26576","0.0-2.0-2.0-1.0","battery-v0.2","","""event"",""trial"",""time""
""fullscreenenter"",""1"",""5156""
""blur"",""7"",""31022""
""focus"",""7"",""33202""
","""event"",""trial"",""time""
""blur"",""7"",""31022""
","""event"",""trial"",""time""
""focus"",""7"",""33202""
","""event"",""trial"",""time""
""fullscreenenter"",""1"",""5156""
","
","","[{""page_index"":0,""viewing_time"":770}]","770.6000000238419","","","","","","","","","","","","","","","","","","","","","","","",""
"pit-instructions","7","149811","0.0-2.0-3.0","battery-v0.2","","""event"",""trial"",""time""
""fullscreenenter"",""1"",""5156""
""blur"",""7"",""31022""
""focus"",""7"",""33202""
","""event"",""trial"",""time""
""blur"",""7"",""31022""
","""event"",""trial"",""time""
""focus"",""7"",""33202""
","""event"",""trial"",""time""
""fullscreenenter"",""1"",""5156""
","
","","[{""page_index"":0,""viewing_time"":7720.300000011921},{""page_index"":1,""viewing_time"":6628.9000000059605},{""page_index"":2,""viewing_time"":9989.09999999404},{""page_index"":3,""viewing_time"":5571.5999999940395},{""page_index"":4,""viewing_time"":13860.199999988079},{""page_index"":5,""viewing_time"":6363.100000023842},{""page_index"":6,""viewing_time"":10145.09999999404},{""page_index"":7,""viewing_time"":6299},{""page_index"":8,""viewing_time"":18879.5},{""page_index"":9,""viewing_time"":7826.5},{""page_index"":10,""viewing_time"":8534.799999982119},{""page_index"":11,""viewing_time"":7854.200000017881},{""page_index"":12,""viewing_time"":6983.9000000059605},{""page_index"":13,""viewing_time"":6570.399999976158}]","123227.09999999404","","","","","","","","","","","","","","","","","","","","","","","",""
"pit-trial","8","153717","0.0-2.0-4.0-0.0","battery-v0.2","","""event"",""trial"",""time""
""fullscreenenter"",""1"",""5156""
""blur"",""7"",""31022""
""focus"",""7"",""33202""
","""event"",""trial"",""time""
""blur"",""7"",""31022""
","""event"",""trial"",""time""
""focus"",""7"",""33202""
","""event"",""trial"",""time""
""fullscreenenter"",""1"",""5156""
","
","","","1049.300000011921","","","19","4228","3097","&#9784;","elianto","#FFFFF080"," "," ","1","&#10004","[1901]","1","0","0","","","","","","","",""
"pit-trial","9","157493","0.0-2.0-4.1-0.1","battery-v0.2","","""event"",""trial"",""time""
""fullscreenenter"",""1"",""5156""
""blur"",""7"",""31022""
""focus"",""7"",""33202""
","""event"",""trial"",""time""
""blur"",""7"",""31022""
","""event"",""trial"",""time""
""focus"",""7"",""33202""
","""event"",""trial"",""time""
""fullscreenenter"",""1"",""5156""
","
","","","908.9000000059605","","","19","4228","3097","&#9784;","elianto","#FFFFF080"," "," ","1","&#10004","[1767.1000000238419]","1","0","0","","","","","","","",""
"pit-trial","10","161342","0.0-2.0-4.2-0.2","battery-v0.2","","""event"",""trial"",""time""
""fullscreenenter"",""1"",""5156""
""blur"",""7"",""31022""
""focus"",""7"",""33202""
","""event"",""trial"",""time""
""blur"",""7"",""31022""
","""event"",""trial"",""time""
""focus"",""7"",""33202""
","""event"",""trial"",""time""
""fullscreenenter"",""1"",""5156""
","
","","","983.4000000059605","","","19","4228","3097","&#9784;","elianto","#FFFFF080"," "," ","1","&#10004","[1834.800000011921]","1","0","0","","","","","","","",""
"pit-trial","11","165301","0.0-2.0-4.3-0.3","battery-v0.2","","""event"",""trial"",""time""
""fullscreenenter"",""1"",""5156""
""blur"",""7"",""31022""
""focus"",""7"",""33202""
","""event"",""trial"",""time""
""blur"",""7"",""31022""
","""event"",""trial"",""time""
""focus"",""7"",""33202""
","""event"",""trial"",""time""
""fullscreenenter"",""1"",""5156""
","
","","","1094.300000011921","","","19","4228","3097","&#9784;","elianto","#FFFFF080"," "," ","1","&#10004","[1945.800000011921]","1","0","0","","","","","","","",""
"pit-trial","12","169141","0.0-2.0-4.4-0.4","battery-v0.2","","""event"",""trial"",""time""
""fullscreenenter"",""1"",""5156""
""blur"",""7"",""31022""
""focus"",""7"",""33202""
","""event"",""trial"",""time""
""blur"",""7"",""31022""
","""event"",""trial"",""time""
""focus"",""7"",""33202""
","""event"",""trial"",""time""
""fullscreenenter"",""1"",""5156""
","
","","","977.8000000119209","","","19","4228","3097","&#9784;","elianto","#FFFFF080"," "," ","1","&#10004","[1829.1000000238419]","1","0","0","","","","","","","",""
"pit-instructions","13","196197","0.0-2.0-5.0","battery-v0.2","","""event"",""trial"",""time""
""fullscreenenter"",""1"",""5156""
""blur"",""7"",""31022""
""focus"",""7"",""33202""
","""event"",""trial"",""time""
""blur"",""7"",""31022""
","""event"",""trial"",""time""
""focus"",""7"",""33202""
","""event"",""trial"",""time""
""fullscreenenter"",""1"",""5156""
","
","","[{""page_index"":0,""viewing_time"":4737.5},{""page_index"":1,""viewing_time"":12332.90000000596},{""page_index"":2,""viewing_time"":4850.799999982119},{""page_index"":3,""viewing_time"":5129.0999999940395}]","27051.5","","","","","","","","","","","","","","","","","","","","","","","",""
"pit-trial","14","201062","0.0-2.0-6.0-0.0","battery-v0.2","","""event"",""trial"",""time""
""fullscreenenter"",""1"",""5156""
""blur"",""7"",""31022""
""focus"",""7"",""33202""
","""event"",""trial"",""time""
""blur"",""7"",""31022""
","""event"",""trial"",""time""
""focus"",""7"",""33202""
","""event"",""trial"",""time""
""fullscreenenter"",""1"",""5156""
","
","","","-1","","","19","4228","3097","&#9854;","elianto","#FFFFF080","-1","-1","1","&#10004","[]","0","0","1","","","","","","","",""
"pit-trial","15","205925","0.0-2.0-6.1-0.1","battery-v0.2","","""event"",""trial"",""time""
""fullscreenenter"",""1"",""5156""
""blur"",""7"",""31022""
""focus"",""7"",""33202""
","""event"",""trial"",""time""
""blur"",""7"",""31022""
","""event"",""trial"",""time""
""focus"",""7"",""33202""
","""event"",""trial"",""time""
""fullscreenenter"",""1"",""5156""
","
","","","-1","","","19","4228","3097","&#9854;","elianto","#FFFFF080","-1","-1","1","&#10004","[]","0","0","1","","","","","","","",""
"pit-trial","16","210789","0.0-2.0-6.2-0.2","battery-v0.2","","""event"",""trial"",""time""
""fullscreenenter"",""1"",""5156""
""blur"",""7"",""31022""
""focus"",""7"",""33202""
","""event"",""trial"",""time""
""blur"",""7"",""31022""
","""event"",""trial"",""time""
""focus"",""7"",""33202""
","""event"",""trial"",""time""
""fullscreenenter"",""1"",""5156""
","
","","","-1","","","19","4228","3097","&#9854;","elianto","#FFFFF080","-1","-1","1","&#10004","[]","0","0","1","","","","","","","",""
"pit-trial","17","215653","0.0-2.0-6.3-0.3","battery-v0.2","","""event"",""trial"",""time""
""fullscreenenter"",""1"",""5156""
""blur"",""7"",""31022""
""focus"",""7"",""33202""
","""event"",""trial"",""time""
""blur"",""7"",""31022""
","""event"",""trial"",""time""
""focus"",""7"",""33202""
","""event"",""trial"",""time""
""fullscreenenter"",""1"",""5156""
","
","","","-1","","","19","4228","3097","&#9854;","elianto","#FFFFF080","-1","-1","1","&#10004","[]","0","0","1","","","","","","","",""
"pit-trial","18","220517","0.0-2.0-6.4-0.4","battery-v0.2","","""event"",""trial"",""time""
""fullscreenenter"",""1"",""5156""
""blur"",""7"",""31022""
""focus"",""7"",""33202""
","""event"",""trial"",""time""
""blur"",""7"",""31022""
","""event"",""trial"",""time""
""focus"",""7"",""33202""
","""event"",""trial"",""time""
""fullscreenenter"",""1"",""5156""
","
","","","-1","","","19","4228","3097","&#9854;","elianto","#FFFFF080","-1","-1","1","&#10004","[]","0","0","1","","","","","","","",""
"pit-instructions","19","338242","0.0-2.0-7.0","battery-v0.2","","""event"",""trial"",""time""
""fullscreenenter"",""1"",""5156""
""blur"",""7"",""31022""
""focus"",""7"",""33202""
","""event"",""trial"",""time""
""blur"",""7"",""31022""
","""event"",""trial"",""time""
""focus"",""7"",""33202""
","""event"",""trial"",""time""
""fullscreenenter"",""1"",""5156""
","
","","[{""page_index"":0,""viewing_time"":7626.199999988079},{""page_index"":1,""viewing_time"":7054.199999988079},{""page_index"":2,""viewing_time"":6346.300000011921},{""page_index"":3,""viewing_time"":6222.199999988079},{""page_index"":4,""viewing_time"":5546.4000000059605},{""page_index"":5,""viewing_time"":8802.700000017881},{""page_index"":6,""viewing_time"":4774.5},{""page_index"":7,""viewing_time"":8643.399999976158},{""page_index"":8,""viewing_time"":6310},{""page_index"":9,""viewing_time"":5919.9000000059605},{""page_index"":10,""viewing_time"":6081.200000017881},{""page_index"":11,""viewing_time"":4350.299999982119},{""page_index"":12,""viewing_time"":6766.4000000059605},{""page_index"":13,""viewing_time"":6784.699999988079},{""page_index"":14,""viewing_time"":6907.4000000059605},{""page_index"":15,""viewing_time"":6479.9000000059605},{""page_index"":16,""viewing_time"":6348.5999999940395},{""page_index"":17,""viewing_time"":6754.5}]","117719.5","","","","","","","","","","","","","","","","","","","","","","","",""
"pit-trial","20","342538","0.0-2.0-8.0-0.0","battery-v0.2","","""event"",""trial"",""time""
""fullscreenenter"",""1"",""5156""
""blur"",""7"",""31022""
""focus"",""7"",""33202""
","""event"",""trial"",""time""
""blur"",""7"",""31022""
","""event"",""trial"",""time""
""focus"",""7"",""33202""
","""event"",""trial"",""time""
""fullscreenenter"",""1"",""5156""
","
","","","1421.4000000059605","","","19","4228","3097","&#9776;","elianto","#3366ff99"," "," ","1","+10","[2280.5999999940395]","1","0","1","","","","","","","",""
"pit-trial","21","346464","0.0-2.0-8.0-1.0","battery-v0.2","","""event"",""trial"",""time""
""fullscreenenter"",""1"",""5156""
""blur"",""7"",""31022""
""focus"",""7"",""33202""
","""event"",""trial"",""time""
""blur"",""7"",""31022""
","""event"",""trial"",""time""
""focus"",""7"",""33202""
","""event"",""trial"",""time""
""fullscreenenter"",""1"",""5156""
","
","","","1065.5","","","19","4228","3097","&#9776;","elianto","#3366ff99"," "," ","1","+10","[1920]","1","0","1","","","","","","","",""
"pit-trial","22","349999","0.0-2.0-8.0-2.0","battery-v0.2","","""event"",""trial"",""time""
""fullscreenenter"",""1"",""5156""
""blur"",""7"",""31022""
""focus"",""7"",""33202""
","""event"",""trial"",""time""
""blur"",""7"",""31022""
","""event"",""trial"",""time""
""focus"",""7"",""33202""
","""event"",""trial"",""time""
""fullscreenenter"",""1"",""5156""
","
","","","673.7999999821186","","","19","4228","3097","&#9776;","elianto","#3366ff99"," "," ","1","+10","[1526.0999999940395]","1","0","1","","","","","","","",""
"pit-trial","23","353887","0.0-2.0-8.0-3.0","battery-v0.2","","""event"",""trial"",""time""
""fullscreenenter"",""1"",""5156""
""blur"",""7"",""31022""
""focus"",""7"",""33202""
","""event"",""trial"",""time""
""blur"",""7"",""31022""
","""event"",""trial"",""time""
""focus"",""7"",""33202""
","""event"",""trial"",""time""
""fullscreenenter"",""1"",""5156""
","
","","","1021.6999999880791","","","19","4228","3097","&#9776;","elianto","#3366ff99"," "," ","1","0","[1878.0999999940395]","1","0","1","","","","","","","",""
"pit-trial","24","357536","0.0-2.0-8.0-4.0","battery-v0.2","","""event"",""trial"",""time""
""fullscreenenter"",""1"",""5156""
""blur"",""7"",""31022""
""focus"",""7"",""33202""
","""event"",""trial"",""time""
""blur"",""7"",""31022""
","""event"",""trial"",""time""
""focus"",""7"",""33202""
","""event"",""trial"",""time""
""fullscreenenter"",""1"",""5156""
","
","","","787.4000000059605","","","19","4228","3097","&#9776;","elianto","#3366ff99"," "," ","1","+10","[1639.9000000059605]","1","0","1","","","","","","","",""
"pit-trial","25","361098","0.0-2.0-8.1-0.1","battery-v0.2","","""event"",""trial"",""time""
""fullscreenenter"",""1"",""5156""
""blur"",""7"",""31022""
""focus"",""7"",""33202""
","""event"",""trial"",""time""
""blur"",""7"",""31022""
","""event"",""trial"",""time""
""focus"",""7"",""33202""
","""event"",""trial"",""time""
""fullscreenenter"",""1"",""5156""
","
","","","693.9000000059605","","","19","4228","3097","&#9776;","elianto","#3366ff99"," "," ","1","+10","[1546.5]","1","0","1","","","","","","","",""
"pit-trial","26","364738","0.0-2.0-8.1-1.1","battery-v0.2","","""event"",""trial"",""time""
""fullscreenenter"",""1"",""5156""
""blur"",""7"",""31022""
""focus"",""7"",""33202""
","""event"",""trial"",""time""
""blur"",""7"",""31022""
","""event"",""trial"",""time""
""focus"",""7"",""33202""
","""event"",""trial"",""time""
""fullscreenenter"",""1"",""5156""
","
","","","776.0999999940395","","","19","4228","3097","&#9776;","elianto","#3366ff99"," "," ","1","+10","[1627.0999999940395]","1","0","1","","","","","","","",""
"pit-trial","27","368177","0.0-2.0-8.1-2.1","battery-v0.2","","""event"",""trial"",""time""
""fullscreenenter"",""1"",""5156""
""blur"",""7"",""31022""
""focus"",""7"",""33202""
","""event"",""trial"",""time""
""blur"",""7"",""31022""
","""event"",""trial"",""time""
""focus"",""7"",""33202""
","""event"",""trial"",""time""
""fullscreenenter"",""1"",""5156""
","
","","","573.8000000119209","","","19","4228","3097","&#9776;","elianto","#3366ff99"," "," ","1","+10","[1429.9000000059605]","1","0","1","","","","","","","",""
"pit-trial","28","371698","0.0-2.0-8.1-3.1","battery-v0.2","","""event"",""trial"",""time""
""fullscreenenter"",""1"",""5156""
""blur"",""7"",""31022""
""focus"",""7"",""33202""
","""event"",""trial"",""time""
""blur"",""7"",""31022""
","""event"",""trial"",""time""
""focus"",""7"",""33202""
","""event"",""trial"",""time""
""fullscreenenter"",""1"",""5156""
","
","","","658.5999999940395","","","19","4228","3097","&#9776;","elianto","#3366ff99"," "," ","1","0","[1510]","1","0","1","","","","","","","",""
"pit-trial","29","375175","0.0-2.0-8.1-4.1","battery-v0.2","","""event"",""trial"",""time""
""fullscreenenter"",""1"",""5156""
""blur"",""7"",""31022""
""focus"",""7"",""33202""
","""event"",""trial"",""time""
""blur"",""7"",""31022""
","""event"",""trial"",""time""
""focus"",""7"",""33202""
","""event"",""trial"",""time""
""fullscreenenter"",""1"",""5156""
","
","","","610.8000000119209","","","19","4228","3097","&#9776;","elianto","#3366ff99"," "," ","1","+10","[1468.199999988079]","1","0","1","","","","","","","",""
"pit-trial","30","378663","0.0-2.0-8.2-0.2","battery-v0.2","","""event"",""trial"",""time""
""fullscreenenter"",""1"",""5156""
""blur"",""7"",""31022""
""focus"",""7"",""33202""
","""event"",""trial"",""time""
""blur"",""7"",""31022""
","""event"",""trial"",""time""
""focus"",""7"",""33202""
","""event"",""trial"",""time""
""fullscreenenter"",""1"",""5156""
","
","","","630.5","","","19","4228","3097","&#9776;","elianto","#3366ff99"," "," ","1","+10","[1481.1000000238419]","1","0","1","","","","","","","",""
"pit-trial","31","382183","0.0-2.0-8.2-1.2","battery-v0.2","","""event"",""trial"",""time""
""fullscreenenter"",""1"",""5156""
""blur"",""7"",""31022""
""focus"",""7"",""33202""
","""event"",""trial"",""time""
""blur"",""7"",""31022""
","""event"",""trial"",""time""
""focus"",""7"",""33202""
","""event"",""trial"",""time""
""fullscreenenter"",""1"",""5156""
","
","","","656.0999999940395","","","19","4228","3097","&#9776;","elianto","#3366ff99"," "," ","1","+10","[1509]","1","0","1","","","","","","","",""
"pit-trial","32","385639","0.0-2.0-8.2-2.2","battery-v0.2","","""event"",""trial"",""time""
""fullscreenenter"",""1"",""5156""
""blur"",""7"",""31022""
""focus"",""7"",""33202""
","""event"",""trial"",""time""
""blur"",""7"",""31022""
","""event"",""trial"",""time""
""focus"",""7"",""33202""
","""event"",""trial"",""time""
""fullscreenenter"",""1"",""5156""
","
","","","595.2999999821186","","","19","4228","3097","&#9776;","elianto","#3366ff99"," "," ","1","+10","[1448.5]","1","0","1","","","","","","","",""
"pit-trial","33","389199","0.0-2.0-8.2-3.2","battery-v0.2","","""event"",""trial"",""time""
""fullscreenenter"",""1"",""5156""
""blur"",""7"",""31022""
""focus"",""7"",""33202""
","""event"",""trial"",""time""
""blur"",""7"",""31022""
","""event"",""trial"",""time""
""focus"",""7"",""33202""
","""event"",""trial"",""time""
""fullscreenenter"",""1"",""5156""
","
","","","697.5","","","19","4228","3097","&#9776;","elianto","#3366ff99"," "," ","1","0","[1553.7999999821186]","1","0","1","","","","","","","",""
"pit-trial","34","392575","0.0-2.0-8.2-4.2","battery-v0.2","","""event"",""trial"",""time""
""fullscreenenter"",""1"",""5156""
""blur"",""7"",""31022""
""focus"",""7"",""33202""
","""event"",""trial"",""time""
""blur"",""7"",""31022""
","""event"",""trial"",""time""
""focus"",""7"",""33202""
","""event"",""trial"",""time""
""fullscreenenter"",""1"",""5156""
","
","","","516.7999999821186","","","19","4228","3097","&#9776;","elianto","#3366ff99"," "," ","1","+10","[1372.3999999761581]","1","0","1","","","","","","","",""
"call-function","35","392578","0.0-2.0-9.0","battery-v0.2","","""event"",""trial"",""time""
""fullscreenenter"",""1"",""5156""
""blur"",""7"",""31022""
""focus"",""7"",""33202""
","""event"",""trial"",""time""
""blur"",""7"",""31022""
","""event"",""trial"",""time""
""focus"",""7"",""33202""
","""event"",""trial"",""time""
""fullscreenenter"",""1"",""5156""
","
","","","","","","","","","","","","","","","","","","","","","","","","","","",""
"pit-instructions","36","436557","0.0-2.0-10.0","battery-v0.2","","""event"",""trial"",""time""
""fullscreenenter"",""1"",""5156""
""blur"",""7"",""31022""
""focus"",""7"",""33202""
","""event"",""trial"",""time""
""blur"",""7"",""31022""
","""event"",""trial"",""time""
""focus"",""7"",""33202""
","""event"",""trial"",""time""
""fullscreenenter"",""1"",""5156""
","
","","[{""page_index"":0,""viewing_time"":5820.5},{""page_index"":1,""viewing_time"":6678.9000000059605},{""page_index"":2,""viewing_time"":9328.90000000596},{""page_index"":3,""viewing_time"":11377.40000000596},{""page_index"":4,""viewing_time"":10771.09999999404}]","43977.5","","","","","","","","","","","","","","","","","","","","","","","",""
"pit-trial","37","441423","0.0-2.0-11.0-0.0","battery-v0.2","","""event"",""trial"",""time""
""fullscreenenter"",""1"",""5156""
""blur"",""7"",""31022""
""focus"",""7"",""33202""
","""event"",""trial"",""time""
""blur"",""7"",""31022""
","""event"",""trial"",""time""
""focus"",""7"",""33202""
","""event"",""trial"",""time""
""fullscreenenter"",""1"",""5156""
","
","","","-1","","","19","4228","3097","&#9761;","elianto","#3366ff99","-1","-1","1","+10","[]","0","0","2","","","","","","","",""
"pit-trial","38","446291","0.0-2.0-11.0-1.0","battery-v0.2","","""event"",""trial"",""time""
""fullscreenenter"",""1"",""5156""
""blur"",""7"",""31022""
""focus"",""7"",""33202""
","""event"",""trial"",""time""
""blur"",""7"",""31022""
","""event"",""trial"",""time""
""focus"",""7"",""33202""
","""event"",""trial"",""time""
""fullscreenenter"",""1"",""5156""
","
","","","-1","","","19","4228","3097","&#9761;","elianto","#3366ff99","-1","-1","1","+10","[]","0","0","2","","","","","","","",""
"pit-trial","39","451161","0.0-2.0-11.0-2.0","battery-v0.2","","""event"",""trial"",""time""
""fullscreenenter"",""1"",""5156""
""blur"",""7"",""31022""
""focus"",""7"",""33202""
","""event"",""trial"",""time""
""blur"",""7"",""31022""
","""event"",""trial"",""time""
""focus"",""7"",""33202""
","""event"",""trial"",""time""
""fullscreenenter"",""1"",""5156""
","
","","","-1","","","19","4228","3097","&#9761;","elianto","#3366ff99","-1","-1","1","+10","[]","0","0","2","","","","","","","",""
"pit-trial","40","456026","0.0-2.0-11.0-3.0","battery-v0.2","","""event"",""trial"",""time""
""fullscreenenter"",""1"",""5156""
""blur"",""7"",""31022""
""focus"",""7"",""33202""
","""event"",""trial"",""time""
""blur"",""7"",""31022""
","""event"",""trial"",""time""
""focus"",""7"",""33202""
","""event"",""trial"",""time""
""fullscreenenter"",""1"",""5156""
","
","","","-1","","","19","4228","3097","&#9761;","elianto","#3366ff99","-1","-1","1","0","[]","0","0","2","","","","","","","",""
"pit-trial","41","460890","0.0-2.0-11.0-4.0","battery-v0.2","","""event"",""trial"",""time""
""fullscreenenter"",""1"",""5156""
""blur"",""7"",""31022""
""focus"",""7"",""33202""
","""event"",""trial"",""time""
""blur"",""7"",""31022""
","""event"",""trial"",""time""
""focus"",""7"",""33202""
","""event"",""trial"",""time""
""fullscreenenter"",""1"",""5156""
","
","","","-1","","","19","4228","3097","&#9761;","elianto","#3366ff99","-1","-1","1","+10","[]","0","0","2","","","","","","","",""
"pit-trial","42","465760","0.0-2.0-11.1-0.1","battery-v0.2","","""event"",""trial"",""time""
""fullscreenenter"",""1"",""5156""
""blur"",""7"",""31022""
""focus"",""7"",""33202""
","""event"",""trial"",""time""
""blur"",""7"",""31022""
","""event"",""trial"",""time""
""focus"",""7"",""33202""
","""event"",""trial"",""time""
""fullscreenenter"",""1"",""5156""
","
","","","-1","","","19","4228","3097","&#9761;","elianto","#3366ff99","-1","-1","1","+10","[]","0","0","2","","","","","","","",""
"pit-trial","43","470624","0.0-2.0-11.1-1.1","battery-v0.2","","""event"",""trial"",""time""
""fullscreenenter"",""1"",""5156""
""blur"",""7"",""31022""
""focus"",""7"",""33202""
","""event"",""trial"",""time""
""blur"",""7"",""31022""
","""event"",""trial"",""time""
""focus"",""7"",""33202""
","""event"",""trial"",""time""
""fullscreenenter"",""1"",""5156""
","
","","","-1","","","19","4228","3097","&#9761;","elianto","#3366ff99","-1","-1","1","+10","[]","0","0","2","","","","","","","",""
"pit-trial","44","475488","0.0-2.0-11.1-2.1","battery-v0.2","","""event"",""trial"",""time""
""fullscreenenter"",""1"",""5156""
""blur"",""7"",""31022""
""focus"",""7"",""33202""
","""event"",""trial"",""time""
""blur"",""7"",""31022""
","""event"",""trial"",""time""
""focus"",""7"",""33202""
","""event"",""trial"",""time""
""fullscreenenter"",""1"",""5156""
","
","","","-1","","","19","4228","3097","&#9761;","elianto","#3366ff99","-1","-1","1","+10","[]","0","0","2","","","","","","","",""
"pit-trial","45","480352","0.0-2.0-11.1-3.1","battery-v0.2","","""event"",""trial"",""time""
""fullscreenenter"",""1"",""5156""
""blur"",""7"",""31022""
""focus"",""7"",""33202""
","""event"",""trial"",""time""
""blur"",""7"",""31022""
","""event"",""trial"",""time""
""focus"",""7"",""33202""
","""event"",""trial"",""time""
""fullscreenenter"",""1"",""5156""
","
","","","-1","","","19","4228","3097","&#9761;","elianto","#3366ff99","-1","-1","1","0","[]","0","0","2","","","","","","","",""
"pit-trial","46","485216","0.0-2.0-11.1-4.1","battery-v0.2","","""event"",""trial"",""time""
""fullscreenenter"",""1"",""5156""
""blur"",""7"",""31022""
""focus"",""7"",""33202""
","""event"",""trial"",""time""
""blur"",""7"",""31022""
","""event"",""trial"",""time""
""focus"",""7"",""33202""
","""event"",""trial"",""time""
""fullscreenenter"",""1"",""5156""
","
","","","-1","","","19","4228","3097","&#9761;","elianto","#3366ff99","-1","-1","1","+10","[]","0","0","2","","","","","","","",""
"pit-trial","47","490080","0.0-2.0-11.2-0.2","battery-v0.2","","""event"",""trial"",""time""
""fullscreenenter"",""1"",""5156""
""blur"",""7"",""31022""
""focus"",""7"",""33202""
","""event"",""trial"",""time""
""blur"",""7"",""31022""
","""event"",""trial"",""time""
""focus"",""7"",""33202""
","""event"",""trial"",""time""
""fullscreenenter"",""1"",""5156""
","
","","","-1","","","19","4228","3097","&#9761;","elianto","#3366ff99","-1","-1","1","+10","[]","0","0","2","","","","","","","",""
"pit-trial","48","494945","0.0-2.0-11.2-1.2","battery-v0.2","","""event"",""trial"",""time""
""fullscreenenter"",""1"",""5156""
""blur"",""7"",""31022""
""focus"",""7"",""33202""
","""event"",""trial"",""time""
""blur"",""7"",""31022""
","""event"",""trial"",""time""
""focus"",""7"",""33202""
","""event"",""trial"",""time""
""fullscreenenter"",""1"",""5156""
","
","","","-1","","","19","4228","3097","&#9761;","elianto","#3366ff99","-1","-1","1","+10","[]","0","0","2","","","","","","","",""
"pit-trial","49","499808","0.0-2.0-11.2-2.2","battery-v0.2","","""event"",""trial"",""time""
""fullscreenenter"",""1"",""5156""
""blur"",""7"",""31022""
""focus"",""7"",""33202""
","""event"",""trial"",""time""
""blur"",""7"",""31022""
","""event"",""trial"",""time""
""focus"",""7"",""33202""
","""event"",""trial"",""time""
""fullscreenenter"",""1"",""5156""
","
","","","-1","","","19","4228","3097","&#9761;","elianto","#3366ff99","-1","-1","1","+10","[]","0","0","2","","","","","","","",""
"pit-trial","50","504672","0.0-2.0-11.2-3.2","battery-v0.2","","""event"",""trial"",""time""
""fullscreenenter"",""1"",""5156""
""blur"",""7"",""31022""
""focus"",""7"",""33202""
","""event"",""trial"",""time""
""blur"",""7"",""31022""
","""event"",""trial"",""time""
""focus"",""7"",""33202""
","""event"",""trial"",""time""
""fullscreenenter"",""1"",""5156""
","
","","","-1","","","19","4228","3097","&#9761;","elianto","#3366ff99","-1","-1","1","0","[]","0","0","2","","","","","","","",""
"pit-trial","51","509537","0.0-2.0-11.2-4.2","battery-v0.2","","""event"",""trial"",""time""
""fullscreenenter"",""1"",""5156""
""blur"",""7"",""31022""
""focus"",""7"",""33202""
","""event"",""trial"",""time""
""blur"",""7"",""31022""
","""event"",""trial"",""time""
""focus"",""7"",""33202""
","""event"",""trial"",""time""
""fullscreenenter"",""1"",""5156""
","
","","","-1","","","19","4228","3097","&#9761;","elianto","#3366ff99","-1","-1","1","+10","[]","0","0","2","","","","","","","",""
"pit-trial","52","514401","0.0-2.0-11.3-0.3","battery-v0.2","","""event"",""trial"",""time""
""fullscreenenter"",""1"",""5156""
""blur"",""7"",""31022""
""focus"",""7"",""33202""
","""event"",""trial"",""time""
""blur"",""7"",""31022""
","""event"",""trial"",""time""
""focus"",""7"",""33202""
","""event"",""trial"",""time""
""fullscreenenter"",""1"",""5156""
","
","","","-1","","","19","4228","3097","&#9761;","elianto","#3366ff99","-1","-1","1","+10","[]","0","0","2","","","","","","","",""
"pit-trial","53","519267","0.0-2.0-11.3-1.3","battery-v0.2","","""event"",""trial"",""time""
""fullscreenenter"",""1"",""5156""
""blur"",""7"",""31022""
""focus"",""7"",""33202""
","""event"",""trial"",""time""
""blur"",""7"",""31022""
","""event"",""trial"",""time""
""focus"",""7"",""33202""
","""event"",""trial"",""time""
""fullscreenenter"",""1"",""5156""
","
","","","-1","","","19","4228","3097","&#9761;","elianto","#3366ff99","-1","-1","1","+10","[]","0","0","2","","","","","","","",""
"pit-trial","54","524129","0.0-2.0-11.3-2.3","battery-v0.2","","""event"",""trial"",""time""
""fullscreenenter"",""1"",""5156""
""blur"",""7"",""31022""
""focus"",""7"",""33202""
","""event"",""trial"",""time""
""blur"",""7"",""31022""
","""event"",""trial"",""time""
""focus"",""7"",""33202""
","""event"",""trial"",""time""
""fullscreenenter"",""1"",""5156""
","
","","","-1","","","19","4228","3097","&#9761;","elianto","#3366ff99","-1","-1","1","+10","[]","0","0","2","","","","","","","",""
"pit-trial","55","528993","0.0-2.0-11.3-3.3","battery-v0.2","","""event"",""trial"",""time""
""fullscreenenter"",""1"",""5156""
""blur"",""7"",""31022""
""focus"",""7"",""33202""
","""event"",""trial"",""time""
""blur"",""7"",""31022""
","""event"",""trial"",""time""
""focus"",""7"",""33202""
","""event"",""trial"",""time""
""fullscreenenter"",""1"",""5156""
","
","","","-1","","","19","4228","3097","&#9761;","elianto","#3366ff99","-1","-1","1","0","[]","0","0","2","","","","","","","",""
"pit-trial","56","533857","0.0-2.0-11.3-4.3","battery-v0.2","","""event"",""trial"",""time""
""fullscreenenter"",""1"",""5156""
""blur"",""7"",""31022""
""focus"",""7"",""33202""
","""event"",""trial"",""time""
""blur"",""7"",""31022""
","""event"",""trial"",""time""
""focus"",""7"",""33202""
","""event"",""trial"",""time""
""fullscreenenter"",""1"",""5156""
","
","","","-1","","","19","4228","3097","&#9761;","elianto","#3366ff99","-1","-1","1","+10","[]","0","0","2","","","","","","","",""
"call-function","57","533859","0.0-2.0-12.0","battery-v0.2","","""event"",""trial"",""time""
""fullscreenenter"",""1"",""5156""
""blur"",""7"",""31022""
""focus"",""7"",""33202""
","""event"",""trial"",""time""
""blur"",""7"",""31022""
","""event"",""trial"",""time""
""focus"",""7"",""33202""
","""event"",""trial"",""time""
""fullscreenenter"",""1"",""5156""
","
","","","","","","","","","","","","","","","","","","","","","","","","","","",""
"pit-instructions","58","564088","0.0-2.0-13.0","battery-v0.2","","""event"",""trial"",""time""
""fullscreenenter"",""1"",""5156""
""blur"",""7"",""31022""
""focus"",""7"",""33202""
","""event"",""trial"",""time""
""blur"",""7"",""31022""
","""event"",""trial"",""time""
""focus"",""7"",""33202""
","""event"",""trial"",""time""
""fullscreenenter"",""1"",""5156""
","
","","[{""page_index"":0,""viewing_time"":4686.5999999940395},{""page_index"":1,""viewing_time"":6714.9000000059605},{""page_index"":2,""viewing_time"":3571.0999999940395},{""page_index"":3,""viewing_time"":10342.40000000596},{""page_index"":4,""viewing_time"":4912.699999988079}]","30228.30000001192","","","","","","","","","","","","","","","","","","","","","","","",""
"pit-trial","59","567645","0.0-2.0-14.0-0.0","battery-v0.2","","""event"",""trial"",""time""
""fullscreenenter"",""1"",""5156""
""blur"",""7"",""31022""
""focus"",""7"",""33202""
","""event"",""trial"",""time""
""blur"",""7"",""31022""
","""event"",""trial"",""time""
""focus"",""7"",""33202""
","""event"",""trial"",""time""
""fullscreenenter"",""1"",""5156""
","
","","","692.2999999821186","","","19","4228","3097","&#9826;","elianto","#f73b6a7A","-1"," ","0","-10","[1545.7999999821186]","1","0","3","","","","","","","",""
"pit-trial","60","572514","0.0-2.0-14.0-1.0","battery-v0.2","","""event"",""trial"",""time""
""fullscreenenter"",""1"",""5156""
""blur"",""7"",""31022""
""focus"",""7"",""33202""
","""event"",""trial"",""time""
""blur"",""7"",""31022""
","""event"",""trial"",""time""
""focus"",""7"",""33202""
","""event"",""trial"",""time""
""fullscreenenter"",""1"",""5156""
","
","","","-1","","","19","4228","3097","&#9826;","elianto","#f73b6a7A","-1","-1","1","0","[]","0","0","3","","","","","","","",""
"pit-trial","61","577378","0.0-2.0-14.0-2.0","battery-v0.2","","""event"",""trial"",""time""
""fullscreenenter"",""1"",""5156""
""blur"",""7"",""31022""
""focus"",""7"",""33202""
","""event"",""trial"",""time""
""blur"",""7"",""31022""
","""event"",""trial"",""time""
""focus"",""7"",""33202""
","""event"",""trial"",""time""
""fullscreenenter"",""1"",""5156""
","
","","","-1","","","19","4228","3097","&#9826;","elianto","#f73b6a7A","-1","-1","1","0","[]","0","0","3","","","","","","","",""
"pit-trial","62","582242","0.0-2.0-14.0-3.0","battery-v0.2","","""event"",""trial"",""time""
""fullscreenenter"",""1"",""5156""
""blur"",""7"",""31022""
""focus"",""7"",""33202""
","""event"",""trial"",""time""
""blur"",""7"",""31022""
","""event"",""trial"",""time""
""focus"",""7"",""33202""
","""event"",""trial"",""time""
""fullscreenenter"",""1"",""5156""
","
","","","-1","","","19","4228","3097","&#9826;","elianto","#f73b6a7A","-1","-1","1","-10","[]","0","0","3","","","","","","","",""
"pit-trial","63","587106","0.0-2.0-14.0-4.0","battery-v0.2","","""event"",""trial"",""time""
""fullscreenenter"",""1"",""5156""
""blur"",""7"",""31022""
""focus"",""7"",""33202""
","""event"",""trial"",""time""
""blur"",""7"",""31022""
","""event"",""trial"",""time""
""focus"",""7"",""33202""
","""event"",""trial"",""time""
""fullscreenenter"",""1"",""5156""
","
","","","-1","","","19","4228","3097","&#9826;","elianto","#f73b6a7A","-1","-1","1","0","[]","0","0","3","","","","","","","",""
"pit-trial","64","591970","0.0-2.0-14.1-0.1","battery-v0.2","","""event"",""trial"",""time""
""fullscreenenter"",""1"",""5156""
""blur"",""7"",""31022""
""focus"",""7"",""33202""
","""event"",""trial"",""time""
""blur"",""7"",""31022""
","""event"",""trial"",""time""
""focus"",""7"",""33202""
","""event"",""trial"",""time""
""fullscreenenter"",""1"",""5156""
","
","","","-1","","","19","4228","3097","&#9826;","elianto","#f73b6a7A","-1","-1","1","0","[]","0","0","3","","","","","","","",""
"pit-trial","65","596834","0.0-2.0-14.1-1.1","battery-v0.2","","""event"",""trial"",""time""
""fullscreenenter"",""1"",""5156""
""blur"",""7"",""31022""
""focus"",""7"",""33202""
","""event"",""trial"",""time""
""blur"",""7"",""31022""
","""event"",""trial"",""time""
""focus"",""7"",""33202""
","""event"",""trial"",""time""
""fullscreenenter"",""1"",""5156""
","
","","","-1","","","19","4228","3097","&#9826;","elianto","#f73b6a7A","-1","-1","1","0","[]","0","0","3","","","","","","","",""
"pit-trial","66","601699","0.0-2.0-14.1-2.1","battery-v0.2","","""event"",""trial"",""time""
""fullscreenenter"",""1"",""5156""
""blur"",""7"",""31022""
""focus"",""7"",""33202""
","""event"",""trial"",""time""
""blur"",""7"",""31022""
","""event"",""trial"",""time""
""focus"",""7"",""33202""
","""event"",""trial"",""time""
""fullscreenenter"",""1"",""5156""
","
","","","-1","","","19","4228","3097","&#9826;","elianto","#f73b6a7A","-1","-1","1","0","[]","0","0","3","","","","","","","",""
"pit-trial","67","606562","0.0-2.0-14.1-3.1","battery-v0.2","","""event"",""trial"",""time""
""fullscreenenter"",""1"",""5156""
""blur"",""7"",""31022""
""focus"",""7"",""33202""
","""event"",""trial"",""time""
""blur"",""7"",""31022""
","""event"",""trial"",""time""
""focus"",""7"",""33202""
","""event"",""trial"",""time""
""fullscreenenter"",""1"",""5156""
","
","","","-1","","","19","4228","3097","&#9826;","elianto","#f73b6a7A","-1","-1","1","-10","[]","0","0","3","","","","","","","",""
"pit-trial","68","611426","0.0-2.0-14.1-4.1","battery-v0.2","","""event"",""trial"",""time""
""fullscreenenter"",""1"",""5156""
""blur"",""7"",""31022""
""focus"",""7"",""33202""
","""event"",""trial"",""time""
""blur"",""7"",""31022""
","""event"",""trial"",""time""
""focus"",""7"",""33202""
","""event"",""trial"",""time""
""fullscreenenter"",""1"",""5156""
","
","","","-1","","","19","4228","3097","&#9826;","elianto","#f73b6a7A","-1","-1","1","0","[]","0","0","3","","","","","","","",""
"pit-trial","69","616290","0.0-2.0-14.2-0.2","battery-v0.2","","""event"",""trial"",""time""
""fullscreenenter"",""1"",""5156""
""blur"",""7"",""31022""
""focus"",""7"",""33202""
","""event"",""trial"",""time""
""blur"",""7"",""31022""
","""event"",""trial"",""time""
""focus"",""7"",""33202""
","""event"",""trial"",""time""
""fullscreenenter"",""1"",""5156""
","
","","","-1","","","19","4228","3097","&#9826;","elianto","#f73b6a7A","-1","-1","1","0","[]","0","0","3","","","","","","","",""
"pit-trial","70","621154","0.0-2.0-14.2-1.2","battery-v0.2","","""event"",""trial"",""time""
""fullscreenenter"",""1"",""5156""
""blur"",""7"",""31022""
""focus"",""7"",""33202""
","""event"",""trial"",""time""
""blur"",""7"",""31022""
","""event"",""trial"",""time""
""focus"",""7"",""33202""
","""event"",""trial"",""time""
""fullscreenenter"",""1"",""5156""
","
","","","-1","","","19","4228","3097","&#9826;","elianto","#f73b6a7A","-1","-1","1","0","[]","0","0","3","","","","","","","",""
"pit-trial","71","626020","0.0-2.0-14.2-2.2","battery-v0.2","","""event"",""trial"",""time""
""fullscreenenter"",""1"",""5156""
""blur"",""7"",""31022""
""focus"",""7"",""33202""
","""event"",""trial"",""time""
""blur"",""7"",""31022""
","""event"",""trial"",""time""
""focus"",""7"",""33202""
","""event"",""trial"",""time""
""fullscreenenter"",""1"",""5156""
","
","","","-1","","","19","4228","3097","&#9826;","elianto","#f73b6a7A","-1","-1","1","0","[]","0","0","3","","","","","","","",""
"pit-trial","72","630882","0.0-2.0-14.2-3.2","battery-v0.2","","""event"",""trial"",""time""
""fullscreenenter"",""1"",""5156""
""blur"",""7"",""31022""
""focus"",""7"",""33202""
","""event"",""trial"",""time""
""blur"",""7"",""31022""
","""event"",""trial"",""time""
""focus"",""7"",""33202""
","""event"",""trial"",""time""
""fullscreenenter"",""1"",""5156""
","
","","","-1","","","19","4228","3097","&#9826;","elianto","#f73b6a7A","-1","-1","1","-10","[]","0","0","3","","","","","","","",""
"pit-trial","73","635749","0.0-2.0-14.2-4.2","battery-v0.2","","""event"",""trial"",""time""
""fullscreenenter"",""1"",""5156""
""blur"",""7"",""31022""
""focus"",""7"",""33202""
","""event"",""trial"",""time""
""blur"",""7"",""31022""
","""event"",""trial"",""time""
""focus"",""7"",""33202""
","""event"",""trial"",""time""
""fullscreenenter"",""1"",""5156""
","
","","","-1","","","19","4228","3097","&#9826;","elianto","#f73b6a7A","-1","-1","1","0","[]","0","0","3","","","","","","","",""
"pit-trial","74","640618","0.0-2.0-14.3-0.3","battery-v0.2","","""event"",""trial"",""time""
""fullscreenenter"",""1"",""5156""
""blur"",""7"",""31022""
""focus"",""7"",""33202""
","""event"",""trial"",""time""
""blur"",""7"",""31022""
","""event"",""trial"",""time""
""focus"",""7"",""33202""
","""event"",""trial"",""time""
""fullscreenenter"",""1"",""5156""
","
","","","-1","","","19","4228","3097","&#9826;","elianto","#f73b6a7A","-1","-1","1","0","[]","0","0","3","","","","","","","",""
"pit-trial","75","645482","0.0-2.0-14.3-1.3","battery-v0.2","","""event"",""trial"",""time""
""fullscreenenter"",""1"",""5156""
""blur"",""7"",""31022""
""focus"",""7"",""33202""
","""event"",""trial"",""time""
""blur"",""7"",""31022""
","""event"",""trial"",""time""
""focus"",""7"",""33202""
","""event"",""trial"",""time""
""fullscreenenter"",""1"",""5156""
","
","","","-1","","","19","4228","3097","&#9826;","elianto","#f73b6a7A","-1","-1","1","0","[]","0","0","3","","","","","","","",""
"pit-trial","76","650346","0.0-2.0-14.3-2.3","battery-v0.2","","""event"",""trial"",""time""
""fullscreenenter"",""1"",""5156""
""blur"",""7"",""31022""
""focus"",""7"",""33202""
","""event"",""trial"",""time""
""blur"",""7"",""31022""
","""event"",""trial"",""time""
""focus"",""7"",""33202""
","""event"",""trial"",""time""
""fullscreenenter"",""1"",""5156""
","
","","","-1","","","19","4228","3097","&#9826;","elianto","#f73b6a7A","-1","-1","1","0","[]","0","0","3","","","","","","","",""
"pit-trial","77","655211","0.0-2.0-14.3-3.3","battery-v0.2","","""event"",""trial"",""time""
""fullscreenenter"",""1"",""5156""
""blur"",""7"",""31022""
""focus"",""7"",""33202""
","""event"",""trial"",""time""
""blur"",""7"",""31022""
","""event"",""trial"",""time""
""focus"",""7"",""33202""
","""event"",""trial"",""time""
""fullscreenenter"",""1"",""5156""
","
","","","-1","","","19","4228","3097","&#9826;","elianto","#f73b6a7A","-1","-1","1","-10","[]","0","0","3","","","","","","","",""
"pit-trial","78","660074","0.0-2.0-14.3-4.3","battery-v0.2","","""event"",""trial"",""time""
""fullscreenenter"",""1"",""5156""
""blur"",""7"",""31022""
""focus"",""7"",""33202""
","""event"",""trial"",""time""
""blur"",""7"",""31022""
","""event"",""trial"",""time""
""focus"",""7"",""33202""
","""event"",""trial"",""time""
""fullscreenenter"",""1"",""5156""
","
","","","-1","","","19","4228","3097","&#9826;","elianto","#f73b6a7A","-1","-1","1","0","[]","0","0","3","","","","","","","",""
"call-function","79","660076","0.0-2.0-15.0","battery-v0.2","","""event"",""trial"",""time""
""fullscreenenter"",""1"",""5156""
""blur"",""7"",""31022""
""focus"",""7"",""33202""
","""event"",""trial"",""time""
""blur"",""7"",""31022""
","""event"",""trial"",""time""
""focus"",""7"",""33202""
","""event"",""trial"",""time""
""fullscreenenter"",""1"",""5156""
","
","","","","","","","","","","","","","","","","","","","","","","","","","","",""
"pit-instructions","80","683671","0.0-2.0-16.0","battery-v0.2","","""event"",""trial"",""time""
""fullscreenenter"",""1"",""5156""
""blur"",""7"",""31022""
""focus"",""7"",""33202""
","""event"",""trial"",""time""
""blur"",""7"",""31022""
","""event"",""trial"",""time""
""focus"",""7"",""33202""
","""event"",""trial"",""time""
""fullscreenenter"",""1"",""5156""
","
","","[{""page_index"":0,""viewing_time"":6366.5},{""page_index"":1,""viewing_time"":8364.5},{""page_index"":2,""viewing_time"":4194},{""page_index"":3,""viewing_time"":4667.600000023842}]","23593.30000001192","","","","","","","","","","","","","","","","","","","","","","","",""
"pit-trial","81","687380","0.0-2.0-17.0-0.0","battery-v0.2","","""event"",""trial"",""time""
""fullscreenenter"",""1"",""5156""
""blur"",""7"",""31022""
""focus"",""7"",""33202""
","""event"",""trial"",""time""
""blur"",""7"",""31022""
","""event"",""trial"",""time""
""focus"",""7"",""33202""
","""event"",""trial"",""time""
""fullscreenenter"",""1"",""5156""
","
","","","842.5","","","19","4228","3097","&#9789;","elianto","#f73b6a7A"," "," ","1","0","[1702.7000000178814]","1","0","4","","","","","","","",""
"pit-trial","82","690639","0.0-2.0-17.0-1.0","battery-v0.2","","""event"",""trial"",""time""
""fullscreenenter"",""1"",""5156""
""blur"",""7"",""31022""
""focus"",""7"",""33202""
","""event"",""trial"",""time""
""blur"",""7"",""31022""
","""event"",""trial"",""time""
""focus"",""7"",""33202""
","""event"",""trial"",""time""
""fullscreenenter"",""1"",""5156""
","
","","","392.7000000178814","","","19","4228","3097","&#9789;","elianto","#f73b6a7A"," "," ","1","0","[1248.800000011921]","1","0","4","","","","","","","",""
"pit-trial","83","693956","0.0-2.0-17.0-2.0","battery-v0.2","","""event"",""trial"",""time""
""fullscreenenter"",""1"",""5156""
""blur"",""7"",""31022""
""focus"",""7"",""33202""
","""event"",""trial"",""time""
""blur"",""7"",""31022""
","""event"",""trial"",""time""
""focus"",""7"",""33202""
","""event"",""trial"",""time""
""fullscreenenter"",""1"",""5156""
","
","","","447","","","19","4228","3097","&#9789;","elianto","#f73b6a7A"," "," ","1","0","[1307.7999999821186]","1","0","4","","","","","","","",""
"pit-trial","84","697679","0.0-2.0-17.0-3.0","battery-v0.2","","""event"",""trial"",""time""
""fullscreenenter"",""1"",""5156""
""blur"",""7"",""31022""
""focus"",""7"",""33202""
","""event"",""trial"",""time""
""blur"",""7"",""31022""
","""event"",""trial"",""time""
""focus"",""7"",""33202""
","""event"",""trial"",""time""
""fullscreenenter"",""1"",""5156""
","
","","","855.4000000059605","","","19","4228","3097","&#9789;","elianto","#f73b6a7A"," "," ","1","-10","[1708.5]","1","0","4","","","","","","","",""
"pit-trial","85","701252","0.0-2.0-17.0-4.0","battery-v0.2","","""event"",""trial"",""time""
""fullscreenenter"",""1"",""5156""
""blur"",""7"",""31022""
""focus"",""7"",""33202""
","""event"",""trial"",""time""
""blur"",""7"",""31022""
","""event"",""trial"",""time""
""focus"",""7"",""33202""
","""event"",""trial"",""time""
""fullscreenenter"",""1"",""5156""
","
","","","715.5","","","19","4228","3097","&#9789;","elianto","#f73b6a7A"," "," ","1","0","[1568.199999988079]","1","0","4","","","","","","","",""
"pit-trial","86","704452","0.0-2.0-17.1-0.1","battery-v0.2","","""event"",""trial"",""time""
""fullscreenenter"",""1"",""5156""
""blur"",""7"",""31022""
""focus"",""7"",""33202""
","""event"",""trial"",""time""
""blur"",""7"",""31022""
","""event"",""trial"",""time""
""focus"",""7"",""33202""
","""event"",""trial"",""time""
""fullscreenenter"",""1"",""5156""
","
","","","340.89999997615814","","","19","4228","3097","&#9789;","elianto","#f73b6a7A"," "," ","1","0","[1192.4000000059605]","1","0","4","","","","","","","",""
"pit-trial","87","707676","0.0-2.0-17.1-1.1","battery-v0.2","","""event"",""trial"",""time""
""fullscreenenter"",""1"",""5156""
""blur"",""7"",""31022""
""focus"",""7"",""33202""
","""event"",""trial"",""time""
""blur"",""7"",""31022""
","""event"",""trial"",""time""
""focus"",""7"",""33202""
","""event"",""trial"",""time""
""fullscreenenter"",""1"",""5156""
","
","","","362.7999999821186","","","19","4228","3097","&#9789;","elianto","#f73b6a7A"," "," ","1","0","[1214.5999999940395]","1","0","4","","","","","","","",""
"pit-trial","88","710959","0.0-2.0-17.1-2.1","battery-v0.2","","""event"",""trial"",""time""
""fullscreenenter"",""1"",""5156""
""blur"",""7"",""31022""
""focus"",""7"",""33202""
","""event"",""trial"",""time""
""blur"",""7"",""31022""
","""event"",""trial"",""time""
""focus"",""7"",""33202""
","""event"",""trial"",""time""
""fullscreenenter"",""1"",""5156""
","
","","","407.19999998807907","","","19","4228","3097","&#9789;","elianto","#f73b6a7A"," "," ","1","0","[1267.9000000059605]","1","0","4","","","","","","","",""
"pit-trial","89","714539","0.0-2.0-17.1-3.1","battery-v0.2","","""event"",""trial"",""time""
""fullscreenenter"",""1"",""5156""
""blur"",""7"",""31022""
""focus"",""7"",""33202""
","""event"",""trial"",""time""
""blur"",""7"",""31022""
","""event"",""trial"",""time""
""focus"",""7"",""33202""
","""event"",""trial"",""time""
""fullscreenenter"",""1"",""5156""
","
","","","715.5999999940395","","","19","4228","3097","&#9789;","elianto","#f73b6a7A"," "," ","1","-10","[1571.800000011921]","1","0","4","","","","","","","",""
"pit-trial","90","717787","0.0-2.0-17.1-4.1","battery-v0.2","","""event"",""trial"",""time""
""fullscreenenter"",""1"",""5156""
""blur"",""7"",""31022""
""focus"",""7"",""33202""
","""event"",""trial"",""time""
""blur"",""7"",""31022""
","""event"",""trial"",""time""
""focus"",""7"",""33202""
","""event"",""trial"",""time""
""fullscreenenter"",""1"",""5156""
","
","","","387.69999998807907","","","19","4228","3097","&#9789;","elianto","#f73b6a7A"," "," ","1","0","[1240.0999999940395]","1","0","4","","","","","","","",""
"pit-trial","91","721251","0.0-2.0-17.2-0.2","battery-v0.2","","""event"",""trial"",""time""
""fullscreenenter"",""1"",""5156""
""blur"",""7"",""31022""
""focus"",""7"",""33202""
","""event"",""trial"",""time""
""blur"",""7"",""31022""
","""event"",""trial"",""time""
""focus"",""7"",""33202""
","""event"",""trial"",""time""
""fullscreenenter"",""1"",""5156""
","
","","","602.2999999821186","","","19","4228","3097","&#9789;","elianto","#f73b6a7A"," "," ","1","0","[1454.0999999940395]","1","0","4","","","","","","","",""
"pit-trial","92","724540","0.0-2.0-17.2-1.2","battery-v0.2","","""event"",""trial"",""time""
""fullscreenenter"",""1"",""5156""
""blur"",""7"",""31022""
""focus"",""7"",""33202""
","""event"",""trial"",""time""
""blur"",""7"",""31022""
","""event"",""trial"",""time""
""focus"",""7"",""33202""
","""event"",""trial"",""time""
""fullscreenenter"",""1"",""5156""
","
","","","423","","","19","4228","3097","&#9789;","elianto","#f73b6a7A"," "," ","1","0","[1276.300000011921]","1","0","4","","","","","","","",""
"pit-trial","93","728099","0.0-2.0-17.2-2.2","battery-v0.2","","""event"",""trial"",""time""
""fullscreenenter"",""1"",""5156""
""blur"",""7"",""31022""
""focus"",""7"",""33202""
","""event"",""trial"",""time""
""blur"",""7"",""31022""
","""event"",""trial"",""time""
""focus"",""7"",""33202""
","""event"",""trial"",""time""
""fullscreenenter"",""1"",""5156""
","
","","","687.8000000119209","","","19","4228","3097","&#9789;","elianto","#f73b6a7A"," "," ","1","0","[1549.300000011921]","1","0","4","","","","","","","",""
"pit-trial","94","731899","0.0-2.0-17.2-3.2","battery-v0.2","","""event"",""trial"",""time""
""fullscreenenter"",""1"",""5156""
""blur"",""7"",""31022""
""focus"",""7"",""33202""
","""event"",""trial"",""time""
""blur"",""7"",""31022""
","""event"",""trial"",""time""
""focus"",""7"",""33202""
","""event"",""trial"",""time""
""fullscreenenter"",""1"",""5156""
","
","","","941.6999999880791","","","19","4228","3097","&#9789;","elianto","#f73b6a7A"," "," ","1","-10","[1794.5]","1","0","4","","","","","","","",""
"pit-trial","95","735267","0.0-2.0-17.2-4.2","battery-v0.2","","""event"",""trial"",""time""
""fullscreenenter"",""1"",""5156""
""blur"",""7"",""31022""
""focus"",""7"",""33202""
","""event"",""trial"",""time""
""blur"",""7"",""31022""
","""event"",""trial"",""time""
""focus"",""7"",""33202""
","""event"",""trial"",""time""
""fullscreenenter"",""1"",""5156""
","
","","","509.2000000178814","","","19","4228","3097","&#9789;","elianto","#f73b6a7A"," "," ","1","0","[1362.5]","1","0","4","","","","","","","",""
"pit-trial","96","738571","0.0-2.0-17.3-0.3","battery-v0.2","","""event"",""trial"",""time""
""fullscreenenter"",""1"",""5156""
""blur"",""7"",""31022""
""focus"",""7"",""33202""
","""event"",""trial"",""time""
""blur"",""7"",""31022""
","""event"",""trial"",""time""
""focus"",""7"",""33202""
","""event"",""trial"",""time""
""fullscreenenter"",""1"",""5156""
","
","","","440.19999998807907","","","19","4228","3097","&#9789;","elianto","#f73b6a7A"," "," ","1","0","[1293]","1","0","4","","","","","","","",""
"pit-trial","97","741819","0.0-2.0-17.3-1.3","battery-v0.2","","""event"",""trial"",""time""
""fullscreenenter"",""1"",""5156""
""blur"",""7"",""31022""
""focus"",""7"",""33202""
","""event"",""trial"",""time""
""blur"",""7"",""31022""
","""event"",""trial"",""time""
""focus"",""7"",""33202""
","""event"",""trial"",""time""
""fullscreenenter"",""1"",""5156""
","
","","","389","","","19","4228","3097","&#9789;","elianto","#f73b6a7A"," "," ","1","0","[1243.699999988079]","1","0","4","","","","","","","",""
"pit-trial","98","745132","0.0-2.0-17.3-2.3","battery-v0.2","","""event"",""trial"",""time""
""fullscreenenter"",""1"",""5156""
""blur"",""7"",""31022""
""focus"",""7"",""33202""
","""event"",""trial"",""time""
""blur"",""7"",""31022""
","""event"",""trial"",""time""
""focus"",""7"",""33202""
","""event"",""trial"",""time""
""fullscreenenter"",""1"",""5156""
","
","","","453","","","19","4228","3097","&#9789;","elianto","#f73b6a7A"," "," ","1","0","[1307.4000000059605]","1","0","4","","","","","","","",""
"pit-trial","99","748316","0.0-2.0-17.3-3.3","battery-v0.2","","""event"",""trial"",""time""
""fullscreenenter"",""1"",""5156""
""blur"",""7"",""31022""
""focus"",""7"",""33202""
","""event"",""trial"",""time""
""blur"",""7"",""31022""
","""event"",""trial"",""time""
""focus"",""7"",""33202""
","""event"",""trial"",""time""
""fullscreenenter"",""1"",""5156""
","
","","","322.40000000596046","","","19","4228","3097","&#9789;","elianto","#f73b6a7A"," "," ","1","-10","[1175.5]","1","0","4","","","","","","","",""
"pit-trial","100","751652","0.0-2.0-17.3-4.3","battery-v0.2","","""event"",""trial"",""time""
""fullscreenenter"",""1"",""5156""
""blur"",""7"",""31022""
""focus"",""7"",""33202""
","""event"",""trial"",""time""
""blur"",""7"",""31022""
","""event"",""trial"",""time""
""focus"",""7"",""33202""
","""event"",""trial"",""time""
""fullscreenenter"",""1"",""5156""
","
","","","472.7999999821186","","","19","4228","3097","&#9789;","elianto","#f73b6a7A"," "," ","1","0","[1325.699999988079]","1","0","4","","","","","","","",""
"call-function","101","751654","0.0-2.0-18.0","battery-v0.2","","""event"",""trial"",""time""
""fullscreenenter"",""1"",""5156""
""blur"",""7"",""31022""
""focus"",""7"",""33202""
","""event"",""trial"",""time""
""blur"",""7"",""31022""
","""event"",""trial"",""time""
""focus"",""7"",""33202""
","""event"",""trial"",""time""
""fullscreenenter"",""1"",""5156""
","
","","","","","","","","","","","","","","","","","","","","","","","","","","",""
"pit-instructions","102","818864","0.0-2.0-19.0","battery-v0.2","","""event"",""trial"",""time""
""fullscreenenter"",""1"",""5156""
""blur"",""7"",""31022""
""focus"",""7"",""33202""
","""event"",""trial"",""time""
""blur"",""7"",""31022""
","""event"",""trial"",""time""
""focus"",""7"",""33202""
","""event"",""trial"",""time""
""fullscreenenter"",""1"",""5156""
","
","","[{""page_index"":0,""viewing_time"":6375.700000017881},{""page_index"":1,""viewing_time"":5642.5999999940395},{""page_index"":2,""viewing_time"":13520.699999988079},{""page_index"":3,""viewing_time"":7322.0999999940395},{""page_index"":4,""viewing_time"":7986.100000023842},{""page_index"":5,""viewing_time"":8329.09999999404},{""page_index"":6,""viewing_time"":8219.5},{""page_index"":7,""viewing_time"":5917.799999982119},{""page_index"":8,""viewing_time"":3893.7000000178814}]","67208.20000001788","","","","","","","","","","","","","","","","","","","","","","","",""
"pit-comprehension","103","823728","0.0-2.0-20.0-0.0","battery-v0.2","","""event"",""trial"",""time""
""fullscreenenter"",""1"",""5156""
""blur"",""7"",""31022""
""focus"",""7"",""33202""
","""event"",""trial"",""time""
""blur"",""7"",""31022""
","""event"",""trial"",""time""
""focus"",""7"",""33202""
","""event"",""trial"",""time""
""fullscreenenter"",""1"",""5156""
","
","","","4856.300000011921","[""SPACE""]","0","19","4228","3097","","","","","","","","","","","","","","","","","","",""
"pit-instructions","104","826228","0.0-2.0-20.0-1.0","battery-v0.2","","""event"",""trial"",""time""
""fullscreenenter"",""1"",""5156""
""blur"",""7"",""31022""
""focus"",""7"",""33202""
","""event"",""trial"",""time""
""blur"",""7"",""31022""
","""event"",""trial"",""time""
""focus"",""7"",""33202""
","""event"",""trial"",""time""
""fullscreenenter"",""1"",""5156""
","
","","[{""page_index"":0,""viewing_time"":2444.699999988079}]","2445.199999988079","","","","","","","","","","","","","","","","","","","","","","","",""
"pit-comprehension","105","832189","0.0-2.0-21.0-0.0","battery-v0.2","","""event"",""trial"",""time""
""fullscreenenter"",""1"",""5156""
""blur"",""7"",""31022""
""focus"",""7"",""33202""
","""event"",""trial"",""time""
""blur"",""7"",""31022""
","""event"",""trial"",""time""
""focus"",""7"",""33202""
","""event"",""trial"",""time""
""fullscreenenter"",""1"",""5156""
","
","","","5954.699999988079","[""10""]","0","19","4228","3097","","","","","","","","","","","","","","","","","","",""
"pit-instructions","106","834275","0.0-2.0-21.0-1.0","battery-v0.2","","""event"",""trial"",""time""
""fullscreenenter"",""1"",""5156""
""blur"",""7"",""31022""
""focus"",""7"",""33202""
","""event"",""trial"",""time""
""blur"",""7"",""31022""
","""event"",""trial"",""time""
""focus"",""7"",""33202""
","""event"",""trial"",""time""
""fullscreenenter"",""1"",""5156""
","
","","[{""page_index"":0,""viewing_time"":2037.3999999761581}]","2037.8999999761581","","","","","","","","","","","","","","","","","","","","","","","",""
"pit-comprehension","107","840739","0.0-2.0-22.0-0.0","battery-v0.2","","""event"",""trial"",""time""
""fullscreenenter"",""1"",""5156""
""blur"",""7"",""31022""
""focus"",""7"",""33202""
","""event"",""trial"",""time""
""blur"",""7"",""31022""
","""event"",""trial"",""time""
""focus"",""7"",""33202""
","""event"",""trial"",""time""
""fullscreenenter"",""1"",""5156""
","
","","","6457.4000000059605","[""0""]","0","19","4228","3097","","","","","","","","","","","","","","","","","","",""
"pit-instructions","108","842314","0.0-2.0-22.0-1.0","battery-v0.2","","""event"",""trial"",""time""
""fullscreenenter"",""1"",""5156""
""blur"",""7"",""31022""
""focus"",""7"",""33202""
","""event"",""trial"",""time""
""blur"",""7"",""31022""
","""event"",""trial"",""time""
""focus"",""7"",""33202""
","""event"",""trial"",""time""
""fullscreenenter"",""1"",""5156""
","
","","[{""page_index"":0,""viewing_time"":1528.300000011921}]","1528.800000011921","","","","","","","","","","","","","","","","","","","","","","","",""
"pit-comprehension","109","850692","0.0-2.0-23.0-0.0","battery-v0.2","","""event"",""trial"",""time""
""fullscreenenter"",""1"",""5156""
""blur"",""7"",""31022""
""focus"",""7"",""33202""
","""event"",""trial"",""time""
""blur"",""7"",""31022""
","""event"",""trial"",""time""
""focus"",""7"",""33202""
","""event"",""trial"",""time""
""fullscreenenter"",""1"",""5156""
","
","","","8372.09999999404","[""True""]","0","19","4228","3097","","","","","","","","","","","","","","","","","","",""
"pit-instructions","110","852421","0.0-2.0-23.0-1.0","battery-v0.2","","""event"",""trial"",""time""
""fullscreenenter"",""1"",""5156""
""blur"",""7"",""31022""
""focus"",""7"",""33202""
","""event"",""trial"",""time""
""blur"",""7"",""31022""
","""event"",""trial"",""time""
""focus"",""7"",""33202""
","""event"",""trial"",""time""
""fullscreenenter"",""1"",""5156""
","
","","[{""page_index"":0,""viewing_time"":1680.199999988079}]","1680.699999988079","","","","","","","","","","","","","","","","","","","","","","","",""
"pit-comprehension","111","859764","0.0-2.0-24.0-0.0","battery-v0.2","","""event"",""trial"",""time""
""fullscreenenter"",""1"",""5156""
""blur"",""7"",""31022""
""focus"",""7"",""33202""
","""event"",""trial"",""time""
""blur"",""7"",""31022""
","""event"",""trial"",""time""
""focus"",""7"",""33202""
","""event"",""trial"",""time""
""fullscreenenter"",""1"",""5156""
","
","","","7337.0999999940395","[""True""]","0","19","4228","3097","","","","","","","","","","","","","","","","","","",""
"pit-instructions","112","861306","0.0-2.0-24.0-1.0","battery-v0.2","","""event"",""trial"",""time""
""fullscreenenter"",""1"",""5156""
""blur"",""7"",""31022""
""focus"",""7"",""33202""
","""event"",""trial"",""time""
""blur"",""7"",""31022""
","""event"",""trial"",""time""
""focus"",""7"",""33202""
","""event"",""trial"",""time""
""fullscreenenter"",""1"",""5156""
","
","","[{""page_index"":0,""viewing_time"":1490.9000000059605}]","1491.4000000059605","","","","","","","","","","","","","","","","","","","","","","","",""
"pit-comprehension","113","867647","0.0-2.0-25.0-0.0","battery-v0.2","","""event"",""trial"",""time""
""fullscreenenter"",""1"",""5156""
""blur"",""7"",""31022""
""focus"",""7"",""33202""
","""event"",""trial"",""time""
""blur"",""7"",""31022""
","""event"",""trial"",""time""
""focus"",""7"",""33202""
","""event"",""trial"",""time""
""fullscreenenter"",""1"",""5156""
","
","","","6334.9000000059605","[""True""]","0","19","4228","3097","","","","","","","","","","","","","","","","","","",""
"pit-instructions","114","869140","0.0-2.0-25.0-1.0","battery-v0.2","","""event"",""trial"",""time""
""fullscreenenter"",""1"",""5156""
""blur"",""7"",""31022""
""focus"",""7"",""33202""
","""event"",""trial"",""time""
""blur"",""7"",""31022""
","""event"",""trial"",""time""
""focus"",""7"",""33202""
","""event"",""trial"",""time""
""fullscreenenter"",""1"",""5156""
","
","","[{""page_index"":0,""viewing_time"":1444.9000000059605}]","1445.4000000059605","","","","","","","","","","","","","","","","","","","","","","","",""
"pit-comprehension","115","873761","0.0-2.0-26.0-0.0","battery-v0.2","","""event"",""trial"",""time""
""fullscreenenter"",""1"",""5156""
""blur"",""7"",""31022""
""focus"",""7"",""33202""
","""event"",""trial"",""time""
""blur"",""7"",""31022""
","""event"",""trial"",""time""
""focus"",""7"",""33202""
","""event"",""trial"",""time""
""fullscreenenter"",""1"",""5156""
","
","","","4614","[""False""]","0","19","4228","3097","","","","","","","","","","","","","","","","","","",""
"pit-instructions","116","875295","0.0-2.0-26.0-1.0","battery-v0.2","","""event"",""trial"",""time""
""fullscreenenter"",""1"",""5156""
""blur"",""7"",""31022""
""focus"",""7"",""33202""
","""event"",""trial"",""time""
""blur"",""7"",""31022""
","""event"",""trial"",""time""
""focus"",""7"",""33202""
","""event"",""trial"",""time""
""fullscreenenter"",""1"",""5156""
","
","","[{""page_index"":0,""viewing_time"":1480.5}]","1481.0999999940395","","","","","","","","","","","","","","","","","","","","","","","",""
"pit-instructions","117","891216","0.0-3.0","battery-v0.2","","""event"",""trial"",""time""
""fullscreenenter"",""1"",""5156""
""blur"",""7"",""31022""
""focus"",""7"",""33202""
","""event"",""trial"",""time""
""blur"",""7"",""31022""
","""event"",""trial"",""time""
""focus"",""7"",""33202""
","""event"",""trial"",""time""
""fullscreenenter"",""1"",""5156""
","
","","[{""page_index"":0,""viewing_time"":3505.5999999940395},{""page_index"":1,""viewing_time"":5178.4000000059605},{""page_index"":2,""viewing_time"":7233.4000000059605}]","15918","","","","","","","","","","","","","","","","","","","","","","","",""
"pit-trial","118","894914","0.0-4.0","battery-v0.2","","""event"",""trial"",""time""
""fullscreenenter"",""1"",""5156""
""blur"",""7"",""31022""
""focus"",""7"",""33202""
","""event"",""trial"",""time""
""blur"",""7"",""31022""
","""event"",""trial"",""time""
""focus"",""7"",""33202""
","""event"",""trial"",""time""
""fullscreenenter"",""1"",""5156""
","
","","","827","","","19","4228","3097","&#9728;","elianto","#f73b6a7A","-1"," ","0","-10","[1680.4000000059605]","1","1","","","4228","1","0","4","lose","no-go","0"
"pit-trial","119","898605","0.0-5.0","battery-v0.2","","""event"",""trial"",""time""
""fullscreenenter"",""1"",""5156""
""blur"",""7"",""31022""
""focus"",""7"",""33202""
","""event"",""trial"",""time""
""blur"",""7"",""31022""
","""event"",""trial"",""time""
""focus"",""7"",""33202""
","""event"",""trial"",""time""
""fullscreenenter"",""1"",""5156""
","
","","","829.5","","","19","4228","3097","&#9733;","elianto","#3366ff99","-1"," ","0","0","[1687.6000000238419]","1","1","","","4228","2","2","2","win","no-go","0"
"pit-trial","120","902370","0.0-6.0","battery-v0.2","","""event"",""trial"",""time""
""fullscreenenter"",""1"",""5156""
""blur"",""7"",""31022""
""focus"",""7"",""33202""
","""event"",""trial"",""time""
""blur"",""7"",""31022""
","""event"",""trial"",""time""
""focus"",""7"",""33202""
","""event"",""trial"",""time""
""fullscreenenter"",""1"",""5156""
","
","","","895.4000000059605","","","19","4228","3097","&#9752;","elianto","#f73b6a7A"," "," ","1","0","[1753.0999999940395]","1","1","","","4228","3","3","3","lose","go","0"
"pit-trial","121","906905","0.0-7.0","battery-v0.2","","""event"",""trial"",""time""
""fullscreenenter"",""1"",""5156""
""blur"",""7"",""31022""
""focus"",""7"",""33202""
","""event"",""trial"",""time""
""blur"",""7"",""31022""
","""event"",""trial"",""time""
""focus"",""7"",""33202""
","""event"",""trial"",""time""
""fullscreenenter"",""1"",""5156""
","
","","","1663.5999999940395","","","19","4228","3097","&#9730;","elianto","#3366ff99"," "," ","1","+10","[2523.199999988079]","1","1","","","4228","4","1","1","win","go","0"
"pit-trial","122","911779","0.0-8.0","battery-v0.2","","""event"",""trial"",""time""
""fullscreenenter"",""1"",""5156""
""blur"",""7"",""31022""
""focus"",""7"",""33202""
","""event"",""trial"",""time""
""blur"",""7"",""31022""
","""event"",""trial"",""time""
""focus"",""7"",""33202""
","""event"",""trial"",""time""
""fullscreenenter"",""1"",""5156""
","
","","","-1","","","19","4228","3097","&#9728;","elianto","#f73b6a7A","-1","-1","1","0","[]","0","1","","","4228","5","0","4","lose","no-go","0"
"pit-trial","123","916648","0.0-9.0","battery-v0.2","","""event"",""trial"",""time""
""fullscreenenter"",""1"",""5156""
""blur"",""7"",""31022""
""focus"",""7"",""33202""
","""event"",""trial"",""time""
""blur"",""7"",""31022""
","""event"",""trial"",""time""
""focus"",""7"",""33202""
","""event"",""trial"",""time""
""fullscreenenter"",""1"",""5156""
","
","","","-1","","","19","4228","3097","&#9733;","elianto","#3366ff99","-1","-1","1","+10","[]","0","1","","","4228","6","2","2","win","no-go","0"
"pit-trial","124","920040","0.0-10.0","battery-v0.2","","""event"",""trial"",""time""
""fullscreenenter"",""1"",""5156""
""blur"",""7"",""31022""
""focus"",""7"",""33202""
","""event"",""trial"",""time""
""blur"",""7"",""31022""
","""event"",""trial"",""time""
""focus"",""7"",""33202""
","""event"",""trial"",""time""
""fullscreenenter"",""1"",""5156""
","
","","","528.3000000119209","","","19","4228","3097","&#9752;","elianto","#f73b6a7A"," "," ","1","-10","[1381]","1","1","","","4228","7","3","3","lose","go","1"
"pit-trial","125","923543","0.0-11.0","battery-v0.2","","""event"",""trial"",""time""
""fullscreenenter"",""1"",""5156""
""blur"",""7"",""31022""
""focus"",""7"",""33202""
","""event"",""trial"",""time""
""blur"",""7"",""31022""
","""event"",""trial"",""time""
""focus"",""7"",""33202""
","""event"",""trial"",""time""
""fullscreenenter"",""1"",""5156""
","
","","","638.1999999880791","","","19","4228","3097","&#9730;","elianto","#3366ff99"," "," ","1","+10","[1494.2999999821186]","1","1","","","4228","8","1","1","win","go","0"
"pit-trial","126","927943","0.0-12.0","battery-v0.2","","""event"",""trial"",""time""
""fullscreenenter"",""1"",""5156""
""blur"",""7"",""31022""
""focus"",""7"",""33202""
","""event"",""trial"",""time""
""blur"",""7"",""31022""
","""event"",""trial"",""time""
""focus"",""7"",""33202""
","""event"",""trial"",""time""
""fullscreenenter"",""1"",""5156""
","
","","","1537.8999999761581","","","19","4228","3097","&#9752;","elianto","#f73b6a7A"," "," ","1","0","[2391.2999999821186]","1","1","","","4228","9","3","3","lose","go","0"
"pit-trial","127","932807","0.0-13.0","battery-v0.2","","""event"",""trial"",""time""
""fullscreenenter"",""1"",""5156""
""blur"",""7"",""31022""
""focus"",""7"",""33202""
","""event"",""trial"",""time""
""blur"",""7"",""31022""
","""event"",""trial"",""time""
""focus"",""7"",""33202""
","""event"",""trial"",""time""
""fullscreenenter"",""1"",""5156""
","
","","","-1","","","19","4228","3097","&#9733;","elianto","#3366ff99","-1","-1","1","+10","[]","0","1","","","4228","10","2","2","win","no-go","0"
"pit-trial","128","936631","0.0-14.0","battery-v0.2","","""event"",""trial"",""time""
""fullscreenenter"",""1"",""5156""
""blur"",""7"",""31022""
""focus"",""7"",""33202""
","""event"",""trial"",""time""
""blur"",""7"",""31022""
","""event"",""trial"",""time""
""focus"",""7"",""33202""
","""event"",""trial"",""time""
""fullscreenenter"",""1"",""5156""
","
","","","964.0999999940395","","","19","4228","3097","&#9728;","elianto","#f73b6a7A","-1"," ","0","-10","[1816.199999988079]","1","1","","","4228","11","0","4","lose","no-go","0"
"pit-trial","129","941135","0.0-15.0","battery-v0.2","","""event"",""trial"",""time""
""fullscreenenter"",""1"",""5156""
""blur"",""7"",""31022""
""focus"",""7"",""33202""
","""event"",""trial"",""time""
""blur"",""7"",""31022""
","""event"",""trial"",""time""
""focus"",""7"",""33202""
","""event"",""trial"",""time""
""fullscreenenter"",""1"",""5156""
","
","","","1645.7000000178814","","","19","4228","3097","&#9730;","elianto","#3366ff99"," "," ","1","+10","[2499]","1","1","","","4228","12","1","1","win","go","0"
"pit-trial","130","946000","0.0-16.0","battery-v0.2","","""event"",""trial"",""time""
""fullscreenenter"",""1"",""5156""
""blur"",""7"",""31022""
""focus"",""7"",""33202""
","""event"",""trial"",""time""
""blur"",""7"",""31022""
","""event"",""trial"",""time""
""focus"",""7"",""33202""
","""event"",""trial"",""time""
""fullscreenenter"",""1"",""5156""
","
","","","-1","","","19","4228","3097","&#9752;","elianto","#f73b6a7A"," ","-1","0","-10","[]","0","1","","","4228","13","3","3","lose","go","0"
"pit-trial","131","950864","0.0-17.0","battery-v0.2","","""event"",""trial"",""time""
""fullscreenenter"",""1"",""5156""
""blur"",""7"",""31022""
""focus"",""7"",""33202""
","""event"",""trial"",""time""
""blur"",""7"",""31022""
","""event"",""trial"",""time""
""focus"",""7"",""33202""
","""event"",""trial"",""time""
""fullscreenenter"",""1"",""5156""
","
","","","-1","","","19","4228","3097","&#9733;","elianto","#3366ff99","-1","-1","1","+10","[]","0","1","","","4228","14","2","2","win","no-go","0"
"pit-trial","132","954905","0.0-18.0","battery-v0.2","","""event"",""trial"",""time""
""fullscreenenter"",""1"",""5156""
""blur"",""7"",""31022""
""focus"",""7"",""33202""
","""event"",""trial"",""time""
""blur"",""7"",""31022""
","""event"",""trial"",""time""
""focus"",""7"",""33202""
","""event"",""trial"",""time""
""fullscreenenter"",""1"",""5156""
","
","","","1182.7999999821186","","","19","4228","3097","&#9730;","elianto","#3366ff99"," "," ","1","0","[2035.7999999821186]","1","1","","","4228","15","1","1","win","go","1"
"pit-trial","133","959771","0.0-19.0","battery-v0.2","","""event"",""trial"",""time""
""fullscreenenter"",""1"",""5156""
""blur"",""7"",""31022""
""focus"",""7"",""33202""
","""event"",""trial"",""time""
""blur"",""7"",""31022""
","""event"",""trial"",""time""
""focus"",""7"",""33202""
","""event"",""trial"",""time""
""fullscreenenter"",""1"",""5156""
","
","","","-1","","","19","4228","3097","&#9728;","elianto","#f73b6a7A","-1","-1","1","0","[]","0","1","","","4228","16","0","4","lose","no-go","0"
"pit-trial","134","963873","0.0-20.0","battery-v0.2","","""event"",""trial"",""time""
""fullscreenenter"",""1"",""5156""
""blur"",""7"",""31022""
""focus"",""7"",""33202""
","""event"",""trial"",""time""
""blur"",""7"",""31022""
","""event"",""trial"",""time""
""focus"",""7"",""33202""
","""event"",""trial"",""time""
""fullscreenenter"",""1"",""5156""
","
","","","1239.6000000238419","","","19","4228","3097","&#9752;","elianto","#f73b6a7A"," "," ","1","0","[2093.699999988079]","1","1","","","4228","17","3","3","lose","go","0"
"pit-trial","135","968280","0.0-21.0","battery-v0.2","","""event"",""trial"",""time""
""fullscreenenter"",""1"",""5156""
""blur"",""7"",""31022""
""focus"",""7"",""33202""
","""event"",""trial"",""time""
""blur"",""7"",""31022""
","""event"",""trial"",""time""
""focus"",""7"",""33202""
","""event"",""trial"",""time""
""fullscreenenter"",""1"",""5156""
","
","","","1545.300000011921","","","19","4228","3097","&#9733;","elianto","#3366ff99","-1"," ","0","0","[2397.0999999940395]","1","1","","","4228","18","2","2","win","no-go","0"
"pit-trial","136","973144","0.0-22.0","battery-v0.2","","""event"",""trial"",""time""
""fullscreenenter"",""1"",""5156""
""blur"",""7"",""31022""
""focus"",""7"",""33202""
","""event"",""trial"",""time""
""blur"",""7"",""31022""
","""event"",""trial"",""time""
""focus"",""7"",""33202""
","""event"",""trial"",""time""
""fullscreenenter"",""1"",""5156""
","
","","","-1","","","19","4228","3097","&#9728;","elianto","#f73b6a7A","-1","-1","1","0","[]","0","1","","","4228","19","0","4","lose","no-go","0"
"pit-trial","137","976560","0.0-23.0","battery-v0.2","","""event"",""trial"",""time""
""fullscreenenter"",""1"",""5156""
""blur"",""7"",""31022""
""focus"",""7"",""33202""
","""event"",""trial"",""time""
""blur"",""7"",""31022""
","""event"",""trial"",""time""
""focus"",""7"",""33202""
","""event"",""trial"",""time""
""fullscreenenter"",""1"",""5156""
","
","","","552.9000000059605","","","19","4228","3097","&#9730;","elianto","#3366ff99"," "," ","1","0","[1409.5]","1","1","","","4228","20","1","1","win","go","1"
"pit-instructions","138","1055845","0.0-24.0","battery-v0.2","","""event"",""trial"",""time""
""fullscreenenter"",""1"",""5156""
""blur"",""7"",""31022""
""focus"",""7"",""33202""
","""event"",""trial"",""time""
""blur"",""7"",""31022""
","""event"",""trial"",""time""
""focus"",""7"",""33202""
","""event"",""trial"",""time""
""fullscreenenter"",""1"",""5156""
","
","","[{""page_index"":0,""viewing_time"":5423.200000017881},{""page_index"":1,""viewing_time"":73857.29999998212}]","79281.10000002384","","","","","","","","","","","","","","","","","","","","","","","",""
"pit-trial","139","1060298","0.0-25.0","battery-v0.2","","""event"",""trial"",""time""
""fullscreenenter"",""1"",""5156""
""blur"",""7"",""31022""
""focus"",""7"",""33202""
","""event"",""trial"",""time""
""blur"",""7"",""31022""
","""event"",""trial"",""time""
""focus"",""7"",""33202""
","""event"",""trial"",""time""
""fullscreenenter"",""1"",""5156""
","
","","","1586.0999999940395","","","19","4228","3097","t","elianto","#f73b6a7A"," "," ","1","0","[2441.800000011921]","1","2","","","4228","21","2","3","lose","go","0"
"pit-trial","140","1064786","0.0-26.0","battery-v0.2","","""event"",""trial"",""time""
""fullscreenenter"",""1"",""5156""
""blur"",""7"",""31022""
""focus"",""7"",""33202""
","""event"",""trial"",""time""
""blur"",""7"",""31022""
","""event"",""trial"",""time""
""focus"",""7"",""33202""
","""event"",""trial"",""time""
""fullscreenenter"",""1"",""5156""
","
","","","1624.5999999940395","","","19","4228","3097","f","elianto","#3366ff99","-1"," ","0","+10","[2478.699999988079]","1","2","","","4228","22","1","2","win","no-go","1"
"pit-trial","141","1069650","0.0-27.0","battery-v0.2","","""event"",""trial"",""time""
""fullscreenenter"",""1"",""5156""
""blur"",""7"",""31022""
""focus"",""7"",""33202""
","""event"",""trial"",""time""
""blur"",""7"",""31022""
","""event"",""trial"",""time""
""focus"",""7"",""33202""
","""event"",""trial"",""time""
""fullscreenenter"",""1"",""5156""
","
","","","-1","","","19","4228","3097","b","elianto","#f73b6a7A","-1","-1","1","0","[]","0","2","","","4228","23","3","4","lose","no-go","0"
"pit-trial","142","1074514","0.0-28.0","battery-v0.2","","""event"",""trial"",""time""
""fullscreenenter"",""1"",""5156""
""blur"",""7"",""31022""
""focus"",""7"",""33202""
","""event"",""trial"",""time""
""blur"",""7"",""31022""
","""event"",""trial"",""time""
""focus"",""7"",""33202""
","""event"",""trial"",""time""
""fullscreenenter"",""1"",""5156""
","
","","","-1","","","19","4228","3097","n","elianto","#f73b6a7A"," ","-1","0","-10","[]","0","2","","","4228","24","0","3","lose","go","0"
"pit-trial","143","1079379","0.0-29.0","battery-v0.2","","""event"",""trial"",""time""
""fullscreenenter"",""1"",""5156""
""blur"",""7"",""31022""
""focus"",""7"",""33202""
","""event"",""trial"",""time""
""blur"",""7"",""31022""
","""event"",""trial"",""time""
""focus"",""7"",""33202""
","""event"",""trial"",""time""
""fullscreenenter"",""1"",""5156""
","
","","","-1","","","19","4228","3097","b","elianto","#f73b6a7A","-1","-1","1","0","[]","0","2","","","4228","25","3","4","lose","no-go","0"
"pit-trial","144","1083347","0.0-30.0","battery-v0.2","","""event"",""trial"",""time""
""fullscreenenter"",""1"",""5156""
""blur"",""7"",""31022""
""focus"",""7"",""33202""
","""event"",""trial"",""time""
""blur"",""7"",""31022""
","""event"",""trial"",""time""
""focus"",""7"",""33202""
","""event"",""trial"",""time""
""fullscreenenter"",""1"",""5156""
","
","","","1107.2999999821186","","","19","4228","3097","f","elianto","#3366ff99","-1"," ","0","0","[1960.5999999940395]","1","2","","","4228","26","1","2","win","no-go","0"
"pit-trial","145","1088211","0.0-31.0","battery-v0.2","","""event"",""trial"",""time""
""fullscreenenter"",""1"",""5156""
""blur"",""7"",""31022""
""focus"",""7"",""33202""
","""event"",""trial"",""time""
""blur"",""7"",""31022""
","""event"",""trial"",""time""
""focus"",""7"",""33202""
","""event"",""trial"",""time""
""fullscreenenter"",""1"",""5156""
","
","","","-1","","","19","4228","3097","n","elianto","#f73b6a7A"," ","-1","0","-10","[]","0","2","","","4228","27","0","3","lose","go","0"
"pit-trial","146","1092603","0.0-32.0","battery-v0.2","","""event"",""trial"",""time""
""fullscreenenter"",""1"",""5156""
""blur"",""7"",""31022""
""focus"",""7"",""33202""
","""event"",""trial"",""time""
""blur"",""7"",""31022""
","""event"",""trial"",""time""
""focus"",""7"",""33202""
","""event"",""trial"",""time""
""fullscreenenter"",""1"",""5156""
","
","","","1530.4000000059605","","","19","4228","3097","t","elianto","#f73b6a7A"," "," ","1","0","[2383.5]","1","2","","","4228","28","2","3","lose","go","0"
"pit-trial","147","1096299","0.0-33.0","battery-v0.2","","""event"",""trial"",""time""
""fullscreenenter"",""1"",""5156""
""blur"",""7"",""31022""
""focus"",""7"",""33202""
","""event"",""trial"",""time""
""blur"",""7"",""31022""
","""event"",""trial"",""time""
""focus"",""7"",""33202""
","""event"",""trial"",""time""
""fullscreenenter"",""1"",""5156""
","
","","","830.4000000059605","","","19","4228","3097","n","elianto","#f73b6a7A"," "," ","1","0","[1686.300000011921]","1","2","","","4228","29","0","3","lose","go","0"
"pit-trial","148","1100259","0.0-34.0","battery-v0.2","","""event"",""trial"",""time""
""fullscreenenter"",""1"",""5156""
""blur"",""7"",""31022""
""focus"",""7"",""33202""
","""event"",""trial"",""time""
""blur"",""7"",""31022""
","""event"",""trial"",""time""
""focus"",""7"",""33202""
","""event"",""trial"",""time""
""fullscreenenter"",""1"",""5156""
","
","","","1087.0999999940395","","","19","4228","3097","f","elianto","#3366ff99","-1"," ","0","+10","[1948.0999999940395]","1","2","","","4228","30","1","2","win","no-go","1"
"pit-trial","149","1104267","0.0-35.0","battery-v0.2","","""event"",""trial"",""time""
""fullscreenenter"",""1"",""5156""
""blur"",""7"",""31022""
""focus"",""7"",""33202""
","""event"",""trial"",""time""
""blur"",""7"",""31022""
","""event"",""trial"",""time""
""focus"",""7"",""33202""
","""event"",""trial"",""time""
""fullscreenenter"",""1"",""5156""
","
","","","1152.800000011921","","","19","4228","3097","t","elianto","#f73b6a7A"," "," ","1","0","[2003.4000000059605]","1","2","","","4228","31","2","3","lose","go","0"
"pit-trial","150","1109131","0.0-36.0","battery-v0.2","","""event"",""trial"",""time""
""fullscreenenter"",""1"",""5156""
""blur"",""7"",""31022""
""focus"",""7"",""33202""
","""event"",""trial"",""time""
""blur"",""7"",""31022""
","""event"",""trial"",""time""
""focus"",""7"",""33202""
","""event"",""trial"",""time""
""fullscreenenter"",""1"",""5156""
","
","","","-1","","","19","4228","3097","b","elianto","#f73b6a7A","-1","-1","1","0","[]","0","2","","","4228","32","3","4","lose","no-go","0"
"pit-trial","151","1113996","0.0-37.0","battery-v0.2","","""event"",""trial"",""time""
""fullscreenenter"",""1"",""5156""
""blur"",""7"",""31022""
""focus"",""7"",""33202""
","""event"",""trial"",""time""
""blur"",""7"",""31022""
","""event"",""trial"",""time""
""focus"",""7"",""33202""
","""event"",""trial"",""time""
""fullscreenenter"",""1"",""5156""
","
","","","-1","","","19","4228","3097","b","elianto","#f73b6a7A","-1","-1","1","0","[]","0","2","","","4228","33","3","4","lose","no-go","0"
"pit-trial","152","1117884","0.0-38.0","battery-v0.2","","""event"",""trial"",""time""
""fullscreenenter"",""1"",""5156""
""blur"",""7"",""31022""
""focus"",""7"",""33202""
","""event"",""trial"",""time""
""blur"",""7"",""31022""
","""event"",""trial"",""time""
""focus"",""7"",""33202""
","""event"",""trial"",""time""
""fullscreenenter"",""1"",""5156""
","
","","","1025","","","19","4228","3097","f","elianto","#3366ff99","-1"," ","0","0","[1877.5999999940395]","1","2","","","4228","34","1","2","win","no-go","0"
"pit-trial","153","1122259","0.0-39.0","battery-v0.2","","""event"",""trial"",""time""
""fullscreenenter"",""1"",""5156""
""blur"",""7"",""31022""
""focus"",""7"",""33202""
","""event"",""trial"",""time""
""blur"",""7"",""31022""
","""event"",""trial"",""time""
""focus"",""7"",""33202""
","""event"",""trial"",""time""
""fullscreenenter"",""1"",""5156""
","
","","","1514.8999999761581","","","19","4228","3097","n","elianto","#f73b6a7A"," "," ","1","0","[2366.2999999821186]","1","2","","","4228","35","0","3","lose","go","0"
"pit-trial","154","1125996","0.0-40.0","battery-v0.2","","""event"",""trial"",""time""
""fullscreenenter"",""1"",""5156""
""blur"",""7"",""31022""
""focus"",""7"",""33202""
","""event"",""trial"",""time""
""blur"",""7"",""31022""
","""event"",""trial"",""time""
""focus"",""7"",""33202""
","""event"",""trial"",""time""
""fullscreenenter"",""1"",""5156""
","
","","","878.0999999940395","","","19","4228","3097","t","elianto","#f73b6a7A"," "," ","1","0","[1732.2999999821186]","1","2","","","4228","36","2","3","lose","go","0"
"pit-trial","155","1129720","0.0-41.0","battery-v0.2","","""event"",""trial"",""time""
""fullscreenenter"",""1"",""5156""
""blur"",""7"",""31022""
""focus"",""7"",""33202""
","""event"",""trial"",""time""
""blur"",""7"",""31022""
","""event"",""trial"",""time""
""focus"",""7"",""33202""
","""event"",""trial"",""time""
""fullscreenenter"",""1"",""5156""
","
","","","861.7000000178814","","","19","4228","3097","n","elianto","#f73b6a7A"," "," ","1","0","[1714.2000000178814]","1","2","","","4228","37","0","3","lose","go","0"
"pit-trial","156","1133500","0.0-42.0","battery-v0.2","","""event"",""trial"",""time""
""fullscreenenter"",""1"",""5156""
""blur"",""7"",""31022""
""focus"",""7"",""33202""
","""event"",""trial"",""time""
""blur"",""7"",""31022""
","""event"",""trial"",""time""
""focus"",""7"",""33202""
","""event"",""trial"",""time""
""fullscreenenter"",""1"",""5156""
","
","","","911.9000000059605","","","19","4228","3097","f","elianto","#3366ff99","-1"," ","0","0","[1769]","1","2","","","4228","38","1","2","win","no-go","0"
"pit-trial","157","1137668","0.0-43.0","battery-v0.2","","""event"",""trial"",""time""
""fullscreenenter"",""1"",""5156""
""blur"",""7"",""31022""
""focus"",""7"",""33202""
","""event"",""trial"",""time""
""blur"",""7"",""31022""
","""event"",""trial"",""time""
""focus"",""7"",""33202""
","""event"",""trial"",""time""
""fullscreenenter"",""1"",""5156""
","
","","","1307.0999999940395","","","19","4228","3097","t","elianto","#f73b6a7A"," "," ","1","0","[2160]","1","2","","","4228","39","2","3","lose","go","0"
"pit-trial","158","1142532","0.0-44.0","battery-v0.2","","""event"",""trial"",""time""
""fullscreenenter"",""1"",""5156""
""blur"",""7"",""31022""
""focus"",""7"",""33202""
","""event"",""trial"",""time""
""blur"",""7"",""31022""
","""event"",""trial"",""time""
""focus"",""7"",""33202""
","""event"",""trial"",""time""
""fullscreenenter"",""1"",""5156""
","
","","","-1","","","19","4228","3097","b","elianto","#f73b6a7A","-1","-1","1","0","[]","0","2","","","4228","40","3","4","lose","no-go","0"
"pit-trial","159","1147396","0.0-45.0","battery-v0.2","","""event"",""trial"",""time""
""fullscreenenter"",""1"",""5156""
""blur"",""7"",""31022""
""focus"",""7"",""33202""
","""event"",""trial"",""time""
""blur"",""7"",""31022""
","""event"",""trial"",""time""
""focus"",""7"",""33202""
","""event"",""trial"",""time""
""fullscreenenter"",""1"",""5156""
","
","","","-1","","","19","4228","3097","f","elianto","#3366ff99","-1","-1","1","+10","[]","0","2","","","4228","41","1","2","win","no-go","0"
"pit-trial","160","1152260","0.0-46.0","battery-v0.2","","""event"",""trial"",""time""
""fullscreenenter"",""1"",""5156""
""blur"",""7"",""31022""
""focus"",""7"",""33202""
","""event"",""trial"",""time""
""blur"",""7"",""31022""
","""event"",""trial"",""time""
""focus"",""7"",""33202""
","""event"",""trial"",""time""
""fullscreenenter"",""1"",""5156""
","
","","","-1","","","19","4228","3097","b","elianto","#f73b6a7A","-1","-1","1","0","[]","0","2","","","4228","42","3","4","lose","no-go","0"
"pit-trial","161","1156028","0.0-47.0","battery-v0.2","","""event"",""trial"",""time""
""fullscreenenter"",""1"",""5156""
""blur"",""7"",""31022""
""focus"",""7"",""33202""
","""event"",""trial"",""time""
""blur"",""7"",""31022""
","""event"",""trial"",""time""
""focus"",""7"",""33202""
","""event"",""trial"",""time""
""fullscreenenter"",""1"",""5156""
","
","","","903.5999999940395","","","19","4228","3097","n","elianto","#f73b6a7A"," "," ","1","0","[1761.0999999940395]","1","2","","","4228","43","0","3","lose","go","0"
"pit-trial","162","1160893","0.0-48.0","battery-v0.2","","""event"",""trial"",""time""
""fullscreenenter"",""1"",""5156""
""blur"",""7"",""31022""
""focus"",""7"",""33202""
","""event"",""trial"",""time""
""blur"",""7"",""31022""
","""event"",""trial"",""time""
""focus"",""7"",""33202""
","""event"",""trial"",""time""
""fullscreenenter"",""1"",""5156""
","
","","","-1","","","19","4228","3097","t","elianto","#f73b6a7A"," ","-1","0","-10","[]","0","2","","","4228","44","2","3","lose","go","0"
"pit-trial","163","1165757","0.0-49.0","battery-v0.2","","""event"",""trial"",""time""
""fullscreenenter"",""1"",""5156""
""blur"",""7"",""31022""
""focus"",""7"",""33202""
","""event"",""trial"",""time""
""blur"",""7"",""31022""
","""event"",""trial"",""time""
""focus"",""7"",""33202""
","""event"",""trial"",""time""
""fullscreenenter"",""1"",""5156""
","
","","","-1","","","19","4228","3097","b","elianto","#f73b6a7A","-1","-1","1","0","[]","0","2","","","4228","45","3","4","lose","no-go","0"
"pit-trial","164","1169629","0.0-50.0","battery-v0.2","","""event"",""trial"",""time""
""fullscreenenter"",""1"",""5156""
""blur"",""7"",""31022""
""focus"",""7"",""33202""
","""event"",""trial"",""time""
""blur"",""7"",""31022""
","""event"",""trial"",""time""
""focus"",""7"",""33202""
","""event"",""trial"",""time""
""fullscreenenter"",""1"",""5156""
","
","","","1012.4000000059605","","","19","4228","3097","t","elianto","#f73b6a7A"," "," ","1","0","[1865.2000000178814]","1","2","","","4228","46","2","3","lose","go","0"
"pit-trial","165","1173413","0.0-51.0","battery-v0.2","","""event"",""trial"",""time""
""fullscreenenter"",""1"",""5156""
""blur"",""7"",""31022""
""focus"",""7"",""33202""
","""event"",""trial"",""time""
""blur"",""7"",""31022""
","""event"",""trial"",""time""
""focus"",""7"",""33202""
","""event"",""trial"",""time""
""fullscreenenter"",""1"",""5156""
","
","","","924.1999999880791","","","19","4228","3097","n","elianto","#f73b6a7A"," "," ","1","0","[1779.300000011921]","1","2","","","4228","47","0","3","lose","go","0"
"pit-trial","166","1178277","0.0-52.0","battery-v0.2","","""event"",""trial"",""time""
""fullscreenenter"",""1"",""5156""
""blur"",""7"",""31022""
""focus"",""7"",""33202""
","""event"",""trial"",""time""
""blur"",""7"",""31022""
","""event"",""trial"",""time""
""focus"",""7"",""33202""
","""event"",""trial"",""time""
""fullscreenenter"",""1"",""5156""
","
","","","-1","","","19","4228","3097","f","elianto","#3366ff99","-1","-1","1","+10","[]","0","2","","","4228","48","1","2","win","no-go","0"
"pit-trial","167","1183141","0.0-53.0","battery-v0.2","","""event"",""trial"",""time""
""fullscreenenter"",""1"",""5156""
""blur"",""7"",""31022""
""focus"",""7"",""33202""
","""event"",""trial"",""time""
""blur"",""7"",""31022""
","""event"",""trial"",""time""
""focus"",""7"",""33202""
","""event"",""trial"",""time""
""fullscreenenter"",""1"",""5156""
","
","","","-1","","","19","4228","3097","b","elianto","#f73b6a7A","-1","-1","1","-10","[]","0","2","","","4228","49","3","4","lose","no-go","1"
"pit-trial","168","1188005","0.0-54.0","battery-v0.2","","""event"",""trial"",""time""
""fullscreenenter"",""1"",""5156""
""blur"",""7"",""31022""
""focus"",""7"",""33202""
","""event"",""trial"",""time""
""blur"",""7"",""31022""
","""event"",""trial"",""time""
""focus"",""7"",""33202""
","""event"",""trial"",""time""
""fullscreenenter"",""1"",""5156""
","
","","","-1","","","19","4228","3097","f","elianto","#3366ff99","-1","-1","1","+10","[]","0","2","","","4228","50","1","2","win","no-go","0"
"pit-trial","169","1192405","0.0-55.0","battery-v0.2","","""event"",""trial"",""time""
""fullscreenenter"",""1"",""5156""
""blur"",""7"",""31022""
""focus"",""7"",""33202""
","""event"",""trial"",""time""
""blur"",""7"",""31022""
","""event"",""trial"",""time""
""focus"",""7"",""33202""
","""event"",""trial"",""time""
""fullscreenenter"",""1"",""5156""
","
","","","1540.0999999940395","","","19","4228","3097","t","elianto","#f73b6a7A"," "," ","1","0","[2393.0999999940395]","1","2","","","4228","51","2","3","lose","go","0"
"pit-trial","170","1196181","0.0-56.0","battery-v0.2","","""event"",""trial"",""time""
""fullscreenenter"",""1"",""5156""
""blur"",""7"",""31022""
""focus"",""7"",""33202""
","""event"",""trial"",""time""
""blur"",""7"",""31022""
","""event"",""trial"",""time""
""focus"",""7"",""33202""
","""event"",""trial"",""time""
""fullscreenenter"",""1"",""5156""
","
","","","907.6999999880791","","","19","4228","3097","n","elianto","#f73b6a7A"," "," ","1","-10","[1767.9000000059605]","1","2","","","4228","52","0","3","lose","go","1"
"pit-trial","171","1199886","0.0-57.0","battery-v0.2","","""event"",""trial"",""time""
""fullscreenenter"",""1"",""5156""
""blur"",""7"",""31022""
""focus"",""7"",""33202""
","""event"",""trial"",""time""
""blur"",""7"",""31022""
","""event"",""trial"",""time""
""focus"",""7"",""33202""
","""event"",""trial"",""time""
""fullscreenenter"",""1"",""5156""
","
","","","843.8000000119209","","","19","4228","3097","n","elianto","#f73b6a7A"," "," ","1","0","[1694.1000000238419]","1","2","","","4228","53","0","3","lose","go","0"
"pit-trial","172","1204750","0.0-58.0","battery-v0.2","","""event"",""trial"",""time""
""fullscreenenter"",""1"",""5156""
""blur"",""7"",""31022""
""focus"",""7"",""33202""
","""event"",""trial"",""time""
""blur"",""7"",""31022""
","""event"",""trial"",""time""
""focus"",""7"",""33202""
","""event"",""trial"",""time""
""fullscreenenter"",""1"",""5156""
","
","","","-1","","","19","4228","3097","b","elianto","#f73b6a7A","-1","-1","1","0","[]","0","2","","","4228","54","3","4","lose","no-go","0"
"pit-trial","173","1209614","0.0-59.0","battery-v0.2","","""event"",""trial"",""time""
""fullscreenenter"",""1"",""5156""
""blur"",""7"",""31022""
""focus"",""7"",""33202""
","""event"",""trial"",""time""
""blur"",""7"",""31022""
","""event"",""trial"",""time""
""focus"",""7"",""33202""
","""event"",""trial"",""time""
""fullscreenenter"",""1"",""5156""
","
","","","-1","","","19","4228","3097","f","elianto","#3366ff99","-1","-1","1","+10","[]","0","2","","","4228","55","1","2","win","no-go","0"
"pit-trial","174","1214182","0.0-60.0","battery-v0.2","","""event"",""trial"",""time""
""fullscreenenter"",""1"",""5156""
""blur"",""7"",""31022""
""focus"",""7"",""33202""
","""event"",""trial"",""time""
""blur"",""7"",""31022""
","""event"",""trial"",""time""
""focus"",""7"",""33202""
","""event"",""trial"",""time""
""fullscreenenter"",""1"",""5156""
","
","","","1702.6000000238419","","","19","4228","3097","t","elianto","#f73b6a7A"," "," ","1","0","[2556.5]","1","2","","","4228","56","2","3","lose","go","0"
"pit-trial","175","1218038","0.0-61.0","battery-v0.2","","""event"",""trial"",""time""
""fullscreenenter"",""1"",""5156""
""blur"",""7"",""31022""
""focus"",""7"",""33202""
","""event"",""trial"",""time""
""blur"",""7"",""31022""
","""event"",""trial"",""time""
""focus"",""7"",""33202""
","""event"",""trial"",""time""
""fullscreenenter"",""1"",""5156""
","
","","","997.3000000119209","","","19","4228","3097","t","elianto","#f73b6a7A"," "," ","1","0","[1849.5999999940395]","1","2","","","4228","57","2","3","lose","go","0"
"pit-trial","176","1222750","0.0-62.0","battery-v0.2","","""event"",""trial"",""time""
""fullscreenenter"",""1"",""5156""
""blur"",""7"",""31022""
""focus"",""7"",""33202""
","""event"",""trial"",""time""
""blur"",""7"",""31022""
","""event"",""trial"",""time""
""focus"",""7"",""33202""
","""event"",""trial"",""time""
""fullscreenenter"",""1"",""5156""
","
","","","1850.5","","","19","4228","3097","c","elianto","#3366ff99"," "," ","1","+10","[2705.0999999940395]","1","2","","","4228","58","4","1","win","go","0"
"pit-trial","177","1227614","0.0-63.0","battery-v0.2","","""event"",""trial"",""time""
""fullscreenenter"",""1"",""5156""
""blur"",""7"",""31022""
""focus"",""7"",""33202""
","""event"",""trial"",""time""
""blur"",""7"",""31022""
","""event"",""trial"",""time""
""focus"",""7"",""33202""
","""event"",""trial"",""time""
""fullscreenenter"",""1"",""5156""
","
","","","-1","","","19","4228","3097","b","elianto","#f73b6a7A","-1","-1","1","-10","[]","0","2","","","4228","59","3","4","lose","no-go","1"
"pit-trial","178","1232303","0.0-64.0","battery-v0.2","","""event"",""trial"",""time""
""fullscreenenter"",""1"",""5156""
""blur"",""7"",""31022""
""focus"",""7"",""33202""
","""event"",""trial"",""time""
""blur"",""7"",""31022""
","""event"",""trial"",""time""
""focus"",""7"",""33202""
","""event"",""trial"",""time""
""fullscreenenter"",""1"",""5156""
","
","","","1821.4000000059605","","","19","4228","3097","n","elianto","#f73b6a7A"," "," ","1","0","[2679.4000000059605]","1","2","","","4228","60","0","3","lose","go","0"
"pit-trial","179","1237167","0.0-65.0","battery-v0.2","","""event"",""trial"",""time""
""fullscreenenter"",""1"",""5156""
""blur"",""7"",""31022""
""focus"",""7"",""33202""
","""event"",""trial"",""time""
""blur"",""7"",""31022""
","""event"",""trial"",""time""
""focus"",""7"",""33202""
","""event"",""trial"",""time""
""fullscreenenter"",""1"",""5156""
","
","","","-1","","","19","4228","3097","f","elianto","#3366ff99","-1","-1","1","0","[]","0","2","","","4228","61","1","2","win","no-go","1"
"pit-trial","180","1241046","0.0-66.0","battery-v0.2","","""event"",""trial"",""time""
""fullscreenenter"",""1"",""5156""
""blur"",""7"",""31022""
""focus"",""7"",""33202""
","""event"",""trial"",""time""
""blur"",""7"",""31022""
","""event"",""trial"",""time""
""focus"",""7"",""33202""
","""event"",""trial"",""time""
""fullscreenenter"",""1"",""5156""
","
","","","1016.0999999940395","","","19","4228","3097","c","elianto","#3366ff99"," "," ","1","+10","[1871.300000011921]","1","2","","","4228","62","4","1","win","go","0"
"pit-trial","181","1245911","0.0-67.0","battery-v0.2","","""event"",""trial"",""time""
""fullscreenenter"",""1"",""5156""
""blur"",""7"",""31022""
""focus"",""7"",""33202""
","""event"",""trial"",""time""
""blur"",""7"",""31022""
","""event"",""trial"",""time""
""focus"",""7"",""33202""
","""event"",""trial"",""time""
""fullscreenenter"",""1"",""5156""
","
","","","-1","","","19","4228","3097","t","elianto","#f73b6a7A"," ","-1","0","-10","[]","0","2","","","4228","63","2","3","lose","go","0"
"pit-trial","182","1250775","0.0-68.0","battery-v0.2","","""event"",""trial"",""time""
""fullscreenenter"",""1"",""5156""
""blur"",""7"",""31022""
""focus"",""7"",""33202""
","""event"",""trial"",""time""
""blur"",""7"",""31022""
","""event"",""trial"",""time""
""focus"",""7"",""33202""
","""event"",""trial"",""time""
""fullscreenenter"",""1"",""5156""
","
","","","-1","","","19","4228","3097","b","elianto","#f73b6a7A","-1","-1","1","0","[]","0","2","","","4228","64","3","4","lose","no-go","0"
"pit-trial","183","1255639","0.0-69.0","battery-v0.2","","""event"",""trial"",""time""
""fullscreenenter"",""1"",""5156""
""blur"",""7"",""31022""
""focus"",""7"",""33202""
","""event"",""trial"",""time""
""blur"",""7"",""31022""
","""event"",""trial"",""time""
""focus"",""7"",""33202""
","""event"",""trial"",""time""
""fullscreenenter"",""1"",""5156""
","
","","","-1","","","19","4228","3097","b","elianto","#f73b6a7A","-1","-1","1","0","[]","0","2","","","4228","65","3","4","lose","no-go","0"
"pit-trial","184","1259471","0.0-70.0","battery-v0.2","","""event"",""trial"",""time""
""fullscreenenter"",""1"",""5156""
""blur"",""7"",""31022""
""focus"",""7"",""33202""
","""event"",""trial"",""time""
""blur"",""7"",""31022""
","""event"",""trial"",""time""
""focus"",""7"",""33202""
","""event"",""trial"",""time""
""fullscreenenter"",""1"",""5156""
","
","","","969.8000000119209","","","19","4228","3097","c","elianto","#3366ff99"," "," ","1","+10","[1824.0999999940395]","1","2","","","4228","66","4","1","win","go","0"
"pit-trial","185","1264335","0.0-71.0","battery-v0.2","","""event"",""trial"",""time""
""fullscreenenter"",""1"",""5156""
""blur"",""7"",""31022""
""focus"",""7"",""33202""
","""event"",""trial"",""time""
""blur"",""7"",""31022""
","""event"",""trial"",""time""
""focus"",""7"",""33202""
","""event"",""trial"",""time""
""fullscreenenter"",""1"",""5156""
","
","","","-1","","","19","4228","3097","f","elianto","#3366ff99","-1","-1","1","+10","[]","0","2","","","4228","67","1","2","win","no-go","0"
"pit-trial","186","1269199","0.0-72.0","battery-v0.2","","""event"",""trial"",""time""
""fullscreenenter"",""1"",""5156""
""blur"",""7"",""31022""
""focus"",""7"",""33202""
","""event"",""trial"",""time""
""blur"",""7"",""31022""
","""event"",""trial"",""time""
""focus"",""7"",""33202""
","""event"",""trial"",""time""
""fullscreenenter"",""1"",""5156""
","
","","","-1","","","19","4228","3097","z","elianto","#3366ff99","-1","-1","1","0","[]","0","2","","","4228","68","5","2","win","no-go","1"
"pit-trial","187","1272991","0.0-73.0","battery-v0.2","","""event"",""trial"",""time""
""fullscreenenter"",""1"",""5156""
""blur"",""7"",""31022""
""focus"",""7"",""33202""
","""event"",""trial"",""time""
""blur"",""7"",""31022""
","""event"",""trial"",""time""
""focus"",""7"",""33202""
