"trial_type","trial_index","time_elapsed","internal_node_id","task_version","subject_id","interactions","blur_events","focus_events","fullscreenenter_events","fullscreenexit_events","success","view_history","rt","responses","num_errors","age","subject","participantId","rune","rune_set","hex","correct","choice","accuracy","outcome","keys","total_keys","block","practice","value","sub","trial","stimulus","robot","valence","action","sham"
"pavlovia","0","21","0.0-0.0","battery-v0.2","","""event"",""trial"",""time""
""fullscreenenter"",""1"",""3282""
","
","
","""event"",""trial"",""time""
""fullscreenenter"",""1"",""3282""
","
","","","","","","","","","","","","","","","","","","","","","","","","","","",""
"fullscreen","1","4281","0.0-1.0","battery-v0.2","","""event"",""trial"",""time""
""fullscreenenter"",""1"",""3282""
","
","
","""event"",""trial"",""time""
""fullscreenenter"",""1"",""3282""
","
","true","","","","","","","","","","","","","","","","","","","","","","","","","",""
"pit-instructions","2","9376","0.0-2.0-0.0","battery-v0.2","","""event"",""trial"",""time""
""fullscreenenter"",""1"",""3282""
","
","
","""event"",""trial"",""time""
""fullscreenenter"",""1"",""3282""
","
","","[{""page_index"":0,""viewing_time"":5092.699999809265}]","5093","","","","","","","","","","","","","","","","","","","","","","","",""
"pit-comprehension","3","12818","0.0-2.0-1.0-0.0","battery-v0.2","","""event"",""trial"",""time""
""fullscreenenter"",""1"",""3282""
","
","
","""event"",""trial"",""time""
""fullscreenenter"",""1"",""3282""
","
","","","3440.2000002861023","[""shark""]","0","15","9387","308","","","","","","","","","","","","","","","","","","",""
"pit-instructions","4","14496","0.0-2.0-1.0-1.0","battery-v0.2","","""event"",""trial"",""time""
""fullscreenenter"",""1"",""3282""
","
","
","""event"",""trial"",""time""
""fullscreenenter"",""1"",""3282""
","
","","[{""page_index"":0,""viewing_time"":1672.4000000953674}]","1672.5","","","","","","","","","","","","","","","","","","","","","","","",""
"pit-comprehension","5","16556","0.0-2.0-2.0-0.0","battery-v0.2","","""event"",""trial"",""time""
""fullscreenenter"",""1"",""3282""
","
","
","""event"",""trial"",""time""
""fullscreenenter"",""1"",""3282""
","
","","","2058.4000000953674","[""tiger""]","0","15","9387","308","","","","","","","","","","","","","","","","","","",""
"pit-instructions","6","17098","0.0-2.0-2.0-1.0","battery-v0.2","","""event"",""trial"",""time""
""fullscreenenter"",""1"",""3282""
","
","
","""event"",""trial"",""time""
""fullscreenenter"",""1"",""3282""
","
","","[{""page_index"":0,""viewing_time"":539.7999997138977}]","540","","","","","","","","","","","","","","","","","","","","","","","",""
"pit-instructions","7","106956","0.0-2.0-3.0","battery-v0.2","","""event"",""trial"",""time""
""fullscreenenter"",""1"",""3282""
","
","
","""event"",""trial"",""time""
""fullscreenenter"",""1"",""3282""
","
","","[{""page_index"":0,""viewing_time"":8934.199999809265},{""page_index"":1,""viewing_time"":5324},{""page_index"":2,""viewing_time"":6596.099999904633},{""page_index"":3,""viewing_time"":5107.900000095367},{""page_index"":4,""viewing_time"":6706},{""page_index"":5,""viewing_time"":5158.200000286102},{""page_index"":6,""viewing_time"":9094},{""page_index"":7,""viewing_time"":6215.89999961853},{""page_index"":8,""viewing_time"":6269.900000095367},{""page_index"":9,""viewing_time"":5210.099999904633},{""page_index"":10,""viewing_time"":7599.800000190735},{""page_index"":11,""viewing_time"":6718.199999809265},{""page_index"":12,""viewing_time"":6331.800000190735},{""page_index"":13,""viewing_time"":4590.099999904633}]","89856.40000009537","","","","","","","","","","","","","","","","","","","","","","","",""
"pit-trial","8","111820","0.0-2.0-4.0-0.0","battery-v0.2","","""event"",""trial"",""time""
""fullscreenenter"",""1"",""3282""
","
","
","""event"",""trial"",""time""
""fullscreenenter"",""1"",""3282""
","
","","","-1","","","15","9387","308","&#9784;","elianto","#FFFFF080"," ","-1","0","&#10060","[4400.699999809265]","1","0","0","","","","","","","",""
"pit-trial","9","116683","0.0-2.0-4.1-0.1","battery-v0.2","","""event"",""trial"",""time""
""fullscreenenter"",""1"",""3282""
","
","
","""event"",""trial"",""time""
""fullscreenenter"",""1"",""3282""
","
","","","-1","","","15","9387","308","&#9784;","elianto","#FFFFF080"," ","-1","0","&#10060","[4110.900000095367]","1","0","0","","","","","","","",""
"pit-trial","10","120165","0.0-2.0-4.2-0.2","battery-v0.2","","""event"",""trial"",""time""
""fullscreenenter"",""1"",""3282""
","
","
","""event"",""trial"",""time""
""fullscreenenter"",""1"",""3282""
","
","","","620.6999998092651","","","15","9387","308","&#9784;","elianto","#FFFFF080"," "," ","1","&#10004","[1474.3000001907349]","1","0","0","","","","","","","",""
"pit-trial","11","123548","0.0-2.0-4.3-0.3","battery-v0.2","","""event"",""trial"",""time""
""fullscreenenter"",""1"",""3282""
","
","
","""event"",""trial"",""time""
""fullscreenenter"",""1"",""3282""
","
","","","522","","","15","9387","308","&#9784;","elianto","#FFFFF080"," "," ","1","&#10004","[1374.2000002861023]","1","0","0","","","","","","","",""
"pit-trial","12","126634","0.0-2.0-4.4-0.4","battery-v0.2","","""event"",""trial"",""time""
""fullscreenenter"",""1"",""3282""
","
","
","""event"",""trial"",""time""
""fullscreenenter"",""1"",""3282""
","
","","","225.09999990463257","","","15","9387","308","&#9784;","elianto","#FFFFF080"," "," ","1","&#10004","[1081]","1","0","0","","","","","","","",""
"pit-instructions","13","155020","0.0-2.0-5.0","battery-v0.2","","""event"",""trial"",""time""
""fullscreenenter"",""1"",""3282""
","
","
","""event"",""trial"",""time""
""fullscreenenter"",""1"",""3282""
","
","","[{""page_index"":0,""viewing_time"":7702.199999809265},{""page_index"":1,""viewing_time"":8606},{""page_index"":2,""viewing_time"":6837.900000095367},{""page_index"":3,""viewing_time"":5237.900000095367}]","28384.199999809265","","","","","","","","","","","","","","","","","","","","","","","",""
"pit-trial","14","158726","0.0-2.0-6.0-0.0","battery-v0.2","","""event"",""trial"",""time""
""fullscreenenter"",""1"",""3282""
","
","
","""event"",""trial"",""time""
""fullscreenenter"",""1"",""3282""
","
","","","840.0999999046326","","","15","9387","308","&#9854;","elianto","#FFFFF080","-1"," ","0","&#10060","[1695.4000000953674]","1","0","1","","","","","","","",""
"pit-trial","15","163589","0.0-2.0-6.1-0.1","battery-v0.2","","""event"",""trial"",""time""
""fullscreenenter"",""1"",""3282""
","
","
","""event"",""trial"",""time""
""fullscreenenter"",""1"",""3282""
","
","","","-1","","","15","9387","308","&#9854;","elianto","#FFFFF080","-1","-1","1","&#10004","[]","0","0","1","","","","","","","",""
"pit-trial","16","168451","0.0-2.0-6.2-0.2","battery-v0.2","","""event"",""trial"",""time""
""fullscreenenter"",""1"",""3282""
","
","
","""event"",""trial"",""time""
""fullscreenenter"",""1"",""3282""
","
","","","-1","","","15","9387","308","&#9854;","elianto","#FFFFF080","-1","-1","1","&#10004","[]","0","0","1","","","","","","","",""
"pit-trial","17","173317","0.0-2.0-6.3-0.3","battery-v0.2","","""event"",""trial"",""time""
""fullscreenenter"",""1"",""3282""
","
","
","""event"",""trial"",""time""
""fullscreenenter"",""1"",""3282""
","
","","","-1","","","15","9387","308","&#9854;","elianto","#FFFFF080","-1","-1","1","&#10004","[]","0","0","1","","","","","","","",""
"pit-trial","18","178183","0.0-2.0-6.4-0.4","battery-v0.2","","""event"",""trial"",""time""
""fullscreenenter"",""1"",""3282""
","
","
","""event"",""trial"",""time""
""fullscreenenter"",""1"",""3282""
","
","","","-1","","","15","9387","308","&#9854;","elianto","#FFFFF080","-1","-1","1","&#10004","[]","0","0","1","","","","","","","",""
"pit-instructions","19","288765","0.0-2.0-7.0","battery-v0.2","","""event"",""trial"",""time""
""fullscreenenter"",""1"",""3282""
","
","
","""event"",""trial"",""time""
""fullscreenenter"",""1"",""3282""
","
","","[{""page_index"":0,""viewing_time"":5311.799999713898},{""page_index"":1,""viewing_time"":6099.900000095367},{""page_index"":2,""viewing_time"":6106.199999809265},{""page_index"":3,""viewing_time"":6151.900000095367},{""page_index"":4,""viewing_time"":5078},{""page_index"":5,""viewing_time"":5806},{""page_index"":6,""viewing_time"":5654},{""page_index"":7,""viewing_time"":7306},{""page_index"":8,""viewing_time"":6112.099999904633},{""page_index"":9,""viewing_time"":5547.900000095367},{""page_index"":10,""viewing_time"":6594},{""page_index"":11,""viewing_time"":4644.099999904633},{""page_index"":12,""viewing_time"":7722},{""page_index"":13,""viewing_time"":6592},{""page_index"":14,""viewing_time"":6708.10000038147},{""page_index"":15,""viewing_time"":6333.89999961853},{""page_index"":16,""viewing_time"":6125.900000095367},{""page_index"":17,""viewing_time"":6686.099999904633}]","110580.09999990463","","","","","","","","","","","","","","","","","","","","","","","",""
"pit-trial","20","292092","0.0-2.0-8.0-0.0","battery-v0.2","","""event"",""trial"",""time""
""fullscreenenter"",""1"",""3282""
","
","
","""event"",""trial"",""time""
""fullscreenenter"",""1"",""3282""
","
","","","465.7000002861023","","","15","9387","308","&#9776;","elianto","#3366ff99"," "," ","1","+10","[1320.8999996185303]","1","0","1","","","","","","","",""
"pit-trial","21","295397","0.0-2.0-8.0-1.0","battery-v0.2","","""event"",""trial"",""time""
""fullscreenenter"",""1"",""3282""
","
","
","""event"",""trial"",""time""
""fullscreenenter"",""1"",""3282""
","
","","","442.6000003814697","","","15","9387","308","&#9776;","elianto","#3366ff99"," "," ","1","+10","[1296.5]","1","0","1","","","","","","","",""
"pit-trial","22","298692","0.0-2.0-8.0-2.0","battery-v0.2","","""event"",""trial"",""time""
""fullscreenenter"",""1"",""3282""
","
","
","""event"",""trial"",""time""
""fullscreenenter"",""1"",""3282""
","
","","","431.90000009536743","","","15","9387","308","&#9776;","elianto","#3366ff99"," "," ","1","+10","[1288.5]","1","0","1","","","","","","","",""
"pit-trial","23","301991","0.0-2.0-8.0-3.0","battery-v0.2","","""event"",""trial"",""time""
""fullscreenenter"",""1"",""3282""
","
","
","""event"",""trial"",""time""
""fullscreenenter"",""1"",""3282""
","
","","","434.40000009536743","","","15","9387","308","&#9776;","elianto","#3366ff99"," "," ","1","0","[1288.5]","1","0","1","","","","","","","",""
"pit-trial","24","305324","0.0-2.0-8.0-4.0","battery-v0.2","","""event"",""trial"",""time""
""fullscreenenter"",""1"",""3282""
","
","
","""event"",""trial"",""time""
""fullscreenenter"",""1"",""3282""
","
","","","472.40000009536743","","","15","9387","308","&#9776;","elianto","#3366ff99"," "," ","1","+10","[1326.9000000953674]","1","0","1","","","","","","","",""
"pit-trial","25","308462","0.0-2.0-8.1-0.1","battery-v0.2","","""event"",""trial"",""time""
""fullscreenenter"",""1"",""3282""
","
","
","""event"",""trial"",""time""
""fullscreenenter"",""1"",""3282""
","
","","","273.59999990463257","","","15","9387","308","&#9776;","elianto","#3366ff99"," "," ","1","+10","[1127.8000001907349]","1","0","1","","","","","","","",""
"pit-trial","26","311750","0.0-2.0-8.1-1.1","battery-v0.2","","""event"",""trial"",""time""
""fullscreenenter"",""1"",""3282""
","
","
","""event"",""trial"",""time""
""fullscreenenter"",""1"",""3282""
","
","","","425.90000009536743","","","15","9387","308","&#9776;","elianto","#3366ff99"," "," ","1","+10","[1280]","1","0","1","","","","","","","",""
"pit-trial","27","315062","0.0-2.0-8.1-2.1","battery-v0.2","","""event"",""trial"",""time""
""fullscreenenter"",""1"",""3282""
","
","
","""event"",""trial"",""time""
""fullscreenenter"",""1"",""3282""
","
","","","450.6000003814697","","","15","9387","308","&#9776;","elianto","#3366ff99"," "," ","1","+10","[1301.8000001907349]","1","0","1","","","","","","","",""
"pit-trial","28","318365","0.0-2.0-8.1-3.1","battery-v0.2","","""event"",""trial"",""time""
""fullscreenenter"",""1"",""3282""
","
","
","""event"",""trial"",""time""
""fullscreenenter"",""1"",""3282""
","
","","","442.69999980926514","","","15","9387","308","&#9776;","elianto","#3366ff99"," "," ","1","0","[1296]","1","0","1","","","","","","","",""
"pit-trial","29","321701","0.0-2.0-8.1-4.1","battery-v0.2","","""event"",""trial"",""time""
""fullscreenenter"",""1"",""3282""
","
","
","""event"",""trial"",""time""
""fullscreenenter"",""1"",""3282""
","
","","","471.7000002861023","","","15","9387","308","&#9776;","elianto","#3366ff99"," "," ","1","+10","[1327.6000003814697]","1","0","1","","","","","","","",""
"pit-trial","30","325047","0.0-2.0-8.2-0.2","battery-v0.2","","""event"",""trial"",""time""
""fullscreenenter"",""1"",""3282""
","
","
","""event"",""trial"",""time""
""fullscreenenter"",""1"",""3282""
","
","","","485","","","15","9387","308","&#9776;","elianto","#3366ff99"," "," ","1","+10","[1337.0999999046326]","1","0","1","","","","","","","",""
"pit-trial","31","328372","0.0-2.0-8.2-1.2","battery-v0.2","","""event"",""trial"",""time""
""fullscreenenter"",""1"",""3282""
","
","
","""event"",""trial"",""time""
""fullscreenenter"",""1"",""3282""
","
","","","465.40000009536743","","","15","9387","308","&#9776;","elianto","#3366ff99"," "," ","1","+10","[1317.7000002861023]","1","0","1","","","","","","","",""
"pit-trial","32","331535","0.0-2.0-8.2-2.2","battery-v0.2","","""event"",""trial"",""time""
""fullscreenenter"",""1"",""3282""
","
","
","""event"",""trial"",""time""
""fullscreenenter"",""1"",""3282""
","
","","","301.1000003814697","","","15","9387","308","&#9776;","elianto","#3366ff99"," "," ","1","+10","[772.5,1152.6000003814697]","2","0","1","","","","","","","",""
"pit-trial","33","335222","0.0-2.0-8.2-3.2","battery-v0.2","","""event"",""trial"",""time""
""fullscreenenter"",""1"",""3282""
","
","
","""event"",""trial"",""time""
""fullscreenenter"",""1"",""3282""
","
","","","826.0999999046326","","","15","9387","308","&#9776;","elianto","#3366ff99"," "," ","1","0","[1679.1999998092651]","1","0","1","","","","","","","",""
"pit-trial","34","338141","0.0-2.0-8.2-4.2","battery-v0.2","","""event"",""trial"",""time""
""fullscreenenter"",""1"",""3282""
","
","
","""event"",""trial"",""time""
""fullscreenenter"",""1"",""3282""
","
","","","56.799999713897705","","","15","9387","308","&#9776;","elianto","#3366ff99"," "," ","1","+10","[910.7999997138977,1200.6999998092651,1671,1928.5999999046326,2359.0999999046326,2840.5999999046326]","6","0","1","","","","","","","",""
"call-function","35","338142","0.0-2.0-9.0","battery-v0.2","","""event"",""trial"",""time""
""fullscreenenter"",""1"",""3282""
","
","
","""event"",""trial"",""time""
""fullscreenenter"",""1"",""3282""
","
","","","","","","","","","","","","","","","","","","","","","","","","","","",""
"pit-instructions","36","377989","0.0-2.0-10.0","battery-v0.2","","""event"",""trial"",""time""
""fullscreenenter"",""1"",""3282""
","
","
","""event"",""trial"",""time""
""fullscreenenter"",""1"",""3282""
","
","","[{""page_index"":0,""viewing_time"":6268.299999713898},{""page_index"":1,""viewing_time"":6641.900000095367},{""page_index"":2,""viewing_time"":9192.099999904633},{""page_index"":3,""viewing_time"":10632},{""page_index"":4,""viewing_time"":7111.900000095367}]","39846.40000009537","","","","","","","","","","","","","","","","","","","","","","","",""
"pit-trial","37","382851","0.0-2.0-11.0-0.0","battery-v0.2","","""event"",""trial"",""time""
""fullscreenenter"",""1"",""3282""
","
","
","""event"",""trial"",""time""
""fullscreenenter"",""1"",""3282""
","
","","","-1","","","15","9387","308","&#9761;","elianto","#3366ff99","-1","-1","1","+10","[]","0","0","2","","","","","","","",""
"pit-trial","38","387718","0.0-2.0-11.0-1.0","battery-v0.2","","""event"",""trial"",""time""
""fullscreenenter"",""1"",""3282""
","
","
","""event"",""trial"",""time""
""fullscreenenter"",""1"",""3282""
","
","","","-1","","","15","9387","308","&#9761;","elianto","#3366ff99","-1","-1","1","+10","[]","0","0","2","","","","","","","",""
"pit-trial","39","392579","0.0-2.0-11.0-2.0","battery-v0.2","","""event"",""trial"",""time""
""fullscreenenter"",""1"",""3282""
","
","
","""event"",""trial"",""time""
""fullscreenenter"",""1"",""3282""
","
","","","-1","","","15","9387","308","&#9761;","elianto","#3366ff99","-1","-1","1","+10","[]","0","0","2","","","","","","","",""
"pit-trial","40","397444","0.0-2.0-11.0-3.0","battery-v0.2","","""event"",""trial"",""time""
""fullscreenenter"",""1"",""3282""
","
","
","""event"",""trial"",""time""
""fullscreenenter"",""1"",""3282""
","
","","","-1","","","15","9387","308","&#9761;","elianto","#3366ff99","-1","-1","1","0","[]","0","0","2","","","","","","","",""
"pit-trial","41","402308","0.0-2.0-11.0-4.0","battery-v0.2","","""event"",""trial"",""time""
""fullscreenenter"",""1"",""3282""
","
","
","""event"",""trial"",""time""
""fullscreenenter"",""1"",""3282""
","
","","","-1","","","15","9387","308","&#9761;","elianto","#3366ff99","-1","-1","1","+10","[]","0","0","2","","","","","","","",""
"pit-trial","42","407175","0.0-2.0-11.1-0.1","battery-v0.2","","""event"",""trial"",""time""
""fullscreenenter"",""1"",""3282""
","
","
","""event"",""trial"",""time""
""fullscreenenter"",""1"",""3282""
","
","","","-1","","","15","9387","308","&#9761;","elianto","#3366ff99","-1","-1","1","+10","[]","0","0","2","","","","","","","",""
"pit-trial","43","412039","0.0-2.0-11.1-1.1","battery-v0.2","","""event"",""trial"",""time""
""fullscreenenter"",""1"",""3282""
","
","
","""event"",""trial"",""time""
""fullscreenenter"",""1"",""3282""
","
","","","-1","","","15","9387","308","&#9761;","elianto","#3366ff99","-1","-1","1","+10","[]","0","0","2","","","","","","","",""
"pit-trial","44","416903","0.0-2.0-11.1-2.1","battery-v0.2","","""event"",""trial"",""time""
""fullscreenenter"",""1"",""3282""
","
","
","""event"",""trial"",""time""
""fullscreenenter"",""1"",""3282""
","
","","","-1","","","15","9387","308","&#9761;","elianto","#3366ff99","-1","-1","1","+10","[]","0","0","2","","","","","","","",""
"pit-trial","45","421766","0.0-2.0-11.1-3.1","battery-v0.2","","""event"",""trial"",""time""
""fullscreenenter"",""1"",""3282""
","
","
","""event"",""trial"",""time""
""fullscreenenter"",""1"",""3282""
","
","","","-1","","","15","9387","308","&#9761;","elianto","#3366ff99","-1","-1","1","0","[]","0","0","2","","","","","","","",""
"pit-trial","46","426630","0.0-2.0-11.1-4.1","battery-v0.2","","""event"",""trial"",""time""
""fullscreenenter"",""1"",""3282""
","
","
","""event"",""trial"",""time""
""fullscreenenter"",""1"",""3282""
","
","","","-1","","","15","9387","308","&#9761;","elianto","#3366ff99","-1","-1","1","+10","[]","0","0","2","","","","","","","",""
"pit-trial","47","431496","0.0-2.0-11.2-0.2","battery-v0.2","","""event"",""trial"",""time""
""fullscreenenter"",""1"",""3282""
","
","
","""event"",""trial"",""time""
""fullscreenenter"",""1"",""3282""
","
","","","-1","","","15","9387","308","&#9761;","elianto","#3366ff99","-1","-1","1","+10","[]","0","0","2","","","","","","","",""
"pit-trial","48","436368","0.0-2.0-11.2-1.2","battery-v0.2","","""event"",""trial"",""time""
""fullscreenenter"",""1"",""3282""
","
","
","""event"",""trial"",""time""
""fullscreenenter"",""1"",""3282""
","
","","","-1","","","15","9387","308","&#9761;","elianto","#3366ff99","-1","-1","1","+10","[]","0","0","2","","","","","","","",""
"pit-trial","49","441230","0.0-2.0-11.2-2.2","battery-v0.2","","""event"",""trial"",""time""
""fullscreenenter"",""1"",""3282""
","
","
","""event"",""trial"",""time""
""fullscreenenter"",""1"",""3282""
","
","","","-1","","","15","9387","308","&#9761;","elianto","#3366ff99","-1","-1","1","+10","[]","0","0","2","","","","","","","",""
"pit-trial","50","446094","0.0-2.0-11.2-3.2","battery-v0.2","","""event"",""trial"",""time""
""fullscreenenter"",""1"",""3282""
","
","
","""event"",""trial"",""time""
""fullscreenenter"",""1"",""3282""
","
","","","-1","","","15","9387","308","&#9761;","elianto","#3366ff99","-1","-1","1","0","[]","0","0","2","","","","","","","",""
"pit-trial","51","450957","0.0-2.0-11.2-4.2","battery-v0.2","","""event"",""trial"",""time""
""fullscreenenter"",""1"",""3282""
","
","
","""event"",""trial"",""time""
""fullscreenenter"",""1"",""3282""
","
","","","-1","","","15","9387","308","&#9761;","elianto","#3366ff99","-1","-1","1","+10","[]","0","0","2","","","","","","","",""
"pit-trial","52","455815","0.0-2.0-11.3-0.3","battery-v0.2","","""event"",""trial"",""time""
""fullscreenenter"",""1"",""3282""
","
","
","""event"",""trial"",""time""
""fullscreenenter"",""1"",""3282""
","
","","","-1","","","15","9387","308","&#9761;","elianto","#3366ff99","-1","-1","1","+10","[]","0","0","2","","","","","","","",""
"pit-trial","53","460671","0.0-2.0-11.3-1.3","battery-v0.2","","""event"",""trial"",""time""
""fullscreenenter"",""1"",""3282""
","
","
","""event"",""trial"",""time""
""fullscreenenter"",""1"",""3282""
","
","","","-1","","","15","9387","308","&#9761;","elianto","#3366ff99","-1","-1","1","+10","[]","0","0","2","","","","","","","",""
"pit-trial","54","465536","0.0-2.0-11.3-2.3","battery-v0.2","","""event"",""trial"",""time""
""fullscreenenter"",""1"",""3282""
","
","
","""event"",""trial"",""time""
""fullscreenenter"",""1"",""3282""
","
","","","-1","","","15","9387","308","&#9761;","elianto","#3366ff99","-1","-1","1","+10","[]","0","0","2","","","","","","","",""
"pit-trial","55","470398","0.0-2.0-11.3-3.3","battery-v0.2","","""event"",""trial"",""time""
""fullscreenenter"",""1"",""3282""
","
","
","""event"",""trial"",""time""
""fullscreenenter"",""1"",""3282""
","
","","","-1","","","15","9387","308","&#9761;","elianto","#3366ff99","-1","-1","1","0","[]","0","0","2","","","","","","","",""
"pit-trial","56","475263","0.0-2.0-11.3-4.3","battery-v0.2","","""event"",""trial"",""time""
""fullscreenenter"",""1"",""3282""
","
","
","""event"",""trial"",""time""
""fullscreenenter"",""1"",""3282""
","
","","","-1","","","15","9387","308","&#9761;","elianto","#3366ff99","-1","-1","1","+10","[]","0","0","2","","","","","","","",""
"call-function","57","475264","0.0-2.0-12.0","battery-v0.2","","""event"",""trial"",""time""
""fullscreenenter"",""1"",""3282""
","
","
","""event"",""trial"",""time""
""fullscreenenter"",""1"",""3282""
","
","","","","","","","","","","","","","","","","","","","","","","","","","","",""
"pit-instructions","58","505858","0.0-2.0-13.0","battery-v0.2","","""event"",""trial"",""time""
""fullscreenenter"",""1"",""3282""
","
","
","""event"",""trial"",""time""
""fullscreenenter"",""1"",""3282""
","
","","[{""page_index"":0,""viewing_time"":5313.599999904633},{""page_index"":1,""viewing_time"":6864},{""page_index"":2,""viewing_time"":3007.800000190735},{""page_index"":3,""viewing_time"":10158.199999809265},{""page_index"":4,""viewing_time"":5250}]","30593.700000286102","","","","","","","","","","","","","","","","","","","","","","","",""
"pit-trial","59","508863","0.0-2.0-14.0-0.0","battery-v0.2","","""event"",""trial"",""time""
""fullscreenenter"",""1"",""3282""
","
","
","""event"",""trial"",""time""
""fullscreenenter"",""1"",""3282""
","
","","","139.19999980926514","","","15","9387","308","&#9826;","elianto","#f73b6a7A","-1"," ","0","-10","[997.1999998092651,1227.3000001907349]","2","0","3","","","","","","","",""
"pit-trial","60","512111","0.0-2.0-14.0-1.0","battery-v0.2","","""event"",""trial"",""time""
""fullscreenenter"",""1"",""3282""
","
","
","""event"",""trial"",""time""
""fullscreenenter"",""1"",""3282""
","
","","","387.3999996185303","","","15","9387","308","&#9826;","elianto","#f73b6a7A","-1"," ","0","-10","[1240.1999998092651]","1","0","3","","","","","","","",""
"pit-trial","61","516973","0.0-2.0-14.0-2.0","battery-v0.2","","""event"",""trial"",""time""
""fullscreenenter"",""1"",""3282""
","
","
","""event"",""trial"",""time""
""fullscreenenter"",""1"",""3282""
","
","","","-1","","","15","9387","308","&#9826;","elianto","#f73b6a7A","-1","-1","1","0","[]","0","0","3","","","","","","","",""
"pit-trial","62","521838","0.0-2.0-14.0-3.0","battery-v0.2","","""event"",""trial"",""time""
""fullscreenenter"",""1"",""3282""
","
","
","""event"",""trial"",""time""
""fullscreenenter"",""1"",""3282""
","
","","","-1","","","15","9387","308","&#9826;","elianto","#f73b6a7A","-1","-1","1","-10","[]","0","0","3","","","","","","","",""
"pit-trial","63","526699","0.0-2.0-14.0-4.0","battery-v0.2","","""event"",""trial"",""time""
""fullscreenenter"",""1"",""3282""
","
","
","""event"",""trial"",""time""
""fullscreenenter"",""1"",""3282""
","
","","","-1","","","15","9387","308","&#9826;","elianto","#f73b6a7A","-1","-1","1","0","[]","0","0","3","","","","","","","",""
"pit-trial","64","531564","0.0-2.0-14.1-0.1","battery-v0.2","","""event"",""trial"",""time""
""fullscreenenter"",""1"",""3282""
","
","
","""event"",""trial"",""time""
""fullscreenenter"",""1"",""3282""
","
","","","-1","","","15","9387","308","&#9826;","elianto","#f73b6a7A","-1","-1","1","0","[]","0","0","3","","","","","","","",""
"pit-trial","65","536430","0.0-2.0-14.1-1.1","battery-v0.2","","""event"",""trial"",""time""
""fullscreenenter"",""1"",""3282""
","
","
","""event"",""trial"",""time""
""fullscreenenter"",""1"",""3282""
","
","","","-1","","","15","9387","308","&#9826;","elianto","#f73b6a7A","-1","-1","1","0","[]","0","0","3","","","","","","","",""
"pit-trial","66","541295","0.0-2.0-14.1-2.1","battery-v0.2","","""event"",""trial"",""time""
""fullscreenenter"",""1"",""3282""
","
","
","""event"",""trial"",""time""
""fullscreenenter"",""1"",""3282""
","
","","","-1","","","15","9387","308","&#9826;","elianto","#f73b6a7A","-1","-1","1","0","[]","0","0","3","","","","","","","",""
"pit-trial","67","546160","0.0-2.0-14.1-3.1","battery-v0.2","","""event"",""trial"",""time""
""fullscreenenter"",""1"",""3282""
","
","
","""event"",""trial"",""time""
""fullscreenenter"",""1"",""3282""
","
","","","-1","","","15","9387","308","&#9826;","elianto","#f73b6a7A","-1","-1","1","-10","[]","0","0","3","","","","","","","",""
"pit-trial","68","551023","0.0-2.0-14.1-4.1","battery-v0.2","","""event"",""trial"",""time""
""fullscreenenter"",""1"",""3282""
","
","
","""event"",""trial"",""time""
""fullscreenenter"",""1"",""3282""
","
","","","-1","","","15","9387","308","&#9826;","elianto","#f73b6a7A","-1","-1","1","0","[]","0","0","3","","","","","","","",""
"pit-trial","69","555887","0.0-2.0-14.2-0.2","battery-v0.2","","""event"",""trial"",""time""
""fullscreenenter"",""1"",""3282""
","
","
","""event"",""trial"",""time""
""fullscreenenter"",""1"",""3282""
","
","","","-1","","","15","9387","308","&#9826;","elianto","#f73b6a7A","-1","-1","1","0","[]","0","0","3","","","","","","","",""
"pit-trial","70","560748","0.0-2.0-14.2-1.2","battery-v0.2","","""event"",""trial"",""time""
""fullscreenenter"",""1"",""3282""
""blur"",""71"",""563916""
","""event"",""trial"",""time""
""blur"",""71"",""563916""
","
","""event"",""trial"",""time""
""fullscreenenter"",""1"",""3282""
","
","","","-1","","","15","9387","308","&#9826;","elianto","#f73b6a7A","-1","-1","1","0","[]","0","0","3","","","","","","","",""
"pit-trial","71","565613","0.0-2.0-14.2-2.2","battery-v0.2","","""event"",""trial"",""time""
""fullscreenenter"",""1"",""3282""
""blur"",""71"",""563916""
""focus"",""72"",""570042""
","""event"",""trial"",""time""
""blur"",""71"",""563916""
","""event"",""trial"",""time""
""focus"",""72"",""570042""
","""event"",""trial"",""time""
""fullscreenenter"",""1"",""3282""
","
","","","-1","","","15","9387","308","&#9826;","elianto","#f73b6a7A","-1","-1","1","0","[]","0","0","3","","","","","","","",""
"pit-trial","72","570478","0.0-2.0-14.2-3.2","battery-v0.2","","""event"",""trial"",""time""
""fullscreenenter"",""1"",""3282""
""blur"",""71"",""563916""
""focus"",""72"",""570042""
","""event"",""trial"",""time""
""blur"",""71"",""563916""
","""event"",""trial"",""time""
""focus"",""72"",""570042""
","""event"",""trial"",""time""
""fullscreenenter"",""1"",""3282""
","
","","","-1","","","15","9387","308","&#9826;","elianto","#f73b6a7A","-1","-1","1","-10","[]","0","0","3","","","","","","","",""
"pit-trial","73","575343","0.0-2.0-14.2-4.2","battery-v0.2","","""event"",""trial"",""time""
""fullscreenenter"",""1"",""3282""
""blur"",""71"",""563916""
""focus"",""72"",""570042""
","""event"",""trial"",""time""
""blur"",""71"",""563916""
","""event"",""trial"",""time""
""focus"",""72"",""570042""
","""event"",""trial"",""time""
""fullscreenenter"",""1"",""3282""
","
","","","-1","","","15","9387","308","&#9826;","elianto","#f73b6a7A","-1","-1","1","0","[]","0","0","3","","","","","","","",""
"pit-trial","74","580206","0.0-2.0-14.3-0.3","battery-v0.2","","""event"",""trial"",""time""
""fullscreenenter"",""1"",""3282""
""blur"",""71"",""563916""
""focus"",""72"",""570042""
","""event"",""trial"",""time""
""blur"",""71"",""563916""
","""event"",""trial"",""time""
""focus"",""72"",""570042""
","""event"",""trial"",""time""
""fullscreenenter"",""1"",""3282""
","
","","","-1","","","15","9387","308","&#9826;","elianto","#f73b6a7A","-1","-1","1","0","[]","0","0","3","","","","","","","",""
"pit-trial","75","585071","0.0-2.0-14.3-1.3","battery-v0.2","","""event"",""trial"",""time""
""fullscreenenter"",""1"",""3282""
""blur"",""71"",""563916""
""focus"",""72"",""570042""
","""event"",""trial"",""time""
""blur"",""71"",""563916""
","""event"",""trial"",""time""
""focus"",""72"",""570042""
","""event"",""trial"",""time""
""fullscreenenter"",""1"",""3282""
","
","","","-1","","","15","9387","308","&#9826;","elianto","#f73b6a7A","-1","-1","1","0","[]","0","0","3","","","","","","","",""
"pit-trial","76","589936","0.0-2.0-14.3-2.3","battery-v0.2","","""event"",""trial"",""time""
""fullscreenenter"",""1"",""3282""
""blur"",""71"",""563916""
""focus"",""72"",""570042""
","""event"",""trial"",""time""
""blur"",""71"",""563916""
","""event"",""trial"",""time""
""focus"",""72"",""570042""
","""event"",""trial"",""time""
""fullscreenenter"",""1"",""3282""
","
","","","-1","","","15","9387","308","&#9826;","elianto","#f73b6a7A","-1","-1","1","0","[]","0","0","3","","","","","","","",""
"pit-trial","77","594800","0.0-2.0-14.3-3.3","battery-v0.2","","""event"",""trial"",""time""
""fullscreenenter"",""1"",""3282""
""blur"",""71"",""563916""
""focus"",""72"",""570042""
""blur"",""78"",""596112""
","""event"",""trial"",""time""
""blur"",""71"",""563916""
""blur"",""78"",""596112""
","""event"",""trial"",""time""
""focus"",""72"",""570042""
","""event"",""trial"",""time""
""fullscreenenter"",""1"",""3282""
","
","","","-1","","","15","9387","308","&#9826;","elianto","#f73b6a7A","-1","-1","1","-10","[]","0","0","3","","","","","","","",""
"pit-trial","78","599663","0.0-2.0-14.3-4.3","battery-v0.2","","""event"",""trial"",""time""
""fullscreenenter"",""1"",""3282""
""blur"",""71"",""563916""
""focus"",""72"",""570042""
""blur"",""78"",""596112""
","""event"",""trial"",""time""
""blur"",""71"",""563916""
""blur"",""78"",""596112""
","""event"",""trial"",""time""
""focus"",""72"",""570042""
","""event"",""trial"",""time""
""fullscreenenter"",""1"",""3282""
","
","","","-1","","","15","9387","308","&#9826;","elianto","#f73b6a7A","-1","-1","1","0","[]","0","0","3","","","","","","","",""
"call-function","79","599664","0.0-2.0-15.0","battery-v0.2","","""event"",""trial"",""time""
""fullscreenenter"",""1"",""3282""
""blur"",""71"",""563916""
""focus"",""72"",""570042""
""blur"",""78"",""596112""
""focus"",""80"",""600532""
","""event"",""trial"",""time""
""blur"",""71"",""563916""
""blur"",""78"",""596112""
","""event"",""trial"",""time""
""focus"",""72"",""570042""
""focus"",""80"",""600532""
","""event"",""trial"",""time""
""fullscreenenter"",""1"",""3282""
","
","","","","","","","","","","","","","","","","","","","","","","","","","","",""
"pit-instructions","80","626454","0.0-2.0-16.0","battery-v0.2","","""event"",""trial"",""time""
""fullscreenenter"",""1"",""3282""
""blur"",""71"",""563916""
""focus"",""72"",""570042""
""blur"",""78"",""596112""
""focus"",""80"",""600532""
","""event"",""trial"",""time""
""blur"",""71"",""563916""
""blur"",""78"",""596112""
","""event"",""trial"",""time""
""focus"",""72"",""570042""
""focus"",""80"",""600532""
","""event"",""trial"",""time""
""fullscreenenter"",""1"",""3282""
","
","","[{""page_index"":0,""viewing_time"":10397.799999713898},{""page_index"":1,""viewing_time"":8031.900000095367},{""page_index"":2,""viewing_time"":4200.099999904633},{""page_index"":3,""viewing_time"":4160.10000038147}]","26790.099999904633","","","","","","","","","","","","","","","","","","","","","","","",""
"pit-trial","81","629437","0.0-2.0-17.0-0.0","battery-v0.2","","""event"",""trial"",""time""
""fullscreenenter"",""1"",""3282""
""blur"",""71"",""563916""
""focus"",""72"",""570042""
""blur"",""78"",""596112""
""focus"",""80"",""600532""
","""event"",""trial"",""time""
""blur"",""71"",""563916""
""blur"",""78"",""596112""
","""event"",""trial"",""time""
""focus"",""72"",""570042""
""focus"",""80"",""600532""
","""event"",""trial"",""time""
""fullscreenenter"",""1"",""3282""
","
","","","125.89999961853027","","","15","9387","308","&#9789;","elianto","#f73b6a7A"," "," ","1","0","[55.40000009536743,233.2000002861023,353.80000019073486,505.59999990463257,831.0999999046326,976.5999999046326,1103.2000002861023,1232.8000001907349,1375.2000002861023,1496.8000001907349,1695.3000001907349,1792.8000001907349,1943.2000002861023,2056.9000000953674,2239.2000002861023,2344.7000002861023,2503.2000002861023,2808.9000000953674,2911.2000002861023]","19","0","4","","","","","","","",""
"pit-trial","82","632376","0.0-2.0-17.0-1.0","battery-v0.2","","""event"",""trial"",""time""
""fullscreenenter"",""1"",""3282""
""blur"",""71"",""563916""
""focus"",""72"",""570042""
""blur"",""78"",""596112""
""focus"",""80"",""600532""
","""event"",""trial"",""time""
""blur"",""71"",""563916""
""blur"",""78"",""596112""
","""event"",""trial"",""time""
""focus"",""72"",""570042""
""focus"",""80"",""600532""
","""event"",""trial"",""time""
""fullscreenenter"",""1"",""3282""
","
","","","77","","","15","9387","308","&#9789;","elianto","#f73b6a7A"," "," ","1","0","[73.60000038146973,200,356,472.6000003814697,649.7000002861023,760,929.7000002861023,1216.1000003814697,1329.8000001907349,1520.1000003814697,1625.8000001907349,1776.1000003814697,1905.8000001907349,2064.1000003814697,2249.7000002861023,2392.1000003814697,2561.6000003814697,2720.1000003814697]","18","0","4","","","","","","","",""
"pit-trial","83","635596","0.0-2.0-17.0-2.0","battery-v0.2","","""event"",""trial"",""time""
""fullscreenenter"",""1"",""3282""
""blur"",""71"",""563916""
""focus"",""72"",""570042""
""blur"",""78"",""596112""
""focus"",""80"",""600532""
","""event"",""trial"",""time""
""blur"",""71"",""563916""
""blur"",""78"",""596112""
","""event"",""trial"",""time""
""focus"",""72"",""570042""
""focus"",""80"",""600532""
","""event"",""trial"",""time""
""fullscreenenter"",""1"",""3282""
","
","","","362.2000002861023","","","15","9387","308","&#9789;","elianto","#f73b6a7A"," "," ","1","0","[111.09999990463257,1213.4000000953674,2375.4000000953674]","3","0","4","","","","","","","",""
"pit-trial","84","639333","0.0-2.0-17.0-3.0","battery-v0.2","","""event"",""trial"",""time""
""fullscreenenter"",""1"",""3282""
""blur"",""71"",""563916""
""focus"",""72"",""570042""
""blur"",""78"",""596112""
""focus"",""80"",""600532""
","""event"",""trial"",""time""
""blur"",""71"",""563916""
""blur"",""78"",""596112""
","""event"",""trial"",""time""
""focus"",""72"",""570042""
""focus"",""80"",""600532""
","""event"",""trial"",""time""
""fullscreenenter"",""1"",""3282""
","
","","","871.7000002861023","","","15","9387","308","&#9789;","elianto","#f73b6a7A"," "," ","1","-10","[1730.0999999046326,3666.699999809265]","2","0","4","","","","","","","",""
"pit-trial","85","642365","0.0-2.0-17.0-4.0","battery-v0.2","","""event"",""trial"",""time""
""fullscreenenter"",""1"",""3282""
""blur"",""71"",""563916""
""focus"",""72"",""570042""
""blur"",""78"",""596112""
""focus"",""80"",""600532""
","""event"",""trial"",""time""
""blur"",""71"",""563916""
""blur"",""78"",""596112""
","""event"",""trial"",""time""
""focus"",""72"",""570042""
""focus"",""80"",""600532""
","""event"",""trial"",""time""
""fullscreenenter"",""1"",""3282""
","
","","","166.5","","","15","9387","308","&#9789;","elianto","#f73b6a7A"," "," ","1","0","[1024.9000000953674,1186.5,1328.7999997138977,1810.5,2256.7999997138977,2642.7999997138977,2736.9000000953674]","7","0","4","","","","","","","",""
"pit-trial","86","645423","0.0-2.0-17.1-0.1","battery-v0.2","","""event"",""trial"",""time""
""fullscreenenter"",""1"",""3282""
""blur"",""71"",""563916""
""focus"",""72"",""570042""
""blur"",""78"",""596112""
""focus"",""80"",""600532""
","""event"",""trial"",""time""
""blur"",""71"",""563916""
""blur"",""78"",""596112""
","""event"",""trial"",""time""
""focus"",""72"",""570042""
""focus"",""80"",""600532""
","""event"",""trial"",""time""
""fullscreenenter"",""1"",""3282""
","
","","","191.59999990463257","","","15","9387","308","&#9789;","elianto","#f73b6a7A"," "," ","1","0","[21.199999809265137,272,715.7999997138977,1047.8999996185303,1276.0999999046326,1688,1993.7999997138977,2200.0999999046326,2410.3999996185303,2576,2857.699999809265,3032]","12","0","4","","","","","","","",""
"pit-trial","87","648381","0.0-2.0-17.1-1.1","battery-v0.2","","""event"",""trial"",""time""
""fullscreenenter"",""1"",""3282""
""blur"",""71"",""563916""
""focus"",""72"",""570042""
""blur"",""78"",""596112""
""focus"",""80"",""600532""
","""event"",""trial"",""time""
""blur"",""71"",""563916""
""blur"",""78"",""596112""
","""event"",""trial"",""time""
""focus"",""72"",""570042""
""focus"",""80"",""600532""
","""event"",""trial"",""time""
""fullscreenenter"",""1"",""3282""
","
","","","99.69999980926514","","","15","9387","308","&#9789;","elianto","#f73b6a7A"," "," ","1","0","[144.2999997138977,319.09999990463257,609.2999997138977,774.7999997138977,953.1999998092651,1134.9000000953674,1417.9000000953674,1614.9000000953674,1816.5,1983,2072.5999999046326,2286.9000000953674,2496.5999999046326,2686.7999997138977,2864.5999999046326]","15","0","4","","","","","","","",""
"pit-trial","88","651447","0.0-2.0-17.1-2.1","battery-v0.2","","""event"",""trial"",""time""
""fullscreenenter"",""1"",""3282""
""blur"",""71"",""563916""
""focus"",""72"",""570042""
""blur"",""78"",""596112""
""focus"",""80"",""600532""
","""event"",""trial"",""time""
""blur"",""71"",""563916""
""blur"",""78"",""596112""
","""event"",""trial"",""time""
""focus"",""72"",""570042""
""focus"",""80"",""600532""
","""event"",""trial"",""time""
""fullscreenenter"",""1"",""3282""
","
","","","198.40000009536743","","","15","9387","308","&#9789;","elianto","#f73b6a7A"," "," ","1","0","[200.59999990463257,402.2000002861023,584.5999999046326,762.9000000953674,1056.5999999046326,1266.4000000953674,1440.5999999046326,1626.4000000953674,1980.3000001907349,2218.2000002861023,2432.7000002861023,2802.4000000953674,3024.800000190735]","13","0","4","","","","","","","",""
"pit-trial","89","654528","0.0-2.0-17.1-3.1","battery-v0.2","","""event"",""trial"",""time""
""fullscreenenter"",""1"",""3282""
""blur"",""71"",""563916""
""focus"",""72"",""570042""
""blur"",""78"",""596112""
""focus"",""80"",""600532""
","""event"",""trial"",""time""
""blur"",""71"",""563916""
""blur"",""78"",""596112""
","""event"",""trial"",""time""
""focus"",""72"",""570042""
""focus"",""80"",""600532""
","""event"",""trial"",""time""
""fullscreenenter"",""1"",""3282""
","
","","","221.30000019073486","","","15","9387","308","&#9789;","elianto","#f73b6a7A"," "," ","1","-10","[170.09999990463257,335.90000009536743,623.5999999046326,838.0999999046326,1071.8000001907349,1974.2000002861023,2136.0999999046326]","7","0","4","","","","","","","",""
"pit-trial","90","657478","0.0-2.0-17.1-4.1","battery-v0.2","","""event"",""trial"",""time""
""fullscreenenter"",""1"",""3282""
""blur"",""71"",""563916""
""focus"",""72"",""570042""
""blur"",""78"",""596112""
""focus"",""80"",""600532""
","""event"",""trial"",""time""
""blur"",""71"",""563916""
""blur"",""78"",""596112""
","""event"",""trial"",""time""
""focus"",""72"",""570042""
""focus"",""80"",""600532""
","""event"",""trial"",""time""
""fullscreenenter"",""1"",""3282""
","
","","","87.5","","","15","9387","308","&#9789;","elianto","#f73b6a7A"," "," ","1","0","[941.5,1423.0999999046326,1912.1999998092651,2351.199999809265,2877.5999999046326]","5","0","4","","","","","","","",""
"pit-trial","91","660382","0.0-2.0-17.2-0.2","battery-v0.2","","""event"",""trial"",""time""
""fullscreenenter"",""1"",""3282""
""blur"",""71"",""563916""
""focus"",""72"",""570042""
""blur"",""78"",""596112""
""focus"",""80"",""600532""
","""event"",""trial"",""time""
""blur"",""71"",""563916""
""blur"",""78"",""596112""
","""event"",""trial"",""time""
""focus"",""72"",""570042""
""focus"",""80"",""600532""
","""event"",""trial"",""time""
""fullscreenenter"",""1"",""3282""
","
","","","42.59999990463257","","","15","9387","308","&#9789;","elianto","#f73b6a7A"," "," ","1","0","[416.40000009536743,894.7999997138977,1344.5,1830.9000000953674,2320.699999809265]","5","0","4","","","","","","","",""
"pit-trial","92","664279","0.0-2.0-17.2-1.2","battery-v0.2","","""event"",""trial"",""time""
""fullscreenenter"",""1"",""3282""
""blur"",""71"",""563916""
""focus"",""72"",""570042""
""blur"",""78"",""596112""
""focus"",""80"",""600532""
","""event"",""trial"",""time""
""blur"",""71"",""563916""
""blur"",""78"",""596112""
","""event"",""trial"",""time""
""focus"",""72"",""570042""
""focus"",""80"",""600532""
","""event"",""trial"",""time""
""fullscreenenter"",""1"",""3282""
","
","","","1035","","","15","9387","308","&#9789;","elianto","#f73b6a7A"," "," ","1","0","[1,523.1999998092651,1888,2329.5,3240,3865.5999999046326]","6","0","4","","","","","","","",""
"pit-trial","93","669141","0.0-2.0-17.2-2.2","battery-v0.2","","""event"",""trial"",""time""
""fullscreenenter"",""1"",""3282""
""blur"",""71"",""563916""
""focus"",""72"",""570042""
""blur"",""78"",""596112""
""focus"",""80"",""600532""
","""event"",""trial"",""time""
""blur"",""71"",""563916""
""blur"",""78"",""596112""
","""event"",""trial"",""time""
""focus"",""72"",""570042""
""focus"",""80"",""600532""
","""event"",""trial"",""time""
""fullscreenenter"",""1"",""3282""
","
","","","-1","","","15","9387","308","&#9789;","elianto","#f73b6a7A"," ","-1","0","-10","[224.09999990463257]","1","0","4","","","","","","","",""
"pit-trial","94","672208","0.0-2.0-17.2-3.2","battery-v0.2","","""event"",""trial"",""time""
""fullscreenenter"",""1"",""3282""
""blur"",""71"",""563916""
""focus"",""72"",""570042""
""blur"",""78"",""596112""
""focus"",""80"",""600532""
","""event"",""trial"",""time""
""blur"",""71"",""563916""
""blur"",""78"",""596112""
","""event"",""trial"",""time""
""focus"",""72"",""570042""
""focus"",""80"",""600532""
","""event"",""trial"",""time""
""fullscreenenter"",""1"",""3282""
","
","","","200","","","15","9387","308","&#9789;","elianto","#f73b6a7A"," "," ","1","-10","[82.7000002861023,280.80000019073486,483.2000002861023,656.7000002861023,842.1000003814697,1056.5,1266.3000001907349,1464.7000002861023,1682.3000001907349,1896.6000003814697,2194.300000190735,2432.7000002861023,2690.4000000953674,2984.6000003814697]","14","0","4","","","","","","","",""
"pit-trial","95","675141","0.0-2.0-17.2-4.2","battery-v0.2","","""event"",""trial"",""time""
""fullscreenenter"",""1"",""3282""
""blur"",""71"",""563916""
""focus"",""72"",""570042""
""blur"",""78"",""596112""
""focus"",""80"",""600532""
","""event"",""trial"",""time""
""blur"",""71"",""563916""
""blur"",""78"",""596112""
","""event"",""trial"",""time""
""focus"",""72"",""570042""
""focus"",""80"",""600532""
","""event"",""trial"",""time""
""fullscreenenter"",""1"",""3282""
","
","","","71","","","15","9387","308","&#9789;","elianto","#f73b6a7A"," "," ","1","0","[199.90000009536743,437.5,783.5,925.6000003814697,1127.2000002861023,1325.6000003814697,2863.2000002861023]","7","0","4","","","","","","","",""
"pit-trial","96","678044","0.0-2.0-17.3-0.3","battery-v0.2","","""event"",""trial"",""time""
""fullscreenenter"",""1"",""3282""
""blur"",""71"",""563916""
""focus"",""72"",""570042""
""blur"",""78"",""596112""
""focus"",""80"",""600532""
","""event"",""trial"",""time""
""blur"",""71"",""563916""
""blur"",""78"",""596112""
","""event"",""trial"",""time""
""focus"",""72"",""570042""
""focus"",""80"",""600532""
","""event"",""trial"",""time""
""fullscreenenter"",""1"",""3282""
","
","","","40.59999990463257","","","15","9387","308","&#9789;","elianto","#f73b6a7A"," "," ","1","0","[352.2999997138977,515.6999998092651,704.2999997138977,899.0999999046326,1472.5,1746.1999998092651,2320.5,2410.0999999046326,2504.2999997138977,2642.199999809265,2808.4000000953674]","11","0","4","","","","","","","",""
"pit-trial","97","681190","0.0-2.0-17.3-1.3","battery-v0.2","","""event"",""trial"",""time""
""fullscreenenter"",""1"",""3282""
""blur"",""71"",""563916""
""focus"",""72"",""570042""
""blur"",""78"",""596112""
""focus"",""80"",""600532""
","""event"",""trial"",""time""
""blur"",""71"",""563916""
""blur"",""78"",""596112""
","""event"",""trial"",""time""
""focus"",""72"",""570042""
""focus"",""80"",""600532""
","""event"",""trial"",""time""
""fullscreenenter"",""1"",""3282""
","
","","","280.59999990463257","","","15","9387","308","&#9789;","elianto","#f73b6a7A"," "," ","1","0","[723.0999999046326,1137.5999999046326,1283.2999997138977,1441.4000000953674,1995.2999997138977,2065.4000000953674,2195,2489.2999997138977,2835,3001.5]","10","0","4","","","","","","","",""
"pit-trial","98","684104","0.0-2.0-17.3-2.3","battery-v0.2","","""event"",""trial"",""time""
""fullscreenenter"",""1"",""3282""
""blur"",""71"",""563916""
""focus"",""72"",""570042""
""blur"",""78"",""596112""
""focus"",""80"",""600532""
","""event"",""trial"",""time""
""blur"",""71"",""563916""
""blur"",""78"",""596112""
","""event"",""trial"",""time""
""focus"",""72"",""570042""
""focus"",""80"",""600532""
","""event"",""trial"",""time""
""fullscreenenter"",""1"",""3282""
","
","","","51.80000019073486","","","15","9387","308","&#9789;","elianto","#f73b6a7A"," "," ","1","0","[154.09999990463257,607.5999999046326,905.3000001907349,1298.5,1465.5999999046326,1719.5999999046326,2001.3000001907349,2098.2000002861023,2161.2000002861023,2271.800000190735,2545.9000000953674,2799.7000002861023,2897.300000190735]","13","0","4","","","","","","","",""
"pit-trial","99","686984","0.0-2.0-17.3-3.3","battery-v0.2","","""event"",""trial"",""time""
""fullscreenenter"",""1"",""3282""
""blur"",""71"",""563916""
""focus"",""72"",""570042""
""blur"",""78"",""596112""
""focus"",""80"",""600532""
","""event"",""trial"",""time""
""blur"",""71"",""563916""
""blur"",""78"",""596112""
","""event"",""trial"",""time""
""focus"",""72"",""570042""
""focus"",""80"",""600532""
","""event"",""trial"",""time""
""fullscreenenter"",""1"",""3282""
","
","","","19.59999990463257","","","15","9387","308","&#9789;","elianto","#f73b6a7A"," "," ","1","-10","[37.40000009536743,456.7000002861023,725.2000002861023,871.9000000953674,1006.3000001907349,1262.8000001907349,1709.5,1790.9000000953674,2037.2000002861023,2302.800000190735,2399.7000002861023,2526.7000002861023,2837.2000002861023]","13","0","4","","","","","","","",""
"pit-trial","100","690101","0.0-2.0-17.3-4.3","battery-v0.2","","""event"",""trial"",""time""
""fullscreenenter"",""1"",""3282""
""blur"",""71"",""563916""
""focus"",""72"",""570042""
""blur"",""78"",""596112""
""focus"",""80"",""600532""
","""event"",""trial"",""time""
""blur"",""71"",""563916""
""blur"",""78"",""596112""
","""event"",""trial"",""time""
""focus"",""72"",""570042""
""focus"",""80"",""600532""
","""event"",""trial"",""time""
""fullscreenenter"",""1"",""3282""
","
","","","253.7000002861023","","","15","9387","308","&#9789;","elianto","#f73b6a7A"," "," ","1","0","[312.5,429.80000019073486,751.4000000953674,1109.8000001907349,1215.4000000953674,1573.6999998092651,1831.5999999046326,1934,2047.3000001907349,2350,2623.5,2869.9000000953674]","12","0","4","","","","","","","",""
"call-function","101","690102","0.0-2.0-18.0","battery-v0.2","","""event"",""trial"",""time""
""fullscreenenter"",""1"",""3282""
""blur"",""71"",""563916""
""focus"",""72"",""570042""
""blur"",""78"",""596112""
""focus"",""80"",""600532""
","""event"",""trial"",""time""
""blur"",""71"",""563916""
""blur"",""78"",""596112""
","""event"",""trial"",""time""
""focus"",""72"",""570042""
""focus"",""80"",""600532""
","""event"",""trial"",""time""
""fullscreenenter"",""1"",""3282""
","
","","","","","","","","","","","","","","","","","","","","","","","","","","",""
"pit-instructions","102","744741","0.0-2.0-19.0","battery-v0.2","","""event"",""trial"",""time""
""fullscreenenter"",""1"",""3282""
""blur"",""71"",""563916""
""focus"",""72"",""570042""
""blur"",""78"",""596112""
""focus"",""80"",""600532""
","""event"",""trial"",""time""
""blur"",""71"",""563916""
""blur"",""78"",""596112""
","""event"",""trial"",""time""
""focus"",""72"",""570042""
""focus"",""80"",""600532""
","""event"",""trial"",""time""
""fullscreenenter"",""1"",""3282""
","
","","[{""page_index"":0,""viewing_time"":6220.099999904633},{""page_index"":1,""viewing_time"":4026.1000003814697},{""page_index"":2,""viewing_time"":8293.799999713898},{""page_index"":3,""viewing_time"":4112.099999904633},{""page_index"":4,""viewing_time"":8503.900000095367},{""page_index"":5,""viewing_time"":8450.099999904633},{""page_index"":6,""viewing_time"":4247.900000095367},{""page_index"":7,""viewing_time"":5082},{""page_index"":8,""viewing_time"":5702.099999904633}]","54638.300000190735","","","","","","","","","","","","","","","","","","","","","","","",""
"pit-comprehension","103","748805","0.0-2.0-20.0-0.0","battery-v0.2","","""event"",""trial"",""time""
""fullscreenenter"",""1"",""3282""
""blur"",""71"",""563916""
""focus"",""72"",""570042""
""blur"",""78"",""596112""
""focus"",""80"",""600532""
","""event"",""trial"",""time""
""blur"",""71"",""563916""
""blur"",""78"",""596112""
","""event"",""trial"",""time""
""focus"",""72"",""570042""
""focus"",""80"",""600532""
","""event"",""trial"",""time""
""fullscreenenter"",""1"",""3282""
","
","","","4062","[""SPACE""]","0","15","9387","308","","","","","","","","","","","","","","","","","","",""
"pit-instructions","104","751192","0.0-2.0-20.0-1.0","battery-v0.2","","""event"",""trial"",""time""
""fullscreenenter"",""1"",""3282""
""blur"",""71"",""563916""
""focus"",""72"",""570042""
""blur"",""78"",""596112""
""focus"",""80"",""600532""
","""event"",""trial"",""time""
""blur"",""71"",""563916""
""blur"",""78"",""596112""
","""event"",""trial"",""time""
""focus"",""72"",""570042""
""focus"",""80"",""600532""
","""event"",""trial"",""time""
""fullscreenenter"",""1"",""3282""
","
","","[{""page_index"":0,""viewing_time"":2355.5}]","2355.7000002861023","","","","","","","","","","","","","","","","","","","","","","","",""
"pit-comprehension","105","755941","0.0-2.0-21.0-0.0","battery-v0.2","","""event"",""trial"",""time""
""fullscreenenter"",""1"",""3282""
""blur"",""71"",""563916""
""focus"",""72"",""570042""
""blur"",""78"",""596112""
""focus"",""80"",""600532""
","""event"",""trial"",""time""
""blur"",""71"",""563916""
""blur"",""78"",""596112""
","""event"",""trial"",""time""
""focus"",""72"",""570042""
""focus"",""80"",""600532""
","""event"",""trial"",""time""
""fullscreenenter"",""1"",""3282""
","
","","","4746.599999904633","[""10""]","0","15","9387","308","","","","","","","","","","","","","","","","","","",""
"pit-instructions","106","757433","0.0-2.0-21.0-1.0","battery-v0.2","","""event"",""trial"",""time""
""fullscreenenter"",""1"",""3282""
""blur"",""71"",""563916""
""focus"",""72"",""570042""
""blur"",""78"",""596112""
""focus"",""80"",""600532""
","""event"",""trial"",""time""
""blur"",""71"",""563916""
""blur"",""78"",""596112""
","""event"",""trial"",""time""
""focus"",""72"",""570042""
""focus"",""80"",""600532""
","""event"",""trial"",""time""
""fullscreenenter"",""1"",""3282""
","
","","[{""page_index"":0,""viewing_time"":1456.8999996185303}]","1457.0999999046326","","","","","","","","","","","","","","","","","","","","","","","",""
"pit-comprehension","107","763474","0.0-2.0-22.0-0.0","battery-v0.2","","""event"",""trial"",""time""
""fullscreenenter"",""1"",""3282""
""blur"",""71"",""563916""
""focus"",""72"",""570042""
""blur"",""78"",""596112""
""focus"",""80"",""600532""
","""event"",""trial"",""time""
""blur"",""71"",""563916""
""blur"",""78"",""596112""
","""event"",""trial"",""time""
""focus"",""72"",""570042""
""focus"",""80"",""600532""
","""event"",""trial"",""time""
""fullscreenenter"",""1"",""3282""
","
","","","6039.599999904633","[""-10""]","1","15","9387","308","","","","","","","","","","","","","","","","","","",""
"pit-instructions","108","769611","0.0-2.0-22.0-1.0","battery-v0.2","","""event"",""trial"",""time""
""fullscreenenter"",""1"",""3282""
""blur"",""71"",""563916""
""focus"",""72"",""570042""
""blur"",""78"",""596112""
""focus"",""80"",""600532""
","""event"",""trial"",""time""
""blur"",""71"",""563916""
""blur"",""78"",""596112""
","""event"",""trial"",""time""
""focus"",""72"",""570042""
""focus"",""80"",""600532""
","""event"",""trial"",""time""
""fullscreenenter"",""1"",""3282""
","
","","[{""page_index"":0,""viewing_time"":6105.099999904633}]","6105.200000286102","","","","","","","","","","","","","","","","","","","","","","","",""
"pit-instructions","109","770435","0.0-2.0-22.0-2.0-0.0","battery-v0.2","","""event"",""trial"",""time""
""fullscreenenter"",""1"",""3282""
""blur"",""71"",""563916""
""focus"",""72"",""570042""
""blur"",""78"",""596112""
""focus"",""80"",""600532""
","""event"",""trial"",""time""
""blur"",""71"",""563916""
""blur"",""78"",""596112""
","""event"",""trial"",""time""
""focus"",""72"",""570042""
""focus"",""80"",""600532""
","""event"",""trial"",""time""
""fullscreenenter"",""1"",""3282""
","
","","[{""page_index"":0,""viewing_time"":822.6999998092651}]","823","","","","","","","","","","","","","","","","","","","","","","","",""
"pit-comprehension","110","778379","0.0-2.0-22.1-0.1","battery-v0.2","","""event"",""trial"",""time""
""fullscreenenter"",""1"",""3282""
""blur"",""71"",""563916""
""focus"",""72"",""570042""
""blur"",""78"",""596112""
""focus"",""80"",""600532""
","""event"",""trial"",""time""
""blur"",""71"",""563916""
""blur"",""78"",""596112""
","""event"",""trial"",""time""
""focus"",""72"",""570042""
""focus"",""80"",""600532""
","""event"",""trial"",""time""
""fullscreenenter"",""1"",""3282""
","
","","","7943.099999904633","[""0""]","0","15","9387","308","","","","","","","","","","","","","","","","","","",""
"pit-instructions","111","780027","0.0-2.0-22.1-1.1","battery-v0.2","","""event"",""trial"",""time""
""fullscreenenter"",""1"",""3282""
""blur"",""71"",""563916""
""focus"",""72"",""570042""
""blur"",""78"",""596112""
""focus"",""80"",""600532""
","""event"",""trial"",""time""
""blur"",""71"",""563916""
""blur"",""78"",""596112""
","""event"",""trial"",""time""
""focus"",""72"",""570042""
""focus"",""80"",""600532""
","""event"",""trial"",""time""
""fullscreenenter"",""1"",""3282""
","
","","[{""page_index"":0,""viewing_time"":1614.2999997138977}]","1614.5999999046326","","","","","","","","","","","","","","","","","","","","","","","",""
"pit-comprehension","112","795807","0.0-2.0-23.0-0.0","battery-v0.2","","""event"",""trial"",""time""
""fullscreenenter"",""1"",""3282""
""blur"",""71"",""563916""
""focus"",""72"",""570042""
""blur"",""78"",""596112""
""focus"",""80"",""600532""
","""event"",""trial"",""time""
""blur"",""71"",""563916""
""blur"",""78"",""596112""
","""event"",""trial"",""time""
""focus"",""72"",""570042""
""focus"",""80"",""600532""
","""event"",""trial"",""time""
""fullscreenenter"",""1"",""3282""
","
","","","15778.400000095367","[""False""]","1","15","9387","308","","","","","","","","","","","","","","","","","","",""
"pit-instructions","113","798177","0.0-2.0-23.0-1.0","battery-v0.2","","""event"",""trial"",""time""
""fullscreenenter"",""1"",""3282""
""blur"",""71"",""563916""
""focus"",""72"",""570042""
""blur"",""78"",""596112""
""focus"",""80"",""600532""
","""event"",""trial"",""time""
""blur"",""71"",""563916""
""blur"",""78"",""596112""
","""event"",""trial"",""time""
""focus"",""72"",""570042""
""focus"",""80"",""600532""
","""event"",""trial"",""time""
""fullscreenenter"",""1"",""3282""
","
","","[{""page_index"":0,""viewing_time"":2336.5999999046326}]","2336.699999809265","","","","","","","","","","","","","","","","","","","","","","","",""
"pit-instructions","114","800645","0.0-2.0-23.0-2.0-0.0","battery-v0.2","","""event"",""trial"",""time""
""fullscreenenter"",""1"",""3282""
""blur"",""71"",""563916""
""focus"",""72"",""570042""
""blur"",""78"",""596112""
""focus"",""80"",""600532""
","""event"",""trial"",""time""
""blur"",""71"",""563916""
""blur"",""78"",""596112""
","""event"",""trial"",""time""
""focus"",""72"",""570042""
""focus"",""80"",""600532""
","""event"",""trial"",""time""
""fullscreenenter"",""1"",""3282""
","
","","[{""page_index"":0,""viewing_time"":2467.0999999046326}]","2467.2000002861023","","","","","","","","","","","","","","","","","","","","","","","",""
"pit-comprehension","115","808817","0.0-2.0-23.1-0.1","battery-v0.2","","""event"",""trial"",""time""
""fullscreenenter"",""1"",""3282""
""blur"",""71"",""563916""
""focus"",""72"",""570042""
""blur"",""78"",""596112""
""focus"",""80"",""600532""
","""event"",""trial"",""time""
""blur"",""71"",""563916""
""blur"",""78"",""596112""
","""event"",""trial"",""time""
""focus"",""72"",""570042""
""focus"",""80"",""600532""
","""event"",""trial"",""time""
""fullscreenenter"",""1"",""3282""
","
","","","8171","[""True""]","0","15","9387","308","","","","","","","","","","","","","","","","","","",""
"pit-instructions","116","812279","0.0-2.0-23.1-1.1","battery-v0.2","","""event"",""trial"",""time""
""fullscreenenter"",""1"",""3282""
""blur"",""71"",""563916""
""focus"",""72"",""570042""
""blur"",""78"",""596112""
""focus"",""80"",""600532""
","""event"",""trial"",""time""
""blur"",""71"",""563916""
""blur"",""78"",""596112""
","""event"",""trial"",""time""
""focus"",""72"",""570042""
""focus"",""80"",""600532""
","""event"",""trial"",""time""
""fullscreenenter"",""1"",""3282""
","
","","[{""page_index"":0,""viewing_time"":3429.2000002861023}]","3429.300000190735","","","","","","","","","","","","","","","","","","","","","","","",""
"pit-comprehension","117","819333","0.0-2.0-24.0-0.0","battery-v0.2","","""event"",""trial"",""time""
""fullscreenenter"",""1"",""3282""
""blur"",""71"",""563916""
""focus"",""72"",""570042""
""blur"",""78"",""596112""
""focus"",""80"",""600532""
","""event"",""trial"",""time""
""blur"",""71"",""563916""
""blur"",""78"",""596112""
","""event"",""trial"",""time""
""focus"",""72"",""570042""
""focus"",""80"",""600532""
","""event"",""trial"",""time""
""fullscreenenter"",""1"",""3282""
","
","","","7052.599999904633","[""True""]","0","15","9387","308","","","","","","","","","","","","","","","","","","",""
"pit-instructions","118","820559","0.0-2.0-24.0-1.0","battery-v0.2","","""event"",""trial"",""time""
""fullscreenenter"",""1"",""3282""
""blur"",""71"",""563916""
""focus"",""72"",""570042""
""blur"",""78"",""596112""
""focus"",""80"",""600532""
","""event"",""trial"",""time""
""blur"",""71"",""563916""
""blur"",""78"",""596112""
","""event"",""trial"",""time""
""focus"",""72"",""570042""
""focus"",""80"",""600532""
","""event"",""trial"",""time""
""fullscreenenter"",""1"",""3282""
","
","","[{""page_index"":0,""viewing_time"":1191.5999999046326}]","1191.7000002861023","","","","","","","","","","","","","","","","","","","","","","","",""
"pit-comprehension","119","826601","0.0-2.0-25.0-0.0","battery-v0.2","","""event"",""trial"",""time""
""fullscreenenter"",""1"",""3282""
""blur"",""71"",""563916""
""focus"",""72"",""570042""
""blur"",""78"",""596112""
""focus"",""80"",""600532""
","""event"",""trial"",""time""
""blur"",""71"",""563916""
""blur"",""78"",""596112""
","""event"",""trial"",""time""
""focus"",""72"",""570042""
""focus"",""80"",""600532""
","""event"",""trial"",""time""
""fullscreenenter"",""1"",""3282""
","
","","","6040.599999904633","[""True""]","0","15","9387","308","","","","","","","","","","","","","","","","","","",""
"pit-instructions","120","828487","0.0-2.0-25.0-1.0","battery-v0.2","","""event"",""trial"",""time""
""fullscreenenter"",""1"",""3282""
""blur"",""71"",""563916""
""focus"",""72"",""570042""
""blur"",""78"",""596112""
""focus"",""80"",""600532""
","""event"",""trial"",""time""
""blur"",""71"",""563916""
""blur"",""78"",""596112""
","""event"",""trial"",""time""
""focus"",""72"",""570042""
""focus"",""80"",""600532""
","""event"",""trial"",""time""
""fullscreenenter"",""1"",""3282""
","
","","[{""page_index"":0,""viewing_time"":1852.9000000953674}]","1853.1000003814697","","","","","","","","","","","","","","","","","","","","","","","",""
"pit-comprehension","121","833335","0.0-2.0-26.0-0.0","battery-v0.2","","""event"",""trial"",""time""
""fullscreenenter"",""1"",""3282""
""blur"",""71"",""563916""
""focus"",""72"",""570042""
""blur"",""78"",""596112""
""focus"",""80"",""600532""
","""event"",""trial"",""time""
""blur"",""71"",""563916""
""blur"",""78"",""596112""
","""event"",""trial"",""time""
""focus"",""72"",""570042""
""focus"",""80"",""600532""
","""event"",""trial"",""time""
""fullscreenenter"",""1"",""3282""
","
","","","4846.800000190735","[""False""]","0","15","9387","308","","","","","","","","","","","","","","","","","","",""
"pit-instructions","122","834725","0.0-2.0-26.0-1.0","battery-v0.2","","""event"",""trial"",""time""
""fullscreenenter"",""1"",""3282""
""blur"",""71"",""563916""
""focus"",""72"",""570042""
""blur"",""78"",""596112""
""focus"",""80"",""600532""
","""event"",""trial"",""time""
""blur"",""71"",""563916""
""blur"",""78"",""596112""
","""event"",""trial"",""time""
""focus"",""72"",""570042""
""focus"",""80"",""600532""
","""event"",""trial"",""time""
""fullscreenenter"",""1"",""3282""
","
","","[{""page_index"":0,""viewing_time"":1351.7999997138977}]","1352","","","","","","","","","","","","","","","","","","","","","","","",""
"pit-instructions","123","850323","0.0-3.0","battery-v0.2","","""event"",""trial"",""time""
""fullscreenenter"",""1"",""3282""
""blur"",""71"",""563916""
""focus"",""72"",""570042""
""blur"",""78"",""596112""
""focus"",""80"",""600532""
","""event"",""trial"",""time""
""blur"",""71"",""563916""
""blur"",""78"",""596112""
","""event"",""trial"",""time""
""focus"",""72"",""570042""
""focus"",""80"",""600532""
","""event"",""trial"",""time""
""fullscreenenter"",""1"",""3282""
","
","","[{""page_index"":0,""viewing_time"":4320.799999713898},{""page_index"":1,""viewing_time"":5262},{""page_index"":2,""viewing_time"":6014}]","15596.89999961853","","","","","","","","","","","","","","","","","","","","","","","",""
"pit-trial","124","855191","0.0-4.0","battery-v0.2","","""event"",""trial"",""time""
""fullscreenenter"",""1"",""3282""
""blur"",""71"",""563916""
""focus"",""72"",""570042""
""blur"",""78"",""596112""
""focus"",""80"",""600532""
","""event"",""trial"",""time""
""blur"",""71"",""563916""
""blur"",""78"",""596112""
","""event"",""trial"",""time""
""focus"",""72"",""570042""
""focus"",""80"",""600532""
","""event"",""trial"",""time""
""fullscreenenter"",""1"",""3282""
","
","","","-1","","","15","9387","308","&#9752;","elianto","#f73b6a7A"," ","-1","0","-10","[]","0","1","","","9387","1","3","3","lose","go","0"
"pit-trial","125","859215","0.0-5.0","battery-v0.2","","""event"",""trial"",""time""
""fullscreenenter"",""1"",""3282""
""blur"",""71"",""563916""
""focus"",""72"",""570042""
""blur"",""78"",""596112""
""focus"",""80"",""600532""
","""event"",""trial"",""time""
""blur"",""71"",""563916""
""blur"",""78"",""596112""
","""event"",""trial"",""time""
""focus"",""72"",""570042""
""focus"",""80"",""600532""
","""event"",""trial"",""time""
""fullscreenenter"",""1"",""3282""
","
","","","1158.4000000953674","","","15","9387","308","&#9730;","elianto","#3366ff99"," "," ","1","0","[2015.0999999046326]","1","1","","","9387","2","1","1","win","go","1"
"pit-trial","126","863173","0.0-6.0","battery-v0.2","","""event"",""trial"",""time""
""fullscreenenter"",""1"",""3282""
""blur"",""71"",""563916""
""focus"",""72"",""570042""
""blur"",""78"",""596112""
""focus"",""80"",""600532""
","""event"",""trial"",""time""
""blur"",""71"",""563916""
""blur"",""78"",""596112""
","""event"",""trial"",""time""
""focus"",""72"",""570042""
""focus"",""80"",""600532""
","""event"",""trial"",""time""
""fullscreenenter"",""1"",""3282""
","
","","","1099.4000000953674","","","15","9387","308","&#9733;","elianto","#3366ff99","-1"," ","0","+10","[1953.1000003814697]","1","1","","","9387","3","2","2","win","no-go","1"
"pit-trial","127","868036","0.0-7.0","battery-v0.2","","""event"",""trial"",""time""
""fullscreenenter"",""1"",""3282""
""blur"",""71"",""563916""
""focus"",""72"",""570042""
""blur"",""78"",""596112""
""focus"",""80"",""600532""
","""event"",""trial"",""time""
""blur"",""71"",""563916""
""blur"",""78"",""596112""
","""event"",""trial"",""time""
""focus"",""72"",""570042""
""focus"",""80"",""600532""
","""event"",""trial"",""time""
""fullscreenenter"",""1"",""3282""
","
","","","-1","","","15","9387","308","&#9728;","elianto","#f73b6a7A","-1","-1","1","0","[]","0","1","","","9387","4","0","4","lose","no-go","0"
"pit-trial","128","872221","0.0-8.0","battery-v0.2","","""event"",""trial"",""time""
""fullscreenenter"",""1"",""3282""
""blur"",""71"",""563916""
""focus"",""72"",""570042""
""blur"",""78"",""596112""
""focus"",""80"",""600532""
","""event"",""trial"",""time""
""blur"",""71"",""563916""
""blur"",""78"",""596112""
","""event"",""trial"",""time""
""focus"",""72"",""570042""
""focus"",""80"",""600532""
","""event"",""trial"",""time""
""fullscreenenter"",""1"",""3282""
","
","","","1321.4000000953674","","","15","9387","308","&#9752;","elianto","#f73b6a7A"," "," ","1","-10","[2178]","1","1","","","9387","5","3","3","lose","go","1"
"pit-trial","129","876605","0.0-9.0","battery-v0.2","","""event"",""trial"",""time""
""fullscreenenter"",""1"",""3282""
""blur"",""71"",""563916""
""focus"",""72"",""570042""
""blur"",""78"",""596112""
""focus"",""80"",""600532""
","""event"",""trial"",""time""
""blur"",""71"",""563916""
""blur"",""78"",""596112""
","""event"",""trial"",""time""
""focus"",""72"",""570042""
""focus"",""80"",""600532""
","""event"",""trial"",""time""
""fullscreenenter"",""1"",""3282""
","
","","","1522","","","15","9387","308","&#9733;","elianto","#3366ff99","-1"," ","0","0","[2378.800000190735]","1","1","","","9387","6","2","2","win","no-go","0"
"pit-trial","130","879617","0.0-10.0","battery-v0.2","","""event"",""trial"",""time""
""fullscreenenter"",""1"",""3282""
""blur"",""71"",""563916""
""focus"",""72"",""570042""
""blur"",""78"",""596112""
""focus"",""80"",""600532""
","""event"",""trial"",""time""
""blur"",""71"",""563916""
""blur"",""78"",""596112""
","""event"",""trial"",""time""
""focus"",""72"",""570042""
""focus"",""80"",""600532""
","""event"",""trial"",""time""
""fullscreenenter"",""1"",""3282""
","
","","","152.2999997138977","","","15","9387","308","&#9730;","elianto","#3366ff99"," "," ","1","+10","[1002.8999996185303,1147.1999998092651,1289.5,1619.1999998092651,1785.5]","5","1","","","9387","7","1","1","win","go","0"
"pit-trial","131","884479","0.0-11.0","battery-v0.2","","""event"",""trial"",""time""
""fullscreenenter"",""1"",""3282""
""blur"",""71"",""563916""
""focus"",""72"",""570042""
""blur"",""78"",""596112""
""focus"",""80"",""600532""
","""event"",""trial"",""time""
""blur"",""71"",""563916""
""blur"",""78"",""596112""
","""event"",""trial"",""time""
""focus"",""72"",""570042""
""focus"",""80"",""600532""
","""event"",""trial"",""time""
""fullscreenenter"",""1"",""3282""
","
","","","-1","","","15","9387","308","&#9728;","elianto","#f73b6a7A","-1","-1","1","0","[]","0","1","","","9387","8","0","4","lose","no-go","0"
"pit-trial","132","889344","0.0-12.0","battery-v0.2","","""event"",""trial"",""time""
""fullscreenenter"",""1"",""3282""
""blur"",""71"",""563916""
""focus"",""72"",""570042""
""blur"",""78"",""596112""
""focus"",""80"",""600532""
","""event"",""trial"",""time""
""blur"",""71"",""563916""
""blur"",""78"",""596112""
","""event"",""trial"",""time""
""focus"",""72"",""570042""
""focus"",""80"",""600532""
","""event"",""trial"",""time""
""fullscreenenter"",""1"",""3282""
","
","","","-1","","","15","9387","308","&#9752;","elianto","#f73b6a7A"," ","-1","0","-10","[]","0","1","","","9387","9","3","3","lose","go","0"
"pit-trial","133","893077","0.0-13.0","battery-v0.2","","""event"",""trial"",""time""
""fullscreenenter"",""1"",""3282""
""blur"",""71"",""563916""
""focus"",""72"",""570042""
""blur"",""78"",""596112""
""focus"",""80"",""600532""
","""event"",""trial"",""time""
""blur"",""71"",""563916""
""blur"",""78"",""596112""
","""event"",""trial"",""time""
""focus"",""72"",""570042""
""focus"",""80"",""600532""
","""event"",""trial"",""time""
""fullscreenenter"",""1"",""3282""
","
","","","873.1999998092651","","","15","9387","308","&#9733;","elianto","#3366ff99","-1"," ","0","0","[1728.4000000953674]","1","1","","","9387","10","2","2","win","no-go","0"
"pit-trial","134","896105","0.0-14.0","battery-v0.2","","""event"",""trial"",""time""
""fullscreenenter"",""1"",""3282""
""blur"",""71"",""563916""
""focus"",""72"",""570042""
""blur"",""78"",""596112""
""focus"",""80"",""600532""
","""event"",""trial"",""time""
""blur"",""71"",""563916""
""blur"",""78"",""596112""
","""event"",""trial"",""time""
""focus"",""72"",""570042""
""focus"",""80"",""600532""
","""event"",""trial"",""time""
""fullscreenenter"",""1"",""3282""
","
","","","171.5","","","15","9387","308","&#9728;","elianto","#f73b6a7A","-1"," ","0","-10","[825.7000002861023,1022,1177.8000001907349]","3","1","","","9387","11","0","4","lose","no-go","0"
"pit-trial","135","900582","0.0-15.0","battery-v0.2","","""event"",""trial"",""time""
""fullscreenenter"",""1"",""3282""
""blur"",""71"",""563916""
""focus"",""72"",""570042""
""blur"",""78"",""596112""
""focus"",""80"",""600532""
","""event"",""trial"",""time""
""blur"",""71"",""563916""
""blur"",""78"",""596112""
","""event"",""trial"",""time""
""focus"",""72"",""570042""
""focus"",""80"",""600532""
","""event"",""trial"",""time""
""fullscreenenter"",""1"",""3282""
","
","","","1619.6999998092651","","","15","9387","308","&#9730;","elianto","#3366ff99"," "," ","1","+10","[2470.5999999046326]","1","1","","","9387","12","1","1","win","go","0"
"pit-trial","136","904432","0.0-16.0","battery-v0.2","","""event"",""trial"",""time""
""fullscreenenter"",""1"",""3282""
""blur"",""71"",""563916""
""focus"",""72"",""570042""
""blur"",""78"",""596112""
""focus"",""80"",""600532""
","""event"",""trial"",""time""
""blur"",""71"",""563916""
""blur"",""78"",""596112""
","""event"",""trial"",""time""
""focus"",""72"",""570042""
""focus"",""80"",""600532""
","""event"",""trial"",""time""
""fullscreenenter"",""1"",""3282""
","
","","","982","","","15","9387","308","&#9733;","elianto","#3366ff99","-1"," ","0","0","[1840.4000000953674]","1","1","","","9387","13","2","2","win","no-go","0"
"pit-trial","137","909295","0.0-17.0","battery-v0.2","","""event"",""trial"",""time""
""fullscreenenter"",""1"",""3282""
""blur"",""71"",""563916""
""focus"",""72"",""570042""
""blur"",""78"",""596112""
""focus"",""80"",""600532""
","""event"",""trial"",""time""
""blur"",""71"",""563916""
""blur"",""78"",""596112""
","""event"",""trial"",""time""
""focus"",""72"",""570042""
""focus"",""80"",""600532""
","""event"",""trial"",""time""
""fullscreenenter"",""1"",""3282""
","
","","","-1","","","15","9387","308","&#9728;","elianto","#f73b6a7A","-1","-1","1","0","[]","0","1","","","9387","14","0","4","lose","no-go","0"
"pit-trial","138","913321","0.0-18.0","battery-v0.2","","""event"",""trial"",""time""
""fullscreenenter"",""1"",""3282""
""blur"",""71"",""563916""
""focus"",""72"",""570042""
""blur"",""78"",""596112""
""focus"",""80"",""600532""
","""event"",""trial"",""time""
""blur"",""71"",""563916""
""blur"",""78"",""596112""
","""event"",""trial"",""time""
""focus"",""72"",""570042""
""focus"",""80"",""600532""
","""event"",""trial"",""time""
""fullscreenenter"",""1"",""3282""
","
","","","1163.5","","","15","9387","308","&#9730;","elianto","#3366ff99"," "," ","1","+10","[2015.8000001907349,2177.4000000953674,2336.0999999046326]","3","1","","","9387","15","1","1","win","go","0"
"pit-trial","139","918183","0.0-19.0","battery-v0.2","","""event"",""trial"",""time""
""fullscreenenter"",""1"",""3282""
""blur"",""71"",""563916""
""focus"",""72"",""570042""
""blur"",""78"",""596112""
""focus"",""80"",""600532""
","""event"",""trial"",""time""
""blur"",""71"",""563916""
""blur"",""78"",""596112""
","""event"",""trial"",""time""
""focus"",""72"",""570042""
""focus"",""80"",""600532""
","""event"",""trial"",""time""
""fullscreenenter"",""1"",""3282""
","
","","","-1","","","15","9387","308","&#9752;","elianto","#f73b6a7A"," ","-1","0","-10","[]","0","1","","","9387","16","3","3","lose","go","0"
"pit-trial","140","921881","0.0-20.0","battery-v0.2","","""event"",""trial"",""time""
""fullscreenenter"",""1"",""3282""
""blur"",""71"",""563916""
""focus"",""72"",""570042""
""blur"",""78"",""596112""
""focus"",""80"",""600532""
","""event"",""trial"",""time""
""blur"",""71"",""563916""
""blur"",""78"",""596112""
","""event"",""trial"",""time""
""focus"",""72"",""570042""
""focus"",""80"",""600532""
","""event"",""trial"",""time""
""fullscreenenter"",""1"",""3282""
","
","","","837.6999998092651","","","15","9387","308","&#9730;","elianto","#3366ff99"," "," ","1","+10","[1689.4000000953674]","1","1","","","9387","17","1","1","win","go","0"
"pit-trial","141","926745","0.0-21.0","battery-v0.2","","""event"",""trial"",""time""
""fullscreenenter"",""1"",""3282""
""blur"",""71"",""563916""
""focus"",""72"",""570042""
""blur"",""78"",""596112""
""focus"",""80"",""600532""
","""event"",""trial"",""time""
""blur"",""71"",""563916""
""blur"",""78"",""596112""
","""event"",""trial"",""time""
""focus"",""72"",""570042""
""focus"",""80"",""600532""
","""event"",""trial"",""time""
""fullscreenenter"",""1"",""3282""
","
","","","-1","","","15","9387","308","&#9752;","elianto","#f73b6a7A"," ","-1","0","-10","[]","0","1","","","9387","18","3","3","lose","go","0"
"pit-trial","142","931607","0.0-22.0","battery-v0.2","","""event"",""trial"",""time""
""fullscreenenter"",""1"",""3282""
""blur"",""71"",""563916""
""focus"",""72"",""570042""
""blur"",""78"",""596112""
""focus"",""80"",""600532""
","""event"",""trial"",""time""
""blur"",""71"",""563916""
""blur"",""78"",""596112""
","""event"",""trial"",""time""
""focus"",""72"",""570042""
""focus"",""80"",""600532""
","""event"",""trial"",""time""
""fullscreenenter"",""1"",""3282""
","
","","","-1","","","15","9387","308","&#9728;","elianto","#f73b6a7A","-1","-1","1","0","[]","0","1","","","9387","19","0","4","lose","no-go","0"
"pit-trial","143","935110","0.0-23.0","battery-v0.2","","""event"",""trial"",""time""
""fullscreenenter"",""1"",""3282""
""blur"",""71"",""563916""
""focus"",""72"",""570042""
""blur"",""78"",""596112""
""focus"",""80"",""600532""
","""event"",""trial"",""time""
""blur"",""71"",""563916""
""blur"",""78"",""596112""
","""event"",""trial"",""time""
""focus"",""72"",""570042""
""focus"",""80"",""600532""
","""event"",""trial"",""time""
""fullscreenenter"",""1"",""3282""
","
","","","639","","","15","9387","308","&#9733;","elianto","#3366ff99","-1"," ","0","0","[1495.3999996185303]","1","1","","","9387","20","2","2","win","no-go","0"
"pit-instructions","144","948998","0.0-24.0","battery-v0.2","","""event"",""trial"",""time""
""fullscreenenter"",""1"",""3282""
""blur"",""71"",""563916""
""focus"",""72"",""570042""
""blur"",""78"",""596112""
""focus"",""80"",""600532""
","""event"",""trial"",""time""
""blur"",""71"",""563916""
""blur"",""78"",""596112""
","""event"",""trial"",""time""
""focus"",""72"",""570042""
""focus"",""80"",""600532""
","""event"",""trial"",""time""
""fullscreenenter"",""1"",""3282""
","
","","[{""page_index"":0,""viewing_time"":7867.900000095367},{""page_index"":1,""viewing_time"":6018.5}]","13886.60000038147","","","","","","","","","","","","","","","","","","","","","","","",""
"pit-trial","145","953863","0.0-25.0","battery-v0.2","","""event"",""trial"",""time""
""fullscreenenter"",""1"",""3282""
""blur"",""71"",""563916""
""focus"",""72"",""570042""
""blur"",""78"",""596112""
""focus"",""80"",""600532""
","""event"",""trial"",""time""
""blur"",""71"",""563916""
""blur"",""78"",""596112""
","""event"",""trial"",""time""
""focus"",""72"",""570042""
""focus"",""80"",""600532""
","""event"",""trial"",""time""
""fullscreenenter"",""1"",""3282""
","
","","","-1","","","15","9387","308","w","elianto","#f73b6a7A"," ","-1","0","-10","[]","0","2","","","9387","21","3","3","lose","go","0"
"pit-trial","146","958726","0.0-26.0","battery-v0.2","","""event"",""trial"",""time""
""fullscreenenter"",""1"",""3282""
""blur"",""71"",""563916""
""focus"",""72"",""570042""
""blur"",""78"",""596112""
""focus"",""80"",""600532""
","""event"",""trial"",""time""
""blur"",""71"",""563916""
""blur"",""78"",""596112""
","""event"",""trial"",""time""
""focus"",""72"",""570042""
""focus"",""80"",""600532""
","""event"",""trial"",""time""
""fullscreenenter"",""1"",""3282""
","
","","","-1","","","15","9387","308","e","elianto","#f73b6a7A","-1","-1","1","-10","[]","0","2","","","9387","22","2","4","lose","no-go","1"
"pit-trial","147","963593","0.0-27.0","battery-v0.2","","""event"",""trial"",""time""
""fullscreenenter"",""1"",""3282""
""blur"",""71"",""563916""
""focus"",""72"",""570042""
""blur"",""78"",""596112""
""focus"",""80"",""600532""
","""event"",""trial"",""time""
""blur"",""71"",""563916""
""blur"",""78"",""596112""
","""event"",""trial"",""time""
""focus"",""72"",""570042""
""focus"",""80"",""600532""
","""event"",""trial"",""time""
""fullscreenenter"",""1"",""3282""
","
","","","-1","","","15","9387","308","d","elianto","#3366ff99"," ","-1","0","0","[]","0","2","","","9387","23","1","1","win","go","0"
"pit-trial","148","968454","0.0-28.0","battery-v0.2","","""event"",""trial"",""time""
""fullscreenenter"",""1"",""3282""
""blur"",""71"",""563916""
""focus"",""72"",""570042""
""blur"",""78"",""596112""
""focus"",""80"",""600532""
","""event"",""trial"",""time""
""blur"",""71"",""563916""
""blur"",""78"",""596112""
","""event"",""trial"",""time""
""focus"",""72"",""570042""
""focus"",""80"",""600532""
","""event"",""trial"",""time""
""fullscreenenter"",""1"",""3282""
","
","","","-1","","","15","9387","308","j","elianto","#f73b6a7A","-1","-1","1","0","[]","0","2","","","9387","24","0","4","lose","no-go","0"
"pit-trial","149","973320","0.0-29.0","battery-v0.2","","""event"",""trial"",""time""
""fullscreenenter"",""1"",""3282""
""blur"",""71"",""563916""
""focus"",""72"",""570042""
""blur"",""78"",""596112""
""focus"",""80"",""600532""
","""event"",""trial"",""time""
""blur"",""71"",""563916""
""blur"",""78"",""596112""
","""event"",""trial"",""time""
""focus"",""72"",""570042""
""focus"",""80"",""600532""
","""event"",""trial"",""time""
""fullscreenenter"",""1"",""3282""
","
","","","-1","","","15","9387","308","d","elianto","#3366ff99"," ","-1","0","0","[]","0","2","","","9387","25","1","1","win","go","0"
"pit-trial","150","978184","0.0-30.0","battery-v0.2","","""event"",""trial"",""time""
""fullscreenenter"",""1"",""3282""
""blur"",""71"",""563916""
""focus"",""72"",""570042""
""blur"",""78"",""596112""
""focus"",""80"",""600532""
","""event"",""trial"",""time""
""blur"",""71"",""563916""
""blur"",""78"",""596112""
","""event"",""trial"",""time""
""focus"",""72"",""570042""
""focus"",""80"",""600532""
","""event"",""trial"",""time""
""fullscreenenter"",""1"",""3282""
","
","","","-1","","","15","9387","308","j","elianto","#f73b6a7A","-1","-1","1","0","[]","0","2","","","9387","26","0","4","lose","no-go","0"
"pit-trial","151","981807","0.0-31.0","battery-v0.2","","""event"",""trial"",""time""
""fullscreenenter"",""1"",""3282""
""blur"",""71"",""563916""
""focus"",""72"",""570042""
""blur"",""78"",""596112""
""focus"",""80"",""600532""
","""event"",""trial"",""time""
""blur"",""71"",""563916""
""blur"",""78"",""596112""
","""event"",""trial"",""time""
""focus"",""72"",""570042""
""focus"",""80"",""600532""
","""event"",""trial"",""time""
""fullscreenenter"",""1"",""3282""
","
","","","763.3999996185303","","","15","9387","308","e","elianto","#f73b6a7A","-1"," ","0","-10","[1616.3999996185303]","1","2","","","9387","27","2","4","lose","no-go","0"
"pit-trial","152","985199","0.0-32.0","battery-v0.2","","""event"",""trial"",""time""
""fullscreenenter"",""1"",""3282""
""blur"",""71"",""563916""
""focus"",""72"",""570042""
""blur"",""78"",""596112""
""focus"",""80"",""600532""
","""event"",""trial"",""time""
""blur"",""71"",""563916""
""blur"",""78"",""596112""
","""event"",""trial"",""time""
""focus"",""72"",""570042""
""focus"",""80"",""600532""
","""event"",""trial"",""time""
""fullscreenenter"",""1"",""3282""
","
","","","526.5999999046326","","","15","9387","308","w","elianto","#f73b6a7A"," "," ","1","0","[1383.4000000953674]","1","2","","","9387","28","3","3","lose","go","0"
"pit-trial","153","990064","0.0-33.0","battery-v0.2","","""event"",""trial"",""time""
""fullscreenenter"",""1"",""3282""
""blur"",""71"",""563916""
""focus"",""72"",""570042""
""blur"",""78"",""596112""
""focus"",""80"",""600532""
","""event"",""trial"",""time""
""blur"",""71"",""563916""
""blur"",""78"",""596112""
","""event"",""trial"",""time""
""focus"",""72"",""570042""
""focus"",""80"",""600532""
","""event"",""trial"",""time""
""fullscreenenter"",""1"",""3282""
","
","","","-1","","","15","9387","308","j","elianto","#f73b6a7A","-1","-1","1","0","[]","0","2","","","9387","29","0","4","lose","no-go","0"
"pit-trial","154","993975","0.0-34.0","battery-v0.2","","""event"",""trial"",""time""
""fullscreenenter"",""1"",""3282""
""blur"",""71"",""563916""
""focus"",""72"",""570042""
""blur"",""78"",""596112""
""focus"",""80"",""600532""
","""event"",""trial"",""time""
""blur"",""71"",""563916""
""blur"",""78"",""596112""
","""event"",""trial"",""time""
""focus"",""72"",""570042""
""focus"",""80"",""600532""
","""event"",""trial"",""time""
""fullscreenenter"",""1"",""3282""
","
","","","1049.3999996185303","","","15","9387","308","w","elianto","#f73b6a7A"," "," ","1","-10","[1904.0999999046326]","1","2","","","9387","30","3","3","lose","go","1"
"pit-trial","155","997433","0.0-35.0","battery-v0.2","","""event"",""trial"",""time""
""fullscreenenter"",""1"",""3282""
""blur"",""71"",""563916""
""focus"",""72"",""570042""
""blur"",""78"",""596112""
""focus"",""80"",""600532""
","""event"",""trial"",""time""
""blur"",""71"",""563916""
""blur"",""78"",""596112""
","""event"",""trial"",""time""
""focus"",""72"",""570042""
""focus"",""80"",""600532""
","""event"",""trial"",""time""
""fullscreenenter"",""1"",""3282""
","
","","","598.0999999046326","","","15","9387","308","d","elianto","#3366ff99"," "," ","1","+10","[1448.4000000953674]","1","2","","","9387","31","1","1","win","go","0"
"pit-trial","156","1002295","0.0-36.0","battery-v0.2","","""event"",""trial"",""time""
""fullscreenenter"",""1"",""3282""
""blur"",""71"",""563916""
""focus"",""72"",""570042""
""blur"",""78"",""596112""
""focus"",""80"",""600532""
","""event"",""trial"",""time""
""blur"",""71"",""563916""
""blur"",""78"",""596112""
","""event"",""trial"",""time""
""focus"",""72"",""570042""
""focus"",""80"",""600532""
","""event"",""trial"",""time""
""fullscreenenter"",""1"",""3282""
","
","","","-1","","","15","9387","308","e","elianto","#f73b6a7A","-1","-1","1","0","[]","0","2","","","9387","32","2","4","lose","no-go","0"
"pit-trial","157","1007162","0.0-37.0","battery-v0.2","","""event"",""trial"",""time""
""fullscreenenter"",""1"",""3282""
""blur"",""71"",""563916""
""focus"",""72"",""570042""
""blur"",""78"",""596112""
""focus"",""80"",""600532""
","""event"",""trial"",""time""
""blur"",""71"",""563916""
""blur"",""78"",""596112""
","""event"",""trial"",""time""
""focus"",""72"",""570042""
""focus"",""80"",""600532""
","""event"",""trial"",""time""
""fullscreenenter"",""1"",""3282""
","
","","","-1","","","15","9387","308","j","elianto","#f73b6a7A","-1","-1","1","0","[]","0","2","","","9387","33","0","4","lose","no-go","0"
"pit-trial","158","1012026","0.0-38.0","battery-v0.2","","""event"",""trial"",""time""
""fullscreenenter"",""1"",""3282""
""blur"",""71"",""563916""
""focus"",""72"",""570042""
""blur"",""78"",""596112""
""focus"",""80"",""600532""
","""event"",""trial"",""time""
""blur"",""71"",""563916""
""blur"",""78"",""596112""
","""event"",""trial"",""time""
""focus"",""72"",""570042""
""focus"",""80"",""600532""
","""event"",""trial"",""time""
""fullscreenenter"",""1"",""3282""
","
","","","-1","","","15","9387","308","e","elianto","#f73b6a7A","-1","-1","1","0","[]","0","2","","","9387","34","2","4","lose","no-go","0"
"pit-trial","159","1015441","0.0-39.0","battery-v0.2","","""event"",""trial"",""time""
""fullscreenenter"",""1"",""3282""
""blur"",""71"",""563916""
""focus"",""72"",""570042""
""blur"",""78"",""596112""
""focus"",""80"",""600532""
","""event"",""trial"",""time""
""blur"",""71"",""563916""
""blur"",""78"",""596112""
","""event"",""trial"",""time""
""focus"",""72"",""570042""
""focus"",""80"",""600532""
","""event"",""trial"",""time""
""fullscreenenter"",""1"",""3282""
","
","","","554.8000001907349","","","15","9387","308","d","elianto","#3366ff99"," "," ","1","+10","[1406.8000001907349]","1","2","","","9387","35","1","1","win","go","0"
"pit-trial","160","1020306","0.0-40.0","battery-v0.2","","""event"",""trial"",""time""
""fullscreenenter"",""1"",""3282""
""blur"",""71"",""563916""
""focus"",""72"",""570042""
""blur"",""78"",""596112""
""focus"",""80"",""600532""
","""event"",""trial"",""time""
""blur"",""71"",""563916""
""blur"",""78"",""596112""
","""event"",""trial"",""time""
""focus"",""72"",""570042""
""focus"",""80"",""600532""
","""event"",""trial"",""time""
""fullscreenenter"",""1"",""3282""
","
","","","-1","","","15","9387","308","w","elianto","#f73b6a7A"," ","-1","0","-10","[3333.699999809265]","1","2","","","9387","36","3","3","lose","go","0"
"pit-trial","161","1025165","0.0-41.0","battery-v0.2","","""event"",""trial"",""time""
""fullscreenenter"",""1"",""3282""
""blur"",""71"",""563916""
""focus"",""72"",""570042""
""blur"",""78"",""596112""
""focus"",""80"",""600532""
","""event"",""trial"",""time""
""blur"",""71"",""563916""
""blur"",""78"",""596112""
","""event"",""trial"",""time""
""focus"",""72"",""570042""
""focus"",""80"",""600532""
","""event"",""trial"",""time""
""fullscreenenter"",""1"",""3282""
","
","","","-1","","","15","9387","308","j","elianto","#f73b6a7A","-1","-1","1","0","[]","0","2","","","9387","37","0","4","lose","no-go","0"
"pit-trial","162","1028559","0.0-42.0","battery-v0.2","","""event"",""trial"",""time""
""fullscreenenter"",""1"",""3282""
""blur"",""71"",""563916""
""focus"",""72"",""570042""
""blur"",""78"",""596112""
""focus"",""80"",""600532""
","""event"",""trial"",""time""
""blur"",""71"",""563916""
""blur"",""78"",""596112""
","""event"",""trial"",""time""
""focus"",""72"",""570042""
""focus"",""80"",""600532""
","""event"",""trial"",""time""
""fullscreenenter"",""1"",""3282""
","
","","","534.5","","","15","9387","308","d","elianto","#3366ff99"," "," ","1","0","[1387.5]","1","2","","","9387","38","1","1","win","go","1"
"pit-trial","163","1033426","0.0-43.0","battery-v0.2","","""event"",""trial"",""time""
""fullscreenenter"",""1"",""3282""
""blur"",""71"",""563916""
""focus"",""72"",""570042""
""blur"",""78"",""596112""
""focus"",""80"",""600532""
","""event"",""trial"",""time""
""blur"",""71"",""563916""
""blur"",""78"",""596112""
","""event"",""trial"",""time""
""focus"",""72"",""570042""
""focus"",""80"",""600532""
","""event"",""trial"",""time""
""fullscreenenter"",""1"",""3282""
","
","","","-1","","","15","9387","308","e","elianto","#f73b6a7A","-1","-1","1","0","[]","0","2","","","9387","39","2","4","lose","no-go","0"
"pit-trial","164","1036920","0.0-44.0","battery-v0.2","","""event"",""trial"",""time""
""fullscreenenter"",""1"",""3282""
""blur"",""71"",""563916""
""focus"",""72"",""570042""
""blur"",""78"",""596112""
""focus"",""80"",""600532""
","""event"",""trial"",""time""
""blur"",""71"",""563916""
""blur"",""78"",""596112""
","""event"",""trial"",""time""
""focus"",""72"",""570042""
""focus"",""80"",""600532""
","""event"",""trial"",""time""
""fullscreenenter"",""1"",""3282""
","
","","","633.0999999046326","","","15","9387","308","w","elianto","#f73b6a7A"," "," ","1","0","[1485]","1","2","","","9387","40","3","3","lose","go","0"
"pit-trial","165","1040897","0.0-45.0","battery-v0.2","","""event"",""trial"",""time""
""fullscreenenter"",""1"",""3282""
""blur"",""71"",""563916""
""focus"",""72"",""570042""
""blur"",""78"",""596112""
""focus"",""80"",""600532""
","""event"",""trial"",""time""
""blur"",""71"",""563916""
""blur"",""78"",""596112""
","""event"",""trial"",""time""
""focus"",""72"",""570042""
""focus"",""80"",""600532""
","""event"",""trial"",""time""
""fullscreenenter"",""1"",""3282""
","
","","","1116.3000001907349","","","15","9387","308","w","elianto","#f73b6a7A"," "," ","1","0","[1968.6999998092651,3647.0999999046326]","2","2","","","9387","41","3","3","lose","go","0"
"pit-trial","166","1045761","0.0-46.0","battery-v0.2","","""event"",""trial"",""time""
""fullscreenenter"",""1"",""3282""
""blur"",""71"",""563916""
""focus"",""72"",""570042""
""blur"",""78"",""596112""
""focus"",""80"",""600532""
","""event"",""trial"",""time""
""blur"",""71"",""563916""
""blur"",""78"",""596112""
","""event"",""trial"",""time""
""focus"",""72"",""570042""
""focus"",""80"",""600532""
","""event"",""trial"",""time""
""fullscreenenter"",""1"",""3282""
","
","","","-1","","","15","9387","308","j","elianto","#f73b6a7A","-1","-1","1","0","[]","0","2","","","9387","42","0","4","lose","no-go","0"
"pit-trial","167","1049128","0.0-47.0","battery-v0.2","","""event"",""trial"",""time""
""fullscreenenter"",""1"",""3282""
""blur"",""71"",""563916""
""focus"",""72"",""570042""
""blur"",""78"",""596112""
""focus"",""80"",""600532""
","""event"",""trial"",""time""
""blur"",""71"",""563916""
""blur"",""78"",""596112""
","""event"",""trial"",""time""
""focus"",""72"",""570042""
""focus"",""80"",""600532""
","""event"",""trial"",""time""
""fullscreenenter"",""1"",""3282""
","
","","","509.40000009536743","","","15","9387","308","d","elianto","#3366ff99"," "," ","1","+10","[1359.5999999046326,2384,3319.7999997138977]","3","2","","","9387","43","1","1","win","go","0"
"pit-trial","168","1053993","0.0-48.0","battery-v0.2","","""event"",""trial"",""time""
""fullscreenenter"",""1"",""3282""
""blur"",""71"",""563916""
""focus"",""72"",""570042""
""blur"",""78"",""596112""
""focus"",""80"",""600532""
","""event"",""trial"",""time""
""blur"",""71"",""563916""
""blur"",""78"",""596112""
","""event"",""trial"",""time""
""focus"",""72"",""570042""
""focus"",""80"",""600532""
","""event"",""trial"",""time""
""fullscreenenter"",""1"",""3282""
","
","","","-1","","","15","9387","308","e","elianto","#f73b6a7A","-1","-1","1","0","[]","0","2","","","9387","44","2","4","lose","no-go","0"
"pit-trial","169","1058858","0.0-49.0","battery-v0.2","","""event"",""trial"",""time""
""fullscreenenter"",""1"",""3282""
""blur"",""71"",""563916""
""focus"",""72"",""570042""
""blur"",""78"",""596112""
""focus"",""80"",""600532""
","""event"",""trial"",""time""
""blur"",""71"",""563916""
""blur"",""78"",""596112""
","""event"",""trial"",""time""
""focus"",""72"",""570042""
""focus"",""80"",""600532""
","""event"",""trial"",""time""
""fullscreenenter"",""1"",""3282""
","
","","","-1","","","15","9387","308","j","elianto","#f73b6a7A","-1","-1","1","0","[]","0","2","","","9387","45","0","4","lose","no-go","0"
"pit-trial","170","1063720","0.0-50.0","battery-v0.2","","""event"",""trial"",""time""
""fullscreenenter"",""1"",""3282""
""blur"",""71"",""563916""
""focus"",""72"",""570042""
""blur"",""78"",""596112""
""focus"",""80"",""600532""
","""event"",""trial"",""time""
""blur"",""71"",""563916""
""blur"",""78"",""596112""
","""event"",""trial"",""time""
""focus"",""72"",""570042""
""focus"",""80"",""600532""
","""event"",""trial"",""time""
""fullscreenenter"",""1"",""3282""
","
","","","-1","","","15","9387","308","e","elianto","#f73b6a7A","-1","-1","1","0","[]","0","2","","","9387","46","2","4","lose","no-go","0"
"pit-trial","171","1067353","0.0-51.0","battery-v0.2","","""event"",""trial"",""time""
""fullscreenenter"",""1"",""3282""
""blur"",""71"",""563916""
""focus"",""72"",""570042""
""blur"",""78"",""596112""
""focus"",""80"",""600532""
","""event"",""trial"",""time""
""blur"",""71"",""563916""
""blur"",""78"",""596112""
","""event"",""trial"",""time""
""focus"",""72"",""570042""
""focus"",""80"",""600532""
","""event"",""trial"",""time""
""fullscreenenter"",""1"",""3282""
","
","","","767.7999997138977","","","15","9387","308","s","elianto","#3366ff99","-1"," ","0","+10","[1622.8000001907349]","1","2","","","9387","47","4","2","win","no-go","1"
"pit-trial","172","1071229","0.0-52.0","battery-v0.2","","""event"",""trial"",""time""
""fullscreenenter"",""1"",""3282""
""blur"",""71"",""563916""
""focus"",""72"",""570042""
""blur"",""78"",""596112""
""focus"",""80"",""600532""
","""event"",""trial"",""time""
""blur"",""71"",""563916""
""blur"",""78"",""596112""
","""event"",""trial"",""time""
""focus"",""72"",""570042""
""focus"",""80"",""600532""
","""event"",""trial"",""time""
""fullscreenenter"",""1"",""3282""
","
","","","1015.5","","","15","9387","308","w","elianto","#f73b6a7A"," "," ","1","0","[1871.5999999046326]","1","2","","","9387","48","3","3","lose","go","0"
"pit-trial","173","1074879","0.0-53.0","battery-v0.2","","""event"",""trial"",""time""
""fullscreenenter"",""1"",""3282""
""blur"",""71"",""563916""
""focus"",""72"",""570042""
""blur"",""78"",""596112""
""focus"",""80"",""600532""
","""event"",""trial"",""time""
""blur"",""71"",""563916""
""blur"",""78"",""596112""
","""event"",""trial"",""time""
""focus"",""72"",""570042""
""focus"",""80"",""600532""
","""event"",""trial"",""time""
""fullscreenenter"",""1"",""3282""
","
","","","786.0999999046326","","","15","9387","308","s","elianto","#3366ff99","-1"," ","0","0","[1641.5]","1","2","","","9387","49","4","2","win","no-go","0"
"pit-trial","174","1078975","0.0-54.0","battery-v0.2","","""event"",""trial"",""time""
""fullscreenenter"",""1"",""3282""
""blur"",""71"",""563916""
""focus"",""72"",""570042""
""blur"",""78"",""596112""
""focus"",""80"",""600532""
","""event"",""trial"",""time""
""blur"",""71"",""563916""
""blur"",""78"",""596112""
","""event"",""trial"",""time""
""focus"",""72"",""570042""
""focus"",""80"",""600532""
","""event"",""trial"",""time""
""fullscreenenter"",""1"",""3282""
","
","","","1232.5999999046326","","","15","9387","308","w","elianto","#f73b6a7A"," "," ","1","0","[2089.7999997138977]","1","2","","","9387","50","3","3","lose","go","0"
"pit-trial","175","1082553","0.0-55.0","battery-v0.2","","""event"",""trial"",""time""
""fullscreenenter"",""1"",""3282""
""blur"",""71"",""563916""
""focus"",""72"",""570042""
""blur"",""78"",""596112""
""focus"",""80"",""600532""
","""event"",""trial"",""time""
""blur"",""71"",""563916""
""blur"",""78"",""596112""
","""event"",""trial"",""time""
""focus"",""72"",""570042""
""focus"",""80"",""600532""
","""event"",""trial"",""time""
""fullscreenenter"",""1"",""3282""
","
","","","712.5","","","15","9387","308","d","elianto","#3366ff99"," "," ","1","+10","[1567.6999998092651]","1","2","","","9387","51","1","1","win","go","0"
"pit-trial","176","1087415","0.0-56.0","battery-v0.2","","""event"",""trial"",""time""
""fullscreenenter"",""1"",""3282""
""blur"",""71"",""563916""
""focus"",""72"",""570042""
""blur"",""78"",""596112""
""focus"",""80"",""600532""
","""event"",""trial"",""time""
""blur"",""71"",""563916""
""blur"",""78"",""596112""
","""event"",""trial"",""time""
""focus"",""72"",""570042""
""focus"",""80"",""600532""
","""event"",""trial"",""time""
""fullscreenenter"",""1"",""3282""
","
","","","-1","","","15","9387","308","j","elianto","#f73b6a7A","-1","-1","1","0","[]","0","2","","","9387","52","0","4","lose","no-go","0"
"pit-trial","177","1092277","0.0-57.0","battery-v0.2","","""event"",""trial"",""time""
""fullscreenenter"",""1"",""3282""
""blur"",""71"",""563916""
""focus"",""72"",""570042""
""blur"",""78"",""596112""
""focus"",""80"",""600532""
","""event"",""trial"",""time""
""blur"",""71"",""563916""
""blur"",""78"",""596112""
","""event"",""trial"",""time""
""focus"",""72"",""570042""
""focus"",""80"",""600532""
","""event"",""trial"",""time""
""fullscreenenter"",""1"",""3282""
","
","","","-1","","","15","9387","308","e","elianto","#f73b6a7A","-1","-1","1","0","[]","0","2","","","9387","53","2","4","lose","no-go","0"
"pit-trial","178","1095882","0.0-58.0","battery-v0.2","","""event"",""trial"",""time""
""fullscreenenter"",""1"",""3282""
""blur"",""71"",""563916""
""focus"",""72"",""570042""
""blur"",""78"",""596112""
""focus"",""80"",""600532""
","""event"",""trial"",""time""
""blur"",""71"",""563916""
""blur"",""78"",""596112""
","""event"",""trial"",""time""
""focus"",""72"",""570042""
""focus"",""80"",""600532""