"trial_type","trial_index","time_elapsed","internal_node_id","task_version","subject_id","interactions","blur_events","focus_events","fullscreenenter_events","fullscreenexit_events","success","view_history","rt","responses","num_errors","age","subject","participantId","rune","rune_set","hex","correct","choice","accuracy","outcome","keys","total_keys","block","practice","value","sub","trial","stimulus","robot","valence","action","sham"
"pavlovia","0","12","0.0-0.0","battery-v0.2","","""event"",""trial"",""time""
""focus"",""0"",""1""
""blur"",""1"",""15731""
""focus"",""1"",""36196""
""blur"",""1"",""37603""
""focus"",""1"",""51960""
""fullscreenenter"",""1"",""53645""
","""event"",""trial"",""time""
""blur"",""1"",""15731""
""blur"",""1"",""37603""
","""event"",""trial"",""time""
""focus"",""0"",""1""
""focus"",""1"",""36196""
""focus"",""1"",""51960""
","""event"",""trial"",""time""
""fullscreenenter"",""1"",""53645""
","
","","","","","","","","","","","","","","","","","","","","","","","","","","",""
"fullscreen","1","54412","0.0-1.0","battery-v0.2","","""event"",""trial"",""time""
""focus"",""0"",""1""
""blur"",""1"",""15731""
""focus"",""1"",""36196""
""blur"",""1"",""37603""
""focus"",""1"",""51960""
""fullscreenenter"",""1"",""53645""
","""event"",""trial"",""time""
""blur"",""1"",""15731""
""blur"",""1"",""37603""
","""event"",""trial"",""time""
""focus"",""0"",""1""
""focus"",""1"",""36196""
""focus"",""1"",""51960""
","""event"",""trial"",""time""
""fullscreenenter"",""1"",""53645""
","
","true","","","","","","","","","","","","","","","","","","","","","","","","","",""
"pit-instructions","2","59008","0.0-2.0-0.0","battery-v0.2","","""event"",""trial"",""time""
""focus"",""0"",""1""
""blur"",""1"",""15731""
""focus"",""1"",""36196""
""blur"",""1"",""37603""
""focus"",""1"",""51960""
""fullscreenenter"",""1"",""53645""
","""event"",""trial"",""time""
""blur"",""1"",""15731""
""blur"",""1"",""37603""
","""event"",""trial"",""time""
""focus"",""0"",""1""
""focus"",""1"",""36196""
""focus"",""1"",""51960""
","""event"",""trial"",""time""
""fullscreenenter"",""1"",""53645""
","
","","[{""page_index"":0,""viewing_time"":4588}]","4588","","","","","","","","","","","","","","","","","","","","","","","",""
"pit-comprehension","3","69177","0.0-2.0-1.0-0.0","battery-v0.2","","""event"",""trial"",""time""
""focus"",""0"",""1""
""blur"",""1"",""15731""
""focus"",""1"",""36196""
""blur"",""1"",""37603""
""focus"",""1"",""51960""
""fullscreenenter"",""1"",""53645""
","""event"",""trial"",""time""
""blur"",""1"",""15731""
""blur"",""1"",""37603""
","""event"",""trial"",""time""
""focus"",""0"",""1""
""focus"",""1"",""36196""
""focus"",""1"",""51960""
","""event"",""trial"",""time""
""fullscreenenter"",""1"",""53645""
","
","","","10163","[""shark""]","0","10","10026","1065","","","","","","","","","","","","","","","","","","",""
"pit-instructions","4","72790","0.0-2.0-1.0-1.0","battery-v0.2","","""event"",""trial"",""time""
""focus"",""0"",""1""
""blur"",""1"",""15731""
""focus"",""1"",""36196""
""blur"",""1"",""37603""
""focus"",""1"",""51960""
""fullscreenenter"",""1"",""53645""
","""event"",""trial"",""time""
""blur"",""1"",""15731""
""blur"",""1"",""37603""
","""event"",""trial"",""time""
""focus"",""0"",""1""
""focus"",""1"",""36196""
""focus"",""1"",""51960""
","""event"",""trial"",""time""
""fullscreenenter"",""1"",""53645""
","
","","[{""page_index"":0,""viewing_time"":3601}]","3601","","","","","","","","","","","","","","","","","","","","","","","",""
"pit-comprehension","5","77928","0.0-2.0-2.0-0.0","battery-v0.2","","""event"",""trial"",""time""
""focus"",""0"",""1""
""blur"",""1"",""15731""
""focus"",""1"",""36196""
""blur"",""1"",""37603""
""focus"",""1"",""51960""
""fullscreenenter"",""1"",""53645""
","""event"",""trial"",""time""
""blur"",""1"",""15731""
""blur"",""1"",""37603""
","""event"",""trial"",""time""
""focus"",""0"",""1""
""focus"",""1"",""36196""
""focus"",""1"",""51960""
","""event"",""trial"",""time""
""fullscreenenter"",""1"",""53645""
","
","","","5131","[""tiger""]","0","10","10026","1065","","","","","","","","","","","","","","","","","","",""
"pit-instructions","6","81555","0.0-2.0-2.0-1.0","battery-v0.2","","""event"",""trial"",""time""
""focus"",""0"",""1""
""blur"",""1"",""15731""
""focus"",""1"",""36196""
""blur"",""1"",""37603""
""focus"",""1"",""51960""
""fullscreenenter"",""1"",""53645""
","""event"",""trial"",""time""
""blur"",""1"",""15731""
""blur"",""1"",""37603""
","""event"",""trial"",""time""
""focus"",""0"",""1""
""focus"",""1"",""36196""
""focus"",""1"",""51960""
","""event"",""trial"",""time""
""fullscreenenter"",""1"",""53645""
","
","","[{""page_index"":0,""viewing_time"":3621}]","3621","","","","","","","","","","","","","","","","","","","","","","","",""
"pit-instructions","7","186818","0.0-2.0-3.0","battery-v0.2","","""event"",""trial"",""time""
""focus"",""0"",""1""
""blur"",""1"",""15731""
""focus"",""1"",""36196""
""blur"",""1"",""37603""
""focus"",""1"",""51960""
""fullscreenenter"",""1"",""53645""
","""event"",""trial"",""time""
""blur"",""1"",""15731""
""blur"",""1"",""37603""
","""event"",""trial"",""time""
""focus"",""0"",""1""
""focus"",""1"",""36196""
""focus"",""1"",""51960""
","""event"",""trial"",""time""
""fullscreenenter"",""1"",""53645""
","
","","[{""page_index"":0,""viewing_time"":8822},{""page_index"":1,""viewing_time"":6729},{""page_index"":2,""viewing_time"":8918},{""page_index"":3,""viewing_time"":6744},{""page_index"":4,""viewing_time"":6996},{""page_index"":5,""viewing_time"":5978},{""page_index"":6,""viewing_time"":8129},{""page_index"":7,""viewing_time"":6628},{""page_index"":8,""viewing_time"":8679},{""page_index"":9,""viewing_time"":9613},{""page_index"":10,""viewing_time"":8215},{""page_index"":11,""viewing_time"":7177},{""page_index"":12,""viewing_time"":6339},{""page_index"":13,""viewing_time"":6290}]","105258","","","","","","","","","","","","","","","","","","","","","","","",""
"pit-trial","8","189963","0.0-2.0-4.0-0.0","battery-v0.2","","""event"",""trial"",""time""
""focus"",""0"",""1""
""blur"",""1"",""15731""
""focus"",""1"",""36196""
""blur"",""1"",""37603""
""focus"",""1"",""51960""
""fullscreenenter"",""1"",""53645""
","""event"",""trial"",""time""
""blur"",""1"",""15731""
""blur"",""1"",""37603""
","""event"",""trial"",""time""
""focus"",""0"",""1""
""focus"",""1"",""36196""
""focus"",""1"",""51960""
","""event"",""trial"",""time""
""fullscreenenter"",""1"",""53645""
","
","","","287","","","10","10026","1065","&#9784;","elianto","#FFFFF080"," "," ","1","&#10004","[1137]","1","0","0","","","","","","","",""
"pit-trial","9","193612","0.0-2.0-4.1-0.1","battery-v0.2","","""event"",""trial"",""time""
""focus"",""0"",""1""
""blur"",""1"",""15731""
""focus"",""1"",""36196""
""blur"",""1"",""37603""
""focus"",""1"",""51960""
""fullscreenenter"",""1"",""53645""
","""event"",""trial"",""time""
""blur"",""1"",""15731""
""blur"",""1"",""37603""
","""event"",""trial"",""time""
""focus"",""0"",""1""
""focus"",""1"",""36196""
""focus"",""1"",""51960""
","""event"",""trial"",""time""
""fullscreenenter"",""1"",""53645""
","
","","","760","","","10","10026","1065","&#9784;","elianto","#FFFFF080"," "," ","1","&#10004","[1642]","1","0","0","","","","","","","",""
"pit-trial","10","197308","0.0-2.0-4.2-0.2","battery-v0.2","","""event"",""trial"",""time""
""focus"",""0"",""1""
""blur"",""1"",""15731""
""focus"",""1"",""36196""
""blur"",""1"",""37603""
""focus"",""1"",""51960""
""fullscreenenter"",""1"",""53645""
","""event"",""trial"",""time""
""blur"",""1"",""15731""
""blur"",""1"",""37603""
","""event"",""trial"",""time""
""focus"",""0"",""1""
""focus"",""1"",""36196""
""focus"",""1"",""51960""
","""event"",""trial"",""time""
""fullscreenenter"",""1"",""53645""
","
","","","836","","","10","10026","1065","&#9784;","elianto","#FFFFF080"," "," ","1","&#10004","[1691]","1","0","0","","","","","","","",""
"pit-trial","11","201046","0.0-2.0-4.3-0.3","battery-v0.2","","""event"",""trial"",""time""
""focus"",""0"",""1""
""blur"",""1"",""15731""
""focus"",""1"",""36196""
""blur"",""1"",""37603""
""focus"",""1"",""51960""
""fullscreenenter"",""1"",""53645""
","""event"",""trial"",""time""
""blur"",""1"",""15731""
""blur"",""1"",""37603""
","""event"",""trial"",""time""
""focus"",""0"",""1""
""focus"",""1"",""36196""
""focus"",""1"",""51960""
","""event"",""trial"",""time""
""fullscreenenter"",""1"",""53645""
","
","","","877","","","10","10026","1065","&#9784;","elianto","#FFFFF080"," "," ","1","&#10004","[1733]","1","0","0","","","","","","","",""
"pit-trial","12","204694","0.0-2.0-4.4-0.4","battery-v0.2","","""event"",""trial"",""time""
""focus"",""0"",""1""
""blur"",""1"",""15731""
""focus"",""1"",""36196""
""blur"",""1"",""37603""
""focus"",""1"",""51960""
""fullscreenenter"",""1"",""53645""
","""event"",""trial"",""time""
""blur"",""1"",""15731""
""blur"",""1"",""37603""
","""event"",""trial"",""time""
""focus"",""0"",""1""
""focus"",""1"",""36196""
""focus"",""1"",""51960""
","""event"",""trial"",""time""
""fullscreenenter"",""1"",""53645""
","
","","","794","","","10","10026","1065","&#9784;","elianto","#FFFFF080"," "," ","1","&#10004","[1645]","1","0","0","","","","","","","",""
"pit-instructions","13","231831","0.0-2.0-5.0","battery-v0.2","","""event"",""trial"",""time""
""focus"",""0"",""1""
""blur"",""1"",""15731""
""focus"",""1"",""36196""
""blur"",""1"",""37603""
""focus"",""1"",""51960""
""fullscreenenter"",""1"",""53645""
","""event"",""trial"",""time""
""blur"",""1"",""15731""
""blur"",""1"",""37603""
","""event"",""trial"",""time""
""focus"",""0"",""1""
""focus"",""1"",""36196""
""focus"",""1"",""51960""
","""event"",""trial"",""time""
""fullscreenenter"",""1"",""53645""
","
","","[{""page_index"":0,""viewing_time"":9179},{""page_index"":1,""viewing_time"":6694},{""page_index"":2,""viewing_time"":4855},{""page_index"":3,""viewing_time"":6402}]","27131","","","","","","","","","","","","","","","","","","","","","","","",""
"pit-trial","14","236693","0.0-2.0-6.0-0.0","battery-v0.2","","""event"",""trial"",""time""
""focus"",""0"",""1""
""blur"",""1"",""15731""
""focus"",""1"",""36196""
""blur"",""1"",""37603""
""focus"",""1"",""51960""
""fullscreenenter"",""1"",""53645""
","""event"",""trial"",""time""
""blur"",""1"",""15731""
""blur"",""1"",""37603""
","""event"",""trial"",""time""
""focus"",""0"",""1""
""focus"",""1"",""36196""
""focus"",""1"",""51960""
","""event"",""trial"",""time""
""fullscreenenter"",""1"",""53645""
","
","","","-1","","","10","10026","1065","&#9854;","elianto","#FFFFF080","-1","-1","1","&#10004","[]","0","0","1","","","","","","","",""
"pit-trial","15","241553","0.0-2.0-6.1-0.1","battery-v0.2","","""event"",""trial"",""time""
""focus"",""0"",""1""
""blur"",""1"",""15731""
""focus"",""1"",""36196""
""blur"",""1"",""37603""
""focus"",""1"",""51960""
""fullscreenenter"",""1"",""53645""
","""event"",""trial"",""time""
""blur"",""1"",""15731""
""blur"",""1"",""37603""
","""event"",""trial"",""time""
""focus"",""0"",""1""
""focus"",""1"",""36196""
""focus"",""1"",""51960""
","""event"",""trial"",""time""
""fullscreenenter"",""1"",""53645""
","
","","","-1","","","10","10026","1065","&#9854;","elianto","#FFFFF080","-1","-1","1","&#10004","[]","0","0","1","","","","","","","",""
"pit-trial","16","246411","0.0-2.0-6.2-0.2","battery-v0.2","","""event"",""trial"",""time""
""focus"",""0"",""1""
""blur"",""1"",""15731""
""focus"",""1"",""36196""
""blur"",""1"",""37603""
""focus"",""1"",""51960""
""fullscreenenter"",""1"",""53645""
","""event"",""trial"",""time""
""blur"",""1"",""15731""
""blur"",""1"",""37603""
","""event"",""trial"",""time""
""focus"",""0"",""1""
""focus"",""1"",""36196""
""focus"",""1"",""51960""
","""event"",""trial"",""time""
""fullscreenenter"",""1"",""53645""
","
","","","-1","","","10","10026","1065","&#9854;","elianto","#FFFFF080","-1","-1","1","&#10004","[]","0","0","1","","","","","","","",""
"pit-trial","17","251269","0.0-2.0-6.3-0.3","battery-v0.2","","""event"",""trial"",""time""
""focus"",""0"",""1""
""blur"",""1"",""15731""
""focus"",""1"",""36196""
""blur"",""1"",""37603""
""focus"",""1"",""51960""
""fullscreenenter"",""1"",""53645""
","""event"",""trial"",""time""
""blur"",""1"",""15731""
""blur"",""1"",""37603""
","""event"",""trial"",""time""
""focus"",""0"",""1""
""focus"",""1"",""36196""
""focus"",""1"",""51960""
","""event"",""trial"",""time""
""fullscreenenter"",""1"",""53645""
","
","","","-1","","","10","10026","1065","&#9854;","elianto","#FFFFF080","-1","-1","1","&#10004","[]","0","0","1","","","","","","","",""
"pit-trial","18","256128","0.0-2.0-6.4-0.4","battery-v0.2","","""event"",""trial"",""time""
""focus"",""0"",""1""
""blur"",""1"",""15731""
""focus"",""1"",""36196""
""blur"",""1"",""37603""
""focus"",""1"",""51960""
""fullscreenenter"",""1"",""53645""
","""event"",""trial"",""time""
""blur"",""1"",""15731""
""blur"",""1"",""37603""
","""event"",""trial"",""time""
""focus"",""0"",""1""
""focus"",""1"",""36196""
""focus"",""1"",""51960""
","""event"",""trial"",""time""
""fullscreenenter"",""1"",""53645""
","
","","","-1","","","10","10026","1065","&#9854;","elianto","#FFFFF080","-1","-1","1","&#10004","[]","0","0","1","","","","","","","",""
"pit-instructions","19","384935","0.0-2.0-7.0","battery-v0.2","","""event"",""trial"",""time""
""focus"",""0"",""1""
""blur"",""1"",""15731""
""focus"",""1"",""36196""
""blur"",""1"",""37603""
""focus"",""1"",""51960""
""fullscreenenter"",""1"",""53645""
","""event"",""trial"",""time""
""blur"",""1"",""15731""
""blur"",""1"",""37603""
","""event"",""trial"",""time""
""focus"",""0"",""1""
""focus"",""1"",""36196""
""focus"",""1"",""51960""
","""event"",""trial"",""time""
""fullscreenenter"",""1"",""53645""
","
","","[{""page_index"":0,""viewing_time"":7699},{""page_index"":1,""viewing_time"":7697},{""page_index"":2,""viewing_time"":6314},{""page_index"":3,""viewing_time"":7078},{""page_index"":4,""viewing_time"":6596},{""page_index"":5,""viewing_time"":5562},{""page_index"":6,""viewing_time"":5746},{""page_index"":7,""viewing_time"":7746},{""page_index"":8,""viewing_time"":7079},{""page_index"":9,""viewing_time"":7878},{""page_index"":10,""viewing_time"":7462},{""page_index"":11,""viewing_time"":5467},{""page_index"":12,""viewing_time"":6852},{""page_index"":13,""viewing_time"":9461},{""page_index"":14,""viewing_time"":7445},{""page_index"":15,""viewing_time"":7295},{""page_index"":16,""viewing_time"":6697},{""page_index"":17,""viewing_time"":8726}]","128801","","","","","","","","","","","","","","","","","","","","","","","",""
"pit-trial","20","388279","0.0-2.0-8.0-0.0","battery-v0.2","","""event"",""trial"",""time""
""focus"",""0"",""1""
""blur"",""1"",""15731""
""focus"",""1"",""36196""
""blur"",""1"",""37603""
""focus"",""1"",""51960""
""fullscreenenter"",""1"",""53645""
","""event"",""trial"",""time""
""blur"",""1"",""15731""
""blur"",""1"",""37603""
","""event"",""trial"",""time""
""focus"",""0"",""1""
""focus"",""1"",""36196""
""focus"",""1"",""51960""
","""event"",""trial"",""time""
""fullscreenenter"",""1"",""53645""
","
","","","479","","","10","10026","1065","&#9776;","elianto","#3366ff99"," "," ","1","+10","[1334]","1","0","1","","","","","","","",""
"pit-trial","21","391828","0.0-2.0-8.0-1.0","battery-v0.2","","""event"",""trial"",""time""
""focus"",""0"",""1""
""blur"",""1"",""15731""
""focus"",""1"",""36196""
""blur"",""1"",""37603""
""focus"",""1"",""51960""
""fullscreenenter"",""1"",""53645""
","""event"",""trial"",""time""
""blur"",""1"",""15731""
""blur"",""1"",""37603""
","""event"",""trial"",""time""
""focus"",""0"",""1""
""focus"",""1"",""36196""
""focus"",""1"",""51960""
","""event"",""trial"",""time""
""fullscreenenter"",""1"",""53645""
","
","","","695","","","10","10026","1065","&#9776;","elianto","#3366ff99"," "," ","1","+10","[1545]","1","0","1","","","","","","","",""
"pit-trial","22","395401","0.0-2.0-8.0-2.0","battery-v0.2","","""event"",""trial"",""time""
""focus"",""0"",""1""
""blur"",""1"",""15731""
""focus"",""1"",""36196""
""blur"",""1"",""37603""
""focus"",""1"",""51960""
""fullscreenenter"",""1"",""53645""
","""event"",""trial"",""time""
""blur"",""1"",""15731""
""blur"",""1"",""37603""
","""event"",""trial"",""time""
""focus"",""0"",""1""
""focus"",""1"",""36196""
""focus"",""1"",""51960""
","""event"",""trial"",""time""
""fullscreenenter"",""1"",""53645""
","
","","","716","","","10","10026","1065","&#9776;","elianto","#3366ff99"," "," ","1","+10","[1568]","1","0","1","","","","","","","",""
"pit-trial","23","398766","0.0-2.0-8.0-3.0","battery-v0.2","","""event"",""trial"",""time""
""focus"",""0"",""1""
""blur"",""1"",""15731""
""focus"",""1"",""36196""
""blur"",""1"",""37603""
""focus"",""1"",""51960""
""fullscreenenter"",""1"",""53645""
","""event"",""trial"",""time""
""blur"",""1"",""15731""
""blur"",""1"",""37603""
","""event"",""trial"",""time""
""focus"",""0"",""1""
""focus"",""1"",""36196""
""focus"",""1"",""51960""
","""event"",""trial"",""time""
""fullscreenenter"",""1"",""53645""
","
","","","508","","","10","10026","1065","&#9776;","elianto","#3366ff99"," "," ","1","0","[1360]","1","0","1","","","","","","","",""
"pit-trial","24","402158","0.0-2.0-8.0-4.0","battery-v0.2","","""event"",""trial"",""time""
""focus"",""0"",""1""
""blur"",""1"",""15731""
""focus"",""1"",""36196""
""blur"",""1"",""37603""
""focus"",""1"",""51960""
""fullscreenenter"",""1"",""53645""
","""event"",""trial"",""time""
""blur"",""1"",""15731""
""blur"",""1"",""37603""
","""event"",""trial"",""time""
""focus"",""0"",""1""
""focus"",""1"",""36196""
""focus"",""1"",""51960""
","""event"",""trial"",""time""
""fullscreenenter"",""1"",""53645""
","
","","","537","","","10","10026","1065","&#9776;","elianto","#3366ff99"," "," ","1","+10","[1388]","1","0","1","","","","","","","",""
"pit-trial","25","405492","0.0-2.0-8.1-0.1","battery-v0.2","","""event"",""trial"",""time""
""focus"",""0"",""1""
""blur"",""1"",""15731""
""focus"",""1"",""36196""
""blur"",""1"",""37603""
""focus"",""1"",""51960""
""fullscreenenter"",""1"",""53645""
","""event"",""trial"",""time""
""blur"",""1"",""15731""
""blur"",""1"",""37603""
","""event"",""trial"",""time""
""focus"",""0"",""1""
""focus"",""1"",""36196""
""focus"",""1"",""51960""
","""event"",""trial"",""time""
""fullscreenenter"",""1"",""53645""
","
","","","475","","","10","10026","1065","&#9776;","elianto","#3366ff99"," "," ","1","+10","[1326]","1","0","1","","","","","","","",""
"pit-trial","26","408979","0.0-2.0-8.1-1.1","battery-v0.2","","""event"",""trial"",""time""
""focus"",""0"",""1""
""blur"",""1"",""15731""
""focus"",""1"",""36196""
""blur"",""1"",""37603""
""focus"",""1"",""51960""
""fullscreenenter"",""1"",""53645""
","""event"",""trial"",""time""
""blur"",""1"",""15731""
""blur"",""1"",""37603""
","""event"",""trial"",""time""
""focus"",""0"",""1""
""focus"",""1"",""36196""
""focus"",""1"",""51960""
","""event"",""trial"",""time""
""fullscreenenter"",""1"",""53645""
","
","","","628","","","10","10026","1065","&#9776;","elianto","#3366ff99"," "," ","1","+10","[1481]","1","0","1","","","","","","","",""
"pit-trial","27","412417","0.0-2.0-8.1-2.1","battery-v0.2","","""event"",""trial"",""time""
""focus"",""0"",""1""
""blur"",""1"",""15731""
""focus"",""1"",""36196""
""blur"",""1"",""37603""
""focus"",""1"",""51960""
""fullscreenenter"",""1"",""53645""
","""event"",""trial"",""time""
""blur"",""1"",""15731""
""blur"",""1"",""37603""
","""event"",""trial"",""time""
""focus"",""0"",""1""
""focus"",""1"",""36196""
""focus"",""1"",""51960""
","""event"",""trial"",""time""
""fullscreenenter"",""1"",""53645""
","
","","","583","","","10","10026","1065","&#9776;","elianto","#3366ff99"," "," ","1","+10","[1433]","1","0","1","","","","","","","",""
"pit-trial","28","415774","0.0-2.0-8.1-3.1","battery-v0.2","","""event"",""trial"",""time""
""focus"",""0"",""1""
""blur"",""1"",""15731""
""focus"",""1"",""36196""
""blur"",""1"",""37603""
""focus"",""1"",""51960""
""fullscreenenter"",""1"",""53645""
","""event"",""trial"",""time""
""blur"",""1"",""15731""
""blur"",""1"",""37603""
","""event"",""trial"",""time""
""focus"",""0"",""1""
""focus"",""1"",""36196""
""focus"",""1"",""51960""
","""event"",""trial"",""time""
""fullscreenenter"",""1"",""53645""
","
","","","498","","","10","10026","1065","&#9776;","elianto","#3366ff99"," "," ","1","0","[1352]","1","0","1","","","","","","","",""
"pit-trial","29","419225","0.0-2.0-8.1-4.1","battery-v0.2","","""event"",""trial"",""time""
""focus"",""0"",""1""
""blur"",""1"",""15731""
""focus"",""1"",""36196""
""blur"",""1"",""37603""
""focus"",""1"",""51960""
""fullscreenenter"",""1"",""53645""
","""event"",""trial"",""time""
""blur"",""1"",""15731""
""blur"",""1"",""37603""
","""event"",""trial"",""time""
""focus"",""0"",""1""
""focus"",""1"",""36196""
""focus"",""1"",""51960""
","""event"",""trial"",""time""
""fullscreenenter"",""1"",""53645""
","
","","","596","","","10","10026","1065","&#9776;","elianto","#3366ff99"," "," ","1","+10","[1446]","1","0","1","","","","","","","",""
"pit-trial","30","422531","0.0-2.0-8.2-0.2","battery-v0.2","","""event"",""trial"",""time""
""focus"",""0"",""1""
""blur"",""1"",""15731""
""focus"",""1"",""36196""
""blur"",""1"",""37603""
""focus"",""1"",""51960""
""fullscreenenter"",""1"",""53645""
","""event"",""trial"",""time""
""blur"",""1"",""15731""
""blur"",""1"",""37603""
","""event"",""trial"",""time""
""focus"",""0"",""1""
""focus"",""1"",""36196""
""focus"",""1"",""51960""
","""event"",""trial"",""time""
""fullscreenenter"",""1"",""53645""
","
","","","448","","","10","10026","1065","&#9776;","elianto","#3366ff99"," "," ","1","+10","[1300]","1","0","1","","","","","","","",""
"pit-trial","31","426652","0.0-2.0-8.2-1.2","battery-v0.2","","""event"",""trial"",""time""
""focus"",""0"",""1""
""blur"",""1"",""15731""
""focus"",""1"",""36196""
""blur"",""1"",""37603""
""focus"",""1"",""51960""
""fullscreenenter"",""1"",""53645""
","""event"",""trial"",""time""
""blur"",""1"",""15731""
""blur"",""1"",""37603""
","""event"",""trial"",""time""
""focus"",""0"",""1""
""focus"",""1"",""36196""
""focus"",""1"",""51960""
","""event"",""trial"",""time""
""fullscreenenter"",""1"",""53645""
","
","","","1265","","","10","10026","1065","&#9776;","elianto","#3366ff99"," "," ","1","+10","[2118]","1","0","1","","","","","","","",""
"pit-trial","32","429933","0.0-2.0-8.2-2.2","battery-v0.2","","""event"",""trial"",""time""
""focus"",""0"",""1""
""blur"",""1"",""15731""
""focus"",""1"",""36196""
""blur"",""1"",""37603""
""focus"",""1"",""51960""
""fullscreenenter"",""1"",""53645""
","""event"",""trial"",""time""
""blur"",""1"",""15731""
""blur"",""1"",""37603""
","""event"",""trial"",""time""
""focus"",""0"",""1""
""focus"",""1"",""36196""
""focus"",""1"",""51960""
","""event"",""trial"",""time""
""fullscreenenter"",""1"",""53645""
","
","","","425","","","10","10026","1065","&#9776;","elianto","#3366ff99"," "," ","1","+10","[1277]","1","0","1","","","","","","","",""
"pit-trial","33","433336","0.0-2.0-8.2-3.2","battery-v0.2","","""event"",""trial"",""time""
""focus"",""0"",""1""
""blur"",""1"",""15731""
""focus"",""1"",""36196""
""blur"",""1"",""37603""
""focus"",""1"",""51960""
""fullscreenenter"",""1"",""53645""
","""event"",""trial"",""time""
""blur"",""1"",""15731""
""blur"",""1"",""37603""
","""event"",""trial"",""time""
""focus"",""0"",""1""
""focus"",""1"",""36196""
""focus"",""1"",""51960""
","""event"",""trial"",""time""
""fullscreenenter"",""1"",""53645""
","
","","","546","","","10","10026","1065","&#9776;","elianto","#3366ff99"," "," ","1","0","[1397]","1","0","1","","","","","","","",""
"pit-trial","34","436685","0.0-2.0-8.2-4.2","battery-v0.2","","""event"",""trial"",""time""
""focus"",""0"",""1""
""blur"",""1"",""15731""
""focus"",""1"",""36196""
""blur"",""1"",""37603""
""focus"",""1"",""51960""
""fullscreenenter"",""1"",""53645""
","""event"",""trial"",""time""
""blur"",""1"",""15731""
""blur"",""1"",""37603""
","""event"",""trial"",""time""
""focus"",""0"",""1""
""focus"",""1"",""36196""
""focus"",""1"",""51960""
","""event"",""trial"",""time""
""fullscreenenter"",""1"",""53645""
","
","","","493","","","10","10026","1065","&#9776;","elianto","#3366ff99"," "," ","1","+10","[1344]","1","0","1","","","","","","","",""
"call-function","35","436687","0.0-2.0-9.0","battery-v0.2","","""event"",""trial"",""time""
""focus"",""0"",""1""
""blur"",""1"",""15731""
""focus"",""1"",""36196""
""blur"",""1"",""37603""
""focus"",""1"",""51960""
""fullscreenenter"",""1"",""53645""
","""event"",""trial"",""time""
""blur"",""1"",""15731""
""blur"",""1"",""37603""
","""event"",""trial"",""time""
""focus"",""0"",""1""
""focus"",""1"",""36196""
""focus"",""1"",""51960""
","""event"",""trial"",""time""
""fullscreenenter"",""1"",""53645""
","
","","","","","","","","","","","","","","","","","","","","","","","","","","",""
"pit-instructions","36","478512","0.0-2.0-10.0","battery-v0.2","","""event"",""trial"",""time""
""focus"",""0"",""1""
""blur"",""1"",""15731""
""focus"",""1"",""36196""
""blur"",""1"",""37603""
""focus"",""1"",""51960""
""fullscreenenter"",""1"",""53645""
","""event"",""trial"",""time""
""blur"",""1"",""15731""
""blur"",""1"",""37603""
","""event"",""trial"",""time""
""focus"",""0"",""1""
""focus"",""1"",""36196""
""focus"",""1"",""51960""
","""event"",""trial"",""time""
""fullscreenenter"",""1"",""53645""
","
","","[{""page_index"":0,""viewing_time"":7417},{""page_index"":1,""viewing_time"":7363},{""page_index"":2,""viewing_time"":9912},{""page_index"":3,""viewing_time"":9338},{""page_index"":4,""viewing_time"":7792}]","41823","","","","","","","","","","","","","","","","","","","","","","","",""
"pit-trial","37","482263","0.0-2.0-11.0-0.0","battery-v0.2","","""event"",""trial"",""time""
""focus"",""0"",""1""
""blur"",""1"",""15731""
""focus"",""1"",""36196""
""blur"",""1"",""37603""
""focus"",""1"",""51960""
""fullscreenenter"",""1"",""53645""
","""event"",""trial"",""time""
""blur"",""1"",""15731""
""blur"",""1"",""37603""
","""event"",""trial"",""time""
""focus"",""0"",""1""
""focus"",""1"",""36196""
""focus"",""1"",""51960""
","""event"",""trial"",""time""
""fullscreenenter"",""1"",""53645""
","
","","","891","","","10","10026","1065","&#9761;","elianto","#3366ff99","-1"," ","0","0","[1742]","1","0","2","","","","","","","",""
"pit-trial","38","485640","0.0-2.0-11.0-1.0","battery-v0.2","","""event"",""trial"",""time""
""focus"",""0"",""1""
""blur"",""1"",""15731""
""focus"",""1"",""36196""
""blur"",""1"",""37603""
""focus"",""1"",""51960""
""fullscreenenter"",""1"",""53645""
","""event"",""trial"",""time""
""blur"",""1"",""15731""
""blur"",""1"",""37603""
","""event"",""trial"",""time""
""focus"",""0"",""1""
""focus"",""1"",""36196""
""focus"",""1"",""51960""
","""event"",""trial"",""time""
""fullscreenenter"",""1"",""53645""
","
","","","522","","","10","10026","1065","&#9761;","elianto","#3366ff99","-1"," ","0","0","[1373]","1","0","2","","","","","","","",""
"pit-trial","39","490499","0.0-2.0-11.0-2.0","battery-v0.2","","""event"",""trial"",""time""
""focus"",""0"",""1""
""blur"",""1"",""15731""
""focus"",""1"",""36196""
""blur"",""1"",""37603""
""focus"",""1"",""51960""
""fullscreenenter"",""1"",""53645""
","""event"",""trial"",""time""
""blur"",""1"",""15731""
""blur"",""1"",""37603""
","""event"",""trial"",""time""
""focus"",""0"",""1""
""focus"",""1"",""36196""
""focus"",""1"",""51960""
","""event"",""trial"",""time""
""fullscreenenter"",""1"",""53645""
","
","","","-1","","","10","10026","1065","&#9761;","elianto","#3366ff99","-1","-1","1","+10","[]","0","0","2","","","","","","","",""
"pit-trial","40","494514","0.0-2.0-11.0-3.0","battery-v0.2","","""event"",""trial"",""time""
""focus"",""0"",""1""
""blur"",""1"",""15731""
""focus"",""1"",""36196""
""blur"",""1"",""37603""
""focus"",""1"",""51960""
""fullscreenenter"",""1"",""53645""
","""event"",""trial"",""time""
""blur"",""1"",""15731""
""blur"",""1"",""37603""
","""event"",""trial"",""time""
""focus"",""0"",""1""
""focus"",""1"",""36196""
""focus"",""1"",""51960""
","""event"",""trial"",""time""
""fullscreenenter"",""1"",""53645""
","
","","","1159","","","10","10026","1065","&#9761;","elianto","#3366ff99","-1"," ","0","+10","[2009]","1","0","2","","","","","","","",""
"pit-trial","41","498093","0.0-2.0-11.0-4.0","battery-v0.2","","""event"",""trial"",""time""
""focus"",""0"",""1""
""blur"",""1"",""15731""
""focus"",""1"",""36196""
""blur"",""1"",""37603""
""focus"",""1"",""51960""
""fullscreenenter"",""1"",""53645""
","""event"",""trial"",""time""
""blur"",""1"",""15731""
""blur"",""1"",""37603""
","""event"",""trial"",""time""
""focus"",""0"",""1""
""focus"",""1"",""36196""
""focus"",""1"",""51960""
","""event"",""trial"",""time""
""fullscreenenter"",""1"",""53645""
","
","","","721","","","10","10026","1065","&#9761;","elianto","#3366ff99","-1"," ","0","0","[1571]","1","0","2","","","","","","","",""
"pit-trial","42","501869","0.0-2.0-11.1-0.1","battery-v0.2","","""event"",""trial"",""time""
""focus"",""0"",""1""
""blur"",""1"",""15731""
""focus"",""1"",""36196""
""blur"",""1"",""37603""
""focus"",""1"",""51960""
""fullscreenenter"",""1"",""53645""
","""event"",""trial"",""time""
""blur"",""1"",""15731""
""blur"",""1"",""37603""
","""event"",""trial"",""time""
""focus"",""0"",""1""
""focus"",""1"",""36196""
""focus"",""1"",""51960""
","""event"",""trial"",""time""
""fullscreenenter"",""1"",""53645""
","
","","","918","","","10","10026","1065","&#9761;","elianto","#3366ff99","-1"," ","0","0","[1771]","1","0","2","","","","","","","",""
"pit-trial","43","505289","0.0-2.0-11.1-1.1","battery-v0.2","","""event"",""trial"",""time""
""focus"",""0"",""1""
""blur"",""1"",""15731""
""focus"",""1"",""36196""
""blur"",""1"",""37603""
""focus"",""1"",""51960""
""fullscreenenter"",""1"",""53645""
","""event"",""trial"",""time""
""blur"",""1"",""15731""
""blur"",""1"",""37603""
","""event"",""trial"",""time""
""focus"",""0"",""1""
""focus"",""1"",""36196""
""focus"",""1"",""51960""
","""event"",""trial"",""time""
""fullscreenenter"",""1"",""53645""
","
","","","561","","","10","10026","1065","&#9761;","elianto","#3366ff99","-1"," ","0","0","[1413]","1","0","2","","","","","","","",""
"pit-trial","44","508413","0.0-2.0-11.1-2.1","battery-v0.2","","""event"",""trial"",""time""
""focus"",""0"",""1""
""blur"",""1"",""15731""
""focus"",""1"",""36196""
""blur"",""1"",""37603""
""focus"",""1"",""51960""
""fullscreenenter"",""1"",""53645""
","""event"",""trial"",""time""
""blur"",""1"",""15731""
""blur"",""1"",""37603""
","""event"",""trial"",""time""
""focus"",""0"",""1""
""focus"",""1"",""36196""
""focus"",""1"",""51960""
","""event"",""trial"",""time""
""fullscreenenter"",""1"",""53645""
","
","","","264","","","10","10026","1065","&#9761;","elianto","#3366ff99","-1"," ","0","0","[1120]","1","0","2","","","","","","","",""
"pit-trial","45","511587","0.0-2.0-11.1-3.1","battery-v0.2","","""event"",""trial"",""time""
""focus"",""0"",""1""
""blur"",""1"",""15731""
""focus"",""1"",""36196""
""blur"",""1"",""37603""
""focus"",""1"",""51960""
""fullscreenenter"",""1"",""53645""
","""event"",""trial"",""time""
""blur"",""1"",""15731""
""blur"",""1"",""37603""
","""event"",""trial"",""time""
""focus"",""0"",""1""
""focus"",""1"",""36196""
""focus"",""1"",""51960""
","""event"",""trial"",""time""
""fullscreenenter"",""1"",""53645""
","
","","","317","","","10","10026","1065","&#9761;","elianto","#3366ff99","-1"," ","0","+10","[1168]","1","0","2","","","","","","","",""
"pit-trial","46","514573","0.0-2.0-11.1-4.1","battery-v0.2","","""event"",""trial"",""time""
""focus"",""0"",""1""
""blur"",""1"",""15731""
""focus"",""1"",""36196""
""blur"",""1"",""37603""
""focus"",""1"",""51960""
""fullscreenenter"",""1"",""53645""
","""event"",""trial"",""time""
""blur"",""1"",""15731""
""blur"",""1"",""37603""
","""event"",""trial"",""time""
""focus"",""0"",""1""
""focus"",""1"",""36196""
""focus"",""1"",""51960""
","""event"",""trial"",""time""
""fullscreenenter"",""1"",""53645""
","
","","","128","","","10","10026","1065","&#9761;","elianto","#3366ff99","-1"," ","0","0","[980]","1","0","2","","","","","","","",""
"pit-trial","47","517959","0.0-2.0-11.2-0.2","battery-v0.2","","""event"",""trial"",""time""
""focus"",""0"",""1""
""blur"",""1"",""15731""
""focus"",""1"",""36196""
""blur"",""1"",""37603""
""focus"",""1"",""51960""
""fullscreenenter"",""1"",""53645""
","""event"",""trial"",""time""
""blur"",""1"",""15731""
""blur"",""1"",""37603""
","""event"",""trial"",""time""
""focus"",""0"",""1""
""focus"",""1"",""36196""
""focus"",""1"",""51960""
","""event"",""trial"",""time""
""fullscreenenter"",""1"",""53645""
","
","","","528","","","10","10026","1065","&#9761;","elianto","#3366ff99","-1"," ","0","0","[1379]","1","0","2","","","","","","","",""
"pit-trial","48","521068","0.0-2.0-11.2-1.2","battery-v0.2","","""event"",""trial"",""time""
""focus"",""0"",""1""
""blur"",""1"",""15731""
""focus"",""1"",""36196""
""blur"",""1"",""37603""
""focus"",""1"",""51960""
""fullscreenenter"",""1"",""53645""
","""event"",""trial"",""time""
""blur"",""1"",""15731""
""blur"",""1"",""37603""
","""event"",""trial"",""time""
""focus"",""0"",""1""
""focus"",""1"",""36196""
""focus"",""1"",""51960""
","""event"",""trial"",""time""
""fullscreenenter"",""1"",""53645""
","
","","","242","","","10","10026","1065","&#9761;","elianto","#3366ff99","-1"," ","0","0","[1105]","1","0","2","","","","","","","",""
"pit-trial","49","525928","0.0-2.0-11.2-2.2","battery-v0.2","","""event"",""trial"",""time""
""focus"",""0"",""1""
""blur"",""1"",""15731""
""focus"",""1"",""36196""
""blur"",""1"",""37603""
""focus"",""1"",""51960""
""fullscreenenter"",""1"",""53645""
","""event"",""trial"",""time""
""blur"",""1"",""15731""
""blur"",""1"",""37603""
","""event"",""trial"",""time""
""focus"",""0"",""1""
""focus"",""1"",""36196""
""focus"",""1"",""51960""
","""event"",""trial"",""time""
""fullscreenenter"",""1"",""53645""
","
","","","-1","","","10","10026","1065","&#9761;","elianto","#3366ff99","-1","-1","1","+10","[785]","1","0","2","","","","","","","",""
"pit-trial","50","529437","0.0-2.0-11.2-3.2","battery-v0.2","","""event"",""trial"",""time""
""focus"",""0"",""1""
""blur"",""1"",""15731""
""focus"",""1"",""36196""
""blur"",""1"",""37603""
""focus"",""1"",""51960""
""fullscreenenter"",""1"",""53645""
","""event"",""trial"",""time""
""blur"",""1"",""15731""
""blur"",""1"",""37603""
","""event"",""trial"",""time""
""focus"",""0"",""1""
""focus"",""1"",""36196""
""focus"",""1"",""51960""
","""event"",""trial"",""time""
""fullscreenenter"",""1"",""53645""
","
","","","654","","","10","10026","1065","&#9761;","elianto","#3366ff99","-1"," ","0","+10","[1505]","1","0","2","","","","","","","",""
"pit-trial","51","532829","0.0-2.0-11.2-4.2","battery-v0.2","","""event"",""trial"",""time""
""focus"",""0"",""1""
""blur"",""1"",""15731""
""focus"",""1"",""36196""
""blur"",""1"",""37603""
""focus"",""1"",""51960""
""fullscreenenter"",""1"",""53645""
","""event"",""trial"",""time""
""blur"",""1"",""15731""
""blur"",""1"",""37603""
","""event"",""trial"",""time""
""focus"",""0"",""1""
""focus"",""1"",""36196""
""focus"",""1"",""51960""
","""event"",""trial"",""time""
""fullscreenenter"",""1"",""53645""
","
","","","537","","","10","10026","1065","&#9761;","elianto","#3366ff99","-1"," ","0","0","[1387]","1","0","2","","","","","","","",""
"pit-trial","52","536060","0.0-2.0-11.3-0.3","battery-v0.2","","""event"",""trial"",""time""
""focus"",""0"",""1""
""blur"",""1"",""15731""
""focus"",""1"",""36196""
""blur"",""1"",""37603""
""focus"",""1"",""51960""
""fullscreenenter"",""1"",""53645""
","""event"",""trial"",""time""
""blur"",""1"",""15731""
""blur"",""1"",""37603""
","""event"",""trial"",""time""
""focus"",""0"",""1""
""focus"",""1"",""36196""
""focus"",""1"",""51960""
","""event"",""trial"",""time""
""fullscreenenter"",""1"",""53645""
","
","","","366","","","10","10026","1065","&#9761;","elianto","#3366ff99","-1"," ","0","0","[1224]","1","0","2","","","","","","","",""
"pit-trial","53","539655","0.0-2.0-11.3-1.3","battery-v0.2","","""event"",""trial"",""time""
""focus"",""0"",""1""
""blur"",""1"",""15731""
""focus"",""1"",""36196""
""blur"",""1"",""37603""
""focus"",""1"",""51960""
""fullscreenenter"",""1"",""53645""
","""event"",""trial"",""time""
""blur"",""1"",""15731""
""blur"",""1"",""37603""
","""event"",""trial"",""time""
""focus"",""0"",""1""
""focus"",""1"",""36196""
""focus"",""1"",""51960""
","""event"",""trial"",""time""
""fullscreenenter"",""1"",""53645""
","
","","","736","","","10","10026","1065","&#9761;","elianto","#3366ff99","-1"," ","0","0","[1589]","1","0","2","","","","","","","",""
"pit-trial","54","542834","0.0-2.0-11.3-2.3","battery-v0.2","","""event"",""trial"",""time""
""focus"",""0"",""1""
""blur"",""1"",""15731""
""focus"",""1"",""36196""
""blur"",""1"",""37603""
""focus"",""1"",""51960""
""fullscreenenter"",""1"",""53645""
","""event"",""trial"",""time""
""blur"",""1"",""15731""
""blur"",""1"",""37603""
","""event"",""trial"",""time""
""focus"",""0"",""1""
""focus"",""1"",""36196""
""focus"",""1"",""51960""
","""event"",""trial"",""time""
""fullscreenenter"",""1"",""53645""
","
","","","320","","","10","10026","1065","&#9761;","elianto","#3366ff99","-1"," ","0","0","[1174]","1","0","2","","","","","","","",""
"pit-trial","55","546386","0.0-2.0-11.3-3.3","battery-v0.2","","""event"",""trial"",""time""
""focus"",""0"",""1""
""blur"",""1"",""15731""
""focus"",""1"",""36196""
""blur"",""1"",""37603""
""focus"",""1"",""51960""
""fullscreenenter"",""1"",""53645""
","""event"",""trial"",""time""
""blur"",""1"",""15731""
""blur"",""1"",""37603""
","""event"",""trial"",""time""
""focus"",""0"",""1""
""focus"",""1"",""36196""
""focus"",""1"",""51960""
","""event"",""trial"",""time""
""fullscreenenter"",""1"",""53645""
","
","","","696","","","10","10026","1065","&#9761;","elianto","#3366ff99","-1"," ","0","+10","[1546]","1","0","2","","","","","","","",""
"pit-trial","56","549719","0.0-2.0-11.3-4.3","battery-v0.2","","""event"",""trial"",""time""
""focus"",""0"",""1""
""blur"",""1"",""15731""
""focus"",""1"",""36196""
""blur"",""1"",""37603""
""focus"",""1"",""51960""
""fullscreenenter"",""1"",""53645""
","""event"",""trial"",""time""
""blur"",""1"",""15731""
""blur"",""1"",""37603""
","""event"",""trial"",""time""
""focus"",""0"",""1""
""focus"",""1"",""36196""
""focus"",""1"",""51960""
","""event"",""trial"",""time""
""fullscreenenter"",""1"",""53645""
","
","","","479","","","10","10026","1065","&#9761;","elianto","#3366ff99","-1"," ","0","0","[1330]","1","0","2","","","","","","","",""
"call-function","57","549722","0.0-2.0-12.0","battery-v0.2","","""event"",""trial"",""time""
""focus"",""0"",""1""
""blur"",""1"",""15731""
""focus"",""1"",""36196""
""blur"",""1"",""37603""
""focus"",""1"",""51960""
""fullscreenenter"",""1"",""53645""
","""event"",""trial"",""time""
""blur"",""1"",""15731""
""blur"",""1"",""37603""
","""event"",""trial"",""time""
""focus"",""0"",""1""
""focus"",""1"",""36196""
""focus"",""1"",""51960""
","""event"",""trial"",""time""
""fullscreenenter"",""1"",""53645""
","
","","","","","","","","","","","","","","","","","","","","","","","","","","",""
"pit-instructions","58","586867","0.0-2.0-13.0","battery-v0.2","","""event"",""trial"",""time""
""focus"",""0"",""1""
""blur"",""1"",""15731""
""focus"",""1"",""36196""
""blur"",""1"",""37603""
""focus"",""1"",""51960""
""fullscreenenter"",""1"",""53645""
","""event"",""trial"",""time""
""blur"",""1"",""15731""
""blur"",""1"",""37603""
","""event"",""trial"",""time""
""focus"",""0"",""1""
""focus"",""1"",""36196""
""focus"",""1"",""51960""
","""event"",""trial"",""time""
""fullscreenenter"",""1"",""53645""
","
","","[{""page_index"":0,""viewing_time"":8704},{""page_index"":1,""viewing_time"":8459},{""page_index"":2,""viewing_time"":3522},{""page_index"":3,""viewing_time"":11484},{""page_index"":4,""viewing_time"":4974}]","37143","","","","","","","","","","","","","","","","","","","","","","","",""
"pit-trial","59","591730","0.0-2.0-14.0-0.0","battery-v0.2","","""event"",""trial"",""time""
""focus"",""0"",""1""
""blur"",""1"",""15731""
""focus"",""1"",""36196""
""blur"",""1"",""37603""
""focus"",""1"",""51960""
""fullscreenenter"",""1"",""53645""
","""event"",""trial"",""time""
""blur"",""1"",""15731""
""blur"",""1"",""37603""
","""event"",""trial"",""time""
""focus"",""0"",""1""
""focus"",""1"",""36196""
""focus"",""1"",""51960""
","""event"",""trial"",""time""
""fullscreenenter"",""1"",""53645""
","
","","","-1","","","10","10026","1065","&#9826;","elianto","#f73b6a7A","-1","-1","1","0","[]","0","0","3","","","","","","","",""
"pit-trial","60","596588","0.0-2.0-14.0-1.0","battery-v0.2","","""event"",""trial"",""time""
""focus"",""0"",""1""
""blur"",""1"",""15731""
""focus"",""1"",""36196""
""blur"",""1"",""37603""
""focus"",""1"",""51960""
""fullscreenenter"",""1"",""53645""
","""event"",""trial"",""time""
""blur"",""1"",""15731""
""blur"",""1"",""37603""
","""event"",""trial"",""time""
""focus"",""0"",""1""
""focus"",""1"",""36196""
""focus"",""1"",""51960""
","""event"",""trial"",""time""
""fullscreenenter"",""1"",""53645""
","
","","","-1","","","10","10026","1065","&#9826;","elianto","#f73b6a7A","-1","-1","1","0","[]","0","0","3","","","","","","","",""
"pit-trial","61","601447","0.0-2.0-14.0-2.0","battery-v0.2","","""event"",""trial"",""time""
""focus"",""0"",""1""
""blur"",""1"",""15731""
""focus"",""1"",""36196""
""blur"",""1"",""37603""
""focus"",""1"",""51960""
""fullscreenenter"",""1"",""53645""
","""event"",""trial"",""time""
""blur"",""1"",""15731""
""blur"",""1"",""37603""
","""event"",""trial"",""time""
""focus"",""0"",""1""
""focus"",""1"",""36196""
""focus"",""1"",""51960""
","""event"",""trial"",""time""
""fullscreenenter"",""1"",""53645""
","
","","","-1","","","10","10026","1065","&#9826;","elianto","#f73b6a7A","-1","-1","1","0","[]","0","0","3","","","","","","","",""
"pit-trial","62","606305","0.0-2.0-14.0-3.0","battery-v0.2","","""event"",""trial"",""time""
""focus"",""0"",""1""
""blur"",""1"",""15731""
""focus"",""1"",""36196""
""blur"",""1"",""37603""
""focus"",""1"",""51960""
""fullscreenenter"",""1"",""53645""
","""event"",""trial"",""time""
""blur"",""1"",""15731""
""blur"",""1"",""37603""
","""event"",""trial"",""time""
""focus"",""0"",""1""
""focus"",""1"",""36196""
""focus"",""1"",""51960""
","""event"",""trial"",""time""
""fullscreenenter"",""1"",""53645""
","
","","","-1","","","10","10026","1065","&#9826;","elianto","#f73b6a7A","-1","-1","1","-10","[]","0","0","3","","","","","","","",""
"pit-trial","63","611164","0.0-2.0-14.0-4.0","battery-v0.2","","""event"",""trial"",""time""
""focus"",""0"",""1""
""blur"",""1"",""15731""
""focus"",""1"",""36196""
""blur"",""1"",""37603""
""focus"",""1"",""51960""
""fullscreenenter"",""1"",""53645""
","""event"",""trial"",""time""
""blur"",""1"",""15731""
""blur"",""1"",""37603""
","""event"",""trial"",""time""
""focus"",""0"",""1""
""focus"",""1"",""36196""
""focus"",""1"",""51960""
","""event"",""trial"",""time""
""fullscreenenter"",""1"",""53645""
","
","","","-1","","","10","10026","1065","&#9826;","elianto","#f73b6a7A","-1","-1","1","0","[]","0","0","3","","","","","","","",""
"pit-trial","64","616021","0.0-2.0-14.1-0.1","battery-v0.2","","""event"",""trial"",""time""
""focus"",""0"",""1""
""blur"",""1"",""15731""
""focus"",""1"",""36196""
""blur"",""1"",""37603""
""focus"",""1"",""51960""
""fullscreenenter"",""1"",""53645""
","""event"",""trial"",""time""
""blur"",""1"",""15731""
""blur"",""1"",""37603""
","""event"",""trial"",""time""
""focus"",""0"",""1""
""focus"",""1"",""36196""
""focus"",""1"",""51960""
","""event"",""trial"",""time""
""fullscreenenter"",""1"",""53645""
","
","","","-1","","","10","10026","1065","&#9826;","elianto","#f73b6a7A","-1","-1","1","0","[]","0","0","3","","","","","","","",""
"pit-trial","65","620875","0.0-2.0-14.1-1.1","battery-v0.2","","""event"",""trial"",""time""
""focus"",""0"",""1""
""blur"",""1"",""15731""
""focus"",""1"",""36196""
""blur"",""1"",""37603""
""focus"",""1"",""51960""
""fullscreenenter"",""1"",""53645""
","""event"",""trial"",""time""
""blur"",""1"",""15731""
""blur"",""1"",""37603""
","""event"",""trial"",""time""
""focus"",""0"",""1""
""focus"",""1"",""36196""
""focus"",""1"",""51960""
","""event"",""trial"",""time""
""fullscreenenter"",""1"",""53645""
","
","","","-1","","","10","10026","1065","&#9826;","elianto","#f73b6a7A","-1","-1","1","0","[]","0","0","3","","","","","","","",""
"pit-trial","66","625732","0.0-2.0-14.1-2.1","battery-v0.2","","""event"",""trial"",""time""
""focus"",""0"",""1""
""blur"",""1"",""15731""
""focus"",""1"",""36196""
""blur"",""1"",""37603""
""focus"",""1"",""51960""
""fullscreenenter"",""1"",""53645""
","""event"",""trial"",""time""
""blur"",""1"",""15731""
""blur"",""1"",""37603""
","""event"",""trial"",""time""
""focus"",""0"",""1""
""focus"",""1"",""36196""
""focus"",""1"",""51960""
","""event"",""trial"",""time""
""fullscreenenter"",""1"",""53645""
","
","","","-1","","","10","10026","1065","&#9826;","elianto","#f73b6a7A","-1","-1","1","0","[]","0","0","3","","","","","","","",""
"pit-trial","67","630592","0.0-2.0-14.1-3.1","battery-v0.2","","""event"",""trial"",""time""
""focus"",""0"",""1""
""blur"",""1"",""15731""
""focus"",""1"",""36196""
""blur"",""1"",""37603""
""focus"",""1"",""51960""
""fullscreenenter"",""1"",""53645""
","""event"",""trial"",""time""
""blur"",""1"",""15731""
""blur"",""1"",""37603""
","""event"",""trial"",""time""
""focus"",""0"",""1""
""focus"",""1"",""36196""
""focus"",""1"",""51960""
","""event"",""trial"",""time""
""fullscreenenter"",""1"",""53645""
","
","","","-1","","","10","10026","1065","&#9826;","elianto","#f73b6a7A","-1","-1","1","-10","[]","0","0","3","","","","","","","",""
"pit-trial","68","635451","0.0-2.0-14.1-4.1","battery-v0.2","","""event"",""trial"",""time""
""focus"",""0"",""1""
""blur"",""1"",""15731""
""focus"",""1"",""36196""
""blur"",""1"",""37603""
""focus"",""1"",""51960""
""fullscreenenter"",""1"",""53645""
","""event"",""trial"",""time""
""blur"",""1"",""15731""
""blur"",""1"",""37603""
","""event"",""trial"",""time""
""focus"",""0"",""1""
""focus"",""1"",""36196""
""focus"",""1"",""51960""
","""event"",""trial"",""time""
""fullscreenenter"",""1"",""53645""
","
","","","-1","","","10","10026","1065","&#9826;","elianto","#f73b6a7A","-1","-1","1","0","[]","0","0","3","","","","","","","",""
"pit-trial","69","640310","0.0-2.0-14.2-0.2","battery-v0.2","","""event"",""trial"",""time""
""focus"",""0"",""1""
""blur"",""1"",""15731""
""focus"",""1"",""36196""
""blur"",""1"",""37603""
""focus"",""1"",""51960""
""fullscreenenter"",""1"",""53645""
","""event"",""trial"",""time""
""blur"",""1"",""15731""
""blur"",""1"",""37603""
","""event"",""trial"",""time""
""focus"",""0"",""1""
""focus"",""1"",""36196""
""focus"",""1"",""51960""
","""event"",""trial"",""time""
""fullscreenenter"",""1"",""53645""
","
","","","-1","","","10","10026","1065","&#9826;","elianto","#f73b6a7A","-1","-1","1","0","[]","0","0","3","","","","","","","",""
"pit-trial","70","645168","0.0-2.0-14.2-1.2","battery-v0.2","","""event"",""trial"",""time""
""focus"",""0"",""1""
""blur"",""1"",""15731""
""focus"",""1"",""36196""
""blur"",""1"",""37603""
""focus"",""1"",""51960""
""fullscreenenter"",""1"",""53645""
","""event"",""trial"",""time""
""blur"",""1"",""15731""
""blur"",""1"",""37603""
","""event"",""trial"",""time""
""focus"",""0"",""1""
""focus"",""1"",""36196""
""focus"",""1"",""51960""
","""event"",""trial"",""time""
""fullscreenenter"",""1"",""53645""
","
","","","-1","","","10","10026","1065","&#9826;","elianto","#f73b6a7A","-1","-1","1","0","[]","0","0","3","","","","","","","",""
"pit-trial","71","650027","0.0-2.0-14.2-2.2","battery-v0.2","","""event"",""trial"",""time""
""focus"",""0"",""1""
""blur"",""1"",""15731""
""focus"",""1"",""36196""
""blur"",""1"",""37603""
""focus"",""1"",""51960""
""fullscreenenter"",""1"",""53645""
","""event"",""trial"",""time""
""blur"",""1"",""15731""
""blur"",""1"",""37603""
","""event"",""trial"",""time""
""focus"",""0"",""1""
""focus"",""1"",""36196""
""focus"",""1"",""51960""
","""event"",""trial"",""time""
""fullscreenenter"",""1"",""53645""
","
","","","-1","","","10","10026","1065","&#9826;","elianto","#f73b6a7A","-1","-1","1","0","[]","0","0","3","","","","","","","",""
"pit-trial","72","654886","0.0-2.0-14.2-3.2","battery-v0.2","","""event"",""trial"",""time""
""focus"",""0"",""1""
""blur"",""1"",""15731""
""focus"",""1"",""36196""
""blur"",""1"",""37603""
""focus"",""1"",""51960""
""fullscreenenter"",""1"",""53645""
","""event"",""trial"",""time""
""blur"",""1"",""15731""
""blur"",""1"",""37603""
","""event"",""trial"",""time""
""focus"",""0"",""1""
""focus"",""1"",""36196""
""focus"",""1"",""51960""
","""event"",""trial"",""time""
""fullscreenenter"",""1"",""53645""
","
","","","-1","","","10","10026","1065","&#9826;","elianto","#f73b6a7A","-1","-1","1","-10","[]","0","0","3","","","","","","","",""
"pit-trial","73","659744","0.0-2.0-14.2-4.2","battery-v0.2","","""event"",""trial"",""time""
""focus"",""0"",""1""
""blur"",""1"",""15731""
""focus"",""1"",""36196""
""blur"",""1"",""37603""
""focus"",""1"",""51960""
""fullscreenenter"",""1"",""53645""
","""event"",""trial"",""time""
""blur"",""1"",""15731""
""blur"",""1"",""37603""
","""event"",""trial"",""time""
""focus"",""0"",""1""
""focus"",""1"",""36196""
""focus"",""1"",""51960""
","""event"",""trial"",""time""
""fullscreenenter"",""1"",""53645""
","
","","","-1","","","10","10026","1065","&#9826;","elianto","#f73b6a7A","-1","-1","1","0","[]","0","0","3","","","","","","","",""
"pit-trial","74","664603","0.0-2.0-14.3-0.3","battery-v0.2","","""event"",""trial"",""time""
""focus"",""0"",""1""
""blur"",""1"",""15731""
""focus"",""1"",""36196""
""blur"",""1"",""37603""
""focus"",""1"",""51960""
""fullscreenenter"",""1"",""53645""
","""event"",""trial"",""time""
""blur"",""1"",""15731""
""blur"",""1"",""37603""
","""event"",""trial"",""time""
""focus"",""0"",""1""
""focus"",""1"",""36196""
""focus"",""1"",""51960""
","""event"",""trial"",""time""
""fullscreenenter"",""1"",""53645""
","
","","","-1","","","10","10026","1065","&#9826;","elianto","#f73b6a7A","-1","-1","1","0","[]","0","0","3","","","","","","","",""
"pit-trial","75","669461","0.0-2.0-14.3-1.3","battery-v0.2","","""event"",""trial"",""time""
""focus"",""0"",""1""
""blur"",""1"",""15731""
""focus"",""1"",""36196""
""blur"",""1"",""37603""
""focus"",""1"",""51960""
""fullscreenenter"",""1"",""53645""
","""event"",""trial"",""time""
""blur"",""1"",""15731""
""blur"",""1"",""37603""
","""event"",""trial"",""time""
""focus"",""0"",""1""
""focus"",""1"",""36196""
""focus"",""1"",""51960""
","""event"",""trial"",""time""
""fullscreenenter"",""1"",""53645""
","
","","","-1","","","10","10026","1065","&#9826;","elianto","#f73b6a7A","-1","-1","1","0","[]","0","0","3","","","","","","","",""
"pit-trial","76","674320","0.0-2.0-14.3-2.3","battery-v0.2","","""event"",""trial"",""time""
""focus"",""0"",""1""
""blur"",""1"",""15731""
""focus"",""1"",""36196""
""blur"",""1"",""37603""
""focus"",""1"",""51960""
""fullscreenenter"",""1"",""53645""
","""event"",""trial"",""time""
""blur"",""1"",""15731""
""blur"",""1"",""37603""
","""event"",""trial"",""time""
""focus"",""0"",""1""
""focus"",""1"",""36196""
""focus"",""1"",""51960""
","""event"",""trial"",""time""
""fullscreenenter"",""1"",""53645""
","
","","","-1","","","10","10026","1065","&#9826;","elianto","#f73b6a7A","-1","-1","1","0","[]","0","0","3","","","","","","","",""
"pit-trial","77","679179","0.0-2.0-14.3-3.3","battery-v0.2","","""event"",""trial"",""time""
""focus"",""0"",""1""
""blur"",""1"",""15731""
""focus"",""1"",""36196""
""blur"",""1"",""37603""
""focus"",""1"",""51960""
""fullscreenenter"",""1"",""53645""
","""event"",""trial"",""time""
""blur"",""1"",""15731""
""blur"",""1"",""37603""
","""event"",""trial"",""time""
""focus"",""0"",""1""
""focus"",""1"",""36196""
""focus"",""1"",""51960""
","""event"",""trial"",""time""
""fullscreenenter"",""1"",""53645""
","
","","","-1","","","10","10026","1065","&#9826;","elianto","#f73b6a7A","-1","-1","1","-10","[]","0","0","3","","","","","","","",""
"pit-trial","78","684034","0.0-2.0-14.3-4.3","battery-v0.2","","""event"",""trial"",""time""
""focus"",""0"",""1""
""blur"",""1"",""15731""
""focus"",""1"",""36196""
""blur"",""1"",""37603""
""focus"",""1"",""51960""
""fullscreenenter"",""1"",""53645""
","""event"",""trial"",""time""
""blur"",""1"",""15731""
""blur"",""1"",""37603""
","""event"",""trial"",""time""
""focus"",""0"",""1""
""focus"",""1"",""36196""
""focus"",""1"",""51960""
","""event"",""trial"",""time""
""fullscreenenter"",""1"",""53645""
","
","","","-1","","","10","10026","1065","&#9826;","elianto","#f73b6a7A","-1","-1","1","0","[]","0","0","3","","","","","","","",""
"call-function","79","684036","0.0-2.0-15.0","battery-v0.2","","""event"",""trial"",""time""
""focus"",""0"",""1""
""blur"",""1"",""15731""
""focus"",""1"",""36196""
""blur"",""1"",""37603""
""focus"",""1"",""51960""
""fullscreenenter"",""1"",""53645""
","""event"",""trial"",""time""
""blur"",""1"",""15731""
""blur"",""1"",""37603""
","""event"",""trial"",""time""
""focus"",""0"",""1""
""focus"",""1"",""36196""
""focus"",""1"",""51960""
","""event"",""trial"",""time""
""fullscreenenter"",""1"",""53645""
","
","","","","","","","","","","","","","","","","","","","","","","","","","","",""
"pit-instructions","80","727396","0.0-2.0-16.0","battery-v0.2","","""event"",""trial"",""time""
""focus"",""0"",""1""
""blur"",""1"",""15731""
""focus"",""1"",""36196""
""blur"",""1"",""37603""
""focus"",""1"",""51960""
""fullscreenenter"",""1"",""53645""
","""event"",""trial"",""time""
""blur"",""1"",""15731""
""blur"",""1"",""37603""
","""event"",""trial"",""time""
""focus"",""0"",""1""
""focus"",""1"",""36196""
""focus"",""1"",""51960""
","""event"",""trial"",""time""
""fullscreenenter"",""1"",""53645""
","
","","[{""page_index"":0,""viewing_time"":7301},{""page_index"":1,""viewing_time"":15502},{""page_index"":2,""viewing_time"":8528},{""page_index"":3,""viewing_time"":12015}]","43347","","","","","","","","","","","","","","","","","","","","","","","",""
"pit-trial","81","732254","0.0-2.0-17.0-0.0","battery-v0.2","","""event"",""trial"",""time""
""focus"",""0"",""1""
""blur"",""1"",""15731""
""focus"",""1"",""36196""
""blur"",""1"",""37603""
""focus"",""1"",""51960""
""fullscreenenter"",""1"",""53645""
","""event"",""trial"",""time""
""blur"",""1"",""15731""
""blur"",""1"",""37603""
","""event"",""trial"",""time""
""focus"",""0"",""1""
""focus"",""1"",""36196""
""focus"",""1"",""51960""
","""event"",""trial"",""time""
""fullscreenenter"",""1"",""53645""
","
","","","-1","","","10","10026","1065","&#9789;","elianto","#f73b6a7A"," ","-1","0","-10","[]","0","0","4","","","","","","","",""
"pit-trial","82","737110","0.0-2.0-17.0-1.0","battery-v0.2","","""event"",""trial"",""time""
""focus"",""0"",""1""
""blur"",""1"",""15731""
""focus"",""1"",""36196""
""blur"",""1"",""37603""
""focus"",""1"",""51960""
""fullscreenenter"",""1"",""53645""
","""event"",""trial"",""time""
""blur"",""1"",""15731""
""blur"",""1"",""37603""
","""event"",""trial"",""time""
""focus"",""0"",""1""
""focus"",""1"",""36196""
""focus"",""1"",""51960""
","""event"",""trial"",""time""
""fullscreenenter"",""1"",""53645""
","
","","","-1","","","10","10026","1065","&#9789;","elianto","#f73b6a7A"," ","-1","0","-10","[]","0","0","4","","","","","","","",""
"pit-trial","83","740624","0.0-2.0-17.0-2.0","battery-v0.2","","""event"",""trial"",""time""
""focus"",""0"",""1""
""blur"",""1"",""15731""
""focus"",""1"",""36196""
""blur"",""1"",""37603""
""focus"",""1"",""51960""
""fullscreenenter"",""1"",""53645""
","""event"",""trial"",""time""
""blur"",""1"",""15731""
""blur"",""1"",""37603""
","""event"",""trial"",""time""
""focus"",""0"",""1""
""focus"",""1"",""36196""
""focus"",""1"",""51960""
","""event"",""trial"",""time""
""fullscreenenter"",""1"",""53645""
","
","","","657","","","10","10026","1065","&#9789;","elianto","#f73b6a7A"," "," ","1","0","[1508]","1","0","4","","","","","","","",""
"pit-trial","84","744113","0.0-2.0-17.0-3.0","battery-v0.2","","""event"",""trial"",""time""
""focus"",""0"",""1""
""blur"",""1"",""15731""
""focus"",""1"",""36196""
""blur"",""1"",""37603""
""focus"",""1"",""51960""
""fullscreenenter"",""1"",""53645""
","""event"",""trial"",""time""
""blur"",""1"",""15731""
""blur"",""1"",""37603""
","""event"",""trial"",""time""
""focus"",""0"",""1""
""focus"",""1"",""36196""
""focus"",""1"",""51960""
","""event"",""trial"",""time""
""fullscreenenter"",""1"",""53645""
","
","","","634","","","10","10026","1065","&#9789;","elianto","#f73b6a7A"," "," ","1","-10","[1484]","1","0","4","","","","","","","",""
"pit-trial","85","748971","0.0-2.0-17.0-4.0","battery-v0.2","","""event"",""trial"",""time""
""focus"",""0"",""1""
""blur"",""1"",""15731""
""focus"",""1"",""36196""
""blur"",""1"",""37603""
""focus"",""1"",""51960""
""fullscreenenter"",""1"",""53645""
","""event"",""trial"",""time""
""blur"",""1"",""15731""
""blur"",""1"",""37603""
","""event"",""trial"",""time""
""focus"",""0"",""1""
""focus"",""1"",""36196""
""focus"",""1"",""51960""
","""event"",""trial"",""time""
""fullscreenenter"",""1"",""53645""
","
","","","-1","","","10","10026","1065","&#9789;","elianto","#f73b6a7A"," ","-1","0","-10","[]","0","0","4","","","","","","","",""
"pit-trial","86","752385","0.0-2.0-17.1-0.1","battery-v0.2","","""event"",""trial"",""time""
""focus"",""0"",""1""
""blur"",""1"",""15731""
""focus"",""1"",""36196""
""blur"",""1"",""37603""
""focus"",""1"",""51960""
""fullscreenenter"",""1"",""53645""
","""event"",""trial"",""time""
""blur"",""1"",""15731""
""blur"",""1"",""37603""
","""event"",""trial"",""time""
""focus"",""0"",""1""
""focus"",""1"",""36196""
""focus"",""1"",""51960""
","""event"",""trial"",""time""
""fullscreenenter"",""1"",""53645""
","
","","","557","","","10","10026","1065","&#9789;","elianto","#f73b6a7A"," "," ","1","0","[1412]","1","0","4","","","","","","","",""
"pit-trial","87","755686","0.0-2.0-17.1-1.1","battery-v0.2","","""event"",""trial"",""time""
""focus"",""0"",""1""
""blur"",""1"",""15731""
""focus"",""1"",""36196""
""blur"",""1"",""37603""
""focus"",""1"",""51960""
""fullscreenenter"",""1"",""53645""
","""event"",""trial"",""time""
""blur"",""1"",""15731""
""blur"",""1"",""37603""
","""event"",""trial"",""time""
""focus"",""0"",""1""
""focus"",""1"",""36196""
""focus"",""1"",""51960""
","""event"",""trial"",""time""
""fullscreenenter"",""1"",""53645""
","
","","","444","","","10","10026","1065","&#9789;","elianto","#f73b6a7A"," "," ","1","0","[1295]","1","0","4","","","","","","","",""
"pit-trial","88","760545","0.0-2.0-17.1-2.1","battery-v0.2","","""event"",""trial"",""time""
""focus"",""0"",""1""
""blur"",""1"",""15731""
""focus"",""1"",""36196""
""blur"",""1"",""37603""
""focus"",""1"",""51960""
""fullscreenenter"",""1"",""53645""
","""event"",""trial"",""time""
""blur"",""1"",""15731""
""blur"",""1"",""37603""
","""event"",""trial"",""time""
""focus"",""0"",""1""
""focus"",""1"",""36196""
""focus"",""1"",""51960""
","""event"",""trial"",""time""
""fullscreenenter"",""1"",""53645""
","
","","","-1","","","10","10026","1065","&#9789;","elianto","#f73b6a7A"," ","-1","0","-10","[]","0","0","4","","","","","","","",""
"pit-trial","89","765404","0.0-2.0-17.1-3.1","battery-v0.2","","""event"",""trial"",""time""
""focus"",""0"",""1""
""blur"",""1"",""15731""
""focus"",""1"",""36196""
""blur"",""1"",""37603""
""focus"",""1"",""51960""
""fullscreenenter"",""1"",""53645""
","""event"",""trial"",""time""
""blur"",""1"",""15731""
""blur"",""1"",""37603""
","""event"",""trial"",""time""
""focus"",""0"",""1""
""focus"",""1"",""36196""
""focus"",""1"",""51960""
","""event"",""trial"",""time""
""fullscreenenter"",""1"",""53645""
","
","","","-1","","","10","10026","1065","&#9789;","elianto","#f73b6a7A"," ","-1","0","0","[]","0","0","4","","","","","","","",""
"pit-trial","90","770257","0.0-2.0-17.1-4.1","battery-v0.2","","""event"",""trial"",""time""
""focus"",""0"",""1""
""blur"",""1"",""15731""
""focus"",""1"",""36196""
""blur"",""1"",""37603""
""focus"",""1"",""51960""
""fullscreenenter"",""1"",""53645""
","""event"",""trial"",""time""
""blur"",""1"",""15731""
""blur"",""1"",""37603""
","""event"",""trial"",""time""
""focus"",""0"",""1""
""focus"",""1"",""36196""
""focus"",""1"",""51960""
","""event"",""trial"",""time""
""fullscreenenter"",""1"",""53645""
","
","","","-1","","","10","10026","1065","&#9789;","elianto","#f73b6a7A"," ","-1","0","-10","[]","0","0","4","","","","","","","",""
"pit-trial","91","775113","0.0-2.0-17.2-0.2","battery-v0.2","","""event"",""trial"",""time""
""focus"",""0"",""1""
""blur"",""1"",""15731""
""focus"",""1"",""36196""
""blur"",""1"",""37603""
""focus"",""1"",""51960""
""fullscreenenter"",""1"",""53645""
","""event"",""trial"",""time""
""blur"",""1"",""15731""
""blur"",""1"",""37603""
","""event"",""trial"",""time""
""focus"",""0"",""1""
""focus"",""1"",""36196""
""focus"",""1"",""51960""
","""event"",""trial"",""time""
""fullscreenenter"",""1"",""53645""
","
","","","-1","","","10","10026","1065","&#9789;","elianto","#f73b6a7A"," ","-1","0","-10","[]","0","0","4","","","","","","","",""
"pit-trial","92","779974","0.0-2.0-17.2-1.2","battery-v0.2","","""event"",""trial"",""time""
""focus"",""0"",""1""
""blur"",""1"",""15731""
""focus"",""1"",""36196""
""blur"",""1"",""37603""
""focus"",""1"",""51960""
""fullscreenenter"",""1"",""53645""
","""event"",""trial"",""time""
""blur"",""1"",""15731""
""blur"",""1"",""37603""
","""event"",""trial"",""time""
""focus"",""0"",""1""
""focus"",""1"",""36196""
""focus"",""1"",""51960""
","""event"",""trial"",""time""
""fullscreenenter"",""1"",""53645""
","
","","","-1","","","10","10026","1065","&#9789;","elianto","#f73b6a7A"," ","-1","0","-10","[]","0","0","4","","","","","","","",""
"pit-trial","93","784828","0.0-2.0-17.2-2.2","battery-v0.2","","""event"",""trial"",""time""
""focus"",""0"",""1""
""blur"",""1"",""15731""
""focus"",""1"",""36196""
""blur"",""1"",""37603""
""focus"",""1"",""51960""
""fullscreenenter"",""1"",""53645""
","""event"",""trial"",""time""
""blur"",""1"",""15731""
""blur"",""1"",""37603""
","""event"",""trial"",""time""
""focus"",""0"",""1""
""focus"",""1"",""36196""
""focus"",""1"",""51960""
","""event"",""trial"",""time""
""fullscreenenter"",""1"",""53645""
","
","","","-1","","","10","10026","1065","&#9789;","elianto","#f73b6a7A"," ","-1","0","-10","[]","0","0","4","","","","","","","",""
"pit-trial","94","788060","0.0-2.0-17.2-3.2","battery-v0.2","","""event"",""trial"",""time""
""focus"",""0"",""1""
""blur"",""1"",""15731""
""focus"",""1"",""36196""
""blur"",""1"",""37603""
""focus"",""1"",""51960""
""fullscreenenter"",""1"",""53645""
","""event"",""trial"",""time""
""blur"",""1"",""15731""
""blur"",""1"",""37603""
","""event"",""trial"",""time""
""focus"",""0"",""1""
""focus"",""1"",""36196""
""focus"",""1"",""51960""
","""event"",""trial"",""time""
""fullscreenenter"",""1"",""53645""
","
","","","376","","","10","10026","1065","&#9789;","elianto","#f73b6a7A"," "," ","1","-10","[1227]","1","0","4","","","","","","","",""
"pit-trial","95","792916","0.0-2.0-17.2-4.2","battery-v0.2","","""event"",""trial"",""time""
""focus"",""0"",""1""
""blur"",""1"",""15731""
""focus"",""1"",""36196""
""blur"",""1"",""37603""
""focus"",""1"",""51960""
""fullscreenenter"",""1"",""53645""
","""event"",""trial"",""time""
""blur"",""1"",""15731""
""blur"",""1"",""37603""
","""event"",""trial"",""time""
""focus"",""0"",""1""
""focus"",""1"",""36196""
""focus"",""1"",""51960""
","""event"",""trial"",""time""
""fullscreenenter"",""1"",""53645""
","
","","","-1","","","10","10026","1065","&#9789;","elianto","#f73b6a7A"," ","-1","0","-10","[]","0","0","4","","","","","","","",""
"pit-trial","96","797773","0.0-2.0-17.3-0.3","battery-v0.2","","""event"",""trial"",""time""
""focus"",""0"",""1""
""blur"",""1"",""15731""
""focus"",""1"",""36196""
""blur"",""1"",""37603""
""focus"",""1"",""51960""
""fullscreenenter"",""1"",""53645""
","""event"",""trial"",""time""
""blur"",""1"",""15731""
""blur"",""1"",""37603""
","""event"",""trial"",""time""
""focus"",""0"",""1""
""focus"",""1"",""36196""
""focus"",""1"",""51960""
","""event"",""trial"",""time""
""fullscreenenter"",""1"",""53645""
","
","","","-1","","","10","10026","1065","&#9789;","elianto","#f73b6a7A"," ","-1","0","-10","[]","0","0","4","","","","","","","",""
"pit-trial","97","802629","0.0-2.0-17.3-1.3","battery-v0.2","","""event"",""trial"",""time""
""focus"",""0"",""1""
""blur"",""1"",""15731""
""focus"",""1"",""36196""
""blur"",""1"",""37603""
""focus"",""1"",""51960""
""fullscreenenter"",""1"",""53645""
","""event"",""trial"",""time""
""blur"",""1"",""15731""
""blur"",""1"",""37603""
","""event"",""trial"",""time""
""focus"",""0"",""1""
""focus"",""1"",""36196""
""focus"",""1"",""51960""
","""event"",""trial"",""time""
""fullscreenenter"",""1"",""53645""
","
","","","-1","","","10","10026","1065","&#9789;","elianto","#f73b6a7A"," ","-1","0","-10","[]","0","0","4","","","","","","","",""
"pit-trial","98","806601","0.0-2.0-17.3-2.3","battery-v0.2","","""event"",""trial"",""time""
""focus"",""0"",""1""
""blur"",""1"",""15731""
""focus"",""1"",""36196""
""blur"",""1"",""37603""
""focus"",""1"",""51960""
""fullscreenenter"",""1"",""53645""
","""event"",""trial"",""time""
""blur"",""1"",""15731""
""blur"",""1"",""37603""
","""event"",""trial"",""time""
""focus"",""0"",""1""
""focus"",""1"",""36196""
""focus"",""1"",""51960""
","""event"",""trial"",""time""
""fullscreenenter"",""1"",""53645""
","
","","","1112","","","10","10026","1065","&#9789;","elianto","#f73b6a7A"," "," ","1","0","[1965]","1","0","4","","","","","","","",""
"pit-trial","99","810608","0.0-2.0-17.3-3.3","battery-v0.2","","""event"",""trial"",""time""
""focus"",""0"",""1""
""blur"",""1"",""15731""
""focus"",""1"",""36196""
""blur"",""1"",""37603""
""focus"",""1"",""51960""
""fullscreenenter"",""1"",""53645""
","""event"",""trial"",""time""
""blur"",""1"",""15731""
""blur"",""1"",""37603""
","""event"",""trial"",""time""
""focus"",""0"",""1""
""focus"",""1"",""36196""
""focus"",""1"",""51960""
","""event"",""trial"",""time""
""fullscreenenter"",""1"",""53645""
","
","","","1149","","","10","10026","1065","&#9789;","elianto","#f73b6a7A"," "," ","1","-10","[2002]","1","0","4","","","","","","","",""
"pit-trial","100","815467","0.0-2.0-17.3-4.3","battery-v0.2","","""event"",""trial"",""time""
""focus"",""0"",""1""
""blur"",""1"",""15731""
""focus"",""1"",""36196""
""blur"",""1"",""37603""
""focus"",""1"",""51960""
""fullscreenenter"",""1"",""53645""
","""event"",""trial"",""time""
""blur"",""1"",""15731""
""blur"",""1"",""37603""
","""event"",""trial"",""time""
""focus"",""0"",""1""
""focus"",""1"",""36196""
""focus"",""1"",""51960""
","""event"",""trial"",""time""
""fullscreenenter"",""1"",""53645""
","
","","","-1","","","10","10026","1065","&#9789;","elianto","#f73b6a7A"," ","-1","0","-10","[]","0","0","4","","","","","","","",""
"call-function","101","815469","0.0-2.0-18.0","battery-v0.2","","""event"",""trial"",""time""
""focus"",""0"",""1""
""blur"",""1"",""15731""
""focus"",""1"",""36196""
""blur"",""1"",""37603""
""focus"",""1"",""51960""
""fullscreenenter"",""1"",""53645""
","""event"",""trial"",""time""
""blur"",""1"",""15731""
""blur"",""1"",""37603""
","""event"",""trial"",""time""
""focus"",""0"",""1""
""focus"",""1"",""36196""
""focus"",""1"",""51960""
","""event"",""trial"",""time""
""fullscreenenter"",""1"",""53645""
","
","","","","","","","","","","","","","","","","","","","","","","","","","","",""
"pit-instructions","102","892087","0.0-2.0-19.0","battery-v0.2","","""event"",""trial"",""time""
""focus"",""0"",""1""
""blur"",""1"",""15731""
""focus"",""1"",""36196""
""blur"",""1"",""37603""
""focus"",""1"",""51960""
""fullscreenenter"",""1"",""53645""
","""event"",""trial"",""time""
""blur"",""1"",""15731""
""blur"",""1"",""37603""
","""event"",""trial"",""time""
""focus"",""0"",""1""
""focus"",""1"",""36196""
""focus"",""1"",""51960""
","""event"",""trial"",""time""
""fullscreenenter"",""1"",""53645""
","
","","[{""page_index"":0,""viewing_time"":7360},{""page_index"":1,""viewing_time"":7458},{""page_index"":2,""viewing_time"":14499},{""page_index"":3,""viewing_time"":7813},{""page_index"":4,""viewing_time"":9895},{""page_index"":5,""viewing_time"":9183},{""page_index"":6,""viewing_time"":8910},{""page_index"":7,""viewing_time"":7331},{""page_index"":8,""viewing_time"":4167}]","76617","","","","","","","","","","","","","","","","","","","","","","","",""
"pit-comprehension","103","899760","0.0-2.0-20.0-0.0","battery-v0.2","","""event"",""trial"",""time""
""focus"",""0"",""1""
""blur"",""1"",""15731""
""focus"",""1"",""36196""
""blur"",""1"",""37603""
""focus"",""1"",""51960""
""fullscreenenter"",""1"",""53645""
","""event"",""trial"",""time""
""blur"",""1"",""15731""
""blur"",""1"",""37603""
","""event"",""trial"",""time""
""focus"",""0"",""1""
""focus"",""1"",""36196""
""focus"",""1"",""51960""
","""event"",""trial"",""time""
""fullscreenenter"",""1"",""53645""
","
","","","7666","[""SPACE""]","0","10","10026","1065","","","","","","","","","","","","","","","","","","",""
"pit-instructions","104","903952","0.0-2.0-20.0-1.0","battery-v0.2","","""event"",""trial"",""time""
""focus"",""0"",""1""
""blur"",""1"",""15731""
""focus"",""1"",""36196""
""blur"",""1"",""37603""
""focus"",""1"",""51960""
""fullscreenenter"",""1"",""53645""
","""event"",""trial"",""time""
""blur"",""1"",""15731""
""blur"",""1"",""37603""
","""event"",""trial"",""time""
""focus"",""0"",""1""
""focus"",""1"",""36196""
""focus"",""1"",""51960""
","""event"",""trial"",""time""
""fullscreenenter"",""1"",""53645""
","
","","[{""page_index"":0,""viewing_time"":4157}]","4157","","","","","","","","","","","","","","","","","","","","","","","",""
"pit-comprehension","105","911651","0.0-2.0-21.0-0.0","battery-v0.2","","""event"",""trial"",""time""
""focus"",""0"",""1""
""blur"",""1"",""15731""
""focus"",""1"",""36196""
""blur"",""1"",""37603""
""focus"",""1"",""51960""
""fullscreenenter"",""1"",""53645""
","""event"",""trial"",""time""
""blur"",""1"",""15731""
""blur"",""1"",""37603""
","""event"",""trial"",""time""
""focus"",""0"",""1""
""focus"",""1"",""36196""
""focus"",""1"",""51960""
","""event"",""trial"",""time""
""fullscreenenter"",""1"",""53645""
","
","","","7692","[""10""]","0","10","10026","1065","","","","","","","","","","","","","","","","","","",""
"pit-instructions","106","914347","0.0-2.0-21.0-1.0","battery-v0.2","","""event"",""trial"",""time""
""focus"",""0"",""1""
""blur"",""1"",""15731""
""focus"",""1"",""36196""
""blur"",""1"",""37603""
""focus"",""1"",""51960""
""fullscreenenter"",""1"",""53645""
","""event"",""trial"",""time""
""blur"",""1"",""15731""
""blur"",""1"",""37603""
","""event"",""trial"",""time""
""focus"",""0"",""1""
""focus"",""1"",""36196""
""focus"",""1"",""51960""
","""event"",""trial"",""time""
""fullscreenenter"",""1"",""53645""
","
","","[{""page_index"":0,""viewing_time"":2660}]","2660","","","","","","","","","","","","","","","","","","","","","","","",""
"pit-comprehension","107","922917","0.0-2.0-22.0-0.0","battery-v0.2","","""event"",""trial"",""time""
""focus"",""0"",""1""
""blur"",""1"",""15731""
""focus"",""1"",""36196""
""blur"",""1"",""37603""
""focus"",""1"",""51960""
""fullscreenenter"",""1"",""53645""
","""event"",""trial"",""time""
""blur"",""1"",""15731""
""blur"",""1"",""37603""
","""event"",""trial"",""time""
""focus"",""0"",""1""
""focus"",""1"",""36196""
""focus"",""1"",""51960""
","""event"",""trial"",""time""
""fullscreenenter"",""1"",""53645""
","
","","","8565","[""-10""]","1","10","10026","1065","","","","","","","","","","","","","","","","","","",""
"pit-instructions","108","929179","0.0-2.0-22.0-1.0","battery-v0.2","","""event"",""trial"",""time""
""focus"",""0"",""1""
""blur"",""1"",""15731""
""focus"",""1"",""36196""
""blur"",""1"",""37603""
""focus"",""1"",""51960""
""fullscreenenter"",""1"",""53645""
","""event"",""trial"",""time""
""blur"",""1"",""15731""
""blur"",""1"",""37603""
","""event"",""trial"",""time""
""focus"",""0"",""1""
""focus"",""1"",""36196""
""focus"",""1"",""51960""
","""event"",""trial"",""time""
""fullscreenenter"",""1"",""53645""
","
","","[{""page_index"":0,""viewing_time"":6226}]","6226","","","","","","","","","","","","","","","","","","","","","","","",""
"pit-instructions","109","933447","0.0-2.0-22.0-2.0-0.0","battery-v0.2","","""event"",""trial"",""time""
""focus"",""0"",""1""
""blur"",""1"",""15731""
""focus"",""1"",""36196""
""blur"",""1"",""37603""
""focus"",""1"",""51960""
""fullscreenenter"",""1"",""53645""
","""event"",""trial"",""time""
""blur"",""1"",""15731""
""blur"",""1"",""37603""
","""event"",""trial"",""time""
""focus"",""0"",""1""
""focus"",""1"",""36196""
""focus"",""1"",""51960""
","""event"",""trial"",""time""
""fullscreenenter"",""1"",""53645""
","
","","[{""page_index"":0,""viewing_time"":4267}]","4267","","","","","","","","","","","","","","","","","","","","","","","",""
"pit-comprehension","110","942740","0.0-2.0-22.1-0.1","battery-v0.2","","""event"",""trial"",""time""
""focus"",""0"",""1""
""blur"",""1"",""15731""
""focus"",""1"",""36196""
""blur"",""1"",""37603""
""focus"",""1"",""51960""
""fullscreenenter"",""1"",""53645""
","""event"",""trial"",""time""
""blur"",""1"",""15731""
""blur"",""1"",""37603""
","""event"",""trial"",""time""
""focus"",""0"",""1""
""focus"",""1"",""36196""
""focus"",""1"",""51960""
","""event"",""trial"",""time""
""fullscreenenter"",""1"",""53645""
","
","","","9288","[""0""]","0","10","10026","1065","","","","","","","","","","","","","","","","","","",""
"pit-instructions","111","945307","0.0-2.0-22.1-1.1","battery-v0.2","","""event"",""trial"",""time""
""focus"",""0"",""1""
""blur"",""1"",""15731""
""focus"",""1"",""36196""
""blur"",""1"",""37603""
""focus"",""1"",""51960""
""fullscreenenter"",""1"",""53645""
","""event"",""trial"",""time""
""blur"",""1"",""15731""
""blur"",""1"",""37603""
","""event"",""trial"",""time""
""focus"",""0"",""1""
""focus"",""1"",""36196""
""focus"",""1"",""51960""
","""event"",""trial"",""time""
""fullscreenenter"",""1"",""53645""
","
","","[{""page_index"":0,""viewing_time"":2532}]","2532","","","","","","","","","","","","","","","","","","","","","","","",""
"pit-comprehension","112","959776","0.0-2.0-23.0-0.0","battery-v0.2","","""event"",""trial"",""time""
""focus"",""0"",""1""
""blur"",""1"",""15731""
""focus"",""1"",""36196""
""blur"",""1"",""37603""
""focus"",""1"",""51960""
""fullscreenenter"",""1"",""53645""
","""event"",""trial"",""time""
""blur"",""1"",""15731""
""blur"",""1"",""37603""
","""event"",""trial"",""time""
""focus"",""0"",""1""
""focus"",""1"",""36196""
""focus"",""1"",""51960""
","""event"",""trial"",""time""
""fullscreenenter"",""1"",""53645""
","
","","","14463","[""True""]","0","10","10026","1065","","","","","","","","","","","","","","","","","","",""
"pit-instructions","113","963169","0.0-2.0-23.0-1.0","battery-v0.2","","""event"",""trial"",""time""
""focus"",""0"",""1""
""blur"",""1"",""15731""
""focus"",""1"",""36196""
""blur"",""1"",""37603""
""focus"",""1"",""51960""
""fullscreenenter"",""1"",""53645""
","""event"",""trial"",""time""
""blur"",""1"",""15731""
""blur"",""1"",""37603""
","""event"",""trial"",""time""
""focus"",""0"",""1""
""focus"",""1"",""36196""
""focus"",""1"",""51960""
","""event"",""trial"",""time""
""fullscreenenter"",""1"",""53645""
","
","","[{""page_index"":0,""viewing_time"":3355}]","3356","","","","","","","","","","","","","","","","","","","","","","","",""
"pit-comprehension","114","975274","0.0-2.0-24.0-0.0","battery-v0.2","","""event"",""trial"",""time""
""focus"",""0"",""1""
""blur"",""1"",""15731""
""focus"",""1"",""36196""
""blur"",""1"",""37603""
""focus"",""1"",""51960""
""fullscreenenter"",""1"",""53645""
","""event"",""trial"",""time""
""blur"",""1"",""15731""
""blur"",""1"",""37603""
","""event"",""trial"",""time""
""focus"",""0"",""1""
""focus"",""1"",""36196""
""focus"",""1"",""51960""
","""event"",""trial"",""time""
""fullscreenenter"",""1"",""53645""
","
","","","12100","[""True""]","0","10","10026","1065","","","","","","","","","","","","","","","","","","",""
"pit-instructions","115","977643","0.0-2.0-24.0-1.0","battery-v0.2","","""event"",""trial"",""time""
""focus"",""0"",""1""
""blur"",""1"",""15731""
""focus"",""1"",""36196""
""blur"",""1"",""37603""
""focus"",""1"",""51960""
""fullscreenenter"",""1"",""53645""
","""event"",""trial"",""time""
""blur"",""1"",""15731""
""blur"",""1"",""37603""
","""event"",""trial"",""time""
""focus"",""0"",""1""
""focus"",""1"",""36196""
""focus"",""1"",""51960""
","""event"",""trial"",""time""
""fullscreenenter"",""1"",""53645""
","
","","[{""page_index"":0,""viewing_time"":2332}]","2333","","","","","","","","","","","","","","","","","","","","","","","",""
"pit-comprehension","116","986793","0.0-2.0-25.0-0.0","battery-v0.2","","""event"",""trial"",""time""
""focus"",""0"",""1""
""blur"",""1"",""15731""
""focus"",""1"",""36196""
""blur"",""1"",""37603""
""focus"",""1"",""51960""
""fullscreenenter"",""1"",""53645""
","""event"",""trial"",""time""
""blur"",""1"",""15731""
""blur"",""1"",""37603""
","""event"",""trial"",""time""
""focus"",""0"",""1""
""focus"",""1"",""36196""
""focus"",""1"",""51960""
","""event"",""trial"",""time""
""fullscreenenter"",""1"",""53645""
","
","","","9144","[""False""]","1","10","10026","1065","","","","","","","","","","","","","","","","","","",""
"pit-instructions","117","988669","0.0-2.0-25.0-1.0","battery-v0.2","","""event"",""trial"",""time""
""focus"",""0"",""1""
""blur"",""1"",""15731""
""focus"",""1"",""36196""
""blur"",""1"",""37603""
""focus"",""1"",""51960""
""fullscreenenter"",""1"",""53645""
","""event"",""trial"",""time""
""blur"",""1"",""15731""
""blur"",""1"",""37603""
","""event"",""trial"",""time""
""focus"",""0"",""1""
""focus"",""1"",""36196""
""focus"",""1"",""51960""
","""event"",""trial"",""time""
""fullscreenenter"",""1"",""53645""
","
","","[{""page_index"":0,""viewing_time"":1840}]","1840","","","","","","","","","","","","","","","","","","","","","","","",""
"pit-instructions","118","992092","0.0-2.0-25.0-2.0-0.0","battery-v0.2","","""event"",""trial"",""time""
""focus"",""0"",""1""
""blur"",""1"",""15731""
""focus"",""1"",""36196""
""blur"",""1"",""37603""
""focus"",""1"",""51960""
""fullscreenenter"",""1"",""53645""
","""event"",""trial"",""time""
""blur"",""1"",""15731""
""blur"",""1"",""37603""
","""event"",""trial"",""time""
""focus"",""0"",""1""
""focus"",""1"",""36196""
""focus"",""1"",""51960""
","""event"",""trial"",""time""
""fullscreenenter"",""1"",""53645""
","
","","[{""page_index"":0,""viewing_time"":3418}]","3419","","","","","","","","","","","","","","","","","","","","","","","",""
"pit-comprehension","119","999871","0.0-2.0-25.1-0.1","battery-v0.2","","""event"",""trial"",""time""
""focus"",""0"",""1""
""blur"",""1"",""15731""
""focus"",""1"",""36196""
""blur"",""1"",""37603""
""focus"",""1"",""51960""
""fullscreenenter"",""1"",""53645""
","""event"",""trial"",""time""
""blur"",""1"",""15731""
""blur"",""1"",""37603""
","""event"",""trial"",""time""
""focus"",""0"",""1""
""focus"",""1"",""36196""
""focus"",""1"",""51960""
","""event"",""trial"",""time""
""fullscreenenter"",""1"",""53645""
","
","","","7775","[""True""]","0","10","10026","1065","","","","","","","","","","","","","","","","","","",""
"pit-instructions","120","1002122","0.0-2.0-25.1-1.1","battery-v0.2","","""event"",""trial"",""time""
""focus"",""0"",""1""
""blur"",""1"",""15731""
""focus"",""1"",""36196""
""blur"",""1"",""37603""
""focus"",""1"",""51960""
""fullscreenenter"",""1"",""53645""
","""event"",""trial"",""time""
""blur"",""1"",""15731""
""blur"",""1"",""37603""
","""event"",""trial"",""time""
""focus"",""0"",""1""
""focus"",""1"",""36196""
""focus"",""1"",""51960""
","""event"",""trial"",""time""
""fullscreenenter"",""1"",""53645""
","
","","[{""page_index"":0,""viewing_time"":2213}]","2213","","","","","","","","","","","","","","","","","","","","","","","",""
"pit-comprehension","121","1010872","0.0-2.0-26.0-0.0","battery-v0.2","","""event"",""trial"",""time""
""focus"",""0"",""1""
""blur"",""1"",""15731""
""focus"",""1"",""36196""
""blur"",""1"",""37603""
""focus"",""1"",""51960""
""fullscreenenter"",""1"",""53645""
","""event"",""trial"",""time""
""blur"",""1"",""15731""
""blur"",""1"",""37603""
","""event"",""trial"",""time""
""focus"",""0"",""1""
""focus"",""1"",""36196""
""focus"",""1"",""51960""
","""event"",""trial"",""time""
""fullscreenenter"",""1"",""53645""
","
","","","8745","[""True""]","1","10","10026","1065","","","","","","","","","","","","","","","","","","",""
"pit-instructions","122","1013332","0.0-2.0-26.0-1.0","battery-v0.2","","""event"",""trial"",""time""
""focus"",""0"",""1""
""blur"",""1"",""15731""
""focus"",""1"",""36196""
""blur"",""1"",""37603""
""focus"",""1"",""51960""
""fullscreenenter"",""1"",""53645""
","""event"",""trial"",""time""
""blur"",""1"",""15731""
""blur"",""1"",""37603""
","""event"",""trial"",""time""
""focus"",""0"",""1""
""focus"",""1"",""36196""
""focus"",""1"",""51960""
","""event"",""trial"",""time""
""fullscreenenter"",""1"",""53645""
","
","","[{""page_index"":0,""viewing_time"":2423}]","2424","","","","","","","","","","","","","","","","","","","","","","","",""
"pit-instructions","123","1014956","0.0-2.0-26.0-2.0-0.0","battery-v0.2","","""event"",""trial"",""time""
""focus"",""0"",""1""
""blur"",""1"",""15731""
""focus"",""1"",""36196""
""blur"",""1"",""37603""
""focus"",""1"",""51960""
""fullscreenenter"",""1"",""53645""
","""event"",""trial"",""time""
""blur"",""1"",""15731""
""blur"",""1"",""37603""
","""event"",""trial"",""time""
""focus"",""0"",""1""
""focus"",""1"",""36196""
""focus"",""1"",""51960""
","""event"",""trial"",""time""
""fullscreenenter"",""1"",""53645""
","
","","[{""page_index"":0,""viewing_time"":1620}]","1621","","","","","","","","","","","","","","","","","","","","","","","",""
"pit-comprehension","124","1019554","0.0-2.0-26.1-0.1","battery-v0.2","","""event"",""trial"",""time""
""focus"",""0"",""1""
""blur"",""1"",""15731""
""focus"",""1"",""36196""
""blur"",""1"",""37603""
""focus"",""1"",""51960""
""fullscreenenter"",""1"",""53645""
","""event"",""trial"",""time""
""blur"",""1"",""15731""
""blur"",""1"",""37603""
","""event"",""trial"",""time""
""focus"",""0"",""1""
""focus"",""1"",""36196""
""focus"",""1"",""51960""
","""event"",""trial"",""time""
""fullscreenenter"",""1"",""53645""
","
","","","4594","[""False""]","0","10","10026","1065","","","","","","","","","","","","","","","","","","",""
"pit-instructions","125","1021465","0.0-2.0-26.1-1.1","battery-v0.2","","""event"",""trial"",""time""
""focus"",""0"",""1""
""blur"",""1"",""15731""
""focus"",""1"",""36196""
""blur"",""1"",""37603""
""focus"",""1"",""51960""
""fullscreenenter"",""1"",""53645""
","""event"",""trial"",""time""
""blur"",""1"",""15731""
""blur"",""1"",""37603""
","""event"",""trial"",""time""
""focus"",""0"",""1""
""focus"",""1"",""36196""
""focus"",""1"",""51960""
","""event"",""trial"",""time""
""fullscreenenter"",""1"",""53645""
","
","","[{""page_index"":0,""viewing_time"":1872}]","1872","","","","","","","","","","","","","","","","","","","","","","","",""
"pit-instructions","126","1039560","0.0-3.0","battery-v0.2","","""event"",""trial"",""time""
""focus"",""0"",""1""
""blur"",""1"",""15731""
""focus"",""1"",""36196""
""blur"",""1"",""37603""
""focus"",""1"",""51960""
""fullscreenenter"",""1"",""53645""
","""event"",""trial"",""time""
""blur"",""1"",""15731""
""blur"",""1"",""37603""
","""event"",""trial"",""time""
""focus"",""0"",""1""
""focus"",""1"",""36196""
""focus"",""1"",""51960""
","""event"",""trial"",""time""
""fullscreenenter"",""1"",""53645""
","
","","[{""page_index"":0,""viewing_time"":4538},{""page_index"":1,""viewing_time"":6226},{""page_index"":2,""viewing_time"":7328}]","18093","","","","","","","","","","","","","","","","","","","","","","","",""
"pit-trial","127","1044424","0.0-4.0","battery-v0.2","","""event"",""trial"",""time""
""focus"",""0"",""1""
""blur"",""1"",""15731""
""focus"",""1"",""36196""
""blur"",""1"",""37603""
""focus"",""1"",""51960""
""fullscreenenter"",""1"",""53645""
","""event"",""trial"",""time""
""blur"",""1"",""15731""
""blur"",""1"",""37603""
","""event"",""trial"",""time""
""focus"",""0"",""1""
""focus"",""1"",""36196""
""focus"",""1"",""51960""
","""event"",""trial"",""time""
""fullscreenenter"",""1"",""53645""
","
","","","-1","","","10","10026","1065","&#9728;","elianto","#f73b6a7A","-1","-1","1","0","[]","0","1","","","10026","1","0","4","lose","no-go","0"
"pit-trial","128","1049278","0.0-5.0","battery-v0.2","","""event"",""trial"",""time""
""focus"",""0"",""1""
""blur"",""1"",""15731""
""focus"",""1"",""36196""
""blur"",""1"",""37603""
""focus"",""1"",""51960""
""fullscreenenter"",""1"",""53645""
","""event"",""trial"",""time""
""blur"",""1"",""15731""
""blur"",""1"",""37603""
","""event"",""trial"",""time""
""focus"",""0"",""1""
""focus"",""1"",""36196""
""focus"",""1"",""51960""
","""event"",""trial"",""time""
""fullscreenenter"",""1"",""53645""
","
","","","-1","","","10","10026","1065","&#9752;","elianto","#f73b6a7A"," ","-1","0","-10","[]","0","1","","","10026","2","3","3","lose","go","0"
"pit-trial","129","1053480","0.0-6.0","battery-v0.2","","""event"",""trial"",""time""
""focus"",""0"",""1""
""blur"",""1"",""15731""
""focus"",""1"",""36196""
""blur"",""1"",""37603""
""focus"",""1"",""51960""
""fullscreenenter"",""1"",""53645""
","""event"",""trial"",""time""
""blur"",""1"",""15731""
""blur"",""1"",""37603""
","""event"",""trial"",""time""
""focus"",""0"",""1""
""focus"",""1"",""36196""
""focus"",""1"",""51960""
","""event"",""trial"",""time""
""fullscreenenter"",""1"",""53645""
","
","","","1348","","","10","10026","1065","&#9730;","elianto","#3366ff99"," "," ","1","+10","[2198]","1","1","","","10026","3","1","1","win","go","0"
"pit-trial","130","1057020","0.0-7.0","battery-v0.2","","""event"",""trial"",""time""
""focus"",""0"",""1""
""blur"",""1"",""15731""
""focus"",""1"",""36196""
""blur"",""1"",""37603""
""focus"",""1"",""51960""
""fullscreenenter"",""1"",""53645""
","""event"",""trial"",""time""
""blur"",""1"",""15731""
""blur"",""1"",""37603""
","""event"",""trial"",""time""
""focus"",""0"",""1""
""focus"",""1"",""36196""
""focus"",""1"",""51960""
","""event"",""trial"",""time""
""fullscreenenter"",""1"",""53645""
","
","","","682","","","10","10026","1065","&#9733;","elianto","#3366ff99","-1"," ","0","0","[1536]","1","1","","","10026","4","2","2","win","no-go","0"
"pit-trial","131","1061880","0.0-8.0","battery-v0.2","","""event"",""trial"",""time""
""focus"",""0"",""1""
""blur"",""1"",""15731""
""focus"",""1"",""36196""
""blur"",""1"",""37603""
""focus"",""1"",""51960""
""fullscreenenter"",""1"",""53645""
","""event"",""trial"",""time""
""blur"",""1"",""15731""
""blur"",""1"",""37603""
","""event"",""trial"",""time""
""focus"",""0"",""1""
""focus"",""1"",""36196""
""focus"",""1"",""51960""
","""event"",""trial"",""time""
""fullscreenenter"",""1"",""53645""
","
","","","-1","","","10","10026","1065","&#9752;","elianto","#f73b6a7A"," ","-1","0","-10","[]","0","1","","","10026","5","3","3","lose","go","0"
"pit-trial","132","1066733","0.0-9.0","battery-v0.2","","""event"",""trial"",""time""
""focus"",""0"",""1""
""blur"",""1"",""15731""
""focus"",""1"",""36196""
""blur"",""1"",""37603""
""focus"",""1"",""51960""
""fullscreenenter"",""1"",""53645""
","""event"",""trial"",""time""
""blur"",""1"",""15731""
""blur"",""1"",""37603""
","""event"",""trial"",""time""
""focus"",""0"",""1""
""focus"",""1"",""36196""
""focus"",""1"",""51960""
","""event"",""trial"",""time""
""fullscreenenter"",""1"",""53645""
","
","","","-1","","","10","10026","1065","&#9728;","elianto","#f73b6a7A","-1","-1","1","0","[]","0","1","","","10026","6","0","4","lose","no-go","0"
"pit-trial","133","1070456","0.0-10.0","battery-v0.2","","""event"",""trial"",""time""
""focus"",""0"",""1""
""blur"",""1"",""15731""
""focus"",""1"",""36196""
""blur"",""1"",""37603""
""focus"",""1"",""51960""
""fullscreenenter"",""1"",""53645""
","""event"",""trial"",""time""
""blur"",""1"",""15731""
""blur"",""1"",""37603""
","""event"",""trial"",""time""
""focus"",""0"",""1""
""focus"",""1"",""36196""
""focus"",""1"",""51960""
","""event"",""trial"",""time""
""fullscreenenter"",""1"",""53645""
","
","","","866","","","10","10026","1065","&#9730;","elianto","#3366ff99"," "," ","1","+10","[1717]","1","1","","","10026","7","1","1","win","go","0"
"pit-trial","134","1073994","0.0-11.0","battery-v0.2","","""event"",""trial"",""time""
""focus"",""0"",""1""
""blur"",""1"",""15731""
""focus"",""1"",""36196""
""blur"",""1"",""37603""
""focus"",""1"",""51960""
""fullscreenenter"",""1"",""53645""
","""event"",""trial"",""time""
""blur"",""1"",""15731""
""blur"",""1"",""37603""
","""event"",""trial"",""time""
""focus"",""0"",""1""
""focus"",""1"",""36196""
""focus"",""1"",""51960""
","""event"",""trial"",""time""
""fullscreenenter"",""1"",""53645""
","
","","","680","","","10","10026","1065","&#9733;","elianto","#3366ff99","-1"," ","0","0","[1533]","1","1","","","10026","8","2","2","win","no-go","0"
"pit-trial","135","1078898","0.0-12.0","battery-v0.2","","""event"",""trial"",""time""
""focus"",""0"",""1""
""blur"",""1"",""15731""
""focus"",""1"",""36196""
""blur"",""1"",""37603""
""focus"",""1"",""51960""
""fullscreenenter"",""1"",""53645""
","""event"",""trial"",""time""
""blur"",""1"",""15731""
""blur"",""1"",""37603""
","""event"",""trial"",""time""
""focus"",""0"",""1""
""focus"",""1"",""36196""
""focus"",""1"",""51960""
","""event"",""trial"",""time""
""fullscreenenter"",""1"",""53645""
","
","","","-1","","","10","10026","1065","&#9752;","elianto","#f73b6a7A"," ","-1","0","0","[]","0","1","","","10026","9","3","3","lose","go","1"
"pit-trial","136","1082631","0.0-13.0","battery-v0.2","","""event"",""trial"",""time""
""focus"",""0"",""1""
""blur"",""1"",""15731""
""focus"",""1"",""36196""
""blur"",""1"",""37603""
""focus"",""1"",""51960""
""fullscreenenter"",""1"",""53645""
","""event"",""trial"",""time""
""blur"",""1"",""15731""
""blur"",""1"",""37603""
","""event"",""trial"",""time""
""focus"",""0"",""1""
""focus"",""1"",""36196""
""focus"",""1"",""51960""
","""event"",""trial"",""time""
""fullscreenenter"",""1"",""53645""
","
","","","878","","","10","10026","1065","&#9730;","elianto","#3366ff99"," "," ","1","+10","[1728]","1","1","","","10026","10","1","1","win","go","0"
"pit-trial","137","1086154","0.0-14.0","battery-v0.2","","""event"",""trial"",""time""
""focus"",""0"",""1""
""blur"",""1"",""15731""
""focus"",""1"",""36196""
""blur"",""1"",""37603""
""focus"",""1"",""51960""
""fullscreenenter"",""1"",""53645""
","""event"",""trial"",""time""
""blur"",""1"",""15731""
""blur"",""1"",""37603""
","""event"",""trial"",""time""
""focus"",""0"",""1""
""focus"",""1"",""36196""
""focus"",""1"",""51960""
","""event"",""trial"",""time""
""fullscreenenter"",""1"",""53645""
","
","","","659","","","10","10026","1065","&#9733;","elianto","#3366ff99","-1"," ","0","0","[1514]","1","1","","","10026","11","2","2","win","no-go","0"
"pit-trial","138","1091010","0.0-15.0","battery-v0.2","","""event"",""trial"",""time""
""focus"",""0"",""1""
""blur"",""1"",""15731""
""focus"",""1"",""36196""
""blur"",""1"",""37603""
""focus"",""1"",""51960""
""fullscreenenter"",""1"",""53645""
","""event"",""trial"",""time""
""blur"",""1"",""15731""
""blur"",""1"",""37603""
","""event"",""trial"",""time""
""focus"",""0"",""1""
""focus"",""1"",""36196""
""focus"",""1"",""51960""
","""event"",""trial"",""time""
""fullscreenenter"",""1"",""53645""
","
","","","-1","","","10","10026","1065","&#9728;","elianto","#f73b6a7A","-1","-1","1","-10","[]","0","1","","","10026","12","0","4","lose","no-go","1"
"pit-trial","139","1094579","0.0-16.0","battery-v0.2","","""event"",""trial"",""time""
""focus"",""0"",""1""
""blur"",""1"",""15731""
""focus"",""1"",""36196""
""blur"",""1"",""37603""
""focus"",""1"",""51960""
""fullscreenenter"",""1"",""53645""
","""event"",""trial"",""time""
""blur"",""1"",""15731""
""blur"",""1"",""37603""
","""event"",""trial"",""time""
""focus"",""0"",""1""
""focus"",""1"",""36196""
""focus"",""1"",""51960""
","""event"",""trial"",""time""
""fullscreenenter"",""1"",""53645""
","
","","","710","","","10","10026","1065","&#9733;","elianto","#3366ff99","-1"," ","0","0","[1563]","1","1","","","10026","13","2","2","win","no-go","0"
"pit-trial","140","1099436","0.0-17.0","battery-v0.2","","""event"",""trial"",""time""
""focus"",""0"",""1""
""blur"",""1"",""15731""
""focus"",""1"",""36196""
""blur"",""1"",""37603""
""focus"",""1"",""51960""
""fullscreenenter"",""1"",""53645""
","""event"",""trial"",""time""
""blur"",""1"",""15731""
""blur"",""1"",""37603""
","""event"",""trial"",""time""
""focus"",""0"",""1""
""focus"",""1"",""36196""
""focus"",""1"",""51960""
","""event"",""trial"",""time""
""fullscreenenter"",""1"",""53645""
","
","","","-1","","","10","10026","1065","&#9752;","elianto","#f73b6a7A"," ","-1","0","0","[]","0","1","","","10026","14","3","3","lose","go","1"
"pit-trial","141","1103015","0.0-18.0","battery-v0.2","","""event"",""trial"",""time""
""focus"",""0"",""1""
""blur"",""1"",""15731""
""focus"",""1"",""36196""
""blur"",""1"",""37603""
""focus"",""1"",""51960""
""fullscreenenter"",""1"",""53645""
","""event"",""trial"",""time""
""blur"",""1"",""15731""
""blur"",""1"",""37603""
","""event"",""trial"",""time""
""focus"",""0"",""1""
""focus"",""1"",""36196""
""focus"",""1"",""51960""
","""event"",""trial"",""time""
""fullscreenenter"",""1"",""53645""
","
","","","720","","","10","10026","1065","&#9730;","elianto","#3366ff99"," "," ","1","+10","[1571]","1","1","","","10026","15","1","1","win","go","0"
"pit-trial","142","1107871","0.0-19.0","battery-v0.2","","""event"",""trial"",""time""
""focus"",""0"",""1""
""blur"",""1"",""15731""
""focus"",""1"",""36196""
""blur"",""1"",""37603""
""focus"",""1"",""51960""
""fullscreenenter"",""1"",""53645""
","""event"",""trial"",""time""
""blur"",""1"",""15731""
""blur"",""1"",""37603""
","""event"",""trial"",""time""
""focus"",""0"",""1""
""focus"",""1"",""36196""
""focus"",""1"",""51960""
","""event"",""trial"",""time""
""fullscreenenter"",""1"",""53645""
","
","","","-1","","","10","10026","1065","&#9728;","elianto","#f73b6a7A","-1","-1","1","0","[]","0","1","","","10026","16","0","4","lose","no-go","0"
"pit-trial","143","1112733","0.0-20.0","battery-v0.2","","""event"",""trial"",""time""
""focus"",""0"",""1""
""blur"",""1"",""15731""
""focus"",""1"",""36196""
""blur"",""1"",""37603""
""focus"",""1"",""51960""
""fullscreenenter"",""1"",""53645""
","""event"",""trial"",""time""
""blur"",""1"",""15731""
""blur"",""1"",""37603""
","""event"",""trial"",""time""
""focus"",""0"",""1""
""focus"",""1"",""36196""
""focus"",""1"",""51960""
","""event"",""trial"",""time""
""fullscreenenter"",""1"",""53645""
","
","","","-1","","","10","10026","1065","&#9728;","elianto","#f73b6a7A","-1","-1","1","0","[]","0","1","","","10026","17","0","4","lose","no-go","0"
"pit-trial","144","1116125","0.0-21.0","battery-v0.2","","""event"",""trial"",""time""
""focus"",""0"",""1""
""blur"",""1"",""15731""
""focus"",""1"",""36196""
""blur"",""1"",""37603""
""focus"",""1"",""51960""
""fullscreenenter"",""1"",""53645""
","""event"",""trial"",""time""
""blur"",""1"",""15731""
""blur"",""1"",""37603""
","""event"",""trial"",""time""
""focus"",""0"",""1""
""focus"",""1"",""36196""
""focus"",""1"",""51960""
","""event"",""trial"",""time""
""fullscreenenter"",""1"",""53645""
","
","","","537","","","10","10026","1065","&#9730;","elianto","#3366ff99"," "," ","1","+10","[1387]","1","1","","","10026","18","1","1","win","go","0"
"pit-trial","145","1120983","0.0-22.0","battery-v0.2","","""event"",""trial"",""time""
""focus"",""0"",""1""
""blur"",""1"",""15731""
""focus"",""1"",""36196""
""blur"",""1"",""37603""
""focus"",""1"",""51960""
""fullscreenenter"",""1"",""53645""
","""event"",""trial"",""time""
""blur"",""1"",""15731""
""blur"",""1"",""37603""
","""event"",""trial"",""time""
""focus"",""0"",""1""
""focus"",""1"",""36196""
""focus"",""1"",""51960""
","""event"",""trial"",""time""
""fullscreenenter"",""1"",""53645""
","
","","","-1","","","10","10026","1065","&#9752;","elianto","#f73b6a7A"," ","-1","0","-10","[]","0","1","","","10026","19","3","3","lose","go","0"
"pit-trial","146","1124683","0.0-23.0","battery-v0.2","","""event"",""trial"",""time""
""focus"",""0"",""1""
""blur"",""1"",""15731""
""focus"",""1"",""36196""
""blur"",""1"",""37603""
""focus"",""1"",""51960""
""fullscreenenter"",""1"",""53645""
","""event"",""trial"",""time""
""blur"",""1"",""15731""
""blur"",""1"",""37603""
","""event"",""trial"",""time""
""focus"",""0"",""1""
""focus"",""1"",""36196""
""focus"",""1"",""51960""
","""event"",""trial"",""time""
""fullscreenenter"",""1"",""53645""
","
