"trial_type","trial_index","time_elapsed","internal_node_id","task_version","subject_id","interactions","blur_events","focus_events","fullscreenenter_events","fullscreenexit_events","success","view_history","rt","responses","num_errors","age","subject","participantId","rune","rune_set","hex","correct","choice","accuracy","outcome","keys","total_keys","block","practice","value","sub","trial","stimulus","robot","valence","action","sham"
"pavlovia","0","13","0.0-0.0","battery-v0.2","","""event"",""trial"",""time""
""fullscreenenter"",""1"",""1819""
","
","
","""event"",""trial"",""time""
""fullscreenenter"",""1"",""1819""
","
","","","","","","","","","","","","","","","","","","","","","","","","","","",""
"fullscreen","1","2758","0.0-1.0","battery-v0.2","","""event"",""trial"",""time""
""fullscreenenter"",""1"",""1819""
","
","
","""event"",""trial"",""time""
""fullscreenenter"",""1"",""1819""
","
","true","","","","","","","","","","","","","","","","","","","","","","","","","",""
"pit-instructions","2","7549","0.0-2.0-0.0","battery-v0.2","","""event"",""trial"",""time""
""fullscreenenter"",""1"",""1819""
","
","
","""event"",""trial"",""time""
""fullscreenenter"",""1"",""1819""
","
","","[{""page_index"":0,""viewing_time"":4784.400000095367}]","4785.299999952316","","","","","","","","","","","","","","","","","","","","","","","",""
"pit-comprehension","3","11842","0.0-2.0-1.0-0.0","battery-v0.2","","""event"",""trial"",""time""
""fullscreenenter"",""1"",""1819""
","
","
","""event"",""trial"",""time""
""fullscreenenter"",""1"",""1819""
","
","","","4286.900000095367","[""shark""]","0","25","9001","4159","","","","","","","","","","","","","","","","","","",""
"pit-instructions","4","13349","0.0-2.0-1.0-1.0","battery-v0.2","","""event"",""trial"",""time""
""fullscreenenter"",""1"",""1819""
","
","
","""event"",""trial"",""time""
""fullscreenenter"",""1"",""1819""
","
","","[{""page_index"":0,""viewing_time"":1495.1000001430511}]","1495.6000001430511","","","","","","","","","","","","","","","","","","","","","","","",""
"pit-comprehension","5","16518","0.0-2.0-2.0-0.0","battery-v0.2","","""event"",""trial"",""time""
""fullscreenenter"",""1"",""1819""
","
","
","""event"",""trial"",""time""
""fullscreenenter"",""1"",""1819""
","
","","","3163.7000000476837","[""tiger""]","0","25","9001","4159","","","","","","","","","","","","","","","","","","",""
"pit-instructions","6","18061","0.0-2.0-2.0-1.0","battery-v0.2","","""event"",""trial"",""time""
""fullscreenenter"",""1"",""1819""
","
","
","""event"",""trial"",""time""
""fullscreenenter"",""1"",""1819""
","
","","[{""page_index"":0,""viewing_time"":1534.2999999523163}]","1534.7000000476837","","","","","","","","","","","","","","","","","","","","","","","",""
"pit-instructions","7","122123","0.0-2.0-3.0","battery-v0.2","","""event"",""trial"",""time""
""fullscreenenter"",""1"",""1819""
","
","
","""event"",""trial"",""time""
""fullscreenenter"",""1"",""1819""
","
","","[{""page_index"":0,""viewing_time"":8323.099999904633},{""page_index"":1,""viewing_time"":6407.400000095367},{""page_index"":2,""viewing_time"":8973},{""page_index"":3,""viewing_time"":5215.899999856949},{""page_index"":4,""viewing_time"":7829.800000190735},{""page_index"":5,""viewing_time"":5317.299999952316},{""page_index"":6,""viewing_time"":6675.099999904633},{""page_index"":7,""viewing_time"":6153.200000047684},{""page_index"":8,""viewing_time"":6469.299999952316},{""page_index"":9,""viewing_time"":10930.400000095367},{""page_index"":10,""viewing_time"":7012.700000047684},{""page_index"":11,""viewing_time"":7468.899999856949},{""page_index"":12,""viewing_time"":6935.400000095367},{""page_index"":13,""viewing_time"":10347.799999952316}]","104060.09999990463","","","","","","","","","","","","","","","","","","","","","","","",""
"pit-trial","8","125557","0.0-2.0-4.0-0.0","battery-v0.2","","""event"",""trial"",""time""
""fullscreenenter"",""1"",""1819""
","
","
","""event"",""trial"",""time""
""fullscreenenter"",""1"",""1819""
","
","","","574","","","25","9001","4159","&#9784;","elianto","#FFFFF080"," "," ","1","&#10004","[1430.2000000476837]","1","0","0","","","","","","","",""
"pit-trial","9","129292","0.0-2.0-4.1-0.1","battery-v0.2","","""event"",""trial"",""time""
""fullscreenenter"",""1"",""1819""
","
","
","""event"",""trial"",""time""
""fullscreenenter"",""1"",""1819""
","
","","","867.3999998569489","","","25","9001","4159","&#9784;","elianto","#FFFFF080"," "," ","1","&#10004","[1721.1999998092651]","1","0","0","","","","","","","",""
"pit-trial","10","132801","0.0-2.0-4.2-0.2","battery-v0.2","","""event"",""trial"",""time""
""fullscreenenter"",""1"",""1819""
","
","
","""event"",""trial"",""time""
""fullscreenenter"",""1"",""1819""
","
","","","639.8999998569489","","","25","9001","4159","&#9784;","elianto","#FFFFF080"," "," ","1","&#10004","[1490.2000000476837]","1","0","0","","","","","","","",""
"pit-trial","11","137662","0.0-2.0-4.3-0.3","battery-v0.2","","""event"",""trial"",""time""
""fullscreenenter"",""1"",""1819""
","
","
","""event"",""trial"",""time""
""fullscreenenter"",""1"",""1819""
","
","","","-1","","","25","9001","4159","&#9784;","elianto","#FFFFF080"," ","-1","0","&#10060","[3566]","1","0","0","","","","","","","",""
"pit-trial","12","141368","0.0-2.0-4.4-0.4","battery-v0.2","","""event"",""trial"",""time""
""fullscreenenter"",""1"",""1819""
","
","
","""event"",""trial"",""time""
""fullscreenenter"",""1"",""1819""
","
","","","839","","","25","9001","4159","&#9784;","elianto","#FFFFF080"," "," ","1","&#10004","[1697.3999998569489]","1","0","0","","","","","","","",""
"pit-trial","13","144956","0.0-2.0-4.5-0.5","battery-v0.2","","""event"",""trial"",""time""
""fullscreenenter"",""1"",""1819""
","
","
","""event"",""trial"",""time""
""fullscreenenter"",""1"",""1819""
","
","","","723.7000000476837","","","25","9001","4159","&#9784;","elianto","#FFFFF080"," "," ","1","&#10004","[1574]","1","0","0","","","","","","","",""
"pit-trial","14","148520","0.0-2.0-4.6-0.6","battery-v0.2","","""event"",""trial"",""time""
""fullscreenenter"",""1"",""1819""
","
","
","""event"",""trial"",""time""
""fullscreenenter"",""1"",""1819""
","
","","","706.1999998092651","","","25","9001","4159","&#9784;","elianto","#FFFFF080"," "," ","1","&#10004","[1559.5]","1","0","0","","","","","","","",""
"pit-instructions","15","165410","0.0-2.0-4.6-1.6-0.6","battery-v0.2","","""event"",""trial"",""time""
""fullscreenenter"",""1"",""1819""
","
","
","""event"",""trial"",""time""
""fullscreenenter"",""1"",""1819""
","
","","[{""page_index"":0,""viewing_time"":6879.700000047684},{""page_index"":1,""viewing_time"":10006.600000143051}]","16887.10000014305","","","","","","","","","","","","","","","","","","","","","","","",""
"pit-instructions","16","192831","0.0-2.0-5.0","battery-v0.2","","""event"",""trial"",""time""
""fullscreenenter"",""1"",""1819""
","
","
","""event"",""trial"",""time""
""fullscreenenter"",""1"",""1819""
","
","","[{""page_index"":0,""viewing_time"":4957.400000095367},{""page_index"":1,""viewing_time"":6079.099999904633},{""page_index"":2,""viewing_time"":9034.099999904633},{""page_index"":3,""viewing_time"":7345.700000047684}]","27416.700000047684","","","","","","","","","","","","","","","","","","","","","","","",""
"pit-trial","17","197706","0.0-2.0-6.0-0.0","battery-v0.2","","""event"",""trial"",""time""
""fullscreenenter"",""1"",""1819""
","
","
","""event"",""trial"",""time""
""fullscreenenter"",""1"",""1819""
","
","","","-1","","","25","9001","4159","&#9854;","elianto","#FFFFF080","-1","-1","1","&#10004","[]","0","0","1","","","","","","","",""
"pit-trial","18","202576","0.0-2.0-6.1-0.1","battery-v0.2","","""event"",""trial"",""time""
""fullscreenenter"",""1"",""1819""
","
","
","""event"",""trial"",""time""
""fullscreenenter"",""1"",""1819""
","
","","","-1","","","25","9001","4159","&#9854;","elianto","#FFFFF080","-1","-1","1","&#10004","[]","0","0","1","","","","","","","",""
"pit-trial","19","207446","0.0-2.0-6.2-0.2","battery-v0.2","","""event"",""trial"",""time""
""fullscreenenter"",""1"",""1819""
","
","
","""event"",""trial"",""time""
""fullscreenenter"",""1"",""1819""
","
","","","-1","","","25","9001","4159","&#9854;","elianto","#FFFFF080","-1","-1","1","&#10004","[]","0","0","1","","","","","","","",""
"pit-trial","20","212306","0.0-2.0-6.3-0.3","battery-v0.2","","""event"",""trial"",""time""
""fullscreenenter"",""1"",""1819""
","
","
","""event"",""trial"",""time""
""fullscreenenter"",""1"",""1819""
","
","","","-1","","","25","9001","4159","&#9854;","elianto","#FFFFF080","-1","-1","1","&#10004","[]","0","0","1","","","","","","","",""
"pit-trial","21","217167","0.0-2.0-6.4-0.4","battery-v0.2","","""event"",""trial"",""time""
""fullscreenenter"",""1"",""1819""
","
","
","""event"",""trial"",""time""
""fullscreenenter"",""1"",""1819""
","
","","","-1","","","25","9001","4159","&#9854;","elianto","#FFFFF080","-1","-1","1","&#10004","[]","0","0","1","","","","","","","",""
"pit-instructions","22","339973","0.0-2.0-7.0","battery-v0.2","","""event"",""trial"",""time""
""fullscreenenter"",""1"",""1819""
","
","
","""event"",""trial"",""time""
""fullscreenenter"",""1"",""1819""
","
","","[{""page_index"":0,""viewing_time"":7145.400000095367},{""page_index"":1,""viewing_time"":6867.599999904633},{""page_index"":2,""viewing_time"":8159.700000047684},{""page_index"":3,""viewing_time"":6776.700000047684},{""page_index"":4,""viewing_time"":5896.099999904633},{""page_index"":5,""viewing_time"":6680},{""page_index"":6,""viewing_time"":4690},{""page_index"":7,""viewing_time"":9297.400000095367},{""page_index"":8,""viewing_time"":6729},{""page_index"":9,""viewing_time"":5845.599999904633},{""page_index"":10,""viewing_time"":6784.599999904633},{""page_index"":11,""viewing_time"":4525.200000047684},{""page_index"":12,""viewing_time"":6534.400000095367},{""page_index"":13,""viewing_time"":7001},{""page_index"":14,""viewing_time"":7004.200000047684},{""page_index"":15,""viewing_time"":7663.599999904633},{""page_index"":16,""viewing_time"":7102.5},{""page_index"":17,""viewing_time"":8098.799999952316}]","122802.20000004768","","","","","","","","","","","","","","","","","","","","","","","",""
"pit-trial","23","343613","0.0-2.0-8.0-0.0","battery-v0.2","","""event"",""trial"",""time""
""fullscreenenter"",""1"",""1819""
","
","
","""event"",""trial"",""time""
""fullscreenenter"",""1"",""1819""
","
","","","766.7999999523163","","","25","9001","4159","&#9776;","elianto","#3366ff99"," "," ","1","+10","[1624.7999999523163]","1","0","1","","","","","","","",""
"pit-trial","24","347249","0.0-2.0-8.0-1.0","battery-v0.2","","""event"",""trial"",""time""
""fullscreenenter"",""1"",""1819""
","
","
","""event"",""trial"",""time""
""fullscreenenter"",""1"",""1819""
","
","","","772.7999999523163","","","25","9001","4159","&#9776;","elianto","#3366ff99"," "," ","1","+10","[1630.1000001430511]","1","0","1","","","","","","","",""
"pit-trial","25","350765","0.0-2.0-8.0-2.0","battery-v0.2","","""event"",""trial"",""time""
""fullscreenenter"",""1"",""1819""
","
","
","""event"",""trial"",""time""
""fullscreenenter"",""1"",""1819""
","
","","","646.8999998569489","","","25","9001","4159","&#9776;","elianto","#3366ff99"," "," ","1","+10","[1504]","1","0","1","","","","","","","",""
"pit-trial","26","354185","0.0-2.0-8.0-3.0","battery-v0.2","","""event"",""trial"",""time""
""fullscreenenter"",""1"",""1819""
","
","
","""event"",""trial"",""time""
""fullscreenenter"",""1"",""1819""
","
","","","552","","","25","9001","4159","&#9776;","elianto","#3366ff99"," "," ","1","0","[1406.5]","1","0","1","","","","","","","",""
"pit-trial","27","357602","0.0-2.0-8.0-4.0","battery-v0.2","","""event"",""trial"",""time""
""fullscreenenter"",""1"",""1819""
","
","
","""event"",""trial"",""time""
""fullscreenenter"",""1"",""1819""
","
","","","540.8999998569489","","","25","9001","4159","&#9776;","elianto","#3366ff99"," "," ","1","+10","[1399.6000001430511]","1","0","1","","","","","","","",""
"pit-trial","28","361020","0.0-2.0-8.1-0.1","battery-v0.2","","""event"",""trial"",""time""
""fullscreenenter"",""1"",""1819""
","
","
","""event"",""trial"",""time""
""fullscreenenter"",""1"",""1819""
","
","","","562.2000000476837","","","25","9001","4159","&#9776;","elianto","#3366ff99"," "," ","1","+10","[1413.2999999523163]","1","0","1","","","","","","","",""
"pit-trial","29","364443","0.0-2.0-8.1-1.1","battery-v0.2","","""event"",""trial"",""time""
""fullscreenenter"",""1"",""1819""
","
","
","""event"",""trial"",""time""
""fullscreenenter"",""1"",""1819""
","
","","","558.5","","","25","9001","4159","&#9776;","elianto","#3366ff99"," "," ","1","+10","[1415.7999999523163]","1","0","1","","","","","","","",""
"pit-trial","30","367909","0.0-2.0-8.1-2.1","battery-v0.2","","""event"",""trial"",""time""
""fullscreenenter"",""1"",""1819""
","
","
","""event"",""trial"",""time""
""fullscreenenter"",""1"",""1819""
","
","","","605.7000000476837","","","25","9001","4159","&#9776;","elianto","#3366ff99"," "," ","1","+10","[1459.7000000476837]","1","0","1","","","","","","","",""
"pit-trial","31","371234","0.0-2.0-8.1-3.1","battery-v0.2","","""event"",""trial"",""time""
""fullscreenenter"",""1"",""1819""
","
","
","""event"",""trial"",""time""
""fullscreenenter"",""1"",""1819""
","
","","","467.10000014305115","","","25","9001","4159","&#9776;","elianto","#3366ff99"," "," ","1","0","[1321.2000000476837]","1","0","1","","","","","","","",""
"pit-trial","32","374630","0.0-2.0-8.1-4.1","battery-v0.2","","""event"",""trial"",""time""
""fullscreenenter"",""1"",""1819""
","
","
","""event"",""trial"",""time""
""fullscreenenter"",""1"",""1819""
","
","","","541.3999998569489","","","25","9001","4159","&#9776;","elianto","#3366ff99"," "," ","1","+10","[1392.4000000953674]","1","0","1","","","","","","","",""
"pit-trial","33","377891","0.0-2.0-8.2-0.2","battery-v0.2","","""event"",""trial"",""time""
""fullscreenenter"",""1"",""1819""
","
","
","""event"",""trial"",""time""
""fullscreenenter"",""1"",""1819""
","
","","","404.39999985694885","","","25","9001","4159","&#9776;","elianto","#3366ff99"," "," ","1","+10","[1254.7999999523163]","1","0","1","","","","","","","",""
"pit-trial","34","381057","0.0-2.0-8.2-1.2","battery-v0.2","","""event"",""trial"",""time""
""fullscreenenter"",""1"",""1819""
","
","
","""event"",""trial"",""time""
""fullscreenenter"",""1"",""1819""
","
","","","310.90000009536743","","","25","9001","4159","&#9776;","elianto","#3366ff99"," "," ","1","+10","[1162.9000000953674]","1","0","1","","","","","","","",""
"pit-trial","35","384162","0.0-2.0-8.2-2.2","battery-v0.2","","""event"",""trial"",""time""
""fullscreenenter"",""1"",""1819""
","
","
","""event"",""trial"",""time""
""fullscreenenter"",""1"",""1819""
","
","","","251.29999995231628","","","25","9001","4159","&#9776;","elianto","#3366ff99"," "," ","1","+10","[1101.7999999523163]","1","0","1","","","","","","","",""
"pit-trial","36","387357","0.0-2.0-8.2-3.2","battery-v0.2","","""event"",""trial"",""time""
""fullscreenenter"",""1"",""1819""
","
","
","""event"",""trial"",""time""
""fullscreenenter"",""1"",""1819""
","
","","","342.7000000476837","","","25","9001","4159","&#9776;","elianto","#3366ff99"," "," ","1","0","[1193.2999999523163]","1","0","1","","","","","","","",""
"pit-trial","37","390625","0.0-2.0-8.2-4.2","battery-v0.2","","""event"",""trial"",""time""
""fullscreenenter"",""1"",""1819""
","
","
","""event"",""trial"",""time""
""fullscreenenter"",""1"",""1819""
","
","","","413.89999985694885","","","25","9001","4159","&#9776;","elianto","#3366ff99"," "," ","1","+10","[1265.7000000476837]","1","0","1","","","","","","","",""
"call-function","38","390628","0.0-2.0-9.0","battery-v0.2","","""event"",""trial"",""time""
""fullscreenenter"",""1"",""1819""
","
","
","""event"",""trial"",""time""
""fullscreenenter"",""1"",""1819""
","
","","","","","","","","","","","","","","","","","","","","","","","","","","",""
"pit-instructions","39","449247","0.0-2.0-10.0","battery-v0.2","","""event"",""trial"",""time""
""fullscreenenter"",""1"",""1819""
","
","
","""event"",""trial"",""time""
""fullscreenenter"",""1"",""1819""
","
","","[{""page_index"":0,""viewing_time"":6400.299999952316},{""page_index"":1,""viewing_time"":7065.200000047684},{""page_index"":2,""viewing_time"":23393.60000014305},{""page_index"":3,""viewing_time"":11469.299999952316},{""page_index"":4,""viewing_time"":10290.5}]","58619.5","","","","","","","","","","","","","","","","","","","","","","","",""
"pit-trial","40","454102","0.0-2.0-11.0-0.0","battery-v0.2","","""event"",""trial"",""time""
""fullscreenenter"",""1"",""1819""
","
","
","""event"",""trial"",""time""
""fullscreenenter"",""1"",""1819""
","
","","","1995.6000001430511","","","25","9001","4159","&#9761;","elianto","#3366ff99","-1"," ","0","0","[2848.2999999523163]","1","0","2","","","","","","","",""
"pit-trial","41","457648","0.0-2.0-11.0-1.0","battery-v0.2","","""event"",""trial"",""time""
""fullscreenenter"",""1"",""1819""
","
","
","""event"",""trial"",""time""
""fullscreenenter"",""1"",""1819""
","
","","","691.7999999523163","","","25","9001","4159","&#9761;","elianto","#3366ff99","-1"," ","0","0","[1543.5999999046326]","1","0","2","","","","","","","",""
"pit-trial","42","462524","0.0-2.0-11.0-2.0","battery-v0.2","","""event"",""trial"",""time""
""fullscreenenter"",""1"",""1819""
","
","
","""event"",""trial"",""time""
""fullscreenenter"",""1"",""1819""
","
","","","-1","","","25","9001","4159","&#9761;","elianto","#3366ff99","-1","-1","1","+10","[]","0","0","2","","","","","","","",""
"pit-trial","43","467395","0.0-2.0-11.0-3.0","battery-v0.2","","""event"",""trial"",""time""
""fullscreenenter"",""1"",""1819""
","
","
","""event"",""trial"",""time""
""fullscreenenter"",""1"",""1819""
","
","","","-1","","","25","9001","4159","&#9761;","elianto","#3366ff99","-1","-1","1","0","[]","0","0","2","","","","","","","",""
"pit-trial","44","471344","0.0-2.0-11.0-4.0","battery-v0.2","","""event"",""trial"",""time""
""fullscreenenter"",""1"",""1819""
","
","
","""event"",""trial"",""time""
""fullscreenenter"",""1"",""1819""
","
","","","1082","","","25","9001","4159","&#9761;","elianto","#3366ff99","-1"," ","0","0","[1936.7000000476837]","1","0","2","","","","","","","",""
"pit-trial","45","474728","0.0-2.0-11.1-0.1","battery-v0.2","","""event"",""trial"",""time""
""fullscreenenter"",""1"",""1819""
","
","
","""event"",""trial"",""time""
""fullscreenenter"",""1"",""1819""
","
","","","521.5999999046326","","","25","9001","4159","&#9761;","elianto","#3366ff99","-1"," ","0","0","[1372]","1","0","2","","","","","","","",""
"pit-trial","46","478726","0.0-2.0-11.1-1.1","battery-v0.2","","""event"",""trial"",""time""
""fullscreenenter"",""1"",""1819""
","
","
","""event"",""trial"",""time""
""fullscreenenter"",""1"",""1819""
","
","","","1143","","","25","9001","4159","&#9761;","elianto","#3366ff99","-1"," ","0","0","[1994.4000000953674]","1","0","2","","","","","","","",""
"pit-trial","47","483579","0.0-2.0-11.1-2.1","battery-v0.2","","""event"",""trial"",""time""
""fullscreenenter"",""1"",""1819""
","
","
","""event"",""trial"",""time""
""fullscreenenter"",""1"",""1819""
","
","","","-1","","","25","9001","4159","&#9761;","elianto","#3366ff99","-1","-1","1","+10","[]","0","0","2","","","","","","","",""
"pit-trial","48","488432","0.0-2.0-11.1-3.1","battery-v0.2","","""event"",""trial"",""time""
""fullscreenenter"",""1"",""1819""
","
","
","""event"",""trial"",""time""
""fullscreenenter"",""1"",""1819""
","
","","","-1","","","25","9001","4159","&#9761;","elianto","#3366ff99","-1","-1","1","0","[]","0","0","2","","","","","","","",""
"pit-trial","49","493287","0.0-2.0-11.1-4.1","battery-v0.2","","""event"",""trial"",""time""
""fullscreenenter"",""1"",""1819""
","
","
","""event"",""trial"",""time""
""fullscreenenter"",""1"",""1819""
","
","","","-1","","","25","9001","4159","&#9761;","elianto","#3366ff99","-1","-1","1","+10","[]","0","0","2","","","","","","","",""
"pit-trial","50","498142","0.0-2.0-11.2-0.2","battery-v0.2","","""event"",""trial"",""time""
""fullscreenenter"",""1"",""1819""
","
","
","""event"",""trial"",""time""
""fullscreenenter"",""1"",""1819""
","
","","","-1","","","25","9001","4159","&#9761;","elianto","#3366ff99","-1","-1","1","+10","[]","0","0","2","","","","","","","",""
"pit-trial","51","502996","0.0-2.0-11.2-1.2","battery-v0.2","","""event"",""trial"",""time""
""fullscreenenter"",""1"",""1819""
","
","
","""event"",""trial"",""time""
""fullscreenenter"",""1"",""1819""
","
","","","-1","","","25","9001","4159","&#9761;","elianto","#3366ff99","-1","-1","1","+10","[]","0","0","2","","","","","","","",""
"pit-trial","52","507848","0.0-2.0-11.2-2.2","battery-v0.2","","""event"",""trial"",""time""
""fullscreenenter"",""1"",""1819""
","
","
","""event"",""trial"",""time""
""fullscreenenter"",""1"",""1819""
","
","","","-1","","","25","9001","4159","&#9761;","elianto","#3366ff99","-1","-1","1","+10","[]","0","0","2","","","","","","","",""
"pit-trial","53","511147","0.0-2.0-11.2-3.2","battery-v0.2","","""event"",""trial"",""time""
""fullscreenenter"",""1"",""1819""
","
","
","""event"",""trial"",""time""
""fullscreenenter"",""1"",""1819""
","
","","","445.90000009536743","","","25","9001","4159","&#9761;","elianto","#3366ff99","-1"," ","0","+10","[1296.1999998092651]","1","0","2","","","","","","","",""
"pit-trial","54","516000","0.0-2.0-11.2-4.2","battery-v0.2","","""event"",""trial"",""time""
""fullscreenenter"",""1"",""1819""
","
","
","""event"",""trial"",""time""
""fullscreenenter"",""1"",""1819""
","
","","","-1","","","25","9001","4159","&#9761;","elianto","#3366ff99","-1","-1","1","+10","[]","0","0","2","","","","","","","",""
"pit-trial","55","520854","0.0-2.0-11.3-0.3","battery-v0.2","","""event"",""trial"",""time""
""fullscreenenter"",""1"",""1819""
","
","
","""event"",""trial"",""time""
""fullscreenenter"",""1"",""1819""
","
","","","-1","","","25","9001","4159","&#9761;","elianto","#3366ff99","-1","-1","1","+10","[]","0","0","2","","","","","","","",""
"pit-trial","56","525708","0.0-2.0-11.3-1.3","battery-v0.2","","""event"",""trial"",""time""
""fullscreenenter"",""1"",""1819""
","
","
","""event"",""trial"",""time""
""fullscreenenter"",""1"",""1819""
","
","","","-1","","","25","9001","4159","&#9761;","elianto","#3366ff99","-1","-1","1","+10","[]","0","0","2","","","","","","","",""
"pit-trial","57","530564","0.0-2.0-11.3-2.3","battery-v0.2","","""event"",""trial"",""time""
""fullscreenenter"",""1"",""1819""
","
","
","""event"",""trial"",""time""
""fullscreenenter"",""1"",""1819""
","
","","","-1","","","25","9001","4159","&#9761;","elianto","#3366ff99","-1","-1","1","+10","[]","0","0","2","","","","","","","",""
"pit-trial","58","533886","0.0-2.0-11.3-3.3","battery-v0.2","","""event"",""trial"",""time""
""fullscreenenter"",""1"",""1819""
","
","
","""event"",""trial"",""time""
""fullscreenenter"",""1"",""1819""
","
","","","467.40000009536743","","","25","9001","4159","&#9761;","elianto","#3366ff99","-1"," ","0","+10","[1318.7000000476837]","1","0","2","","","","","","","",""
"pit-trial","59","538739","0.0-2.0-11.3-4.3","battery-v0.2","","""event"",""trial"",""time""
""fullscreenenter"",""1"",""1819""
","
","
","""event"",""trial"",""time""
""fullscreenenter"",""1"",""1819""
","
","","","-1","","","25","9001","4159","&#9761;","elianto","#3366ff99","-1","-1","1","+10","[]","0","0","2","","","","","","","",""
"call-function","60","538740","0.0-2.0-12.0","battery-v0.2","","""event"",""trial"",""time""
""fullscreenenter"",""1"",""1819""
","
","
","""event"",""trial"",""time""
""fullscreenenter"",""1"",""1819""
","
","","","","","","","","","","","","","","","","","","","","","","","","","","",""
"pit-instructions","61","580419","0.0-2.0-13.0","battery-v0.2","","""event"",""trial"",""time""
""fullscreenenter"",""1"",""1819""
","
","
","""event"",""trial"",""time""
""fullscreenenter"",""1"",""1819""
","
","","[{""page_index"":0,""viewing_time"":7480},{""page_index"":1,""viewing_time"":8221.599999904633},{""page_index"":2,""viewing_time"":3755.600000143051},{""page_index"":3,""viewing_time"":15863.899999856949},{""page_index"":4,""viewing_time"":6356.900000095367}]","41678.40000009537","","","","","","","","","","","","","","","","","","","","","","","",""
"pit-trial","62","585293","0.0-2.0-14.0-0.0","battery-v0.2","","""event"",""trial"",""time""
""fullscreenenter"",""1"",""1819""
","
","
","""event"",""trial"",""time""
""fullscreenenter"",""1"",""1819""
","
","","","-1","","","25","9001","4159","&#9826;","elianto","#f73b6a7A","-1","-1","1","0","[]","0","0","3","","","","","","","",""
"pit-trial","63","590153","0.0-2.0-14.0-1.0","battery-v0.2","","""event"",""trial"",""time""
""fullscreenenter"",""1"",""1819""
","
","
","""event"",""trial"",""time""
""fullscreenenter"",""1"",""1819""
","
","","","-1","","","25","9001","4159","&#9826;","elianto","#f73b6a7A","-1","-1","1","0","[]","0","0","3","","","","","","","",""
"pit-trial","64","595019","0.0-2.0-14.0-2.0","battery-v0.2","","""event"",""trial"",""time""
""fullscreenenter"",""1"",""1819""
","
","
","""event"",""trial"",""time""
""fullscreenenter"",""1"",""1819""
","
","","","-1","","","25","9001","4159","&#9826;","elianto","#f73b6a7A","-1","-1","1","0","[]","0","0","3","","","","","","","",""
"pit-trial","65","599886","0.0-2.0-14.0-3.0","battery-v0.2","","""event"",""trial"",""time""
""fullscreenenter"",""1"",""1819""
","
","
","""event"",""trial"",""time""
""fullscreenenter"",""1"",""1819""
","
","","","-1","","","25","9001","4159","&#9826;","elianto","#f73b6a7A","-1","-1","1","-10","[]","0","0","3","","","","","","","",""
"pit-trial","66","604757","0.0-2.0-14.0-4.0","battery-v0.2","","""event"",""trial"",""time""
""fullscreenenter"",""1"",""1819""
","
","
","""event"",""trial"",""time""
""fullscreenenter"",""1"",""1819""
","
","","","-1","","","25","9001","4159","&#9826;","elianto","#f73b6a7A","-1","-1","1","0","[]","0","0","3","","","","","","","",""
"pit-trial","67","609624","0.0-2.0-14.1-0.1","battery-v0.2","","""event"",""trial"",""time""
""fullscreenenter"",""1"",""1819""
","
","
","""event"",""trial"",""time""
""fullscreenenter"",""1"",""1819""
","
","","","-1","","","25","9001","4159","&#9826;","elianto","#f73b6a7A","-1","-1","1","0","[]","0","0","3","","","","","","","",""
"pit-trial","68","614487","0.0-2.0-14.1-1.1","battery-v0.2","","""event"",""trial"",""time""
""fullscreenenter"",""1"",""1819""
","
","
","""event"",""trial"",""time""
""fullscreenenter"",""1"",""1819""
","
","","","-1","","","25","9001","4159","&#9826;","elianto","#f73b6a7A","-1","-1","1","0","[]","0","0","3","","","","","","","",""
"pit-trial","69","619341","0.0-2.0-14.1-2.1","battery-v0.2","","""event"",""trial"",""time""
""fullscreenenter"",""1"",""1819""
","
","
","""event"",""trial"",""time""
""fullscreenenter"",""1"",""1819""
","
","","","-1","","","25","9001","4159","&#9826;","elianto","#f73b6a7A","-1","-1","1","0","[]","0","0","3","","","","","","","",""
"pit-trial","70","622599","0.0-2.0-14.1-3.1","battery-v0.2","","""event"",""trial"",""time""
""fullscreenenter"",""1"",""1819""
","
","
","""event"",""trial"",""time""
""fullscreenenter"",""1"",""1819""
","
","","","398.40000009536743","","","25","9001","4159","&#9826;","elianto","#f73b6a7A","-1"," ","0","0","[1248.5999999046326]","1","0","3","","","","","","","",""
"pit-trial","71","627454","0.0-2.0-14.1-4.1","battery-v0.2","","""event"",""trial"",""time""
""fullscreenenter"",""1"",""1819""
","
","
","""event"",""trial"",""time""
""fullscreenenter"",""1"",""1819""
","
","","","-1","","","25","9001","4159","&#9826;","elianto","#f73b6a7A","-1","-1","1","0","[]","0","0","3","","","","","","","",""
"pit-trial","72","632309","0.0-2.0-14.2-0.2","battery-v0.2","","""event"",""trial"",""time""
""fullscreenenter"",""1"",""1819""
","
","
","""event"",""trial"",""time""
""fullscreenenter"",""1"",""1819""
","
","","","-1","","","25","9001","4159","&#9826;","elianto","#f73b6a7A","-1","-1","1","0","[]","0","0","3","","","","","","","",""
"pit-trial","73","637162","0.0-2.0-14.2-1.2","battery-v0.2","","""event"",""trial"",""time""
""fullscreenenter"",""1"",""1819""
","
","
","""event"",""trial"",""time""
""fullscreenenter"",""1"",""1819""
","
","","","-1","","","25","9001","4159","&#9826;","elianto","#f73b6a7A","-1","-1","1","0","[]","0","0","3","","","","","","","",""
"pit-trial","74","642027","0.0-2.0-14.2-2.2","battery-v0.2","","""event"",""trial"",""time""
""fullscreenenter"",""1"",""1819""
","
","
","""event"",""trial"",""time""
""fullscreenenter"",""1"",""1819""
","
","","","-1","","","25","9001","4159","&#9826;","elianto","#f73b6a7A","-1","-1","1","0","[]","0","0","3","","","","","","","",""
"pit-trial","75","646897","0.0-2.0-14.2-3.2","battery-v0.2","","""event"",""trial"",""time""
""fullscreenenter"",""1"",""1819""
","
","
","""event"",""trial"",""time""
""fullscreenenter"",""1"",""1819""
","
","","","-1","","","25","9001","4159","&#9826;","elianto","#f73b6a7A","-1","-1","1","-10","[]","0","0","3","","","","","","","",""
"pit-trial","76","651750","0.0-2.0-14.2-4.2","battery-v0.2","","""event"",""trial"",""time""
""fullscreenenter"",""1"",""1819""
","
","
","""event"",""trial"",""time""
""fullscreenenter"",""1"",""1819""
","
","","","-1","","","25","9001","4159","&#9826;","elianto","#f73b6a7A","-1","-1","1","0","[]","0","0","3","","","","","","","",""
"pit-trial","77","656604","0.0-2.0-14.3-0.3","battery-v0.2","","""event"",""trial"",""time""
""fullscreenenter"",""1"",""1819""
","
","
","""event"",""trial"",""time""
""fullscreenenter"",""1"",""1819""
","
","","","-1","","","25","9001","4159","&#9826;","elianto","#f73b6a7A","-1","-1","1","0","[]","0","0","3","","","","","","","",""
"pit-trial","78","661457","0.0-2.0-14.3-1.3","battery-v0.2","","""event"",""trial"",""time""
""fullscreenenter"",""1"",""1819""
","
","
","""event"",""trial"",""time""
""fullscreenenter"",""1"",""1819""
","
","","","-1","","","25","9001","4159","&#9826;","elianto","#f73b6a7A","-1","-1","1","0","[]","0","0","3","","","","","","","",""
"pit-trial","79","666312","0.0-2.0-14.3-2.3","battery-v0.2","","""event"",""trial"",""time""
""fullscreenenter"",""1"",""1819""
","
","
","""event"",""trial"",""time""
""fullscreenenter"",""1"",""1819""
","
","","","-1","","","25","9001","4159","&#9826;","elianto","#f73b6a7A","-1","-1","1","0","[]","0","0","3","","","","","","","",""
"pit-trial","80","669575","0.0-2.0-14.3-3.3","battery-v0.2","","""event"",""trial"",""time""
""fullscreenenter"",""1"",""1819""
","
","
","""event"",""trial"",""time""
""fullscreenenter"",""1"",""1819""
","
","","","410.5","","","25","9001","4159","&#9826;","elianto","#f73b6a7A","-1"," ","0","0","[1261.0999999046326]","1","0","3","","","","","","","",""
"pit-trial","81","674429","0.0-2.0-14.3-4.3","battery-v0.2","","""event"",""trial"",""time""
""fullscreenenter"",""1"",""1819""
","
","
","""event"",""trial"",""time""
""fullscreenenter"",""1"",""1819""
","
","","","-1","","","25","9001","4159","&#9826;","elianto","#f73b6a7A","-1","-1","1","0","[]","0","0","3","","","","","","","",""
"call-function","82","674430","0.0-2.0-15.0","battery-v0.2","","""event"",""trial"",""time""
""fullscreenenter"",""1"",""1819""
","
","
","""event"",""trial"",""time""
""fullscreenenter"",""1"",""1819""
","
","","","","","","","","","","","","","","","","","","","","","","","","","","",""
"pit-instructions","83","704628","0.0-2.0-16.0","battery-v0.2","","""event"",""trial"",""time""
""fullscreenenter"",""1"",""1819""
","
","
","""event"",""trial"",""time""
""fullscreenenter"",""1"",""1819""
","
","","[{""page_index"":0,""viewing_time"":9545.099999904633},{""page_index"":1,""viewing_time"":8382.200000047684},{""page_index"":2,""viewing_time"":7980.299999952316},{""page_index"":3,""viewing_time"":4289.5}]","30197.799999952316","","","","","","","","","","","","","","","","","","","","","","","",""
"pit-trial","84","709493","0.0-2.0-17.0-0.0","battery-v0.2","","""event"",""trial"",""time""
""fullscreenenter"",""1"",""1819""
","
","
","""event"",""trial"",""time""
""fullscreenenter"",""1"",""1819""
","
","","","-1","","","25","9001","4159","&#9789;","elianto","#f73b6a7A"," ","-1","0","-10","[]","0","0","4","","","","","","","",""
"pit-trial","85","712760","0.0-2.0-17.0-1.0","battery-v0.2","","""event"",""trial"",""time""
""fullscreenenter"",""1"",""1819""
","
","
","""event"",""trial"",""time""
""fullscreenenter"",""1"",""1819""
","
","","","381.2000000476837","","","25","9001","4159","&#9789;","elianto","#f73b6a7A"," "," ","1","0","[1241.2999999523163]","1","0","4","","","","","","","",""
"pit-trial","86","716095","0.0-2.0-17.0-2.0","battery-v0.2","","""event"",""trial"",""time""
""fullscreenenter"",""1"",""1819""
","
","
","""event"",""trial"",""time""
""fullscreenenter"",""1"",""1819""
","
","","","470.19999980926514","","","25","9001","4159","&#9789;","elianto","#f73b6a7A"," "," ","1","0","[1323.7000000476837]","1","0","4","","","","","","","",""
"pit-trial","87","719357","0.0-2.0-17.0-3.0","battery-v0.2","","""event"",""trial"",""time""
""fullscreenenter"",""1"",""1819""
","
","
","""event"",""trial"",""time""
""fullscreenenter"",""1"",""1819""
","
","","","392.90000009536743","","","25","9001","4159","&#9789;","elianto","#f73b6a7A"," "," ","1","-10","[1249.3000001907349]","1","0","4","","","","","","","",""
"pit-trial","88","723119","0.0-2.0-17.0-4.0","battery-v0.2","","""event"",""trial"",""time""
""fullscreenenter"",""1"",""1819""
","
","
","""event"",""trial"",""time""
""fullscreenenter"",""1"",""1819""
","
","","","887.0999999046326","","","25","9001","4159","&#9789;","elianto","#f73b6a7A"," "," ","1","0","[1745.0999999046326]","1","0","4","","","","","","","",""
"pit-trial","89","726431","0.0-2.0-17.1-0.1","battery-v0.2","","""event"",""trial"",""time""
""fullscreenenter"",""1"",""1819""
","
","
","""event"",""trial"",""time""
""fullscreenenter"",""1"",""1819""
","
","","","421.7999999523163","","","25","9001","4159","&#9789;","elianto","#f73b6a7A"," "," ","1","0","[1284.5]","1","0","4","","","","","","","",""
"pit-trial","90","729597","0.0-2.0-17.1-1.1","battery-v0.2","","""event"",""trial"",""time""
""fullscreenenter"",""1"",""1819""
","
","
","""event"",""trial"",""time""
""fullscreenenter"",""1"",""1819""
","
","","","302.90000009536743","","","25","9001","4159","&#9789;","elianto","#f73b6a7A"," "," ","1","0","[1161.0999999046326]","1","0","4","","","","","","","",""
"pit-trial","91","732729","0.0-2.0-17.1-2.1","battery-v0.2","","""event"",""trial"",""time""
""fullscreenenter"",""1"",""1819""
","
","
","""event"",""trial"",""time""
""fullscreenenter"",""1"",""1819""
","
","","","264.2000000476837","","","25","9001","4159","&#9789;","elianto","#f73b6a7A"," "," ","1","0","[1114.4000000953674]","1","0","4","","","","","","","",""
"pit-trial","92","737599","0.0-2.0-17.1-3.1","battery-v0.2","","""event"",""trial"",""time""
""fullscreenenter"",""1"",""1819""
","
","
","""event"",""trial"",""time""
""fullscreenenter"",""1"",""1819""
","
","","","-1","","","25","9001","4159","&#9789;","elianto","#f73b6a7A"," ","-1","0","0","[]","0","0","4","","","","","","","",""
"pit-trial","93","740705","0.0-2.0-17.1-4.1","battery-v0.2","","""event"",""trial"",""time""
""fullscreenenter"",""1"",""1819""
","
","
","""event"",""trial"",""time""
""fullscreenenter"",""1"",""1819""
","
","","","246.79999995231628","","","25","9001","4159","&#9789;","elianto","#f73b6a7A"," "," ","1","0","[1101.5999999046326]","1","0","4","","","","","","","",""
"pit-trial","94","743759","0.0-2.0-17.2-0.2","battery-v0.2","","""event"",""trial"",""time""
""fullscreenenter"",""1"",""1819""
","
","
","""event"",""trial"",""time""
""fullscreenenter"",""1"",""1819""
","
","","","197.29999995231628","","","25","9001","4159","&#9789;","elianto","#f73b6a7A"," "," ","1","0","[1048.7000000476837]","1","0","4","","","","","","","",""
"pit-trial","95","746809","0.0-2.0-17.2-1.2","battery-v0.2","","""event"",""trial"",""time""
""fullscreenenter"",""1"",""1819""
","
","
","""event"",""trial"",""time""
""fullscreenenter"",""1"",""1819""
","
","","","195.10000014305115","","","25","9001","4159","&#9789;","elianto","#f73b6a7A"," "," ","1","0","[1045.2999999523163]","1","0","4","","","","","","","",""
"pit-trial","96","749861","0.0-2.0-17.2-2.2","battery-v0.2","","""event"",""trial"",""time""
""fullscreenenter"",""1"",""1819""
","
","
","""event"",""trial"",""time""
""fullscreenenter"",""1"",""1819""
","
","","","196.19999980926514","","","25","9001","4159","&#9789;","elianto","#f73b6a7A"," "," ","1","0","[1047.2999999523163]","1","0","4","","","","","","","",""
"pit-trial","97","754716","0.0-2.0-17.2-3.2","battery-v0.2","","""event"",""trial"",""time""
""fullscreenenter"",""1"",""1819""
","
","
","""event"",""trial"",""time""
""fullscreenenter"",""1"",""1819""
","
","","","-1","","","25","9001","4159","&#9789;","elianto","#f73b6a7A"," ","-1","0","0","[]","0","0","4","","","","","","","",""
"pit-trial","98","757826","0.0-2.0-17.2-4.2","battery-v0.2","","""event"",""trial"",""time""
""fullscreenenter"",""1"",""1819""
","
","
","""event"",""trial"",""time""
""fullscreenenter"",""1"",""1819""
","
","","","255.79999995231628","","","25","9001","4159","&#9789;","elianto","#f73b6a7A"," "," ","1","0","[1106.5]","1","0","4","","","","","","","",""
"pit-trial","99","761366","0.0-2.0-17.3-0.3","battery-v0.2","","""event"",""trial"",""time""
""fullscreenenter"",""1"",""1819""
","
","
","""event"",""trial"",""time""
""fullscreenenter"",""1"",""1819""
","
","","","684.9000000953674","","","25","9001","4159","&#9789;","elianto","#f73b6a7A"," "," ","1","0","[1535]","1","0","4","","","","","","","",""
"pit-trial","100","764334","0.0-2.0-17.3-1.3","battery-v0.2","","""event"",""trial"",""time""
""fullscreenenter"",""1"",""1819""
","
","
","""event"",""trial"",""time""
""fullscreenenter"",""1"",""1819""
","
","","","112.10000014305115","","","25","9001","4159","&#9789;","elianto","#f73b6a7A"," "," ","1","0","[963.8999998569489]","1","0","4","","","","","","","",""
"pit-trial","101","767357","0.0-2.0-17.3-2.3","battery-v0.2","","""event"",""trial"",""time""
""fullscreenenter"",""1"",""1819""
","
","
","""event"",""trial"",""time""
""fullscreenenter"",""1"",""1819""
","
","","","168.79999995231628","","","25","9001","4159","&#9789;","elianto","#f73b6a7A"," "," ","1","0","[1019.7000000476837]","1","0","4","","","","","","","",""
"pit-trial","102","772211","0.0-2.0-17.3-3.3","battery-v0.2","","""event"",""trial"",""time""
""fullscreenenter"",""1"",""1819""
","
","
","""event"",""trial"",""time""
""fullscreenenter"",""1"",""1819""
","
","","","-1","","","25","9001","4159","&#9789;","elianto","#f73b6a7A"," ","-1","0","0","[]","0","0","4","","","","","","","",""
"pit-trial","103","775310","0.0-2.0-17.3-4.3","battery-v0.2","","""event"",""trial"",""time""
""fullscreenenter"",""1"",""1819""
","
","
","""event"",""trial"",""time""
""fullscreenenter"",""1"",""1819""
","
","","","244.10000014305115","","","25","9001","4159","&#9789;","elianto","#f73b6a7A"," "," ","1","0","[1095.8999998569489]","1","0","4","","","","","","","",""
"call-function","104","775313","0.0-2.0-18.0","battery-v0.2","","""event"",""trial"",""time""
""fullscreenenter"",""1"",""1819""
","
","
","""event"",""trial"",""time""
""fullscreenenter"",""1"",""1819""
","
","","","","","","","","","","","","","","","","","","","","","","","","","","",""
"pit-instructions","105","843760","0.0-2.0-19.0","battery-v0.2","","""event"",""trial"",""time""
""fullscreenenter"",""1"",""1819""
","
","
","""event"",""trial"",""time""
""fullscreenenter"",""1"",""1819""
","
","","[{""page_index"":0,""viewing_time"":8014.5},{""page_index"":1,""viewing_time"":5639.100000143051},{""page_index"":2,""viewing_time"":8474.199999809265},{""page_index"":3,""viewing_time"":8788.700000047684},{""page_index"":4,""viewing_time"":10737.799999952316},{""page_index"":5,""viewing_time"":9318.200000047684},{""page_index"":6,""viewing_time"":8101.5},{""page_index"":7,""viewing_time"":6046.200000047684},{""page_index"":8,""viewing_time"":3326.9000000953674}]","68447.70000004768","","","","","","","","","","","","","","","","","","","","","","","",""
"pit-comprehension","106","848453","0.0-2.0-20.0-0.0","battery-v0.2","","""event"",""trial"",""time""
""fullscreenenter"",""1"",""1819""
","
","
","""event"",""trial"",""time""
""fullscreenenter"",""1"",""1819""
","
","","","4687.199999809265","[""SPACE""]","0","25","9001","4159","","","","","","","","","","","","","","","","","","",""
"pit-instructions","107","851558","0.0-2.0-20.0-1.0","battery-v0.2","","""event"",""trial"",""time""
""fullscreenenter"",""1"",""1819""
","
","
","""event"",""trial"",""time""
""fullscreenenter"",""1"",""1819""
","
","","[{""page_index"":0,""viewing_time"":3036.2000000476837}]","3036.7000000476837","","","","","","","","","","","","","","","","","","","","","","","",""
"pit-comprehension","108","858445","0.0-2.0-21.0-0.0","battery-v0.2","","""event"",""trial"",""time""
""fullscreenenter"",""1"",""1819""
","
","
","""event"",""trial"",""time""
""fullscreenenter"",""1"",""1819""
","
","","","6882.200000047684","[""10""]","0","25","9001","4159","","","","","","","","","","","","","","","","","","",""
"pit-instructions","109","860243","0.0-2.0-21.0-1.0","battery-v0.2","","""event"",""trial"",""time""
""fullscreenenter"",""1"",""1819""
","
","
","""event"",""trial"",""time""
""fullscreenenter"",""1"",""1819""
","
","","[{""page_index"":0,""viewing_time"":1759.7999999523163}]","1760.5","","","","","","","","","","","","","","","","","","","","","","","",""
"pit-comprehension","110","867628","0.0-2.0-22.0-0.0","battery-v0.2","","""event"",""trial"",""time""
""fullscreenenter"",""1"",""1819""
","
","
","""event"",""trial"",""time""
""fullscreenenter"",""1"",""1819""
","
","","","7379.200000047684","[""0""]","0","25","9001","4159","","","","","","","","","","","","","","","","","","",""
"pit-instructions","111","869476","0.0-2.0-22.0-1.0","battery-v0.2","","""event"",""trial"",""time""
""fullscreenenter"",""1"",""1819""
","
","
","""event"",""trial"",""time""
""fullscreenenter"",""1"",""1819""
","
","","[{""page_index"":0,""viewing_time"":1798.7000000476837}]","1799.2000000476837","","","","","","","","","","","","","","","","","","","","","","","",""
"pit-comprehension","112","884135","0.0-2.0-23.0-0.0","battery-v0.2","","""event"",""trial"",""time""
""fullscreenenter"",""1"",""1819""
","
","
","""event"",""trial"",""time""
""fullscreenenter"",""1"",""1819""
","
","","","14655.299999952316","[""True""]","0","25","9001","4159","","","","","","","","","","","","","","","","","","",""
"pit-instructions","113","886499","0.0-2.0-23.0-1.0","battery-v0.2","","""event"",""trial"",""time""
""fullscreenenter"",""1"",""1819""
","
","
","""event"",""trial"",""time""
""fullscreenenter"",""1"",""1819""
","
","","[{""page_index"":0,""viewing_time"":2257.2000000476837}]","2257.7000000476837","","","","","","","","","","","","","","","","","","","","","","","",""
"pit-comprehension","114","894150","0.0-2.0-24.0-0.0","battery-v0.2","","""event"",""trial"",""time""
""fullscreenenter"",""1"",""1819""
","
","
","""event"",""trial"",""time""
""fullscreenenter"",""1"",""1819""
","
","","","7647.399999856949","[""True""]","0","25","9001","4159","","","","","","","","","","","","","","","","","","",""
"pit-instructions","115","895856","0.0-2.0-24.0-1.0","battery-v0.2","","""event"",""trial"",""time""
""fullscreenenter"",""1"",""1819""
","
","
","""event"",""trial"",""time""
""fullscreenenter"",""1"",""1819""
","
","","[{""page_index"":0,""viewing_time"":1661}]","1661.5","","","","","","","","","","","","","","","","","","","","","","","",""
"pit-comprehension","116","902939","0.0-2.0-25.0-0.0","battery-v0.2","","""event"",""trial"",""time""
""fullscreenenter"",""1"",""1819""
","
","
","""event"",""trial"",""time""
""fullscreenenter"",""1"",""1819""
","
","","","7079.5","[""True""]","0","25","9001","4159","","","","","","","","","","","","","","","","","","",""
"pit-instructions","117","906597","0.0-2.0-25.0-1.0","battery-v0.2","","""event"",""trial"",""time""
""fullscreenenter"",""1"",""1819""
","
","
","""event"",""trial"",""time""
""fullscreenenter"",""1"",""1819""
","
","","[{""page_index"":0,""viewing_time"":3609.0999999046326}]","3609.7999999523163","","","","","","","","","","","","","","","","","","","","","","","",""
"pit-comprehension","118","912230","0.0-2.0-26.0-0.0","battery-v0.2","","""event"",""trial"",""time""
""fullscreenenter"",""1"",""1819""
","
","
","""event"",""trial"",""time""
""fullscreenenter"",""1"",""1819""
","
","","","5628.400000095367","[""True""]","1","25","9001","4159","","","","","","","","","","","","","","","","","","",""
"pit-instructions","119","920013","0.0-2.0-26.0-1.0","battery-v0.2","","""event"",""trial"",""time""
""fullscreenenter"",""1"",""1819""
","
","
","""event"",""trial"",""time""
""fullscreenenter"",""1"",""1819""
","
","","[{""page_index"":0,""viewing_time"":7725.600000143051}]","7726","","","","","","","","","","","","","","","","","","","","","","","",""
"pit-instructions","120","921248","0.0-2.0-26.0-2.0-0.0","battery-v0.2","","""event"",""trial"",""time""
""fullscreenenter"",""1"",""1819""
","
","
","""event"",""trial"",""time""
""fullscreenenter"",""1"",""1819""
","
","","[{""page_index"":0,""viewing_time"":1232.8999998569489}]","1233.1999998092651","","","","","","","","","","","","","","","","","","","","","","","",""
"pit-comprehension","121","926257","0.0-2.0-26.1-0.1","battery-v0.2","","""event"",""trial"",""time""
""fullscreenenter"",""1"",""1819""
","
","
","""event"",""trial"",""time""
""fullscreenenter"",""1"",""1819""
","
","","","5007.099999904633","[""False""]","0","25","9001","4159","","","","","","","","","","","","","","","","","","",""
"pit-instructions","122","928858","0.0-2.0-26.1-1.1","battery-v0.2","","""event"",""trial"",""time""
""fullscreenenter"",""1"",""1819""
","
","
","""event"",""trial"",""time""
""fullscreenenter"",""1"",""1819""
","
","","[{""page_index"":0,""viewing_time"":2546.199999809265}]","2546.5999999046326","","","","","","","","","","","","","","","","","","","","","","","",""
"pit-instructions","123","946937","0.0-3.0","battery-v0.2","","""event"",""trial"",""time""
""fullscreenenter"",""1"",""1819""
","
","
","""event"",""trial"",""time""
""fullscreenenter"",""1"",""1819""
","
","","[{""page_index"":0,""viewing_time"":4506.099999904633},{""page_index"":1,""viewing_time"":5940.299999952316},{""page_index"":2,""viewing_time"":7630.700000047684}]","18077.299999952316","","","","","","","","","","","","","","","","","","","","","","","",""
"pit-trial","124","951137","0.0-4.0","battery-v0.2","","""event"",""trial"",""time""
""fullscreenenter"",""1"",""1819""
","
","
","""event"",""trial"",""time""
""fullscreenenter"",""1"",""1819""
","
","","","1339.3999998569489","","","25","9001","4159","&#9733;","elianto","#3366ff99","-1"," ","0","0","[2191.5]","1","1","","","9001","1","2","2","win","no-go","0"
"pit-trial","125","955675","0.0-5.0","battery-v0.2","","""event"",""trial"",""time""
""fullscreenenter"",""1"",""1819""
","
","
","""event"",""trial"",""time""
""fullscreenenter"",""1"",""1819""
","
","","","1668.6999998092651","","","25","9001","4159","&#9730;","elianto","#3366ff99"," "," ","1","+10","[2520]","1","1","","","9001","2","1","1","win","go","0"
"pit-trial","126","959317","0.0-6.0","battery-v0.2","","""event"",""trial"",""time""
""fullscreenenter"",""1"",""1819""
","
","
","""event"",""trial"",""time""
""fullscreenenter"",""1"",""1819""
","
","","","785","","","25","9001","4159","&#9752;","elianto","#f73b6a7A"," "," ","1","0","[1636]","1","1","","","9001","3","3","3","lose","go","0"
"pit-trial","127","963322","0.0-7.0","battery-v0.2","","""event"",""trial"",""time""
""fullscreenenter"",""1"",""1819""
","
","
","""event"",""trial"",""time""
""fullscreenenter"",""1"",""1819""
","
","","","1149.7999999523163","","","25","9001","4159","&#9728;","elianto","#f73b6a7A","-1"," ","0","0","[2002]","1","1","","","9001","4","0","4","lose","no-go","1"
"pit-trial","128","967319","0.0-8.0","battery-v0.2","","""event"",""trial"",""time""
""fullscreenenter"",""1"",""1819""
","
","
","""event"",""trial"",""time""
""fullscreenenter"",""1"",""1819""
","
","","","1131.7999999523163","","","25","9001","4159","&#9730;","elianto","#3366ff99"," "," ","1","+10","[1987.5999999046326]","1","1","","","9001","5","1","1","win","go","0"
"pit-trial","129","971334","0.0-9.0","battery-v0.2","","""event"",""trial"",""time""
""fullscreenenter"",""1"",""1819""
","
","
","""event"",""trial"",""time""
""fullscreenenter"",""1"",""1819""
","
","","","1154.9000000953674","","","25","9001","4159","&#9728;","elianto","#f73b6a7A","-1"," ","0","-10","[2006.9000000953674]","1","1","","","9001","6","0","4","lose","no-go","0"
"pit-trial","130","976202","0.0-10.0","battery-v0.2","","""event"",""trial"",""time""
""fullscreenenter"",""1"",""1819""
","
","
","""event"",""trial"",""time""
""fullscreenenter"",""1"",""1819""
","
","","","-1","","","25","9001","4159","&#9733;","elianto","#3366ff99","-1","-1","1","+10","[]","0","1","","","9001","7","2","2","win","no-go","0"
"pit-trial","131","979987","0.0-11.0","battery-v0.2","","""event"",""trial"",""time""
""fullscreenenter"",""1"",""1819""
","
","
","""event"",""trial"",""time""
""fullscreenenter"",""1"",""1819""
","
","","","927.9000000953674","","","25","9001","4159","&#9752;","elianto","#f73b6a7A"," "," ","1","0","[1782.8999998569489]","1","1","","","9001","8","3","3","lose","go","0"
"pit-trial","132","984059","0.0-12.0","battery-v0.2","","""event"",""trial"",""time""
""fullscreenenter"",""1"",""1819""
","
","
","""event"",""trial"",""time""
""fullscreenenter"",""1"",""1819""
","
","","","1219.7000000476837","","","25","9001","4159","&#9733;","elianto","#3366ff99","-1"," ","0","+10","[2070.4000000953674]","1","1","","","9001","9","2","2","win","no-go","1"
"pit-trial","133","988498","0.0-13.0","battery-v0.2","","""event"",""trial"",""time""
""fullscreenenter"",""1"",""1819""
","
","
","""event"",""trial"",""time""
""fullscreenenter"",""1"",""1819""
","
","","","1586.2999999523163","","","25","9001","4159","&#9752;","elianto","#f73b6a7A"," "," ","1","0","[2436.5999999046326]","1","1","","","9001","10","3","3","lose","go","0"
"pit-trial","134","992586","0.0-14.0","battery-v0.2","","""event"",""trial"",""time""
""fullscreenenter"",""1"",""1819""
","
","
","""event"",""trial"",""time""
""fullscreenenter"",""1"",""1819""
","
","","","1235","","","25","9001","4159","&#9728;","elianto","#f73b6a7A","-1"," ","0","-10","[2085.2000000476837]","1","1","","","9001","11","0","4","lose","no-go","0"
"pit-trial","135","996346","0.0-15.0","battery-v0.2","","""event"",""trial"",""time""
""fullscreenenter"",""1"",""1819""
","
","
","""event"",""trial"",""time""
""fullscreenenter"",""1"",""1819""
","
","","","901.8000001907349","","","25","9001","4159","&#9730;","elianto","#3366ff99"," "," ","1","+10","[1752.4000000953674]","1","1","","","9001","12","1","1","win","go","0"
"pit-trial","136","1000240","0.0-16.0","battery-v0.2","","""event"",""trial"",""time""
""fullscreenenter"",""1"",""1819""
","
","
","""event"",""trial"",""time""
""fullscreenenter"",""1"",""1819""
","
","","","1040.1000001430511","","","25","9001","4159","&#9730;","elianto","#3366ff99"," "," ","1","+10","[1890.2999999523163]","1","1","","","9001","13","1","1","win","go","0"
"pit-trial","137","1005094","0.0-17.0","battery-v0.2","","""event"",""trial"",""time""
""fullscreenenter"",""1"",""1819""
","
","
","""event"",""trial"",""time""
""fullscreenenter"",""1"",""1819""
","
","","","-1","","","25","9001","4159","&#9733;","elianto","#3366ff99","-1","-1","1","+10","[]","0","1","","","9001","14","2","2","win","no-go","0"
"pit-trial","138","1008952","0.0-18.0","battery-v0.2","","""event"",""trial"",""time""
""fullscreenenter"",""1"",""1819""
","
","
","""event"",""trial"",""time""
""fullscreenenter"",""1"",""1819""
","
","","","1004.5999999046326","","","25","9001","4159","&#9752;","elianto","#f73b6a7A"," "," ","1","0","[1855.5999999046326]","1","1","","","9001","15","3","3","lose","go","0"
"pit-trial","139","1013806","0.0-19.0","battery-v0.2","","""event"",""trial"",""time""
""fullscreenenter"",""1"",""1819""
","
","
","""event"",""trial"",""time""
""fullscreenenter"",""1"",""1819""
","
","","","-1","","","25","9001","4159","&#9728;","elianto","#f73b6a7A","-1","-1","1","-10","[]","0","1","","","9001","16","0","4","lose","no-go","1"
"pit-trial","140","1017591","0.0-20.0","battery-v0.2","","""event"",""trial"",""time""
""fullscreenenter"",""1"",""1819""
","
","
","""event"",""trial"",""time""
""fullscreenenter"",""1"",""1819""
","
","","","929.9000000953674","","","25","9001","4159","&#9752;","elianto","#f73b6a7A"," "," ","1","0","[1781.5]","1","1","","","9001","17","3","3","lose","go","0"
"pit-trial","141","1022445","0.0-21.0","battery-v0.2","","""event"",""trial"",""time""
""fullscreenenter"",""1"",""1819""
","
","
","""event"",""trial"",""time""
""fullscreenenter"",""1"",""1819""
","
","","","-1","","","25","9001","4159","&#9728;","elianto","#f73b6a7A","-1","-1","1","0","[]","0","1","","","9001","18","0","4","lose","no-go","0"
"pit-trial","142","1027299","0.0-22.0","battery-v0.2","","""event"",""trial"",""time""
""fullscreenenter"",""1"",""1819""
","
","
","""event"",""trial"",""time""
""fullscreenenter"",""1"",""1819""
","
","","","-1","","","25","9001","4159","&#9733;","elianto","#3366ff99","-1","-1","1","+10","[]","0","1","","","9001","19","2","2","win","no-go","0"
"pit-trial","143","1030889","0.0-23.0","battery-v0.2","","""event"",""trial"",""time""
""fullscreenenter"",""1"",""1819""
","
","
","""event"",""trial"",""time""
""fullscreenenter"",""1"",""1819""
","
","","","735.1000001430511","","","25","9001","4159","&#9730;","elianto","#3366ff99"," "," ","1","+10","[1587.1000001430511]","1","1","","","9001","20","1","1","win","go","0"
"pit-instructions","144","1044777","0.0-24.0","battery-v0.2","","""event"",""trial"",""time""
""fullscreenenter"",""1"",""1819""
","
","
","""event"",""trial"",""time""
""fullscreenenter"",""1"",""1819""
","
","","[{""page_index"":0,""viewing_time"":7179.699999809265},{""page_index"":1,""viewing_time"":6708.100000143051}]","13888.299999952316","","","","","","","","","","","","","","","","","","","","","","","",""
"pit-trial","145","1048897","0.0-25.0","battery-v0.2","","""event"",""trial"",""time""
""fullscreenenter"",""1"",""1819""
","
","
","""event"",""trial"",""time""
""fullscreenenter"",""1"",""1819""
","
","","","1253.8000001907349","","","25","9001","4159","f","elianto","#3366ff99"," "," ","1","+10","[2113.300000190735]","1","2","","","9001","21","1","1","win","go","0"
"pit-trial","146","1053768","0.0-26.0","battery-v0.2","","""event"",""trial"",""time""
""fullscreenenter"",""1"",""1819""
","
","
","""event"",""trial"",""time""
""fullscreenenter"",""1"",""1819""
","
","","","-1","","","25","9001","4159","t","elianto","#f73b6a7A","-1","-1","1","0","[]","0","2","","","9001","22","2","4","lose","no-go","0"
"pit-trial","147","1058641","0.0-27.0","battery-v0.2","","""event"",""trial"",""time""
""fullscreenenter"",""1"",""1819""
","
","
","""event"",""trial"",""time""
""fullscreenenter"",""1"",""1819""
","
","","","-1","","","25","9001","4159","b","elianto","#f73b6a7A"," ","-1","0","-10","[]","0","2","","","9001","23","3","3","lose","go","0"
"pit-trial","148","1062456","0.0-28.0","battery-v0.2","","""event"",""trial"",""time""
""fullscreenenter"",""1"",""1819""
","
","
","""event"",""trial"",""time""
""fullscreenenter"",""1"",""1819""
","
","","","946.5999999046326","","","25","9001","4159","n","elianto","#f73b6a7A","-1"," ","0","-10","[1798.8999998569489]","1","2","","","9001","24","0","4","lose","no-go","0"
"pit-trial","149","1066482","0.0-29.0","battery-v0.2","","""event"",""trial"",""time""
""fullscreenenter"",""1"",""1819""
","
","
","""event"",""trial"",""time""
""fullscreenenter"",""1"",""1819""
","
","","","1156.7999999523163","","","25","9001","4159","b","elianto","#f73b6a7A"," "," ","1","0","[2009.5]","1","2","","","9001","25","3","3","lose","go","0"
"pit-trial","150","1071307","0.0-30.0","battery-v0.2","","""event"",""trial"",""time""
""fullscreenenter"",""1"",""1819""
","
","
","""event"",""trial"",""time""
""fullscreenenter"",""1"",""1819""
","
","","","1959.2999999523163","","","25","9001","4159","t","elianto","#f73b6a7A","-1"," ","0","-10","[2813]","1","2","","","9001","26","2","4","lose","no-go","0"
"pit-trial","151","1074836","0.0-31.0","battery-v0.2","","""event"",""trial"",""time""
""fullscreenenter"",""1"",""1819""
","
","
","""event"",""trial"",""time""
""fullscreenenter"",""1"",""1819""
","
","","","668","","","25","9001","4159","f","elianto","#3366ff99"," "," ","1","0","[1518.6000001430511]","1","2","","","9001","27","1","1","win","go","1"
"pit-trial","152","1078880","0.0-32.0","battery-v0.2","","""event"",""trial"",""time""
""fullscreenenter"",""1"",""1819""
","
","
","""event"",""trial"",""time""
""fullscreenenter"",""1"",""1819""
","
","","","1188.7000000476837","","","25","9001","4159","n","elianto","#f73b6a7A","-1"," ","0","-10","[2040.9000000953674]","1","2","","","9001","28","0","4","lose","no-go","0"
"pit-trial","153","1083735","0.0-33.0","battery-v0.2","","""event"",""trial"",""time""
""fullscreenenter"",""1"",""1819""
","
","
","""event"",""trial"",""time""
""fullscreenenter"",""1"",""1819""
","
","","","-1","","","25","9001","4159","t","elianto","#f73b6a7A","-1","-1","1","0","[]","0","2","","","9001","29","2","4","lose","no-go","0"
"pit-trial","154","1088593","0.0-34.0","battery-v0.2","","""event"",""trial"",""time""
""fullscreenenter"",""1"",""1819""
","
","
","""event"",""trial"",""time""
""fullscreenenter"",""1"",""1819""
","
","","","-1","","","25","9001","4159","n","elianto","#f73b6a7A","-1","-1","1","-10","[]","0","2","","","9001","30","0","4","lose","no-go","1"
"pit-trial","155","1092668","0.0-35.0","battery-v0.2","","""event"",""trial"",""time""
""fullscreenenter"",""1"",""1819""
","
","
","""event"",""trial"",""time""
""fullscreenenter"",""1"",""1819""
","
","","","1218.5","","","25","9001","4159","f","elianto","#3366ff99"," "," ","1","+10","[2069]","1","2","","","9001","31","1","1","win","go","0"
"pit-trial","156","1097523","0.0-36.0","battery-v0.2","","""event"",""trial"",""time""
""fullscreenenter"",""1"",""1819""
","
","
","""event"",""trial"",""time""
""fullscreenenter"",""1"",""1819""
","
","","","-1","","","25","9001","4159","b","elianto","#f73b6a7A"," ","-1","0","-10","[]","0","2","","","9001","32","3","3","lose","go","0"
"pit-trial","157","1101194","0.0-37.0","battery-v0.2","","""event"",""trial"",""time""
""fullscreenenter"",""1"",""1819""
","
","
","""event"",""trial"",""time""
""fullscreenenter"",""1"",""1819""
","
","","","817","","","25","9001","4159","n","elianto","#f73b6a7A","-1"," ","0","-10","[1667.1000001430511]","1","2","","","9001","33","0","4","lose","no-go","0"
"pit-trial","158","1105388","0.0-38.0","battery-v0.2","","""event"",""trial"",""time""
""fullscreenenter"",""1"",""1819""
","
","
","""event"",""trial"",""time""
""fullscreenenter"",""1"",""1819""
","
","","","1339.0999999046326","","","25","9001","4159","b","elianto","#f73b6a7A"," "," ","1","0","[2190]","1","2","","","9001","34","3","3","lose","go","0"
"pit-trial","159","1109024","0.0-39.0","battery-v0.2","","""event"",""trial"",""time""
""fullscreenenter"",""1"",""1819""
","
","
","""event"",""trial"",""time""
""fullscreenenter"",""1"",""1819""
","
","","","781.6000001430511","","","25","9001","4159","f","elianto","#3366ff99"," "," ","1","0","[1632]","1","2","","","9001","35","1","1","win","go","1"
"pit-trial","160","1113513","0.0-40.0","battery-v0.2","","""event"",""trial"",""time""
""fullscreenenter"",""1"",""1819""
","
","
","""event"",""trial"",""time""
""fullscreenenter"",""1"",""1819""
","
","","","1634.5999999046326","","","25","9001","4159","t","elianto","#f73b6a7A","-1"," ","0","-10","[2485.0999999046326]","1","2","","","9001","36","2","4","lose","no-go","0"
"pit-trial","161","1118368","0.0-41.0","battery-v0.2","","""event"",""trial"",""time""
""fullscreenenter"",""1"",""1819""
","
","
","""event"",""trial"",""time""
""fullscreenenter"",""1"",""1819""
","
","","","-1","","","25","9001","4159","f","elianto","#3366ff99"," ","-1","0","0","[]","0","2","","","9001","37","1","1","win","go","0"
"pit-trial","162","1123222","0.0-42.0","battery-v0.2","","""event"",""trial"",""time""
""fullscreenenter"",""1"",""1819""
","
","
","""event"",""trial"",""time""
""fullscreenenter"",""1"",""1819""
","
","","","-1","","","25","9001","4159","t","elianto","#f73b6a7A","-1","-1","1","-10","[]","0","2","","","9001","38","2","4","lose","no-go","1"
"pit-trial","163","1126841","0.0-43.0","battery-v0.2","","""event"",""trial"",""time""
""fullscreenenter"",""1"",""1819""
","
","
","""event"",""trial"",""time""
""fullscreenenter"",""1"",""1819""
","
","","","765.4000000953674","","","25","9001","4159","b","elianto","#f73b6a7A"," "," ","1","0","[1616.1000001430511]","1","2","","","9001","39","3","3","lose","go","0"
"pit-trial","164","1131696","0.0-44.0","battery-v0.2","","""event"",""trial"",""time""
""fullscreenenter"",""1"",""1819""
","
","
","""event"",""trial"",""time""
""fullscreenenter"",""1"",""1819""
","
","","","-1","","","25","9001","4159","n","elianto","#f73b6a7A","-1","-1","1","0","[]","0","2","","","9001","40","0","4","lose","no-go","0"
"pit-trial","165","1136548","0.0-45.0","battery-v0.2","","""event"",""trial"",""time""
""fullscreenenter"",""1"",""1819""
","
","
","""event"",""trial"",""time""
""fullscreenenter"",""1"",""1819""
","
","","","-1","","","25","9001","4159","f","elianto","#3366ff99"," ","-1","0","0","[]","0","2","","","9001","41","1","1","win","go","0"
"pit-trial","166","1141401","0.0-46.0","battery-v0.2","","""event"",""trial"",""time""
""fullscreenenter"",""1"",""1819""
","
","
","""event"",""trial"",""time""
""fullscreenenter"",""1"",""1819""
","
","","","-1","","","25","9001","4159","t","elianto","#f73b6a7A","-1","-1","1","-10","[]","0","2","","","9001","42","2","4","lose","no-go","1"
"pit-trial","167","1146175","0.0-47.0","battery-v0.2","","""event"",""trial"",""time""
""fullscreenenter"",""1"",""1819""
","
","
","""event"",""trial"",""time""
""fullscreenenter"",""1"",""1819""
","
","","","1920","","","25","9001","4159","b","elianto","#f73b6a7A"," "," ","1","0","[2771]","1","2","","","9001","43","3","3","lose","go","0"
"pit-trial","168","1151028","0.0-48.0","battery-v0.2","","""event"",""trial"",""time""
""fullscreenenter"",""1"",""1819""
","
","
","""event"",""trial"",""time""
""fullscreenenter"",""1"",""1819""
","
","","","-1","","","25","9001","4159","n","elianto","#f73b6a7A","-1","-1","1","-10","[]","0","2","","","9001","44","0","4","lose","no-go","1"
"pit-trial","169","1154833","0.0-49.0","battery-v0.2","","""event"",""trial"",""time""
""fullscreenenter"",""1"",""1819""
","
","
","""event"",""trial"",""time""
""fullscreenenter"",""1"",""1819""
","
","","","950.1000001430511","","","25","9001","4159","b","elianto","#f73b6a7A"," "," ","1","0","[1802.5]","1","2","","","9001","45","3","3","lose","go","0"
"pit-trial","170","1159162","0.0-50.0","battery-v0.2","","""event"",""trial"",""time""
""fullscreenenter"",""1"",""1819""
","
","
","""event"",""trial"",""time""
""fullscreenenter"",""1"",""1819""
","
","","","1475.3999998569489","","","25","9001","4159","c","elianto","#3366ff99","-1"," ","0","0","[2325.5999999046326]","1","2","","","9001","46","4","2","win","no-go","0"
"pit-trial","171","1163391","0.0-51.0","battery-v0.2","","""event"",""trial"",""time""
""fullscreenenter"",""1"",""1819""
","
","
","""event"",""trial"",""time""
""fullscreenenter"",""1"",""1819""
","
","","","1376.5999999046326","","","25","9001","4159","n","elianto","#f73b6a7A","-1"," ","0","0","[2227]","1","2","","","9001","47","0","4","lose","no-go","1"
"pit-trial","172","1167395","0.0-52.0","battery-v0.2","","""event"",""trial"",""time""
""fullscreenenter"",""1"",""1819""
","
","
","""event"",""trial"",""time""
""fullscreenenter"",""1"",""1819""
","
","","","1151.4000000953674","","","25","9001","4159","t","elianto","#f73b6a7A","-1"," ","0","-10","[2002]","1","2","","","9001","48","2","4","lose","no-go","0"
"pit-trial","173","1171428","0.0-53.0","battery-v0.2","","""event"",""trial"",""time""
""fullscreenenter"",""1"",""1819""
","
","
","""event"",""trial"",""time""
""fullscreenenter"",""1"",""1819""
","
","","","1179.9000000953674","","","25","9001","4159","c","elianto","#3366ff99","-1"," ","0","0","[2030.0999999046326]","1","2","","","9001","49","4","2","win","no-go","0"
"pit-trial","174","1175235","0.0-54.0","battery-v0.2","","""event"",""trial"",""time""
""fullscreenenter"",""1"",""1819""
","
","
","""event"",""trial"",""time""
""fullscreenenter"",""1"",""1819""
","
","","","954.2000000476837","","","25","9001","4159","f","elianto","#3366ff99"," "," ","1","+10","[1804.9000000953674]","1","2","","","9001","50","1","1","win","go","0"
"pit-trial","175","1180088","0.0-55.0","battery-v0.2","","""event"",""trial"",""time""
""fullscreenenter"",""1"",""1819""
","
","
","""event"",""trial"",""time""
""fullscreenenter"",""1"",""1819""
","
","","","-1","","","25","9001","4159","b","elianto","#f73b6a7A"," ","-1","0","0","[]","0","2","","","9001","51","3","3","lose","go","1"
"pit-trial","176","1184941","0.0-56.0","battery-v0.2","","""event"",""trial"",""time""
""fullscreenenter"",""1"",""1819""
","
","
","""event"",""trial"",""time""
""fullscreenenter"",""1"",""1819""
","
","","","-1","","","25","9001","4159","n","elianto","#f73b6a7A","-1","-1","1","0","[]","0","2","","","9001","52","0","4","lose","no-go","0"
"pit-trial","177","1189796","0.0-57.0","battery-v0.2","","""event"",""trial"",""time""
""fullscreenenter"",""1"",""1819""
","
","
","""event"",""trial"",""time""
""fullscreenenter"",""1"",""1819""
","
","","","-1","","","25","9001","4159","n","elianto","#f73b6a7A","-1","-1","1","0","[]","0","2","","","9001","53","0","4","lose","no-go","0"
"pit-trial","178","1193280","0.0-58.0","battery-v0.2","","""event"",""trial"",""time""
""fullscreenenter"",""1"",""1819""
","
","
","""event"",""trial"",""time""
""fullscreenenter"",""1"",""1819""
","
","","","631.2999999523163","","","25","9001","4159","f","elianto","#3366ff99"," "," ","1","+10","[1482.5999999046326]","1","2","","","9001","54","1","1","win","go","0"
"pit-trial","179","1196896","0.0-59.0","battery-v0.2","","""event"",""trial"",""time""
""fullscreenenter"",""1"",""1819""
","
","
","""event"",""trial"",""time""
""fullscreenenter"",""1"",""1819""
","
","","","763.2999999523163","","","25","9001","4159","c","elianto","#3366ff99","-1"," ","0","0","[1613.8999998569489]","1","2","","","9001","55","4","2","win","no-go","0"
"pit-trial","180","1201295","0.0-60.0","battery-v0.2","","""event"",""trial"",""time""
""fullscreenenter"",""1"",""1819""
","
","
","""event"",""trial"",""time""
""fullscreenenter"",""1"",""1819""
","
","","","1545.1000001430511","","","25","9001","4159","t","elianto","#f73b6a7A","-1"," ","0","-10","[2395.2000000476837]","1","2","","","9001","56","2","4","lose","no-go","0"
"pit-trial","181","1205033","0.0-61.0","battery-v0.2","","""event"",""trial"",""time""
""fullscreenenter"",""1"",""1819""
","
","
","""event"",""trial"",""time""
""fullscreenenter"",""1"",""1819""
","
","","","884.7000000476837","","","25","9001","4159","f","elianto","#3366ff99"," "," ","1","0","[1735.5]","1","2","","","9001","57","1","1","win","go","1"
"pit-trial","182","1209886","0.0-62.0","battery-v0.2","","""event"",""trial"",""time""
""fullscreenenter"",""1"",""1819""
","
","
","""event"",""trial"",""time""
""fullscreenenter"",""1"",""1819""
","
","","","-1","","","25","9001","4159","n","elianto","#f73b6a7A","-1","-1","1","0","[]","0","2","","","9001","58","0","4","lose","no-go","0"
"pit-trial","183","1214150","0.0-63.0","battery-v0.2","","""event"",""trial"",""time""
""fullscreenenter"",""1"",""1819""
","
","
","""event"",""trial"",""time""
""fullscreenenter"",""1"",""1819""
","
","","","1412.0999999046326","","","25","9001","4159","c","elianto","#3366ff99","-1"," ","0","+10","[2263]","1","2","","","9001","59","4","2","win","no-go","1"
"pit-trial","184","1218399","0.0-64.0","battery-v0.2","","""event"",""trial"",""time""
""fullscreenenter"",""1"",""1819""
","
","
","""event"",""trial"",""time""
""fullscreenenter"",""1"",""1819""
","
","","","1396.4000000953674","","","25","9001","4159","b","elianto","#f73b6a7A"," "," ","1","0","[2246.7999999523163]","1","2","","","9001","60","3","3","lose","go","0"
"pit-trial","185","1222273","0.0-65.0","battery-v0.2","","""event"",""trial"",""time""
""fullscreenenter"",""1"",""1819""
","
","
","""event"",""trial"",""time""
""fullscreenenter"",""1"",""1819""
","
","","","1018.0999999046326","","","25","9001","4159","c","elianto","#3366ff99","-1"," ","0","0","[1870]","1","2","","","9001","61","4","2","win","no-go","0"
"pit-trial","186","1227128","0.0-66.0","battery-v0.2","","""event"",""trial"",""time""
""fullscreenenter"",""1"",""1819""
","
","
","""event"",""trial"",""time""
""fullscreenenter"",""1"",""1819""
","
","","","-1","","","25","9001","4159","b","elianto","#f73b6a7A"," ","-1","0","0","[]","0","2","","","9001","62","3","3","lose","go","1"
"pit-trial","187","1230619","0.0-67.0","battery-v0.2","","""event"",""trial"",""time""
""fullscreenenter"",""1"",""1819""
","
","
","""event"",""trial"",""time""
""fullscreenenter"",""1"",""1819""
","
","","","636.8000001907349","","","25","9001","4159","f","elianto","#3366ff99"," "," ","1","+10","[1487.8999998569489]","1","2","","","9001","63","1","1","win","go","0"
"pit-trial","188","1235473","0.0-68.0","battery-v0.2","","""event"",""trial"",""time""
""fullscreenenter"",""1"",""1819""
","
","
","""event"",""trial"",""time""
""fullscreenenter"",""1"",""1819""
","
","","","-1","","","25","9001","4159","t","elianto","#f73b6a7A","-1","-1","1","0","[]","0","2","","","9001","64","2","4","lose","no-go","0"
"pit-trial","189","1239051","0.0-69.0","battery-v0.2","","""event"",""trial"",""time""
""fullscreenenter"",""1"",""1819""
","
","
","""event"",""trial"",""time""
""fullscreenenter"",""1"",""1819""
","
","","","723.2000000476837","","","25","9001","4159","f","elianto","#3366ff99"," "," ","1","+10","[1575.2000000476837]","1","2","","","9001","65","1","1","win","go","0"
"pit-trial","190","1243906","0.0-70.0","battery-v0.2","","""event"",""trial"",""time""
""fullscreenenter"",""1"",""1819""
","
","
","""event"",""trial"",""time""
""fullscreenenter"",""1"",""1819""
","
","","","-1","","","25","9001","4159","b","elianto","#f73b6a7A"," ","-1","0","-10","[]","0","2","","","9001","66","3","3","lose","go","0"
"pit-trial","191","1248761","0.0-71.0","battery-v0.2","","""event"",""trial"",""time""
""fullscreenenter"",""1"",""1819""
","
","
","""event"",""trial"",""time""
""fullscreenenter"",""1"",""1819""
","
","","","-1","","","25","9001","4159","t","elianto","#f73b6a7A","-1","-1","1","-10","[]","0","2","","","9001","67","2","4","lose","no-go","1"
"pit-trial","192","1252588","0.0-72.0","battery-v0.2","","""event"",""trial"",""time""
""fullscreenenter"",""1"",""1819""
","
","
","""event"",""trial"",""time""
""fullscreenenter"",""1"",""1819""
","
","","","971.5999999046326","","","25","9001","4159","c","elianto","#3366ff99","-1"," ","0","0","[1824.2000000476837]","1","2","","","9001","68","4","2","win","no-go","0"
"pit-trial","193","1256054","0.0-73.0","battery-v0.2","","""event"",""trial"",""time""
""fullscreenenter"",""1"",""1819""
","
","
","""event"",""trial"",""time""
""fullscreenenter"",""1"",""1819""
","
","","","609.1000001430511","","","25","9001","4159","f","elianto","#3366ff99"," "," ","1","+10","[1461.6000001430511]","1","2","","","9001","69","1","1","win","go","0"
"pit-trial","194","1259791","0.0-74.0","battery-v0.2","","""event"",""trial"",""time""
""fullscreenenter"",""1"",""1819""
","
","
","""event"",""trial"",""time""
""fullscreenenter"",""1"",""1819""
","
","","","881.2999999523163","","","25","9001","4159","z","elianto","#3366ff99"," "," ","1","+10","[1732.2999999523163]","1","2","","","9001","70","5","1","win","go","0"
"pit-trial","195","1264645","0.0-75.0","battery-v0.2","","""event"",""trial"",""time""
""fullscreenenter"",""1"",""1819""
","
","
","""event"",""trial"",""time""
""fullscreenenter"",""1"",""1819""
","
","","","-1","","","25","9001","4159","b","elianto","#f73b6a7A"," ","-1","0","-10","[]","0","2","","","9001","71","3","3","lose","go","0"
"pit-trial","196","1269499","0.0-76.0","battery-v0.2","","""event"",""trial"",""time""
""fullscreenenter"",""1"",""1819""
","
","
","""event"",""trial"",""time""
""fullscreenenter"",""1"",""1819""
","
","","","-1","","","25","9001","4159","c","elianto","#3366ff99","-1","-1","1","+10","[]","0","2","","","9001","72","4","2","win","no-go","0"
"pit-trial","197","1274353","0.0-77.0","battery-v0.2","","""event"",""trial"",""time""
""fullscreenenter"",""1"",""1819""
","
","
","""event"",""trial"",""time""
""fullscreenenter"",""1"",""1819""
","
","","","-1","","","25","9001","4159","c","elianto","#3366ff99","-1","-1","1","+10","[]","0","2","","","9001","73","4","2","win","no-go","0"
"pit-trial","198","1278122","0.0-78.0","battery-v0.2","","""event"",""trial"",""time""
""fullscreenenter"",""1"",""1819""
","
","
","""event"",""trial"",""time""
""fullscreenenter"",""1"",""1819""
","
","","","916.3999998569489","","","25","9001","4159","z","elianto","#3366ff99"," "," ","1","0","[1766.5999999046326]","1","2","","","9001","74","5","1","win","go","1"
"pit-trial","199","1282209","0.0-79.0","battery-v0.2","","""event"",""trial"",""time""
""fullscreenenter"",""1"",""1819""
","
","
","""event"",""trial"",""time""
""fullscreenenter"",""1"",""1819""
","
","","","1231.2999999523163","","","25","9001","4159","b","elianto","#f73b6a7A"," "," ","1","0","[2082]","1","2","","","9001","75","3","3","lose","go","0"
"pit-trial","200","1285806","0.0-80.0","battery-v0.2","","""event"",""trial"",""time""
""fullscreenenter"",""1"",""1819""
","
","
","""event"",""trial"",""time""
""fullscreenenter"",""1"",""1819""
","
","","","744.3000001907349","","","25","9001","4159","f","elianto","#3366ff99"," "," ","1","+10","[1594.3999998569489]","1","2","","","9001","76","1","1","win","go","0"
"pit-trial","201","1289820","0.0-81.0","battery-v0.2","","""event"",""trial"",""time""
""fullscreenenter"",""1"",""1819""
","
","
","""event"",""trial"",""time""
""fullscreenenter"",""1"",""1819""
","
","","","1157.2000000476837","","","25","9001","4159","h","elianto","#f73b6a7A","-1"," ","0","-10","[2007.7999999523163]","1","2","","","9001","77","6","4","lose","no-go","0"
"pit-trial","202","1294674","0.0-82.0","battery-v0.2","","""event"",""trial"",""time""
""fullscreenenter"",""1"",""1819""
","
","
","""event"",""trial"",""time""
""fullscreenenter"",""1"",""1819""
","
","","","-1","","","25","9001","4159","z","elianto","#3366ff99"," ","-1","0","0","[]","0","2","","","9001","78","5","1","win","go","0"
"pit-trial","203","1298656","0.0-83.0","battery-v0.2","","""event"",""trial"",""time""
""fullscreenenter"",""1"",""1819""
","
","
","""event"",""trial"",""time""
""fullscreenenter"",""1"",""1819""
","
","","","1128.2999999523163","","","25","9001","4159","b","elianto","#f73b6a7A"," "," ","1","0","[1978.9000000953674]","1","2","","","9001","79","3","3","lose","go","0"
"pit-trial","204","1303509","0.0-84.0","battery-v0.2","","""event"",""trial"",""time""
""fullscreenenter"",""1"",""1819""
","
","
","""event"",""trial"",""time""
""fullscreenenter"",""1"",""1819""
","
","","","-1","","","25","9001","4159","c","elianto","#3366ff99","-1","-1","1","0","[]","0","2","","","9001","80","4","2","win","no-go","1"
"pit-trial","205","1307633","0.0-85.0","battery-v0.2","","""event"",""trial"",""time""
""fullscreenenter"",""1"",""1819""
","
","
","""event"",""trial"",""time""
""fullscreenenter"",""1"",""1819""
","
","","","1270.7000000476837","","","25","9001","4159","z","elianto","#3366ff99"," "," ","1","+10","[2121.300000190735]","1","2","","","9001","81","5","1","win","go","0"
"pit-trial","206","1311565","0.0-86.0","battery-v0.2","","""event"",""trial"",""time""
""fullscreenenter"",""1"",""1819""
","
","
","""event"",""trial"",""time""
""fullscreenenter"",""1"",""1819""
","
","","","1078.2999999523163","","","25","9001","4159","h","elianto","#f73b6a7A","-1"," ","0","0","[1929.2000000476837]","1","2","","","9001","82","6","4","lose","no-go","1"
"pit-trial","207","1315041","0.0-87.0","battery-v0.2","","""event"",""trial"",""time""
""fullscreenenter"",""1"",""1819""
","
","
","""event"",""trial"",""time""
""fullscreenenter"",""1"",""1819""
","
","","","622.7000000476837","","","25","9001","4159","c","elianto","#3366ff99","-1"," ","0","+10","[1473.0999999046326]","1","2","","","9001","83","4","2","win","no-go","1"
"pit-trial","208","1318953","0.0-88.0","battery-v0.2","","""event"",""trial"",""time""
""fullscreenenter"",""1"",""1819""
","
","
","""event"",""trial"",""time""
""fullscreenenter"",""1"",""1819""
","
","","","1058.4000000953674","","","25","9001","4159","y","elianto","#f73b6a7A"," "," ","1","0","[1908.6000001430511]","1","2","","","9001","84","7","3","lose","go","0"
"pit-trial","209","1322463","0.0-89.0","battery-v0.2","","""event"",""trial"",""time""
""fullscreenenter"",""1"",""1819""
","
","
","""event"",""trial"",""time""
""fullscreenenter"",""1"",""1819""
","
","","","656.0999999046326","","","25","9001","4159","c","elianto","#3366ff99","-1"," ","0","0","[1506.5]","1","2","","","9001","85","4","2","win","no-go","0"
"pit-trial","210","1326106","0.0-90.0","battery-v0.2","","""event"",""trial"",""time""
""fullscreenenter"",""1"",""1819""
","
","
","""event"",""trial"",""time""
""fullscreenenter"",""1"",""1819""
","
","","","786.4000000953674","","","25","9001","4159","y","elianto","#f73b6a7A"," "," ","1","-10","[1638.2999999523163]","1","2","","","9001","86","7","3","lose","go","1"
"pit-trial","211","1330067","0.0-91.0","battery-v0.2","","""event"",""trial"",""time""
""fullscreenenter"",""1"",""1819""
","
","
","""event"",""trial"",""time""
""fullscreenenter"",""1"",""1819""
","
","","","1106.9000000953674","","","25","9001","4159","h","elianto","#f73b6a7A","-1"," ","0","-10","[1957.6999998092651]","1","2","","","9001","87","6","4","lose","no-go","0"
"pit-trial","212","1333626","0.0-92.0","battery-v0.2","","""event"",""trial"",""time""
""fullscreenenter"",""1"",""1819""
","
","
","""event"",""trial"",""time""
""fullscreenenter"",""1"",""1819""
","
","","","704.4000000953674","","","25","9001","4159","z","elianto","#3366ff99"," "," ","1","+10","[1555]","1","2","","","9001","88","5","1","win","go","0"
"pit-trial","213","1338487","0.0-93.0","battery-v0.2","","""event"",""trial"",""time""
""fullscreenenter"",""1"",""1819""
","
","
","""event"",""trial"",""time""
""fullscreenenter"",""1"",""1819""
","
","","","-1","","","25","9001","4159","c","elianto","#3366ff99","-1","-1","1","+10","[]","0","2","","","9001","89","4","2","win","no-go","0"
"pit-trial","214","1342252","0.0-94.0","battery-v0.2","","""event"",""trial"",""time""
""fullscreenenter"",""1"",""1819""
","
","
","""event"",""trial"",""time""
""fullscreenenter"",""1"",""1819""
","
","","","910.7000000476837","","","25","9001","4159","z","elianto","#3366ff99"," "," ","1","+10","[1760.7999999523163]","1","2","","","9001","90","5","1","win","go","0"
"pit-trial","215","1347107","0.0-95.0","battery-v0.2","","""event"",""trial"",""time""
""fullscreenenter"",""1"",""1819""
","
","
","""event"",""trial"",""time""
""fullscreenenter"",""1"",""1819""
","
","","","-1","","","25","9001","4159","y","elianto","#f73b6a7A"," ","-1","0","-10","[]","0","2","","","9001","91","7","3","lose","go","0"
"pit-trial","216","1351961","0.0-96.0","battery-v0.2","","""event"",""trial"",""time""
""fullscreenenter"",""1"",""1819""
","
","
","""event"",""trial"",""time""
""fullscreenenter"",""1"",""1819""
","
","","","-1","","","25","9001","4159","h","elianto","#f73b6a7A","-1","-1","1","-10","[]","0","2","","","9001","92","6","4","lose","no-go","1"
"pit-trial","217","1355797","0.0-97.0","battery-v0.2","","""event"",""trial"",""time""
""fullscreenenter"",""1"",""1819""
","
","
","""event"",""trial"",""time""
""fullscreenenter"",""1"",""1819""
","
","","","980.8999998569489","","","25","9001","4159","y","elianto","#f73b6a7A"," "," ","1","0","[1831.7999999523163]","1","2","","","9001","93","7","3","lose","go","0"
"pit-trial","218","1359570","0.0-98.0","battery-v0.2","","""event"",""trial"",""time""
""fullscreenenter"",""1"",""1819""
","
","
","""event"",""trial"",""time""
""fullscreenenter"",""1"",""1819""
","
","","","918.5999999046326","","","25","9001","4159","r","elianto","#3366ff99","-1"," ","0","+10","[1769.5999999046326]","1","2","","","9001","94","8","2","win","no-go","1"
"pit-trial","219","1364425","0.0-99.0","battery-v0.2","","""event"",""trial"",""time""
""fullscreenenter"",""1"",""1819""
","
","
","""event"",""trial"",""time""
""fullscreenenter"",""1"",""1819""
","
","","","-1","","","25","9001","4159","h","elianto","#f73b6a7A","-1","-1","1","0","[]","0","2","","","9001","95","6","4","lose","no-go","0"
"pit-trial","220","1367998","0.0-100.0","battery-v0.2","","""event"",""trial"",""time""
""fullscreenenter"",""1"",""1819""
","
","
","""event"",""trial"",""time""
""fullscreenenter"",""1"",""1819""
","
","","","717.7999999523163","","","25","9001","4159","z","elianto","#3366ff99"," "," ","1","+10","[1568]","1","2","","","9001","96","5","1","win","go","0"
"pit-trial","221","1371532","0.0-101.0","battery-v0.2","","""event"",""trial"",""time""
""fullscreenenter"",""1"",""1819""
","
","
","""event"",""trial"",""time""
""fullscreenenter"",""1"",""1819""
","
","","","678.8000001907349","","","25","9001","4159","z","elianto","#3366ff99"," "," ","1","0","[1530.1000001430511]","1","2","","","9001","97","5","1","win","go","1"
"pit-trial","222","1375164","0.0-102.0","battery-v0.2","","""event"",""trial"",""time""
""fullscreenenter"",""1"",""1819""
","
","
","""event"",""trial"",""time""
""fullscreenenter"",""1"",""1819""
","
","","","778.0999999046326","","","25","9001","4159","y","elianto","#f73b6a7A"," "," ","1","0","[1629.0999999046326]","1","2","","","9001","98","7","3","lose","go","0"
"pit-trial","223","1378630","0.0-103.0","battery-v0.2","","""event"",""trial"",""time""
""fullscreenenter"",""1"",""1819""
","
","
","""event"",""trial"",""time""
""fullscreenenter"",""1"",""1819""
","
","","","612.7000000476837","","","25","9001","4159","h","elianto","#f73b6a7A","-1"," ","0","0","[1463.7000000476837]","1","2","","","9001","99","6","4","lose","no-go","1"
"pit-trial","224","1382219","0.0-104.0","battery-v0.2","","""event"",""trial"",""time""
""fullscreenenter"",""1"",""1819""
","
","
","""event"",""trial"",""time""
""fullscreenenter"",""1"",""1819""
","
","","","736.0999999046326","","","25","9001","4159","r","elianto","#3366ff99","-1"," ","0","0","[1587.0999999046326]","1","2","","","9001","100","8","2","win","no-go","0"
"pit-trial","225","1385566","0.0-105.0","battery-v0.2","","""event"",""trial"",""time""
""fullscreenenter"",""1"",""1819""
","
","
","""event"",""trial"",""time""
""fullscreenenter"",""1"",""1819""
","
","","","493.2000000476837","","","25","9001","4159","z","elianto","#3366ff99"," "," ","1","+10","[1345]","1","2","","","9001","101","5","1","win","go","0"
"pit-trial","226","1389056","0.0-106.0","battery-v0.2","","""event"",""trial"",""time""
""fullscreenenter"",""1"",""1819""
","
","
","""event"",""trial"",""time""
""fullscreenenter"",""1"",""1819""
","
","","","635.7999999523163","","","25","9001","4159","m","elianto","#3366ff99","-1"," ","0","0","[1486.1000001430511]","1","2","","","9001","102","9","2","win","no-go","0"
"pit-trial","227","1392689","0.0-107.0","battery-v0.2","","""event"",""trial"",""time""
""fullscreenenter"",""1"",""1819""
","
","
","""event"",""trial"",""time""
""fullscreenenter"",""1"",""1819""
","
","","","778.5","","","25","9001","4159","r","elianto","#3366ff99","-1"," ","0","+10","[1629.5]","1","2","","","9001","103","8","2","win","no-go","1"
"pit-trial","228","1396429","0.0-108.0","battery-v0.2","","""event"",""trial"",""time""
""fullscreenenter"",""1"",""1819""
","
","
","""event"",""trial"",""time""
""fullscreenenter"",""1"",""1819""
","
","","","886.4000000953674","","","25","9001","4159","h","elianto","#f73b6a7A","-1"," ","0","-10","[1737]","1","2","","","9001","104","6","4","lose","no-go","0"
"pit-trial","229","1399969","0.0-109.0","battery-v0.2","","""event"",""trial"",""time""
""fullscreenenter"",""1"",""1819""
","
","
","""event"",""trial"",""time""
""fullscreenenter"",""1"",""1819""
","
","","","685.7999999523163","","","25","9001","4159","r","elianto","#3366ff99","-1"," ","0","0","[1536.2999999523163]","1","2","","","9001","105","8","2","win","no-go","0"
"pit-trial","230","1403529","0.0-110.0","battery-v0.2","","""event"",""trial"",""time""
""fullscreenenter"",""1"",""1819""
","
","
","""event"",""trial"",""time""
""fullscreenenter"",""1"",""1819""
","
","","","705.0999999046326","","","25","9001","4159","h","elianto","#f73b6a7A","-1"," ","0","-10","[1556.5]","1","2","","","9001","106","6","4","lose","no-go","0"
"pit-trial","231","1407229","0.0-111.0","battery-v0.2","","""event"",""trial"",""time""
""fullscreenenter"",""1"",""1819""
","
","
","""event"",""trial"",""time""
""fullscreenenter"",""1"",""1819""
","
","","","846.5","","","25","9001","4159","m","elianto","#3366ff99","-1"," ","0","0","[1696.9000000953674]","1","2","","","9001","107","9","2","win","no-go","0"
"pit-trial","232","1410737","0.0-112.0","battery-v0.2","","""event"",""trial"",""time""
""fullscreenenter"",""1"",""1819""
","
","
","""event"",""trial"",""time""
""fullscreenenter"",""1"",""1819""
","
","","","653.1000001430511","","","25","9001","4159","z","elianto","#3366ff99"," "," ","1","+10","[1504.2000000476837]","1","2","","","9001","108","5","1","win","go","0"
"pit-trial","233","1414936","0.0-113.0","battery-v0.2","","""event"",""trial"",""time""
""fullscreenenter"",""1"",""1819""
","
","
","""event"",""trial"",""time""
""fullscreenenter"",""1"",""1819""
","
","","","1344.3000001907349","","","25","9001","4159","m","elianto","#3366ff99","-1"," ","0","0","[2195.9000000953674]","1","2","","","9001","109","9","2","win","no-go","0"
"pit-trial","234","1418479","0.0-114.0","battery-v0.2","","""event"",""trial"",""time""
""fullscreenenter"",""1"",""1819""
","
","
","""event"",""trial"",""time""
""fullscreenenter"",""1"",""1819""
","
","","","688.7999999523163","","","25","9001","4159","z","elianto","#3366ff99"," "," ","1","0","[1539.3999998569489]","1","2","","","9001","110","5","1","win","go","1"
"pit-trial","235","1422595","0.0-115.0","battery-v0.2","","""event"",""trial"",""time""
""fullscreenenter"",""1"",""1819""
","
","
","""event"",""trial"",""time""
""fullscreenenter"",""1"",""1819""
","
","","","1259.6000001430511","","","25","9001","4159","r","elianto","#3366ff99","-1"," ","0","0","[2111.5]","1","2","","","9001","111","8","2","win","no-go","0"
"pit-trial","236","1427449","0.0-116.0","battery-v0.2","","""event"",""trial"",""time""
""fullscreenenter"",""1"",""1819""
","
","
","""event"",""trial"",""time""
""fullscreenenter"",""1"",""1819""
","
","","","-1","","","25","9001","4159","h","elianto","#f73b6a7A","-1","-1","1","0","[]","0","2","","","9001","112","6","4","lose","no-go","0"
"pit-trial","237","1432303","0.0-117.0","battery-v0.2","","""event"",""trial"",""time""
""fullscreenenter"",""1"",""1819""
","
","
","""event"",""trial"",""time""
""fullscreenenter"",""1"",""1819""
","
","","","-1","","","25","9001","4159","y","elianto","#f73b6a7A"," ","-1","0","-10","[]","0","2","","","9001","113","7","3","lose","go","0"
"pit-trial","238","1435896","0.0-118.0","battery-v0.2","","""event"",""trial"",""time""
""fullscreenenter"",""1"",""1819""
","
","
","""event"",""trial"",""time""
""fullscreenenter"",""1"",""1819""
","
","","","739.7999999523163","","","25","9001","4159","r","elianto","#3366ff99","-1"," ","0","0","[1590.4000000953674]","1","2","","","9001","114","8","2","win","no-go","0"
"pit-trial","239","1439544","0.0-119.0","battery-v0.2","","""event"",""trial"",""time""
""fullscreenenter"",""1"",""1819""
","
","
","""event"",""trial"",""time""
""fullscreenenter"",""1"",""1819""
","
","","","790.2999999523163","","","25","9001","4159","z","elianto","#3366ff99"," "," ","1","+10","[1640.5999999046326]","1","2","","","9001","115","5","1","win","go","0"
"pit-trial","240","1444417","0.0-120.0","battery-v0.2","","""event"",""trial"",""time""
""fullscreenenter"",""1"",""1819""
","
","
","""event"",""trial"",""time""
""fullscreenenter"",""1"",""1819""
","
","","","-1","","","25","9001","4159","m","elianto","#3366ff99","-1","-1","1","0","[]","0","2","","","9001","116","9","2","win","no-go","1"
"pit-trial","241","1448080","0.0-121.0","battery-v0.2","","""event"",""trial"",""time""
""fullscreenenter"",""1"",""1819""
","
","
","""event"",""trial"",""time""
""fullscreenenter"",""1"",""1819""
","
","","","806.4000000953674","","","25","9001","4159","z","elianto","#3366ff99"," "," ","1","+10","[1659.6000001430511]","1","2","","","9001","117","5","1","win","go","0"
"pit-trial","242","1452938","0.0-122.0","battery-v0.2","","""event"",""trial"",""time""
""fullscreenenter"",""1"",""1819""
","
","
","""event"",""trial"",""time""
""fullscreenenter"",""1"",""1819""
","
","","","-1","","","25","9001","4159","m","elianto","#3366ff99","-1","-1","1","+10","[]","0","2","","","9001","118","9","2","win","no-go","0"
"pit-trial","243","1457365","0.0-123.0","battery-v0.2","","""event"",""trial"",""time""
""fullscreenenter"",""1"",""1819""
","
","
","""event"",""trial"",""time""
""fullscreenenter"",""1"",""1819""
","
","","","1572.2999999523163","","","25","9001","4159","h","elianto","#f73b6a7A","-1"," ","0","-10","[2424.2000000476837]","1","2","","","9001","119","6","4","lose","no-go","0"
"pit-trial","244","1462232","0.0-124.0","battery-v0.2","","""event"",""trial"",""time""
""fullscreenenter"",""1"",""1819""
","
","
","""event"",""trial"",""time""
""fullscreenenter"",""1"",""1819""
","
","","","-1","","","25","9001","4159","r","elianto","#3366ff99","-1","-1","1","+10","[]","0","2","","","9001","120","8","2","win","no-go","0"
"pit-trial","245","1465741","0.0-125.0","battery-v0.2","","""event"",""trial"",""time""
""fullscreenenter"",""1"",""1819""
","
","
","""event"",""trial"",""time""
""fullscreenenter"",""1"",""1819""
","
","","","654.5999999046326","","","25","9001","4159","z","elianto","#3366ff99"," "," ","1","+10","[1505.3999998569489]","1","2","","","9001","121","5","1","win","go","0"
"pit-trial","246","1470615","0.0-126.0","battery-v0.2","","""event"",""trial"",""time""
""fullscreenenter"",""1"",""1819""
","
","
","""event"",""trial"",""time""
""fullscreenenter"",""1"",""1819""
","
","","","-1","","","25","9001","4159","m","elianto","#3366ff99","-1","-1","1","+10","[]","0","2","","","9001","122","9","2","win","no-go","0"
"pit-trial","247","1475468","0.0-127.0","battery-v0.2","","""event"",""trial"",""time""
""fullscreenenter"",""1"",""1819""
","
","
","""event"",""trial"",""time""
""fullscreenenter"",""1"",""1819""
","
","","","-1","","","25","9001","4159","r","elianto","#3366ff99","-1","-1","1","0","[]","0","2","","","9001","123","8","2","win","no-go","1"
"pit-trial","248","1479632","0.0-128.0","battery-v0.2","","""event"",""trial"",""time""
""fullscreenenter"",""1"",""1819""
","
","
","""event"",""trial"",""time""
""fullscreenenter"",""1"",""1819""
","
","","","1311.5","","","25","9001","4159","y","elianto","#f73b6a7A"," "," ","1","-10","[2161.899999856949]","1","2","","","9001","124","7","3","lose","go","1"
"pit-trial","249","1484487","0.0-129.0","battery-v0.2","","""event"",""trial"",""time""
""fullscreenenter"",""1"",""1819""
","
","
","""event"",""trial"",""time""
""fullscreenenter"",""1"",""1819""
","
","","","-1","","","25","9001","4159","m","elianto","#3366ff99","-1","-1","1","+10","[]","0","2","","","9001","125","9","2","win","no-go","0"
"pit-trial","250","1489341","0.0-130.0","battery-v0.2","","""event"",""trial"",""time""
""fullscreenenter"",""1"",""1819""
","
","
","""event"",""trial"",""time""
""fullscreenenter"",""1"",""1819""
","
","","","-1","","","25","9001","4159","y","elianto","#f73b6a7A"," ","-1","0","-10","[]","0","2","","","9001","126","7","3","lose","go","0"
"pit-trial","251","1494196","0.0-131.0","battery-v0.2","","""event"",""trial"",""time""
""fullscreenenter"",""1"",""1819""
","
","
","""event"",""trial"",""time""
""fullscreenenter"",""1"",""1819""
","
","","","-1","","","25","9001","4159","r","elianto","#3366ff99","-1","-1","1","+10","[]","0","2","","","9001","127","8","2","win","no-go","0"
"pit-trial","252","1499052","0.0-132.0","battery-v0.2","","""event"",""trial"",""time""
""fullscreenenter"",""1"",""1819""
","
","
","""event"",""trial"",""time""
""fullscreenenter"",""1"",""1819""
","
","","","-1","","","25","9001","4159","h","elianto","#f73b6a7A","-1","-1","1","0","[]","0","2","","","9001","128","6","4","lose","no-go","0"
"pit-trial","253","1503202","0.0-133.0","battery-v0.2","","""event"",""trial"",""time""
""fullscreenenter"",""1"",""1819""
","
","
","""event"",""trial"",""time""
""fullscreenenter"",""1"",""1819""
","
","","","1293.5","","","25","9001","4159","y","elianto","#f73b6a7A"," "," ","1","0","[2145.699999809265]","1","2","","","9001","129","7","3","lose","go","0"
"pit-trial","254","1508057","0.0-134.0","battery-v0.2","","""event"",""trial"",""time""
""fullscreenenter"",""1"",""1819""
","
","
","""event"",""trial"",""time""
""fullscreenenter"",""1"",""1819""
","
","","","-1","","","25","9001","4159","m","elianto","#3366ff99","-1","-1","1","+10","[]","0","2","","","9001","130","9","2","win","no-go","0"
"pit-trial","255","1512746","0.0-135.0","battery-v0.2","","""event"",""trial"",""time""
""fullscreenenter"",""1"",""1819""
","
","
","""event"",""trial"",""time""
""fullscreenenter"",""1"",""1819""
","
","","","1833.2000000476837","","","25","9001","4159","h","elianto","#f73b6a7A","-1"," ","0","-10","[2684.7999999523163]","1","2","","","9001","131","6","4","lose","no-go","0"
"pit-trial","256","1517601","0.0-136.0","battery-v0.2","","""event"",""trial"",""time""
""fullscreenenter"",""1"",""1819""
","
","
","""event"",""trial"",""time""
""fullscreenenter"",""1"",""1819""
","
","","","-1","","","25","9001","4159","r","elianto","#3366ff99","-1","-1","1","0","[]","0","2","","","9001","132","8","2","win","no-go","1"
"pit-trial","257","1522456","0.0-137.0","battery-v0.2","","""event"",""trial"",""time""
""fullscreenenter"",""1"",""1819""
","
","
","""event"",""trial"",""time""
""fullscreenenter"",""1"",""1819""
","
","","","-1","","","25","9001","4159","r","elianto","#3366ff99","-1","-1","1","+10","[]","0","2","","","9001","133","8","2","win","no-go","0"
"pit-trial","258","1527308","0.0-138.0","battery-v0.2","","""event"",""trial"",""time""
""fullscreenenter"",""1"",""1819""
","
","
","""event"",""trial"",""time""
""fullscreenenter"",""1"",""1819""
","
","","","-1","","","25","9001","4159","m","elianto","#3366ff99","-1","-1","1","+10","[]","0","2","","","9001","134","9","2","win","no-go","0"
"pit-trial","259","1532161","0.0-139.0","battery-v0.2","","""event"",""trial"",""time""
""fullscreenenter"",""1"",""1819""
","
","
","""event"",""trial"",""time""
""fullscreenenter"",""1"",""1819""
","
","","","-1","","","25","9001","4159","y","elianto","#f73b6a7A"," ","-1","0","0","[]","0","2","","","9001","135","7","3","lose","go","1"
"pit-trial","260","1537014","0.0-140.0","battery-v0.2","","""event"",""trial"",""time""
""fullscreenenter"",""1"",""1819""
","
","
","""event"",""trial"",""time""
""fullscreenenter"",""1"",""1819""
","
","","","-1","","","25","9001","4159","h","elianto","#f73b6a7A","-1","-1","1","0","[]","0","2","","","9001","136","6","4","lose","no-go","0"
"pit-trial","261","1540608","0.0-141.0","battery-v0.2","","""event"",""trial"",""time""
""fullscreenenter"",""1"",""1819""
","
","
","""event"",""trial"",""time""
""fullscreenenter"",""1"",""1819""
","
","","","741.4000000953674","","","25","9001","4159","y","elianto","#f73b6a7A"," "," ","1","0","[1591.7000000476837]","1","2","","","9001","137","7","3","lose","go","0"
"pit-trial","262","1545462","0.0-142.0","battery-v0.2","","""event"",""trial"",""time""
""fullscreenenter"",""1"",""1819""
","
","
","""event"",""trial"",""time""
""fullscreenenter"",""1"",""1819""
","
","","","-1","","","25","9001","4159","m","elianto","#3366ff99","-1","-1","1","+10","[]","0","2","","","9001","138","9","2","win","no-go","0"
"pit-trial","263","1550329","0.0-143.0","battery-v0.2","","""event"",""trial"",""time""
""fullscreenenter"",""1"",""1819""
","
","
","""event"",""trial"",""time""
""fullscreenenter"",""1"",""1819""
","
","","","-1","","","25","9001","4159","h","elianto","#f73b6a7A","-1","-1","1","-10","[]","0","2","","","9001","139","6","4","lose","no-go","1"
"pit-trial","264","1555184","0.0-144.0","battery-v0.2","","""event"",""trial"",""time""
""fullscreenenter"",""1"",""1819""
","
","
","""event"",""trial"",""time""
""fullscreenenter"",""1"",""1819""
","
","","","-1","","","25","9001","4159","r","elianto","#3366ff99","-1","-1","1","+10","[]","0","2","","","9001","140","8","2","win","no-go","0"
"pit-instructions","265","1571755","0.0-145.0","battery-v0.2","","""event"",""trial"",""time""
""fullscreenenter"",""1"",""1819""
","
","
","""event"",""trial"",""time""
""fullscreenenter"",""1"",""1819""
","
","","[{""page_index"":0,""viewing_time"":6831.199999809265},{""page_index"":1,""viewing_time"":9737.300000190735}]","16569","","","","","","","","","","","","","","","","","","","","","","","",""
"pit-trial","266","1576626","0.0-146.0","battery-v0.2","","""event"",""trial"",""time""
""fullscreenenter"",""1"",""1819""
","
","
","""event"",""trial"",""time""
""fullscreenenter"",""1"",""1819""
","
