"trial_type","trial_index","time_elapsed","internal_node_id","task_version","subject_id","interactions","blur_events","focus_events","fullscreenenter_events","fullscreenexit_events","success","view_history","rt","responses","num_errors","age","subject","participantId","rune","rune_set","hex","correct","choice","accuracy","outcome","keys","total_keys","block","practice","value","sub","trial","stimulus","robot","valence","action","sham"
"pavlovia","0","20","0.0-0.0","battery-v0.2","","""event"",""trial"",""time""
""fullscreenenter"",""1"",""15661""
","
","
","""event"",""trial"",""time""
""fullscreenenter"",""1"",""15661""
","
","","","","","","","","","","","","","","","","","","","","","","","","","","",""
"fullscreen","1","16570","0.0-1.0","battery-v0.2","","""event"",""trial"",""time""
""fullscreenenter"",""1"",""15661""
","
","
","""event"",""trial"",""time""
""fullscreenenter"",""1"",""15661""
","
","true","","","","","","","","","","","","","","","","","","","","","","","","","",""
"pit-instructions","2","22618","0.0-2.0-0.0","battery-v0.2","","""event"",""trial"",""time""
""fullscreenenter"",""1"",""15661""
","
","
","""event"",""trial"",""time""
""fullscreenenter"",""1"",""15661""
","
","","[{""page_index"":0,""viewing_time"":6040.700000047684}]","6041.600000023842","","","","","","","","","","","","","","","","","","","","","","","",""
"pit-comprehension","3","29062","0.0-2.0-1.0-0.0","battery-v0.2","","""event"",""trial"",""time""
""fullscreenenter"",""1"",""15661""
","
","
","""event"",""trial"",""time""
""fullscreenenter"",""1"",""15661""
","
","","","6432.899999976158","[""shark""]","0","19","4535","3172","","","","","","","","","","","","","","","","","","",""
"pit-instructions","4","31252","0.0-2.0-1.0-1.0","battery-v0.2","","""event"",""trial"",""time""
""fullscreenenter"",""1"",""15661""
","
","
","""event"",""trial"",""time""
""fullscreenenter"",""1"",""15661""
","
","","[{""page_index"":0,""viewing_time"":2167.2000000476837}]","2167.5","","","","","","","","","","","","","","","","","","","","","","","",""
"pit-comprehension","5","35546","0.0-2.0-2.0-0.0","battery-v0.2","","""event"",""trial"",""time""
""fullscreenenter"",""1"",""15661""
","
","
","""event"",""trial"",""time""
""fullscreenenter"",""1"",""15661""
","
","","","4286.5","[""tiger""]","0","19","4535","3172","","","","","","","","","","","","","","","","","","",""
"pit-instructions","6","39276","0.0-2.0-2.0-1.0","battery-v0.2","","""event"",""trial"",""time""
""fullscreenenter"",""1"",""15661""
","
","
","""event"",""trial"",""time""
""fullscreenenter"",""1"",""15661""
","
","","[{""page_index"":0,""viewing_time"":3721.8000000715256}]","3722.100000023842","","","","","","","","","","","","","","","","","","","","","","","",""
"pit-instructions","7","162337","0.0-2.0-3.0","battery-v0.2","","""event"",""trial"",""time""
""fullscreenenter"",""1"",""15661""
","
","
","""event"",""trial"",""time""
""fullscreenenter"",""1"",""15661""
","
","","[{""page_index"":0,""viewing_time"":8787},{""page_index"":1,""viewing_time"":15842},{""page_index"":2,""viewing_time"":10604.799999952316},{""page_index"":3,""viewing_time"":6598.399999976158},{""page_index"":4,""viewing_time"":5916.600000023842},{""page_index"":5,""viewing_time"":5944.600000023842},{""page_index"":6,""viewing_time"":8456.600000023842},{""page_index"":7,""viewing_time"":8425.100000023842},{""page_index"":8,""viewing_time"":6810.5},{""page_index"":9,""viewing_time"":14701.699999928474},{""page_index"":10,""viewing_time"":7299.800000071526},{""page_index"":11,""viewing_time"":8038.599999904633},{""page_index"":12,""viewing_time"":7107.300000071526},{""page_index"":13,""viewing_time"":8522.600000023842}]","123056.69999992847","","","","","","","","","","","","","","","","","","","","","","","",""
"pit-trial","8","166037","0.0-2.0-4.0-0.0","battery-v0.2","","""event"",""trial"",""time""
""fullscreenenter"",""1"",""15661""
","
","
","""event"",""trial"",""time""
""fullscreenenter"",""1"",""15661""
","
","","","820.5","","","19","4535","3172","&#9784;","elianto","#FFFFF080"," "," ","1","&#10004","[1675.5]","1","0","0","","","","","","","",""
"pit-trial","9","169792","0.0-2.0-4.1-0.1","battery-v0.2","","""event"",""trial"",""time""
""fullscreenenter"",""1"",""15661""
","
","
","""event"",""trial"",""time""
""fullscreenenter"",""1"",""15661""
","
","","","887","","","19","4535","3172","&#9784;","elianto","#FFFFF080"," "," ","1","&#10004","[1741.7000000476837]","1","0","0","","","","","","","",""
"pit-trial","10","173450","0.0-2.0-4.2-0.2","battery-v0.2","","""event"",""trial"",""time""
""fullscreenenter"",""1"",""15661""
","
","
","""event"",""trial"",""time""
""fullscreenenter"",""1"",""15661""
","
","","","786.5","","","19","4535","3172","&#9784;","elianto","#FFFFF080"," "," ","1","&#10004","[1638.8999999761581]","1","0","0","","","","","","","",""
"pit-trial","11","177101","0.0-2.0-4.3-0.3","battery-v0.2","","""event"",""trial"",""time""
""fullscreenenter"",""1"",""15661""
","
","
","""event"",""trial"",""time""
""fullscreenenter"",""1"",""15661""
","
","","","771","","","19","4535","3172","&#9784;","elianto","#FFFFF080"," "," ","1","&#10004","[1629.0999999046326]","1","0","0","","","","","","","",""
"pit-trial","12","180765","0.0-2.0-4.4-0.4","battery-v0.2","","""event"",""trial"",""time""
""fullscreenenter"",""1"",""15661""
","
","
","""event"",""trial"",""time""
""fullscreenenter"",""1"",""15661""
","
","","","788.0999999046326","","","19","4535","3172","&#9784;","elianto","#FFFFF080"," "," ","1","&#10004","[1644.7000000476837]","1","0","0","","","","","","","",""
"pit-instructions","13","204150","0.0-2.0-5.0","battery-v0.2","","""event"",""trial"",""time""
""fullscreenenter"",""1"",""15661""
","
","
","""event"",""trial"",""time""
""fullscreenenter"",""1"",""15661""
","
","","[{""page_index"":0,""viewing_time"":5931.299999952316},{""page_index"":1,""viewing_time"":6262.200000047684},{""page_index"":2,""viewing_time"":6112},{""page_index"":3,""viewing_time"":5073.299999952316}]","23380.799999952316","","","","","","","","","","","","","","","","","","","","","","","",""
"pit-trial","14","209024","0.0-2.0-6.0-0.0","battery-v0.2","","""event"",""trial"",""time""
""fullscreenenter"",""1"",""15661""
","
","
","""event"",""trial"",""time""
""fullscreenenter"",""1"",""15661""
","
","","","-1","","","19","4535","3172","&#9854;","elianto","#FFFFF080","-1","-1","1","&#10004","[]","0","0","1","","","","","","","",""
"pit-trial","15","213901","0.0-2.0-6.1-0.1","battery-v0.2","","""event"",""trial"",""time""
""fullscreenenter"",""1"",""15661""
","
","
","""event"",""trial"",""time""
""fullscreenenter"",""1"",""15661""
","
","","","-1","","","19","4535","3172","&#9854;","elianto","#FFFFF080","-1","-1","1","&#10004","[]","0","0","1","","","","","","","",""
"pit-trial","16","218782","0.0-2.0-6.2-0.2","battery-v0.2","","""event"",""trial"",""time""
""fullscreenenter"",""1"",""15661""
","
","
","""event"",""trial"",""time""
""fullscreenenter"",""1"",""15661""
","
","","","-1","","","19","4535","3172","&#9854;","elianto","#FFFFF080","-1","-1","1","&#10004","[]","0","0","1","","","","","","","",""
"pit-trial","17","223662","0.0-2.0-6.3-0.3","battery-v0.2","","""event"",""trial"",""time""
""fullscreenenter"",""1"",""15661""
","
","
","""event"",""trial"",""time""
""fullscreenenter"",""1"",""15661""
","
","","","-1","","","19","4535","3172","&#9854;","elianto","#FFFFF080","-1","-1","1","&#10004","[]","0","0","1","","","","","","","",""
"pit-trial","18","228539","0.0-2.0-6.4-0.4","battery-v0.2","","""event"",""trial"",""time""
""fullscreenenter"",""1"",""15661""
","
","
","""event"",""trial"",""time""
""fullscreenenter"",""1"",""15661""
","
","","","-1","","","19","4535","3172","&#9854;","elianto","#FFFFF080","-1","-1","1","&#10004","[]","0","0","1","","","","","","","",""
"pit-instructions","19","363662","0.0-2.0-7.0","battery-v0.2","","""event"",""trial"",""time""
""fullscreenenter"",""1"",""15661""
","
","
","""event"",""trial"",""time""
""fullscreenenter"",""1"",""15661""
","
","","[{""page_index"":0,""viewing_time"":6397.5},{""page_index"":1,""viewing_time"":7414},{""page_index"":2,""viewing_time"":8383.899999976158},{""page_index"":3,""viewing_time"":6255.600000023842},{""page_index"":4,""viewing_time"":6095.100000023842},{""page_index"":5,""viewing_time"":6426.599999904633},{""page_index"":6,""viewing_time"":7099.800000071526},{""page_index"":7,""viewing_time"":9872.299999952316},{""page_index"":8,""viewing_time"":7164.600000023842},{""page_index"":9,""viewing_time"":6803.600000023842},{""page_index"":10,""viewing_time"":6262.799999952316},{""page_index"":11,""viewing_time"":6951.200000047684},{""page_index"":12,""viewing_time"":7787.100000023842},{""page_index"":13,""viewing_time"":7126.399999976158},{""page_index"":14,""viewing_time"":7139.5},{""page_index"":15,""viewing_time"":7538.699999928474},{""page_index"":16,""viewing_time"":9895.5},{""page_index"":17,""viewing_time"":10503.700000047684}]","135119.10000002384","","","","","","","","","","","","","","","","","","","","","","","",""
"pit-trial","20","367497","0.0-2.0-8.0-0.0","battery-v0.2","","""event"",""trial"",""time""
""fullscreenenter"",""1"",""15661""
","
","
","""event"",""trial"",""time""
""fullscreenenter"",""1"",""15661""
","
","","","945.5999999046326","","","19","4535","3172","&#9776;","elianto","#3366ff99"," "," ","1","+10","[1804.7000000476837]","1","0","1","","","","","","","",""
"pit-trial","21","371606","0.0-2.0-8.0-1.0","battery-v0.2","","""event"",""trial"",""time""
""fullscreenenter"",""1"",""15661""
","
","
","""event"",""trial"",""time""
""fullscreenenter"",""1"",""15661""
","
","","","1234.3999999761581","","","19","4535","3172","&#9776;","elianto","#3366ff99"," "," ","1","+10","[2092.100000023842]","1","0","1","","","","","","","",""
"pit-trial","22","375146","0.0-2.0-8.0-2.0","battery-v0.2","","""event"",""trial"",""time""
""fullscreenenter"",""1"",""15661""
","
","
","""event"",""trial"",""time""
""fullscreenenter"",""1"",""15661""
","
","","","660.5","","","19","4535","3172","&#9776;","elianto","#3366ff99"," "," ","1","+10","[1519.2999999523163]","1","0","1","","","","","","","",""
"pit-trial","23","378631","0.0-2.0-8.0-3.0","battery-v0.2","","""event"",""trial"",""time""
""fullscreenenter"",""1"",""15661""
","
","
","""event"",""trial"",""time""
""fullscreenenter"",""1"",""15661""
","
","","","613","","","19","4535","3172","&#9776;","elianto","#3366ff99"," "," ","1","0","[1465]","1","0","1","","","","","","","",""
"pit-trial","24","382176","0.0-2.0-8.0-4.0","battery-v0.2","","""event"",""trial"",""time""
""fullscreenenter"",""1"",""15661""
","
","
","""event"",""trial"",""time""
""fullscreenenter"",""1"",""15661""
","
","","","683","","","19","4535","3172","&#9776;","elianto","#3366ff99"," "," ","1","+10","[1536.2000000476837]","1","0","1","","","","","","","",""
"pit-trial","25","385808","0.0-2.0-8.1-0.1","battery-v0.2","","""event"",""trial"",""time""
""fullscreenenter"",""1"",""15661""
","
","
","""event"",""trial"",""time""
""fullscreenenter"",""1"",""15661""
","
","","","770.1000000238419","","","19","4535","3172","&#9776;","elianto","#3366ff99"," "," ","1","+10","[1622.3999999761581]","1","0","1","","","","","","","",""
"pit-trial","26","389444","0.0-2.0-8.1-1.1","battery-v0.2","","""event"",""trial"",""time""
""fullscreenenter"",""1"",""15661""
","
","
","""event"",""trial"",""time""
""fullscreenenter"",""1"",""15661""
","
","","","765","","","19","4535","3172","&#9776;","elianto","#3366ff99"," "," ","1","+10","[1617.3000000715256]","1","0","1","","","","","","","",""
"pit-trial","27","393036","0.0-2.0-8.1-2.1","battery-v0.2","","""event"",""trial"",""time""
""fullscreenenter"",""1"",""15661""
","
","
","""event"",""trial"",""time""
""fullscreenenter"",""1"",""15661""
","
","","","725","","","19","4535","3172","&#9776;","elianto","#3366ff99"," "," ","1","+10","[1579.2000000476837]","1","0","1","","","","","","","",""
"pit-trial","28","396710","0.0-2.0-8.1-3.1","battery-v0.2","","""event"",""trial"",""time""
""fullscreenenter"",""1"",""15661""
","
","
","""event"",""trial"",""time""
""fullscreenenter"",""1"",""15661""
","
","","","811.2000000476837","","","19","4535","3172","&#9776;","elianto","#3366ff99"," "," ","1","0","[1665]","1","0","1","","","","","","","",""
"pit-trial","29","400302","0.0-2.0-8.1-4.1","battery-v0.2","","""event"",""trial"",""time""
""fullscreenenter"",""1"",""15661""
","
","
","""event"",""trial"",""time""
""fullscreenenter"",""1"",""15661""
","
","","","730.6000000238419","","","19","4535","3172","&#9776;","elianto","#3366ff99"," "," ","1","+10","[1585.3999999761581]","1","0","1","","","","","","","",""
"pit-trial","30","404030","0.0-2.0-8.2-0.2","battery-v0.2","","""event"",""trial"",""time""
""fullscreenenter"",""1"",""15661""
","
","
","""event"",""trial"",""time""
""fullscreenenter"",""1"",""15661""
","
","","","866.1000000238419","","","19","4535","3172","&#9776;","elianto","#3366ff99"," "," ","1","+10","[1718.1000000238419]","1","0","1","","","","","","","",""
"pit-trial","31","407734","0.0-2.0-8.2-1.2","battery-v0.2","","""event"",""trial"",""time""
""fullscreenenter"",""1"",""15661""
","
","
","""event"",""trial"",""time""
""fullscreenenter"",""1"",""15661""
","
","","","845.3999999761581","","","19","4535","3172","&#9776;","elianto","#3366ff99"," "," ","1","+10","[1696.6999999284744]","1","0","1","","","","","","","",""
"pit-trial","32","411830","0.0-2.0-8.2-2.2","battery-v0.2","","""event"",""trial"",""time""
""fullscreenenter"",""1"",""15661""
","
","
","""event"",""trial"",""time""
""fullscreenenter"",""1"",""15661""
","
","","","1230.8999999761581","","","19","4535","3172","&#9776;","elianto","#3366ff99"," "," ","1","+10","[2085.399999976158]","1","0","1","","","","","","","",""
"pit-trial","33","415382","0.0-2.0-8.2-3.2","battery-v0.2","","""event"",""trial"",""time""
""fullscreenenter"",""1"",""15661""
","
","
","""event"",""trial"",""time""
""fullscreenenter"",""1"",""15661""
","
","","","692.2999999523163","","","19","4535","3172","&#9776;","elianto","#3366ff99"," "," ","1","0","[1544.6999999284744]","1","0","1","","","","","","","",""
"pit-trial","34","419032","0.0-2.0-8.2-4.2","battery-v0.2","","""event"",""trial"",""time""
""fullscreenenter"",""1"",""15661""
","
","
","""event"",""trial"",""time""
""fullscreenenter"",""1"",""15661""
","
","","","793","","","19","4535","3172","&#9776;","elianto","#3366ff99"," "," ","1","+10","[1644.2000000476837]","1","0","1","","","","","","","",""
"call-function","35","419035","0.0-2.0-9.0","battery-v0.2","","""event"",""trial"",""time""
""fullscreenenter"",""1"",""15661""
","
","
","""event"",""trial"",""time""
""fullscreenenter"",""1"",""15661""
","
","","","","","","","","","","","","","","","","","","","","","","","","","","",""
"pit-instructions","36","464023","0.0-2.0-10.0","battery-v0.2","","""event"",""trial"",""time""
""fullscreenenter"",""1"",""15661""
","
","
","""event"",""trial"",""time""
""fullscreenenter"",""1"",""15661""
","
","","[{""page_index"":0,""viewing_time"":7830.600000023842},{""page_index"":1,""viewing_time"":8429.799999952316},{""page_index"":2,""viewing_time"":10164.600000023842},{""page_index"":3,""viewing_time"":9946.399999976158},{""page_index"":4,""viewing_time"":8614.400000095367}]","44987.39999997616","","","","","","","","","","","","","","","","","","","","","","","",""
"pit-trial","37","467587","0.0-2.0-11.0-0.0","battery-v0.2","","""event"",""trial"",""time""
""fullscreenenter"",""1"",""15661""
","
","
","""event"",""trial"",""time""
""fullscreenenter"",""1"",""15661""
","
","","","694.0999999046326","","","19","4535","3172","&#9761;","elianto","#3366ff99","-1"," ","0","0","[1549.2000000476837]","1","0","2","","","","","","","",""
"pit-trial","38","471057","0.0-2.0-11.0-1.0","battery-v0.2","","""event"",""trial"",""time""
""fullscreenenter"",""1"",""15661""
","
","
","""event"",""trial"",""time""
""fullscreenenter"",""1"",""15661""
","
","","","603.2999999523163","","","19","4535","3172","&#9761;","elianto","#3366ff99","-1"," ","0","0","[1454.7999999523163]","1","0","2","","","","","","","",""
"pit-trial","39","474407","0.0-2.0-11.0-2.0","battery-v0.2","","""event"",""trial"",""time""
""fullscreenenter"",""1"",""15661""
","
","
","""event"",""trial"",""time""
""fullscreenenter"",""1"",""15661""
","
","","","481.1999999284744","","","19","4535","3172","&#9761;","elianto","#3366ff99","-1"," ","0","0","[1343.1000000238419]","1","0","2","","","","","","","",""
"pit-trial","40","477784","0.0-2.0-11.0-3.0","battery-v0.2","","""event"",""trial"",""time""
""fullscreenenter"",""1"",""15661""
","
","
","""event"",""trial"",""time""
""fullscreenenter"",""1"",""15661""
","
","","","515.3000000715256","","","19","4535","3172","&#9761;","elianto","#3366ff99","-1"," ","0","+10","[1367.3999999761581]","1","0","2","","","","","","","",""
"pit-trial","41","481103","0.0-2.0-11.0-4.0","battery-v0.2","","""event"",""trial"",""time""
""fullscreenenter"",""1"",""15661""
","
","
","""event"",""trial"",""time""
""fullscreenenter"",""1"",""15661""
","
","","","456.6999999284744","","","19","4535","3172","&#9761;","elianto","#3366ff99","-1"," ","0","0","[1309.9000000953674]","1","0","2","","","","","","","",""
"pit-trial","42","484592","0.0-2.0-11.1-0.1","battery-v0.2","","""event"",""trial"",""time""
""fullscreenenter"",""1"",""15661""
","
","
","""event"",""trial"",""time""
""fullscreenenter"",""1"",""15661""
","
","","","610.8999999761581","","","19","4535","3172","&#9761;","elianto","#3366ff99","-1"," ","0","0","[1468.3999999761581]","1","0","2","","","","","","","",""
"pit-trial","43","488010","0.0-2.0-11.1-1.1","battery-v0.2","","""event"",""trial"",""time""
""fullscreenenter"",""1"",""15661""
","
","
","""event"",""trial"",""time""
""fullscreenenter"",""1"",""15661""
","
","","","551.9000000953674","","","19","4535","3172","&#9761;","elianto","#3366ff99","-1"," ","0","0","[1407.3000000715256]","1","0","2","","","","","","","",""
"pit-trial","44","491416","0.0-2.0-11.1-2.1","battery-v0.2","","""event"",""trial"",""time""
""fullscreenenter"",""1"",""15661""
","
","
","""event"",""trial"",""time""
""fullscreenenter"",""1"",""15661""
","
","","","535.2000000476837","","","19","4535","3172","&#9761;","elianto","#3366ff99","-1"," ","0","0","[1386.8000000715256]","1","0","2","","","","","","","",""
"pit-trial","45","494872","0.0-2.0-11.1-3.1","battery-v0.2","","""event"",""trial"",""time""
""fullscreenenter"",""1"",""15661""
","
","
","""event"",""trial"",""time""
""fullscreenenter"",""1"",""15661""
","
","","","591.2999999523163","","","19","4535","3172","&#9761;","elianto","#3366ff99","-1"," ","0","+10","[1443.8999999761581]","1","0","2","","","","","","","",""
"pit-trial","46","498495","0.0-2.0-11.1-4.1","battery-v0.2","","""event"",""trial"",""time""
""fullscreenenter"",""1"",""15661""
","
","
","""event"",""trial"",""time""
""fullscreenenter"",""1"",""15661""
","
","","","758.7999999523163","","","19","4535","3172","&#9761;","elianto","#3366ff99","-1"," ","0","0","[1612.7999999523163]","1","0","2","","","","","","","",""
"pit-trial","47","501896","0.0-2.0-11.2-0.2","battery-v0.2","","""event"",""trial"",""time""
""fullscreenenter"",""1"",""15661""
","
","
","""event"",""trial"",""time""
""fullscreenenter"",""1"",""15661""
","
","","","541.8000000715256","","","19","4535","3172","&#9761;","elianto","#3366ff99","-1"," ","0","0","[1393.4000000953674]","1","0","2","","","","","","","",""
"pit-trial","48","505385","0.0-2.0-11.2-1.2","battery-v0.2","","""event"",""trial"",""time""
""fullscreenenter"",""1"",""15661""
","
","
","""event"",""trial"",""time""
""fullscreenenter"",""1"",""15661""
","
","","","622.5","","","19","4535","3172","&#9761;","elianto","#3366ff99","-1"," ","0","0","[1479.2000000476837]","1","0","2","","","","","","","",""
"pit-trial","49","508783","0.0-2.0-11.2-2.2","battery-v0.2","","""event"",""trial"",""time""
""fullscreenenter"",""1"",""15661""
","
","
","""event"",""trial"",""time""
""fullscreenenter"",""1"",""15661""
","
","","","538.5","","","19","4535","3172","&#9761;","elianto","#3366ff99","-1"," ","0","0","[1389]","1","0","2","","","","","","","",""
"pit-trial","50","512094","0.0-2.0-11.2-3.2","battery-v0.2","","""event"",""trial"",""time""
""fullscreenenter"",""1"",""15661""
","
","
","""event"",""trial"",""time""
""fullscreenenter"",""1"",""15661""
","
","","","453.60000002384186","","","19","4535","3172","&#9761;","elianto","#3366ff99","-1"," ","0","+10","[1306.5]","1","0","2","","","","","","","",""
"pit-trial","51","515496","0.0-2.0-11.2-4.2","battery-v0.2","","""event"",""trial"",""time""
""fullscreenenter"",""1"",""15661""
","
","
","""event"",""trial"",""time""
""fullscreenenter"",""1"",""15661""
","
","","","543.7999999523163","","","19","4535","3172","&#9761;","elianto","#3366ff99","-1"," ","0","0","[1394.1000000238419]","1","0","2","","","","","","","",""
"pit-trial","52","518926","0.0-2.0-11.3-0.3","battery-v0.2","","""event"",""trial"",""time""
""fullscreenenter"",""1"",""15661""
","
","
","""event"",""trial"",""time""
""fullscreenenter"",""1"",""15661""
","
","","","562","","","19","4535","3172","&#9761;","elianto","#3366ff99","-1"," ","0","0","[1421.3999999761581]","1","0","2","","","","","","","",""
"pit-trial","53","522240","0.0-2.0-11.3-1.3","battery-v0.2","","""event"",""trial"",""time""
""fullscreenenter"",""1"",""15661""
","
","
","""event"",""trial"",""time""
""fullscreenenter"",""1"",""15661""
","
","","","453.59999990463257","","","19","4535","3172","&#9761;","elianto","#3366ff99","-1"," ","0","0","[1308.7999999523163]","1","0","2","","","","","","","",""
"pit-trial","54","525646","0.0-2.0-11.3-2.3","battery-v0.2","","""event"",""trial"",""time""
""fullscreenenter"",""1"",""15661""
","
","
","""event"",""trial"",""time""
""fullscreenenter"",""1"",""15661""
","
","","","541.6999999284744","","","19","4535","3172","&#9761;","elianto","#3366ff99","-1"," ","0","0","[1396.6000000238419]","1","0","2","","","","","","","",""
"pit-trial","55","528958","0.0-2.0-11.3-3.3","battery-v0.2","","""event"",""trial"",""time""
""fullscreenenter"",""1"",""15661""
","
","
","""event"",""trial"",""time""
""fullscreenenter"",""1"",""15661""
","
","","","452.7999999523163","","","19","4535","3172","&#9761;","elianto","#3366ff99","-1"," ","0","+10","[1304.0999999046326]","1","0","2","","","","","","","",""
"pit-trial","56","532247","0.0-2.0-11.3-4.3","battery-v0.2","","""event"",""trial"",""time""
""fullscreenenter"",""1"",""15661""
","
","
","""event"",""trial"",""time""
""fullscreenenter"",""1"",""15661""
","
","","","431.60000002384186","","","19","4535","3172","&#9761;","elianto","#3366ff99","-1"," ","0","0","[1283.6000000238419]","1","0","2","","","","","","","",""
"call-function","57","532250","0.0-2.0-12.0","battery-v0.2","","""event"",""trial"",""time""
""fullscreenenter"",""1"",""15661""
","
","
","""event"",""trial"",""time""
""fullscreenenter"",""1"",""15661""
","
","","","","","","","","","","","","","","","","","","","","","","","","","","",""
"pit-instructions","58","567466","0.0-2.0-13.0","battery-v0.2","","""event"",""trial"",""time""
""fullscreenenter"",""1"",""15661""
","
","
","""event"",""trial"",""time""
""fullscreenenter"",""1"",""15661""
","
","","[{""page_index"":0,""viewing_time"":6912.300000071526},{""page_index"":1,""viewing_time"":7658.899999976158},{""page_index"":2,""viewing_time"":3934.2999999523163},{""page_index"":3,""viewing_time"":11185.300000071526},{""page_index"":4,""viewing_time"":5524}]","35215.300000071526","","","","","","","","","","","","","","","","","","","","","","","",""
"pit-trial","59","572343","0.0-2.0-14.0-0.0","battery-v0.2","","""event"",""trial"",""time""
""fullscreenenter"",""1"",""15661""
","
","
","""event"",""trial"",""time""
""fullscreenenter"",""1"",""15661""
","
","","","-1","","","19","4535","3172","&#9826;","elianto","#f73b6a7A","-1","-1","1","0","[]","0","0","3","","","","","","","",""
"pit-trial","60","577226","0.0-2.0-14.0-1.0","battery-v0.2","","""event"",""trial"",""time""
""fullscreenenter"",""1"",""15661""
","
","
","""event"",""trial"",""time""
""fullscreenenter"",""1"",""15661""
","
","","","-1","","","19","4535","3172","&#9826;","elianto","#f73b6a7A","-1","-1","1","0","[]","0","0","3","","","","","","","",""
"pit-trial","61","582120","0.0-2.0-14.0-2.0","battery-v0.2","","""event"",""trial"",""time""
""fullscreenenter"",""1"",""15661""
","
","
","""event"",""trial"",""time""
""fullscreenenter"",""1"",""15661""
","
","","","-1","","","19","4535","3172","&#9826;","elianto","#f73b6a7A","-1","-1","1","0","[]","0","0","3","","","","","","","",""
"pit-trial","62","587000","0.0-2.0-14.0-3.0","battery-v0.2","","""event"",""trial"",""time""
""fullscreenenter"",""1"",""15661""
","
","
","""event"",""trial"",""time""
""fullscreenenter"",""1"",""15661""
","
","","","-1","","","19","4535","3172","&#9826;","elianto","#f73b6a7A","-1","-1","1","-10","[]","0","0","3","","","","","","","",""
"pit-trial","63","591871","0.0-2.0-14.0-4.0","battery-v0.2","","""event"",""trial"",""time""
""fullscreenenter"",""1"",""15661""
","
","
","""event"",""trial"",""time""
""fullscreenenter"",""1"",""15661""
","
","","","-1","","","19","4535","3172","&#9826;","elianto","#f73b6a7A","-1","-1","1","0","[]","0","0","3","","","","","","","",""
"pit-trial","64","596744","0.0-2.0-14.1-0.1","battery-v0.2","","""event"",""trial"",""time""
""fullscreenenter"",""1"",""15661""
","
","
","""event"",""trial"",""time""
""fullscreenenter"",""1"",""15661""
","
","","","-1","","","19","4535","3172","&#9826;","elianto","#f73b6a7A","-1","-1","1","0","[]","0","0","3","","","","","","","",""
"pit-trial","65","601607","0.0-2.0-14.1-1.1","battery-v0.2","","""event"",""trial"",""time""
""fullscreenenter"",""1"",""15661""
","
","
","""event"",""trial"",""time""
""fullscreenenter"",""1"",""15661""
","
","","","-1","","","19","4535","3172","&#9826;","elianto","#f73b6a7A","-1","-1","1","0","[]","0","0","3","","","","","","","",""
"pit-trial","66","606471","0.0-2.0-14.1-2.1","battery-v0.2","","""event"",""trial"",""time""
""fullscreenenter"",""1"",""15661""
","
","
","""event"",""trial"",""time""
""fullscreenenter"",""1"",""15661""
","
","","","-1","","","19","4535","3172","&#9826;","elianto","#f73b6a7A","-1","-1","1","0","[]","0","0","3","","","","","","","",""
"pit-trial","67","611334","0.0-2.0-14.1-3.1","battery-v0.2","","""event"",""trial"",""time""
""fullscreenenter"",""1"",""15661""
","
","
","""event"",""trial"",""time""
""fullscreenenter"",""1"",""15661""
","
","","","-1","","","19","4535","3172","&#9826;","elianto","#f73b6a7A","-1","-1","1","-10","[]","0","0","3","","","","","","","",""
"pit-trial","68","616198","0.0-2.0-14.1-4.1","battery-v0.2","","""event"",""trial"",""time""
""fullscreenenter"",""1"",""15661""
","
","
","""event"",""trial"",""time""
""fullscreenenter"",""1"",""15661""
","
","","","-1","","","19","4535","3172","&#9826;","elianto","#f73b6a7A","-1","-1","1","0","[]","0","0","3","","","","","","","",""
"pit-trial","69","621063","0.0-2.0-14.2-0.2","battery-v0.2","","""event"",""trial"",""time""
""fullscreenenter"",""1"",""15661""
","
","
","""event"",""trial"",""time""
""fullscreenenter"",""1"",""15661""
","
","","","-1","","","19","4535","3172","&#9826;","elianto","#f73b6a7A","-1","-1","1","0","[]","0","0","3","","","","","","","",""
"pit-trial","70","625926","0.0-2.0-14.2-1.2","battery-v0.2","","""event"",""trial"",""time""
""fullscreenenter"",""1"",""15661""
","
","
","""event"",""trial"",""time""
""fullscreenenter"",""1"",""15661""
","
","","","-1","","","19","4535","3172","&#9826;","elianto","#f73b6a7A","-1","-1","1","0","[]","0","0","3","","","","","","","",""
"pit-trial","71","630791","0.0-2.0-14.2-2.2","battery-v0.2","","""event"",""trial"",""time""
""fullscreenenter"",""1"",""15661""
","
","
","""event"",""trial"",""time""
""fullscreenenter"",""1"",""15661""
","
","","","-1","","","19","4535","3172","&#9826;","elianto","#f73b6a7A","-1","-1","1","0","[]","0","0","3","","","","","","","",""
"pit-trial","72","635654","0.0-2.0-14.2-3.2","battery-v0.2","","""event"",""trial"",""time""
""fullscreenenter"",""1"",""15661""
","
","
","""event"",""trial"",""time""
""fullscreenenter"",""1"",""15661""
","
","","","-1","","","19","4535","3172","&#9826;","elianto","#f73b6a7A","-1","-1","1","-10","[]","0","0","3","","","","","","","",""
"pit-trial","73","640520","0.0-2.0-14.2-4.2","battery-v0.2","","""event"",""trial"",""time""
""fullscreenenter"",""1"",""15661""
","
","
","""event"",""trial"",""time""
""fullscreenenter"",""1"",""15661""
","
","","","-1","","","19","4535","3172","&#9826;","elianto","#f73b6a7A","-1","-1","1","0","[]","0","0","3","","","","","","","",""
"pit-trial","74","645386","0.0-2.0-14.3-0.3","battery-v0.2","","""event"",""trial"",""time""
""fullscreenenter"",""1"",""15661""
","
","
","""event"",""trial"",""time""
""fullscreenenter"",""1"",""15661""
","
","","","-1","","","19","4535","3172","&#9826;","elianto","#f73b6a7A","-1","-1","1","0","[]","0","0","3","","","","","","","",""
"pit-trial","75","650256","0.0-2.0-14.3-1.3","battery-v0.2","","""event"",""trial"",""time""
""fullscreenenter"",""1"",""15661""
","
","
","""event"",""trial"",""time""
""fullscreenenter"",""1"",""15661""
","
","","","-1","","","19","4535","3172","&#9826;","elianto","#f73b6a7A","-1","-1","1","0","[]","0","0","3","","","","","","","",""
"pit-trial","76","655119","0.0-2.0-14.3-2.3","battery-v0.2","","""event"",""trial"",""time""
""fullscreenenter"",""1"",""15661""
","
","
","""event"",""trial"",""time""
""fullscreenenter"",""1"",""15661""
","
","","","-1","","","19","4535","3172","&#9826;","elianto","#f73b6a7A","-1","-1","1","0","[]","0","0","3","","","","","","","",""
"pit-trial","77","659982","0.0-2.0-14.3-3.3","battery-v0.2","","""event"",""trial"",""time""
""fullscreenenter"",""1"",""15661""
","
","
","""event"",""trial"",""time""
""fullscreenenter"",""1"",""15661""
","
","","","-1","","","19","4535","3172","&#9826;","elianto","#f73b6a7A","-1","-1","1","-10","[]","0","0","3","","","","","","","",""
"pit-trial","78","664847","0.0-2.0-14.3-4.3","battery-v0.2","","""event"",""trial"",""time""
""fullscreenenter"",""1"",""15661""
","
","
","""event"",""trial"",""time""
""fullscreenenter"",""1"",""15661""
","
","","","-1","","","19","4535","3172","&#9826;","elianto","#f73b6a7A","-1","-1","1","0","[]","0","0","3","","","","","","","",""
"call-function","79","664850","0.0-2.0-15.0","battery-v0.2","","""event"",""trial"",""time""
""fullscreenenter"",""1"",""15661""
","
","
","""event"",""trial"",""time""
""fullscreenenter"",""1"",""15661""
","
","","","","","","","","","","","","","","","","","","","","","","","","","","",""
"pit-instructions","80","693065","0.0-2.0-16.0","battery-v0.2","","""event"",""trial"",""time""
""fullscreenenter"",""1"",""15661""
","
","
","""event"",""trial"",""time""
""fullscreenenter"",""1"",""15661""
","
","","[{""page_index"":0,""viewing_time"":7696.700000047684},{""page_index"":1,""viewing_time"":10452.399999976158},{""page_index"":2,""viewing_time"":4769.899999976158},{""page_index"":3,""viewing_time"":5295}]","28214.700000047684","","","","","","","","","","","","","","","","","","","","","","","",""
"pit-trial","81","697944","0.0-2.0-17.0-0.0","battery-v0.2","","""event"",""trial"",""time""
""fullscreenenter"",""1"",""15661""
","
","
","""event"",""trial"",""time""
""fullscreenenter"",""1"",""15661""
","
","","","-1","","","19","4535","3172","&#9789;","elianto","#f73b6a7A"," ","-1","0","-10","[]","0","0","4","","","","","","","",""
"pit-trial","82","702813","0.0-2.0-17.0-1.0","battery-v0.2","","""event"",""trial"",""time""
""fullscreenenter"",""1"",""15661""
","
","
","""event"",""trial"",""time""
""fullscreenenter"",""1"",""15661""
","
","","","-1","","","19","4535","3172","&#9789;","elianto","#f73b6a7A"," ","-1","0","-10","[]","0","0","4","","","","","","","",""
"pit-trial","83","707685","0.0-2.0-17.0-2.0","battery-v0.2","","""event"",""trial"",""time""
""fullscreenenter"",""1"",""15661""
","
","
","""event"",""trial"",""time""
""fullscreenenter"",""1"",""15661""
","
","","","-1","","","19","4535","3172","&#9789;","elianto","#f73b6a7A"," ","-1","0","-10","[]","0","0","4","","","","","","","",""
"pit-trial","84","711138","0.0-2.0-17.0-3.0","battery-v0.2","","""event"",""trial"",""time""
""fullscreenenter"",""1"",""15661""
","
","
","""event"",""trial"",""time""
""fullscreenenter"",""1"",""15661""
","
","","","584.7000000476837","","","19","4535","3172","&#9789;","elianto","#f73b6a7A"," "," ","1","-10","[1435.2000000476837]","1","0","4","","","","","","","",""
"pit-trial","85","714741","0.0-2.0-17.0-4.0","battery-v0.2","","""event"",""trial"",""time""
""fullscreenenter"",""1"",""15661""
","
","
","""event"",""trial"",""time""
""fullscreenenter"",""1"",""15661""
","
","","","716.8000000715256","","","19","4535","3172","&#9789;","elianto","#f73b6a7A"," "," ","1","0","[1579.1000000238419]","1","0","4","","","","","","","",""
"pit-trial","86","718037","0.0-2.0-17.1-0.1","battery-v0.2","","""event"",""trial"",""time""
""fullscreenenter"",""1"",""15661""
","
","
","""event"",""trial"",""time""
""fullscreenenter"",""1"",""15661""
","
","","","412.5","","","19","4535","3172","&#9789;","elianto","#f73b6a7A"," "," ","1","0","[1270.4000000953674]","1","0","4","","","","","","","",""
"pit-trial","87","721575","0.0-2.0-17.1-1.1","battery-v0.2","","""event"",""trial"",""time""
""fullscreenenter"",""1"",""15661""
","
","
","""event"",""trial"",""time""
""fullscreenenter"",""1"",""15661""
","
","","","664.5","","","19","4535","3172","&#9789;","elianto","#f73b6a7A"," "," ","1","0","[1521.8999999761581]","1","0","4","","","","","","","",""
"pit-trial","88","725158","0.0-2.0-17.1-2.1","battery-v0.2","","""event"",""trial"",""time""
""fullscreenenter"",""1"",""15661""
","
","
","""event"",""trial"",""time""
""fullscreenenter"",""1"",""15661""
","
","","","721.7000000476837","","","19","4535","3172","&#9789;","elianto","#f73b6a7A"," "," ","1","0","[1579.5]","1","0","4","","","","","","","",""
"pit-trial","89","728486","0.0-2.0-17.1-3.1","battery-v0.2","","""event"",""trial"",""time""
""fullscreenenter"",""1"",""15661""
","
","
","""event"",""trial"",""time""
""fullscreenenter"",""1"",""15661""
","
","","","464.8000000715256","","","19","4535","3172","&#9789;","elianto","#f73b6a7A"," "," ","1","-10","[1318.9000000953674]","1","0","4","","","","","","","",""
"pit-trial","90","731920","0.0-2.0-17.1-4.1","battery-v0.2","","""event"",""trial"",""time""
""fullscreenenter"",""1"",""15661""
","
","
","""event"",""trial"",""time""
""fullscreenenter"",""1"",""15661""
","
","","","567.5999999046326","","","19","4535","3172","&#9789;","elianto","#f73b6a7A"," "," ","1","0","[1421.9000000953674]","1","0","4","","","","","","","",""
"pit-trial","91","735319","0.0-2.0-17.2-0.2","battery-v0.2","","""event"",""trial"",""time""
""fullscreenenter"",""1"",""15661""
","
","
","""event"",""trial"",""time""
""fullscreenenter"",""1"",""15661""
","
","","","538.1999999284744","","","19","4535","3172","&#9789;","elianto","#f73b6a7A"," "," ","1","0","[1393.0999999046326]","1","0","4","","","","","","","",""
"pit-trial","92","738735","0.0-2.0-17.2-1.2","battery-v0.2","","""event"",""trial"",""time""
""fullscreenenter"",""1"",""15661""
","
","
","""event"",""trial"",""time""
""fullscreenenter"",""1"",""15661""
","
","","","550.5","","","19","4535","3172","&#9789;","elianto","#f73b6a7A"," "," ","1","0","[1404.3000000715256]","1","0","4","","","","","","","",""
"pit-trial","93","742662","0.0-2.0-17.2-2.2","battery-v0.2","","""event"",""trial"",""time""
""fullscreenenter"",""1"",""15661""
","
","
","""event"",""trial"",""time""
""fullscreenenter"",""1"",""15661""
","
","","","1068.5","","","19","4535","3172","&#9789;","elianto","#f73b6a7A"," "," ","1","0","[1921.6000000238419]","1","0","4","","","","","","","",""
"pit-trial","94","746103","0.0-2.0-17.2-3.2","battery-v0.2","","""event"",""trial"",""time""
""fullscreenenter"",""1"",""15661""
","
","
","""event"",""trial"",""time""
""fullscreenenter"",""1"",""15661""
","
","","","580.1000000238419","","","19","4535","3172","&#9789;","elianto","#f73b6a7A"," "," ","1","-10","[1436.1000000238419]","1","0","4","","","","","","","",""
"pit-trial","95","749462","0.0-2.0-17.2-4.2","battery-v0.2","","""event"",""trial"",""time""
""fullscreenenter"",""1"",""15661""
","
","
","""event"",""trial"",""time""
""fullscreenenter"",""1"",""15661""
","
","","","500","","","19","4535","3172","&#9789;","elianto","#f73b6a7A"," "," ","1","0","[1353.1999999284744]","1","0","4","","","","","","","",""
"pit-trial","96","752879","0.0-2.0-17.3-0.3","battery-v0.2","","""event"",""trial"",""time""
""fullscreenenter"",""1"",""15661""
","
","
","""event"",""trial"",""time""
""fullscreenenter"",""1"",""15661""
","
","","","557.1000000238419","","","19","4535","3172","&#9789;","elianto","#f73b6a7A"," "," ","1","0","[1411.6999999284744]","1","0","4","","","","","","","",""
"pit-trial","97","756326","0.0-2.0-17.3-1.3","battery-v0.2","","""event"",""trial"",""time""
""fullscreenenter"",""1"",""15661""
","
","
","""event"",""trial"",""time""
""fullscreenenter"",""1"",""15661""
","
","","","585.5","","","19","4535","3172","&#9789;","elianto","#f73b6a7A"," "," ","1","0","[1438]","1","0","4","","","","","","","",""
"pit-trial","98","759671","0.0-2.0-17.3-2.3","battery-v0.2","","""event"",""trial"",""time""
""fullscreenenter"",""1"",""15661""
","
","
","""event"",""trial"",""time""
""fullscreenenter"",""1"",""15661""
","
","","","474.5","","","19","4535","3172","&#9789;","elianto","#f73b6a7A"," "," ","1","0","[1336.1000000238419]","1","0","4","","","","","","","",""
"pit-trial","99","763120","0.0-2.0-17.3-3.3","battery-v0.2","","""event"",""trial"",""time""
""fullscreenenter"",""1"",""15661""
","
","
","""event"",""trial"",""time""
""fullscreenenter"",""1"",""15661""
","
","","","583.1000000238419","","","19","4535","3172","&#9789;","elianto","#f73b6a7A"," "," ","1","-10","[1436]","1","0","4","","","","","","","",""
"pit-trial","100","766532","0.0-2.0-17.3-4.3","battery-v0.2","","""event"",""trial"",""time""
""fullscreenenter"",""1"",""15661""
","
","
","""event"",""trial"",""time""
""fullscreenenter"",""1"",""15661""
","
","","","544.7999999523163","","","19","4535","3172","&#9789;","elianto","#f73b6a7A"," "," ","1","0","[1397.8999999761581]","1","0","4","","","","","","","",""
"call-function","101","766535","0.0-2.0-18.0","battery-v0.2","","""event"",""trial"",""time""
""fullscreenenter"",""1"",""15661""
","
","
","""event"",""trial"",""time""
""fullscreenenter"",""1"",""15661""
","
","","","","","","","","","","","","","","","","","","","","","","","","","","",""
"pit-instructions","102","855071","0.0-2.0-19.0","battery-v0.2","","""event"",""trial"",""time""
""fullscreenenter"",""1"",""15661""
","
","
","""event"",""trial"",""time""
""fullscreenenter"",""1"",""15661""
","
","","[{""page_index"":0,""viewing_time"":6752.700000047684},{""page_index"":1,""viewing_time"":6284.399999976158},{""page_index"":2,""viewing_time"":27614.200000047684},{""page_index"":3,""viewing_time"":8284.299999952316},{""page_index"":4,""viewing_time"":9234.299999952316},{""page_index"":5,""viewing_time"":8740.900000095367},{""page_index"":6,""viewing_time"":9379.899999976158},{""page_index"":7,""viewing_time"":6440.399999976158},{""page_index"":8,""viewing_time"":5804}]","88535.60000002384","","","","","","","","","","","","","","","","","","","","","","","",""
"pit-comprehension","103","875405","0.0-2.0-20.0-0.0","battery-v0.2","","""event"",""trial"",""time""
""fullscreenenter"",""1"",""15661""
","
","
","""event"",""trial"",""time""
""fullscreenenter"",""1"",""15661""
","
","","","20327.100000023842","[""SPACE""]","0","19","4535","3172","","","","","","","","","","","","","","","","","","",""
"pit-instructions","104","882427","0.0-2.0-20.0-1.0","battery-v0.2","","""event"",""trial"",""time""
""fullscreenenter"",""1"",""15661""
","
","
","""event"",""trial"",""time""
""fullscreenenter"",""1"",""15661""
","
","","[{""page_index"":0,""viewing_time"":6941}]","6941.5","","","","","","","","","","","","","","","","","","","","","","","",""
"pit-comprehension","105","892268","0.0-2.0-21.0-0.0","battery-v0.2","","""event"",""trial"",""time""
""fullscreenenter"",""1"",""15661""
","
","
","""event"",""trial"",""time""
""fullscreenenter"",""1"",""15661""
","
","","","9833.899999976158","[""10""]","0","19","4535","3172","","","","","","","","","","","","","","","","","","",""
"pit-instructions","106","898878","0.0-2.0-21.0-1.0","battery-v0.2","","""event"",""trial"",""time""
""fullscreenenter"",""1"",""15661""
","
","
","""event"",""trial"",""time""
""fullscreenenter"",""1"",""15661""
","
","","[{""page_index"":0,""viewing_time"":6469.100000023842}]","6469.399999976158","","","","","","","","","","","","","","","","","","","","","","","",""
"pit-comprehension","107","908402","0.0-2.0-22.0-0.0","battery-v0.2","","""event"",""trial"",""time""
""fullscreenenter"",""1"",""15661""
","
","
","""event"",""trial"",""time""
""fullscreenenter"",""1"",""15661""
","
","","","9516.599999904633","[""-10""]","1","19","4535","3172","","","","","","","","","","","","","","","","","","",""
"pit-instructions","108","914848","0.0-2.0-22.0-1.0","battery-v0.2","","""event"",""trial"",""time""
""fullscreenenter"",""1"",""15661""
","
","
","""event"",""trial"",""time""
""fullscreenenter"",""1"",""15661""
","
","","[{""page_index"":0,""viewing_time"":6373.299999952316}]","6373.600000023842","","","","","","","","","","","","","","","","","","","","","","","",""
"pit-instructions","109","920325","0.0-2.0-22.0-2.0-0.0","battery-v0.2","","""event"",""trial"",""time""
""fullscreenenter"",""1"",""15661""
","
","
","""event"",""trial"",""time""
""fullscreenenter"",""1"",""15661""
","
","","[{""page_index"":0,""viewing_time"":5472.600000023842}]","5473","","","","","","","","","","","","","","","","","","","","","","","",""
"pit-comprehension","110","939823","0.0-2.0-22.1-0.1","battery-v0.2","","""event"",""trial"",""time""
""fullscreenenter"",""1"",""15661""
","
","
","""event"",""trial"",""time""
""fullscreenenter"",""1"",""15661""
","
","","","19492.899999976158","[""0""]","0","19","4535","3172","","","","","","","","","","","","","","","","","","",""
"pit-instructions","111","949108","0.0-2.0-22.1-1.1","battery-v0.2","","""event"",""trial"",""time""
""fullscreenenter"",""1"",""15661""
","
","
","""event"",""trial"",""time""
""fullscreenenter"",""1"",""15661""
","
","","[{""page_index"":0,""viewing_time"":9202.600000023842}]","9203","","","","","","","","","","","","","","","","","","","","","","","",""
"pit-comprehension","112","960054","0.0-2.0-23.0-0.0","battery-v0.2","","""event"",""trial"",""time""
""fullscreenenter"",""1"",""15661""
","
","
","""event"",""trial"",""time""
""fullscreenenter"",""1"",""15661""
","
","","","10936.799999952316","[""True""]","0","19","4535","3172","","","","","","","","","","","","","","","","","","",""
"pit-instructions","113","966437","0.0-2.0-23.0-1.0","battery-v0.2","","""event"",""trial"",""time""
""fullscreenenter"",""1"",""15661""
","
","
","""event"",""trial"",""time""
""fullscreenenter"",""1"",""15661""
","
","","[{""page_index"":0,""viewing_time"":6267.399999976158}]","6267.799999952316","","","","","","","","","","","","","","","","","","","","","","","",""
"pit-comprehension","114","980025","0.0-2.0-24.0-0.0","battery-v0.2","","""event"",""trial"",""time""
""fullscreenenter"",""1"",""15661""
","
","
","""event"",""trial"",""time""
""fullscreenenter"",""1"",""15661""
","
","","","13578.399999976158","[""True""]","0","19","4535","3172","","","","","","","","","","","","","","","","","","",""
"pit-instructions","115","998712","0.0-2.0-24.0-1.0","battery-v0.2","","""event"",""trial"",""time""
""fullscreenenter"",""1"",""15661""
","
","
","""event"",""trial"",""time""
""fullscreenenter"",""1"",""15661""
","
","","[{""page_index"":0,""viewing_time"":18591.100000023842}]","18591.399999976158","","","","","","","","","","","","","","","","","","","","","","","",""
"pit-comprehension","116","1009806","0.0-2.0-25.0-0.0","battery-v0.2","","""event"",""trial"",""time""
""fullscreenenter"",""1"",""15661""
","
","
","""event"",""trial"",""time""
""fullscreenenter"",""1"",""15661""
","
","","","11086.5","[""True""]","0","19","4535","3172","","","","","","","","","","","","","","","","","","",""
"pit-instructions","117","1016057","0.0-2.0-25.0-1.0","battery-v0.2","","""event"",""trial"",""time""
""fullscreenenter"",""1"",""15661""
","
","
","""event"",""trial"",""time""
""fullscreenenter"",""1"",""15661""
","
","","[{""page_index"":0,""viewing_time"":6165.5}]","6166","","","","","","","","","","","","","","","","","","","","","","","",""
"pit-comprehension","118","1024830","0.0-2.0-26.0-0.0","battery-v0.2","","""event"",""trial"",""time""
""fullscreenenter"",""1"",""15661""
","
","
","""event"",""trial"",""time""
""fullscreenenter"",""1"",""15661""
","
","","","8761.100000023842","[""False""]","0","19","4535","3172","","","","","","","","","","","","","","","","","","",""
"pit-instructions","119","1033252","0.0-2.0-26.0-1.0","battery-v0.2","","""event"",""trial"",""time""
""fullscreenenter"",""1"",""15661""
","
","
","""event"",""trial"",""time""
""fullscreenenter"",""1"",""15661""
","
","","[{""page_index"":0,""viewing_time"":8327.199999928474}]","8327.699999928474","","","","","","","","","","","","","","","","","","","","","","","",""
"pit-instructions","120","1055954","0.0-3.0","battery-v0.2","","""event"",""trial"",""time""
""fullscreenenter"",""1"",""15661""
","
","
","""event"",""trial"",""time""
""fullscreenenter"",""1"",""15661""
","
","","[{""page_index"":0,""viewing_time"":7719.899999976158},{""page_index"":1,""viewing_time"":6577},{""page_index"":2,""viewing_time"":8400.800000071526}]","22698","","","","","","","","","","","","","","","","","","","","","","","",""
"pit-trial","121","1059491","0.0-4.0","battery-v0.2","","""event"",""trial"",""time""
""fullscreenenter"",""1"",""15661""
","
","
","""event"",""trial"",""time""
""fullscreenenter"",""1"",""15661""
","
","","","655.5","","","19","4535","3172","&#9728;","elianto","#f73b6a7A","-1"," ","0","0","[1509]","1","1","","","4535","1","0","4","lose","no-go","1"
"pit-trial","122","1062816","0.0-5.0","battery-v0.2","","""event"",""trial"",""time""
""fullscreenenter"",""1"",""15661""
","
","
","""event"",""trial"",""time""
""fullscreenenter"",""1"",""15661""
","
","","","450.8000000715256","","","19","4535","3172","&#9730;","elianto","#3366ff99"," "," ","1","+10","[1307.3999999761581]","1","1","","","4535","2","1","1","win","go","0"
"pit-trial","123","1066258","0.0-6.0","battery-v0.2","","""event"",""trial"",""time""
""fullscreenenter"",""1"",""15661""
","
","
","""event"",""trial"",""time""
""fullscreenenter"",""1"",""15661""
","
","","","572.3000000715256","","","19","4535","3172","&#9733;","elianto","#3366ff99","-1"," ","0","0","[1423]","1","1","","","4535","3","2","2","win","no-go","0"
"pit-trial","124","1069633","0.0-7.0","battery-v0.2","","""event"",""trial"",""time""
""fullscreenenter"",""1"",""15661""
","
","
","""event"",""trial"",""time""
""fullscreenenter"",""1"",""15661""
","
","","","505.10000002384186","","","19","4535","3172","&#9752;","elianto","#f73b6a7A"," "," ","1","0","[1359.7999999523163]","1","1","","","4535","4","3","3","lose","go","0"
"pit-trial","125","1072921","0.0-8.0","battery-v0.2","","""event"",""trial"",""time""
""fullscreenenter"",""1"",""15661""
","
","
","""event"",""trial"",""time""
""fullscreenenter"",""1"",""15661""
","
","","","412.2999999523163","","","19","4535","3172","&#9728;","elianto","#f73b6a7A","-1"," ","0","0","[1267.2999999523163]","1","1","","","4535","5","0","4","lose","no-go","1"
"pit-trial","126","1076646","0.0-9.0","battery-v0.2","","""event"",""trial"",""time""
""fullscreenenter"",""1"",""15661""
","
","
","""event"",""trial"",""time""
""fullscreenenter"",""1"",""15661""
","
","","","857.8000000715256","","","19","4535","3172","&#9752;","elianto","#f73b6a7A"," "," ","1","0","[1710.3999999761581]","1","1","","","4535","6","3","3","lose","go","0"
"pit-trial","127","1079844","0.0-10.0","battery-v0.2","","""event"",""trial"",""time""
""fullscreenenter"",""1"",""15661""
","
","
","""event"",""trial"",""time""
""fullscreenenter"",""1"",""15661""
","
","","","324.5","","","19","4535","3172","&#9733;","elianto","#3366ff99","-1"," ","0","0","[1181.5]","1","1","","","4535","7","2","2","win","no-go","0"
"pit-trial","128","1083118","0.0-11.0","battery-v0.2","","""event"",""trial"",""time""
""fullscreenenter"",""1"",""15661""
","
","
","""event"",""trial"",""time""
""fullscreenenter"",""1"",""15661""
","
","","","408","","","19","4535","3172","&#9730;","elianto","#3366ff99"," "," ","1","+10","[1266.3999999761581]","1","1","","","4535","8","1","1","win","go","0"
"pit-trial","129","1086438","0.0-12.0","battery-v0.2","","""event"",""trial"",""time""
""fullscreenenter"",""1"",""15661""
","
","
","""event"",""trial"",""time""
""fullscreenenter"",""1"",""15661""
","
","","","458","","","19","4535","3172","&#9728;","elianto","#f73b6a7A","-1"," ","0","-10","[1311.3999999761581]","1","1","","","4535","9","0","4","lose","no-go","0"
"pit-trial","130","1089797","0.0-13.0","battery-v0.2","","""event"",""trial"",""time""
""fullscreenenter"",""1"",""15661""
","
","
","""event"",""trial"",""time""
""fullscreenenter"",""1"",""15661""
","
","","","502.10000002384186","","","19","4535","3172","&#9733;","elianto","#3366ff99","-1"," ","0","+10","[1353.8000000715256]","1","1","","","4535","10","2","2","win","no-go","1"
"pit-trial","131","1093238","0.0-14.0","battery-v0.2","","""event"",""trial"",""time""
""fullscreenenter"",""1"",""15661""
","
","
","""event"",""trial"",""time""
""fullscreenenter"",""1"",""15661""
","
","","","578.8999999761581","","","19","4535","3172","&#9752;","elianto","#f73b6a7A"," "," ","1","0","[1433.0999999046326]","1","1","","","4535","11","3","3","lose","go","0"
"pit-trial","132","1096534","0.0-15.0","battery-v0.2","","""event"",""trial"",""time""
""fullscreenenter"",""1"",""15661""
","
","
","""event"",""trial"",""time""
""fullscreenenter"",""1"",""15661""
","
","","","433.7000000476837","","","19","4535","3172","&#9730;","elianto","#3366ff99"," "," ","1","+10","[1288.2000000476837]","1","1","","","4535","12","1","1","win","go","0"
"pit-trial","133","1099725","0.0-16.0","battery-v0.2","","""event"",""trial"",""time""
""fullscreenenter"",""1"",""15661""
","
","
","""event"",""trial"",""time""
""fullscreenenter"",""1"",""15661""
","
","","","332","","","19","4535","3172","&#9752;","elianto","#f73b6a7A"," "," ","1","0","[1185.1999999284744]","1","1","","","4535","13","3","3","lose","go","0"
"pit-trial","134","1103013","0.0-17.0","battery-v0.2","","""event"",""trial"",""time""
""fullscreenenter"",""1"",""15661""
","
","
","""event"",""trial"",""time""
""fullscreenenter"",""1"",""15661""
","
","","","427.7999999523163","","","19","4535","3172","&#9728;","elianto","#f73b6a7A","-1"," ","0","-10","[1283.6999999284744]","1","1","","","4535","14","0","4","lose","no-go","0"
"pit-trial","135","1106363","0.0-18.0","battery-v0.2","","""event"",""trial"",""time""
""fullscreenenter"",""1"",""15661""
","
","
","""event"",""trial"",""time""
""fullscreenenter"",""1"",""15661""
","
","","","485.89999997615814","","","19","4535","3172","&#9733;","elianto","#3366ff99","-1"," ","0","+10","[1340]","1","1","","","4535","15","2","2","win","no-go","1"
"pit-trial","136","1109663","0.0-19.0","battery-v0.2","","""event"",""trial"",""time""
""fullscreenenter"",""1"",""15661""
","
","
","""event"",""trial"",""time""
""fullscreenenter"",""1"",""15661""
","
","","","434.6999999284744","","","19","4535","3172","&#9730;","elianto","#3366ff99"," "," ","1","+10","[1288.2999999523163]","1","1","","","4535","16","1","1","win","go","0"
"pit-trial","137","1112951","0.0-20.0","battery-v0.2","","""event"",""trial"",""time""
""fullscreenenter"",""1"",""15661""
","
","
","""event"",""trial"",""time""
""fullscreenenter"",""1"",""15661""
","
","","","419.5","","","19","4535","3172","&#9730;","elianto","#3366ff99"," "," ","1","+10","[1275.1000000238419]","1","1","","","4535","17","1","1","win","go","0"
"pit-trial","138","1116213","0.0-21.0","battery-v0.2","","""event"",""trial"",""time""
""fullscreenenter"",""1"",""15661""
","
","
","""event"",""trial"",""time""
""fullscreenenter"",""1"",""15661""
","
","","","405.8000000715256","","","19","4535","3172","&#9728;","elianto","#f73b6a7A","-1"," ","0","-10","[1259.8999999761581]","1","1","","","4535","18","0","4","lose","no-go","0"
"pit-trial","139","1119606","0.0-22.0","battery-v0.2","","""event"",""trial"",""time""
""fullscreenenter"",""1"",""15661""
","
","
","""event"",""trial"",""time""
""fullscreenenter"",""1"",""15661""
","
","","","527.7999999523163","","","19","4535","3172","&#9752;","elianto","#f73b6a7A"," "," ","1","0","[1385.0999999046326]","1","1","","","4535","19","3","3","lose","go","0"
"pit-trial","140","1122934","0.0-23.0","battery-v0.2","","""event"",""trial"",""time""
""fullscreenenter"",""1"",""15661""
","
","
","""event"",""trial"",""time""
""fullscreenenter"",""1"",""15661""
","
","","","463","","","19","4535","3172","&#9733;","elianto","#3366ff99","-1"," ","0","0","[1316.7999999523163]","1","1","","","4535","20","2","2","win","no-go","0"
"pit-instructions","141","1141906","0.0-24.0","battery-v0.2","","""event"",""trial"",""time""
""fullscreenenter"",""1"",""15661""
","
","
","""event"",""trial"",""time""
""fullscreenenter"",""1"",""15661""
","
","","[{""page_index"":0,""viewing_time"":9386.399999976158},{""page_index"":1,""viewing_time"":9584.600000023842}]","18971.299999952316","","","","","","","","","","","","","","","","","","","","","","","",""
"pit-trial","142","1145796","0.0-25.0","battery-v0.2","","""event"",""trial"",""time""
""fullscreenenter"",""1"",""15661""
","
","
","""event"",""trial"",""time""
""fullscreenenter"",""1"",""15661""
","
","","","980.5","","","19","4535","3172","y","elianto","#f73b6a7A","-1"," ","0","-10","[1865.5]","1","2","","","4535","21","2","4","lose","no-go","0"
"pit-trial","143","1149495","0.0-26.0","battery-v0.2","","""event"",""trial"",""time""
""fullscreenenter"",""1"",""15661""
","
","
","""event"",""trial"",""time""
""fullscreenenter"",""1"",""15661""
","
","","","820.8000000715256","","","19","4535","3172","h","elianto","#f73b6a7A"," "," ","1","0","[1672.3999999761581]","1","2","","","4535","22","3","3","lose","go","0"
"pit-trial","144","1153231","0.0-27.0","battery-v0.2","","""event"",""trial"",""time""
""fullscreenenter"",""1"",""15661""
","
","
","""event"",""trial"",""time""
""fullscreenenter"",""1"",""15661""
","
","","","866.2999999523163","","","19","4535","3172","r","elianto","#3366ff99"," "," ","1","+10","[1718.6999999284744]","1","2","","","4535","23","1","1","win","go","0"
"pit-trial","145","1156600","0.0-28.0","battery-v0.2","","""event"",""trial"",""time""
""fullscreenenter"",""1"",""15661""
","
","
","""event"",""trial"",""time""
""fullscreenenter"",""1"",""15661""
","
","","","505.2000000476837","","","19","4535","3172","m","elianto","#f73b6a7A","-1"," ","0","-10","[1357]","1","2","","","4535","24","0","4","lose","no-go","0"
"pit-trial","146","1160024","0.0-29.0","battery-v0.2","","""event"",""trial"",""time""
""fullscreenenter"",""1"",""15661""
","
","
","""event"",""trial"",""time""
""fullscreenenter"",""1"",""15661""
","
","","","544.1000000238419","","","19","4535","3172","y","elianto","#f73b6a7A","-1"," ","0","-10","[1403.1999999284744]","1","2","","","4535","25","2","4","lose","no-go","0"
"pit-trial","147","1163827","0.0-30.0","battery-v0.2","","""event"",""trial"",""time""
""fullscreenenter"",""1"",""15661""
","
","
","""event"",""trial"",""time""
""fullscreenenter"",""1"",""15661""
","
","","","939.6999999284744","","","19","4535","3172","m","elianto","#f73b6a7A","-1"," ","0","-10","[1792.3000000715256]","1","2","","","4535","26","0","4","lose","no-go","0"
"pit-trial","148","1167641","0.0-31.0","battery-v0.2","","""event"",""trial"",""time""
""fullscreenenter"",""1"",""15661""
","
","
","""event"",""trial"",""time""
""fullscreenenter"",""1"",""15661""
","
","","","940.1999999284744","","","19","4535","3172","r","elianto","#3366ff99"," "," ","1","+10","[1799.8999999761581]","1","2","","","4535","27","1","1","win","go","0"
"pit-trial","149","1171567","0.0-32.0","battery-v0.2","","""event"",""trial"",""time""
""fullscreenenter"",""1"",""15661""
","
","
","""event"",""trial"",""time""
""fullscreenenter"",""1"",""15661""
","
","","","1060.3000000715256","","","19","4535","3172","h","elianto","#f73b6a7A"," "," ","1","0","[1917.2000000476837]","1","2","","","4535","28","3","3","lose","go","0"
"pit-trial","150","1176430","0.0-33.0","battery-v0.2","","""event"",""trial"",""time""
""fullscreenenter"",""1"",""15661""
","
","
","""event"",""trial"",""time""
""fullscreenenter"",""1"",""15661""
","
","","","-1","","","19","4535","3172","m","elianto","#f73b6a7A","-1","-1","1","-10","[]","0","2","","","4535","29","0","4","lose","no-go","1"
"pit-trial","151","1180078","0.0-34.0","battery-v0.2","","""event"",""trial"",""time""
""fullscreenenter"",""1"",""15661""
","
","
","""event"",""trial"",""time""
""fullscreenenter"",""1"",""15661""
","
","","","784.1000000238419","","","19","4535","3172","h","elianto","#f73b6a7A"," "," ","1","0","[1642.2999999523163]","1","2","","","4535","30","3","3","lose","go","0"
"pit-trial","152","1184943","0.0-35.0","battery-v0.2","","""event"",""trial"",""time""
""fullscreenenter"",""1"",""15661""
","
","
","""event"",""trial"",""time""
""fullscreenenter"",""1"",""15661""
","
","","","-1","","","19","4535","3172","y","elianto","#f73b6a7A","-1","-1","1","0","[]","0","2","","","4535","31","2","4","lose","no-go","0"
"pit-trial","153","1188775","0.0-36.0","battery-v0.2","","""event"",""trial"",""time""
""fullscreenenter"",""1"",""15661""
","
","
","""event"",""trial"",""time""
""fullscreenenter"",""1"",""15661""
","
","","","971.8999999761581","","","19","4535","3172","r","elianto","#3366ff99"," "," ","1","+10","[1823.2999999523163]","1","2","","","4535","32","1","1","win","go","0"
"pit-trial","154","1192903","0.0-37.0","battery-v0.2","","""event"",""trial"",""time""
""fullscreenenter"",""1"",""15661""
","
","
","""event"",""trial"",""time""
""fullscreenenter"",""1"",""15661""
","
","","","1267.5999999046326","","","19","4535","3172","r","elianto","#3366ff99"," "," ","1","+10","[2117.8000000715256]","1","2","","","4535","33","1","1","win","go","0"
"pit-trial","155","1197767","0.0-38.0","battery-v0.2","","""event"",""trial"",""time""
""fullscreenenter"",""1"",""15661""
","
","
","""event"",""trial"",""time""
""fullscreenenter"",""1"",""15661""
","
","","","-1","","","19","4535","3172","m","elianto","#f73b6a7A","-1","-1","1","0","[]","0","2","","","4535","34","0","4","lose","no-go","0"
"pit-trial","156","1201422","0.0-39.0","battery-v0.2","","""event"",""trial"",""time""
""fullscreenenter"",""1"",""15661""
","
","
","""event"",""trial"",""time""
""fullscreenenter"",""1"",""15661""
","
","","","789","","","19","4535","3172","h","elianto","#f73b6a7A"," "," ","1","-10","[1642.5]","1","2","","","4535","35","3","3","lose","go","1"
"pit-trial","157","1206287","0.0-40.0","battery-v0.2","","""event"",""trial"",""time""
""fullscreenenter"",""1"",""15661""
","
","
","""event"",""trial"",""time""
""fullscreenenter"",""1"",""15661""
","
","","","-1","","","19","4535","3172","y","elianto","#f73b6a7A","-1","-1","1","0","[]","0","2","","","4535","36","2","4","lose","no-go","0"
"pit-trial","158","1211151","0.0-41.0","battery-v0.2","","""event"",""trial"",""time""
""fullscreenenter"",""1"",""15661""
","
","
","""event"",""trial"",""time""
""fullscreenenter"",""1"",""15661""
","
","","","-1","","","19","4535","3172","y","elianto","#f73b6a7A","-1","-1","1","0","[]","0","2","","","4535","37","2","4","lose","no-go","0"
"pit-trial","159","1215525","0.0-42.0","battery-v0.2","","""event"",""trial"",""time""
""fullscreenenter"",""1"",""15661""
","
","
","""event"",""trial"",""time""
""fullscreenenter"",""1"",""15661""
","
","","","1511.7999999523163","","","19","4535","3172","h","elianto","#f73b6a7A"," "," ","1","0","[2362.100000023842]","1","2","","","4535","38","3","3","lose","go","0"
"pit-trial","160","1219556","0.0-43.0","battery-v0.2","","""event"",""trial"",""time""
""fullscreenenter"",""1"",""15661""
","
","
","""event"",""trial"",""time""
""fullscreenenter"",""1"",""15661""
","
","","","1166.9000000953674","","","19","4535","3172","r","elianto","#3366ff99"," "," ","1","+10","[2019.5]","1","2","","","4535","39","1","1","win","go","0"
"pit-trial","161","1224429","0.0-44.0","battery-v0.2","","""event"",""trial"",""time""
""fullscreenenter"",""1"",""15661""
","
","
","""event"",""trial"",""time""
""fullscreenenter"",""1"",""15661""
","
","","","-1","","","19","4535","3172","m","elianto","#f73b6a7A","-1","-1","1","0","[]","0","2","","","4535","40","0","4","lose","no-go","0"
"pit-trial","162","1229294","0.0-45.0","battery-v0.2","","""event"",""trial"",""time""
""fullscreenenter"",""1"",""15661""
","
","
","""event"",""trial"",""time""
""fullscreenenter"",""1"",""15661""
","
","","","-1","","","19","4535","3172","r","elianto","#3366ff99"," ","-1","0","0","[3262.100000023842]","1","2","","","4535","41","1","1","win","go","0"
"pit-trial","163","1234160","0.0-46.0","battery-v0.2","","""event"",""trial"",""time""
""fullscreenenter"",""1"",""15661""
","
","
","""event"",""trial"",""time""
""fullscreenenter"",""1"",""15661""
","
","","","-1","","","19","4535","3172","m","elianto","#f73b6a7A","-1","-1","1","0","[]","0","2","","","4535","42","0","4","lose","no-go","0"
"pit-trial","164","1238398","0.0-47.0","battery-v0.2","","""event"",""trial"",""time""
""fullscreenenter"",""1"",""15661""
","
","
","""event"",""trial"",""time""
""fullscreenenter"",""1"",""15661""
","
","","","1375.6999999284744","","","19","4535","3172","h","elianto","#f73b6a7A"," "," ","1","-10","[2232]","1","2","","","4535","43","3","3","lose","go","1"
"pit-trial","165","1243258","0.0-48.0","battery-v0.2","","""event"",""trial"",""time""
""fullscreenenter"",""1"",""15661""
","
","
","""event"",""trial"",""time""
""fullscreenenter"",""1"",""15661""
","
","","","-1","","","19","4535","3172","y","elianto","#f73b6a7A","-1","-1","1","0","[]","0","2","","","4535","44","2","4","lose","no-go","0"
"pit-trial","166","1247191","0.0-49.0","battery-v0.2","","""event"",""trial"",""time""
""fullscreenenter"",""1"",""15661""
","
","
","""event"",""trial"",""time""
""fullscreenenter"",""1"",""15661""
","
","","","1057","","","19","4535","3172","h","elianto","#f73b6a7A"," "," ","1","-10","[1922.6999999284744]","1","2","","","4535","45","3","3","lose","go","1"
"pit-trial","167","1251399","0.0-50.0","battery-v0.2","","""event"",""trial"",""time""
""fullscreenenter"",""1"",""15661""
","
","
","""event"",""trial"",""time""
""fullscreenenter"",""1"",""15661""
","
","","","1344.9000000953674","","","19","4535","3172","z","elianto","#3366ff99","-1"," ","0","+10","[2196]","1","2","","","4535","46","4","2","win","no-go","1"
"pit-trial","168","1256263","0.0-51.0","battery-v0.2","","""event"",""trial"",""time""
""fullscreenenter"",""1"",""15661""
","
","
","""event"",""trial"",""time""
""fullscreenenter"",""1"",""15661""
","
","","","-1","","","19","4535","3172","y","elianto","#f73b6a7A","-1","-1","1","0","[]","0","2","","","4535","47","2","4","lose","no-go","0"
"pit-trial","169","1261126","0.0-52.0","battery-v0.2","","""event"",""trial"",""time""
""fullscreenenter"",""1"",""15661""
","
","
","""event"",""trial"",""time""
""fullscreenenter"",""1"",""15661""
","
","","","-1","","","19","4535","3172","m","elianto","#f73b6a7A","-1","-1","1","-10","[]","0","2","","","4535","48","0","4","lose","no-go","1"
"pit-trial","170","1265992","0.0-53.0","battery-v0.2","","""event"",""trial"",""time""
""fullscreenenter"",""1"",""15661""
","
","
","""event"",""trial"",""time""
""fullscreenenter"",""1"",""15661""
","
","","","-1","","","19","4535","3172","m","elianto","#f73b6a7A","-1","-1","1","0","[]","0","2","","","4535","49","0","4","lose","no-go","0"
"pit-trial","171","1270015","0.0-54.0","battery-v0.2","","""event"",""trial"",""time""
""fullscreenenter"",""1"",""15661""
","
","
","""event"",""trial"",""time""
""fullscreenenter"",""1"",""15661""
","
","","","1158.6000000238419","","","19","4535","3172","z","elianto","#3366ff99","-1"," ","0","0","[2009.2999999523163]","1","2","","","4535","50","4","2","win","no-go","0"
"pit-trial","172","1274494","0.0-55.0","battery-v0.2","","""event"",""trial"",""time""
""fullscreenenter"",""1"",""15661""
","
","
","""event"",""trial"",""time""
""fullscreenenter"",""1"",""15661""
","
","","","1621.2999999523163","","","19","4535","3172","h","elianto","#f73b6a7A"," "," ","1","0","[2474.399999976158]","1","2","","","4535","51","3","3","lose","go","0"
"pit-trial","173","1278919","0.0-56.0","battery-v0.2","","""event"",""trial"",""time""
""fullscreenenter"",""1"",""15661""
","
","
","""event"",""trial"",""time""
""fullscreenenter"",""1"",""15661""
","
","","","1564.2000000476837","","","19","4535","3172","r","elianto","#3366ff99"," "," ","1","+10","[2418.7000000476837]","1","2","","","4535","52","1","1","win","go","0"
"pit-trial","174","1282713","0.0-57.0","battery-v0.2","","""event"",""trial"",""time""
""fullscreenenter"",""1"",""15661""
","
","
","""event"",""trial"",""time""
""fullscreenenter"",""1"",""15661""
","
","","","927.8000000715256","","","19","4535","3172","r","elianto","#3366ff99"," "," ","1","0","[1780.3000000715256]","1","2","","","4535","53","1","1","win","go","1"
"pit-trial","175","1287607","0.0-58.0","battery-v0.2","","""event"",""trial"",""time""
""fullscreenenter"",""1"",""15661""
","
","
","""event"",""trial"",""time""
""fullscreenenter"",""1"",""15661""
","
","","","-1","","","19","4535","3172","m","elianto","#f73b6a7A","-1","-1","1","0","[]","0","2","","","4535","54","0","4","lose","no-go","0"
"pit-trial","176","1292471","0.0-59.0","battery-v0.2","","""event"",""trial"",""time""
""fullscreenenter"",""1"",""15661""
","
","
","""event"",""trial"",""time""
""fullscreenenter"",""1"",""15661""
","
","","","-1","","","19","4535","3172","y","elianto","#f73b6a7A","-1","-1","1","0","[]","0","2","","","4535","55","2","4","lose","no-go","0"
"pit-trial","177","1296174","0.0-60.0","battery-v0.2","","""event"",""trial"",""time""
""fullscreenenter"",""1"",""15661""
","
","
","""event"",""trial"",""time""
""fullscreenenter"",""1"",""15661""
","
","","","847.1000000238419","","","19","4535","3172","z","elianto","#3366ff99","-1"," ","0","+10","[1695.9000000953674]","1","2","","","4535","56","4","2","win","no-go","1"
"pit-trial","178","1300014","0.0-61.0","battery-v0.2","","""event"",""trial"",""time""
""fullscreenenter"",""1"",""15661""
","
","
","""event"",""trial"",""time""
""fullscreenenter"",""1"",""15661""
","
","","","980.8999999761581","","","19","4535","3172","h","elianto","#f73b6a7A"," "," ","1","0","[1833.2000000476837]","1","2","","","4535","57","3","3","lose","go","0"
"pit-trial","179","1304070","0.0-62.0","battery-v0.2","","""event"",""trial"",""time""
""fullscreenenter"",""1"",""15661""
","
","
","""event"",""trial"",""time""
""fullscreenenter"",""1"",""15661""
","
","","","1201.8999999761581","","","19","4535","3172","r","elianto","#3366ff99"," "," ","1","+10","[2053]","1","2","","","4535","58","1","1","win","go","0"
"pit-trial","180","1308006","0.0-63.0","battery-v0.2","","""event"",""trial"",""time""
""fullscreenenter"",""1"",""15661""
","
","
","""event"",""trial"",""time""
""fullscreenenter"",""1"",""15661""
","
","","","1069.7999999523163","","","19","4535","3172","z","elianto","#3366ff99","-1"," ","0","0","[1931.8000000715256]","1","2","","","4535","59","4","2","win","no-go","0"
"pit-trial","181","1312870","0.0-64.0","battery-v0.2","","""event"",""trial"",""time""
""fullscreenenter"",""1"",""15661""
","
","
","""event"",""trial"",""time""
""fullscreenenter"",""1"",""15661""
","
","","","-1","","","19","4535","3172","m","elianto","#f73b6a7A","-1","-1","1","0","[]","0","2","","","4535","60","0","4","lose","no-go","0"
"pit-trial","182","1316631","0.0-65.0","battery-v0.2","","""event"",""trial"",""time""
""fullscreenenter"",""1"",""15661""
","
","
","""event"",""trial"",""time""
""fullscreenenter"",""1"",""15661""
","
","","","894.6999999284744","","","19","4535","3172","h","elianto","#f73b6a7A"," "," ","1","-10","[1749.5]","1","2","","","4535","61","3","3","lose","go","1"
"pit-trial","183","1320591","0.0-66.0","battery-v0.2","","""event"",""trial"",""time""
""fullscreenenter"",""1"",""15661""
","
","
","""event"",""trial"",""time""
""fullscreenenter"",""1"",""15661""
","
","","","1100.3000000715256","","","19","4535","3172","z","elianto","#3366ff99","-1"," ","0","0","[1951.1000000238419]","1","2","","","4535","62","4","2","win","no-go","0"
"pit-trial","184","1324345","0.0-67.0","battery-v0.2","","""event"",""trial"",""time""
""fullscreenenter"",""1"",""15661""
","
","
","""event"",""trial"",""time""
""fullscreenenter"",""1"",""15661""
","
","","","887.6000000238419","","","19","4535","3172","r","elianto","#3366ff99"," "," ","1","+10","[1740.8999999761581]","1","2","","","4535","63","1","1","win","go","0"
"pit-trial","185","1329214","0.0-68.0","battery-v0.2","","""event"",""trial"",""time""
""fullscreenenter"",""1"",""15661""
","
","
","""event"",""trial"",""time""
""fullscreenenter"",""1"",""15661""
","
","","","-1","","","19","4535","3172","y","elianto","#f73b6a7A","-1","-1","1","0","[]","0","2","","","4535","64","2","4","lose","no-go","0"
"pit-trial","186","1332774","0.0-69.0","battery-v0.2","","""event"",""trial"",""time""
""fullscreenenter"",""1"",""15661""
","
","
","""event"",""trial"",""time""
""fullscreenenter"",""1"",""15661""
","
","","","697.2000000476837","","","19","4535","3172","h","elianto","#f73b6a7A"," "," ","1","0","[1555]","1","2","","","4535","65","3","3","lose","go","0"
"pit-trial","187","1336471","0.0-70.0","battery-v0.2","","""event"",""trial"",""time""
""fullscreenenter"",""1"",""15661""
","
","
","""event"",""trial"",""time""
""fullscreenenter"",""1"",""15661""
","
","","","838","","","19","4535","3172","r","elianto","#3366ff99"," "," ","1","0","[1692.2000000476837]","1","2","","","4535","66","1","1","win","go","1"
"pit-trial","188","1340039","0.0-71.0","battery-v0.2","","""event"",""trial"",""time""
""fullscreenenter"",""1"",""15661""
","
","
","""event"",""trial"",""time""
""fullscreenenter"",""1"",""15661""
","
","","","698.8999999761581","","","19","4535","3172","z","elianto","#3366ff99","-1"," ","0","0","[1557.7999999523163]","1","2","","","4535","67","4","2","win","no-go","0"
"pit-trial","189","1344912","0.0-72.0","battery-v0.2","","""event"",""trial"",""time""
""fullscreenenter"",""1"",""15661""
","
","
","""event"",""trial"",""time""
""fullscreenenter"",""1"",""15661""
","
","","","-1","","","19","4535","3172","y","elianto","#f73b6a7A","-1","-1","1","0","[]","0","2","","","4535","68","2","4","lose","no-go","0"
"pit-trial","190","1348527","0.0-73.0","battery-v0.2","","""event"",""trial"",""time""
""fullscreenenter"",""1"",""15661""
","
","
","""event"",""trial"",""time""
""fullscreenenter"",""1"",""15661""
","
","","","748","","","19","4535","3172","z","elianto","#3366ff99","-1"," ","0","0","[1609]","1","2","","","4535","69","4","2","win","no-go","0"
"pit-trial","191","1352198","0.0-74.0","battery-v0.2","","""event"",""trial"",""time""
""fullscreenenter"",""1"",""15661""
","
","
","""event"",""trial"",""time""
""fullscreenenter"",""1"",""15661""
","
","","","802.5","","","19","4535","3172","h","elianto","#f73b6a7A"," "," ","1","0","[1660.7000000476837]","1","2","","","4535","70","3","3","lose","go","0"
"pit-trial","192","1355849","0.0-75.0","battery-v0.2","","""event"",""trial"",""time""
""fullscreenenter"",""1"",""15661""
","
","
","""event"",""trial"",""time""
""fullscreenenter"",""1"",""15661""
","
","","","788.3999999761581","","","19","4535","3172","r","elianto","#3366ff99"," "," ","1","+10","[1639.2999999523163]","1","2","","","4535","71","1","1","win","go","0"
"pit-trial","193","1359775","0.0-76.0","battery-v0.2","","""event"",""trial"",""time""
""fullscreenenter"",""1"",""15661""
","
","
","""event"",""trial"",""time""
""fullscreenenter"",""1"",""15661""
","
","","","1054","","","19","4535","3172","c","elianto","#3366ff99"," "," ","1","+10","[1912]","1","2","","","4535","72","5","1","win","go","0"
"pit-trial","194","1363829","0.0-77.0","battery-v0.2","","""event"",""trial"",""time""
""fullscreenenter"",""1"",""15661""
","
","
","""event"",""trial"",""time""
""fullscreenenter"",""1"",""15661""
","
","","","1189.1000000238419","","","19","4535","3172","r","elianto","#3366ff99"," "," ","1","+10","[2039.1000000238419]","1","2","","","4535","73","1","1","win","go","0"
"pit-trial","195","1367902","0.0-78.0","battery-v0.2","","""event"",""trial"",""time""
""fullscreenenter"",""1"",""15661""
","
","
","""event"",""trial"",""time""
""fullscreenenter"",""1"",""15661""
","
","","","1207.2000000476837","","","19","4535","3172","h","elianto","#f73b6a7A"," "," ","1","0","[2064.7999999523163]","1","2","","","4535","74","3","3","lose","go","0"
"pit-trial","196","1371982","0.0-79.0","battery-v0.2","","""event"",""trial"",""time""
""fullscreenenter"",""1"",""15661""
","
","
","""event"",""trial"",""time""
""fullscreenenter"",""1"",""15661""
","
","","","1215.9000000953674","","","19","4535","3172","c","elianto","#3366ff99"," "," ","1","+10","[2069.8000000715256]","1","2","","","4535","75","5","1","win","go","0"
"pit-trial","197","1375950","0.0-80.0","battery-v0.2","","""event"",""trial"",""time""
""fullscreenenter"",""1"",""15661""
","
","
","""event"",""trial"",""time""
""fullscreenenter"",""1"",""15661""
","
","","","1109.7000000476837","","","19","4535","3172","z","elianto","#3366ff99","-1"," ","0","0","[1963]","1","2","","","4535","76","4","2","win","no-go","0"
"pit-trial","198","1379830","0.0-81.0","battery-v0.2","","""event"",""trial"",""time""
""fullscreenenter"",""1"",""15661""
","
","
","""event"",""trial"",""time""
""fullscreenenter"",""1"",""15661""
","
","","","1012","","","19","4535","3172","h","elianto","#f73b6a7A"," "," ","1","0","[1869.2000000476837]","1","2","","","4535","77","3","3","lose","go","0"
"pit-trial","199","1383605","0.0-82.0","battery-v0.2","","""event"",""trial"",""time""
""fullscreenenter"",""1"",""15661""
","
","
","""event"",""trial"",""time""
""fullscreenenter"",""1"",""15661""
","
","","","919.1999999284744","","","19","4535","3172","b","elianto","#f73b6a7A","-1"," ","0","0","[1770.5]","1","2","","","4535","78","6","4","lose","no-go","1"
"pit-trial","200","1387181","0.0-83.0","battery-v0.2","","""event"",""trial"",""time""
""fullscreenenter"",""1"",""15661""
","
","
","""event"",""trial"",""time""
""fullscreenenter"",""1"",""15661""
","
","","","716.5","","","19","4535","3172","c","elianto","#3366ff99"," "," ","1","+10","[1570]","1","2","","","4535","79","5","1","win","go","0"
"pit-trial","201","1391318","0.0-84.0","battery-v0.2","","""event"",""trial"",""time""
""fullscreenenter"",""1"",""15661""
","
","
","""event"",""trial"",""time""
""fullscreenenter"",""1"",""15661""
","
","","","1272.7999999523163","","","19","4535","3172","z","elianto","#3366ff99","-1"," ","0","+10","[2128.2000000476837]","1","2","","","4535","80","4","2","win","no-go","1"
"pit-trial","202","1395245","0.0-85.0","battery-v0.2","","""event"",""trial"",""time""
""fullscreenenter"",""1"",""15661""
","
","
","""event"",""trial"",""time""
""fullscreenenter"",""1"",""15661""
","
","","","1068.6000000238419","","","19","4535","3172","z","elianto","#3366ff99","-1"," ","0","0","[1920.2999999523163]","1","2","","","4535","81","4","2","win","no-go","0"
"pit-trial","203","1398982","0.0-86.0","battery-v0.2","","""event"",""trial"",""time""
""fullscreenenter"",""1"",""15661""
","
","
","""event"",""trial"",""time""
""fullscreenenter"",""1"",""15661""
","
","","","876","","","19","4535","3172","c","elianto","#3366ff99"," "," ","1","+10","[1728.5]","1","2","","","4535","82","5","1","win","go","0"
"pit-trial","204","1402854","0.0-87.0","battery-v0.2","","""event"",""trial"",""time""
""fullscreenenter"",""1"",""15661""
","
","
","""event"",""trial"",""time""
""fullscreenenter"",""1"",""15661""
","
","","","1013.9000000953674","","","19","4535","3172","b","elianto","#f73b6a7A","-1"," ","0","-10","[1864.5]","1","2","","","4535","83","6","4","lose","no-go","0"
"pit-trial","205","1406615","0.0-88.0","battery-v0.2","","""event"",""trial"",""time""
""fullscreenenter"",""1"",""15661""
","
","
","""event"",""trial"",""time""
""fullscreenenter"",""1"",""15661""
","
","","","898.8999999761581","","","19","4535","3172","t","elianto","#f73b6a7A"," "," ","1","-10","[1752.6999999284744]","1","2","","","4535","84","7","3","lose","go","1"
"pit-trial","206","1410298","0.0-89.0","battery-v0.2","","""event"",""trial"",""time""
""fullscreenenter"",""1"",""15661""
","
","
","""event"",""trial"",""time""
""fullscreenenter"",""1"",""15661""
","
","","","813.1000000238419","","","19","4535","3172","b","elianto","#f73b6a7A","-1"," ","0","-10","[1664.2999999523163]","1","2","","","4535","85","6","4","lose","no-go","0"
"pit-trial","207","1414214","0.0-90.0","battery-v0.2","","""event"",""trial"",""time""
""fullscreenenter"",""1"",""15661""
","
","
","""event"",""trial"",""time""
""fullscreenenter"",""1"",""15661""
","
","","","1052.3999999761581","","","19","4535","3172","c","elianto","#3366ff99"," "," ","1","0","[1904.5999999046326]","1","2","","","4535","86","5","1","win","go","1"
"pit-trial","208","1418038","0.0-91.0","battery-v0.2","","""event"",""trial"",""time""
""fullscreenenter"",""1"",""15661""
","
","
","""event"",""trial"",""time""
""fullscreenenter"",""1"",""15661""
","
","","","962.1999999284744","","","19","4535","3172","z","elianto","#3366ff99","-1"," ","0","0","[1814.1999999284744]","1","2","","","4535","87","4","2","win","no-go","0"
"pit-trial","209","1422902","0.0-92.0","battery-v0.2","","""event"",""trial"",""time""
""fullscreenenter"",""1"",""15661""
","
","
","""event"",""trial"",""time""
""fullscreenenter"",""1"",""15661""
","
","","","-1","","","19","4535","3172","t","elianto","#f73b6a7A"," ","-1","0","-10","[]","0","2","","","4535","88","7","3","lose","go","0"
"pit-trial","210","1426951","0.0-93.0","battery-v0.2","","""event"",""trial"",""time""
""fullscreenenter"",""1"",""15661""
","
","
","""event"",""trial"",""time""
""fullscreenenter"",""1"",""15661""
","
","","","1182.3999999761581","","","19","4535","3172","z","elianto","#3366ff99","-1"," ","0","0","[2042.8000000715256]","1","2","","","4535","89","4","2","win","no-go","0"
"pit-trial","211","1431816","0.0-94.0","battery-v0.2","","""event"",""trial"",""time""
""fullscreenenter"",""1"",""15661""
","
","
","""event"",""trial"",""time""
""fullscreenenter"",""1"",""15661""
","
","","","-1","","","19","4535","3172","b","elianto","#f73b6a7A","-1","-1","1","0","[]","0","2","","","4535","90","6","4","lose","no-go","0"
"pit-trial","212","1436679","0.0-95.0","battery-v0.2","","""event"",""trial"",""time""
""fullscreenenter"",""1"",""15661""
","
","
","""event"",""trial"",""time""
""fullscreenenter"",""1"",""15661""
","
","","","-1","","","19","4535","3172","t","elianto","#f73b6a7A"," ","-1","0","-10","[]","0","2","","","4535","91","7","3","lose","go","0"
"pit-trial","213","1440608","0.0-96.0","battery-v0.2","","""event"",""trial"",""time""
""fullscreenenter"",""1"",""15661""
","
","
","""event"",""trial"",""time""
""fullscreenenter"",""1"",""15661""
","
","","","1069.5","","","19","4535","3172","c","elianto","#3366ff99"," "," ","1","+10","[1920.6999999284744]","1","2","","","4535","92","5","1","win","go","0"
"pit-trial","214","1444530","0.0-97.0","battery-v0.2","","""event"",""trial"",""time""
""fullscreenenter"",""1"",""15661""
","
","
","""event"",""trial"",""time""
""fullscreenenter"",""1"",""15661""
","
","","","1052.6000000238419","","","19","4535","3172","c","elianto","#3366ff99"," "," ","1","+10","[1908.8999999761581]","1","2","","","4535","93","5","1","win","go","0"
"pit-trial","215","1448311","0.0-98.0","battery-v0.2","","""event"",""trial"",""time""
""fullscreenenter"",""1"",""15661""
","
","
","""event"",""trial"",""time""
""fullscreenenter"",""1"",""15661""
","
","","","918.6000000238419","","","19","4535","3172","f","elianto","#3366ff99","-1"," ","0","0","[1770.5]","1","2","","","4535","94","8","2","win","no-go","0"
"pit-trial","216","1452471","0.0-99.0","battery-v0.2","","""event"",""trial"",""time""
""fullscreenenter"",""1"",""15661""
","
","
","""event"",""trial"",""time""
""fullscreenenter"",""1"",""15661""
","
","","","1289.8999999761581","","","19","4535","3172","t","elianto","#f73b6a7A"," "," ","1","0","[2147.6999999284744]","1","2","","","4535","95","7","3","lose","go","0"
"pit-trial","217","1457336","0.0-100.0","battery-v0.2","","""event"",""trial"",""time""
""fullscreenenter"",""1"",""15661""
","
","
","""event"",""trial"",""time""
""fullscreenenter"",""1"",""15661""
","
","","","-1","","","19","4535","3172","b","elianto","#f73b6a7A","-1","-1","1","0","[]","0","2","","","4535","96","6","4","lose","no-go","0"
"pit-trial","218","1461079","0.0-101.0","battery-v0.2","","""event"",""trial"",""time""
""fullscreenenter"",""1"",""15661""
","
","
","""event"",""trial"",""time""
""fullscreenenter"",""1"",""15661""
","
","","","882.7999999523163","","","19","4535","3172","c","elianto","#3366ff99"," "," ","1","+10","[1734.5]","1","2","","","4535","97","5","1","win","go","0"
"pit-trial","219","1465214","0.0-102.0","battery-v0.2","","""event"",""trial"",""time""
""fullscreenenter"",""1"",""15661""
","
","
","""event"",""trial"",""time""
""fullscreenenter"",""1"",""15661""
","
","","","1274.1999999284744","","","19","4535","3172","t","elianto","#f73b6a7A"," "," ","1","0","[2126.9000000953674]","1","2","","","4535","98","7","3","lose","go","0"
"pit-trial","220","1470078","0.0-103.0","battery-v0.2","","""event"",""trial"",""time""
""fullscreenenter"",""1"",""15661""
","
","
","""event"",""trial"",""time""
""fullscreenenter"",""1"",""15661""
","
","","","-1","","","19","4535","3172","b","elianto","#f73b6a7A","-1","-1","1","0","[]","0","2","","","4535","99","6","4","lose","no-go","0"
"pit-trial","221","1474182","0.0-104.0","battery-v0.2","","""event"",""trial"",""time""
""fullscreenenter"",""1"",""15661""
","
","
","""event"",""trial"",""time""
""fullscreenenter"",""1"",""15661""
","
","","","1240.7999999523163","","","19","4535","3172","f","elianto","#3366ff99","-1"," ","0","0","[2094.7000000476837]","1","2","","","4535","100","8","2","win","no-go","0"
"pit-trial","222","1478039","0.0-105.0","battery-v0.2","","""event"",""trial"",""time""
""fullscreenenter"",""1"",""15661""
","
","
","""event"",""trial"",""time""
""fullscreenenter"",""1"",""15661""
","
","","","997.7999999523163","","","19","4535","3172","f","elianto","#3366ff99","-1"," ","0","0","[1852.1999999284744]","1","2","","","4535","101","8","2","win","no-go","0"
"pit-trial","223","1481750","0.0-106.0","battery-v0.2","","""event"",""trial"",""time""
""fullscreenenter"",""1"",""15661""
","
","
","""event"",""trial"",""time""
""fullscreenenter"",""1"",""15661""
","
","","","849.2999999523163","","","19","4535","3172","c","elianto","#3366ff99"," "," ","1","+10","[1699.7999999523163]","1","2","","","4535","102","5","1","win","go","0"
"pit-trial","224","1485447","0.0-107.0","battery-v0.2","","""event"",""trial"",""time""
""fullscreenenter"",""1"",""15661""
","
","
","""event"",""trial"",""time""
""fullscreenenter"",""1"",""15661""
","
","","","834.2000000476837","","","19","4535","3172","n","elianto","#3366ff99","-1"," ","0","0","[1686.8999999761581]","1","2","","","4535","103","9","2","win","no-go","0"
"pit-trial","225","1490311","0.0-108.0","battery-v0.2","","""event"",""trial"",""time""
""fullscreenenter"",""1"",""15661""
","
","
","""event"",""trial"",""time""
""fullscreenenter"",""1"",""15661""
","
","","","-1","","","19","4535","3172","b","elianto","#f73b6a7A","-1","-1","1","-10","[]","0","2","","","4535","104","6","4","lose","no-go","1"
"pit-trial","226","1495175","0.0-109.0","battery-v0.2","","""event"",""trial"",""time""
""fullscreenenter"",""1"",""15661""
","
","
","""event"",""trial"",""time""
""fullscreenenter"",""1"",""15661""
","
","","","-1","","","19","4535","3172","b","elianto","#f73b6a7A","-1","-1","1","0","[]","0","2","","","4535","105","6","4","lose","no-go","0"
"pit-trial","227","1499191","0.0-110.0","battery-v0.2","","""event"",""trial"",""time""
""fullscreenenter"",""1"",""15661""
","
","
","""event"",""trial"",""time""
""fullscreenenter"",""1"",""15661""
","
","","","1153.2000000476837","","","19","4535","3172","f","elianto","#3366ff99","-1"," ","0","0","[2005.7999999523163]","1","2","","","4535","106","8","2","win","no-go","0"
"pit-trial","228","1502883","0.0-111.0","battery-v0.2","","""event"",""trial"",""time""
""fullscreenenter"",""1"",""15661""
","
","
","""event"",""trial"",""time""
""fullscreenenter"",""1"",""15661""
","
","","","825.5","","","19","4535","3172","n","elianto","#3366ff99","-1"," ","0","0","[1679.0999999046326]","1","2","","","4535","107","9","2","win","no-go","0"
"pit-trial","229","1507024","0.0-112.0","battery-v0.2","","""event"",""trial"",""time""
""fullscreenenter"",""1"",""15661""
","
","
","""event"",""trial"",""time""
""fullscreenenter"",""1"",""15661""
","
","","","1272.3999999761581","","","19","4535","3172","c","elianto","#3366ff99"," "," ","1","+10","[2128.6999999284744]","1","2","","","4535","108","5","1","win","go","0"
"pit-trial","230","1510959","0.0-113.0","battery-v0.2","","""event"",""trial"",""time""
""fullscreenenter"",""1"",""15661""
","
","
","""event"",""trial"",""time""
""fullscreenenter"",""1"",""15661""
","
","","","1074.1000000238419","","","19","4535","3172","c","elianto","#3366ff99"," "," ","1","+10","[1930.6000000238419]","1","2","","","4535","109","5","1","win","go","0"
"pit-trial","231","1514711","0.0-114.0","battery-v0.2","","""event"",""trial"",""time""
""fullscreenenter"",""1"",""15661""
","
","
","""event"",""trial"",""time""
""fullscreenenter"",""1"",""15661""
","
","","","889.8000000715256","","","19","4535","3172","f","elianto","#3366ff99","-1"," ","0","0","[1742.3999999761581]","1","2","","","4535","110","8","2","win","no-go","0"
"pit-trial","232","1518591","0.0-115.0","battery-v0.2","","""event"",""trial"",""time""
""fullscreenenter"",""1"",""15661""
","
","
","""event"",""trial"",""time""
""fullscreenenter"",""1"",""15661""
","
","","","1008.8999999761581","","","19","4535","3172","b","elianto","#f73b6a7A","-1"," ","0","-10","[1872.5]","1","2","","","4535","111","6","4","lose","no-go","0"
"pit-trial","233","1522327","0.0-116.0","battery-v0.2","","""event"",""trial"",""time""
""fullscreenenter"",""1"",""15661""
","
","
","""event"",""trial"",""time""
""fullscreenenter"",""1"",""15661""
","
","","","874.7999999523163","","","19","4535","3172","n","elianto","#3366ff99","-1"," ","0","+10","[1728.2999999523163]","1","2","","","4535","112","9","2","win","no-go","1"
"pit-trial","234","1525983","0.0-117.0","battery-v0.2","","""event"",""trial"",""time""
""fullscreenenter"",""1"",""15661""
","
","
","""event"",""trial"",""time""
""fullscreenenter"",""1"",""15661""
","
","","","793","","","19","4535","3172","t","elianto","#f73b6a7A"," "," ","1","0","[1644]","1","2","","","4535","113","7","3","lose","go","0"
"pit-trial","235","1529798","0.0-118.0","battery-v0.2","","""event"",""trial"",""time""
""fullscreenenter"",""1"",""15661""
","
","
","""event"",""trial"",""time""
""fullscreenenter"",""1"",""15661""
","
","","","944.1000000238419","","","19","4535","3172","c","elianto","#3366ff99"," "," ","1","0","[1812.1000000238419]","1","2","","","4535","114","5","1","win","go","1"
"pit-trial","236","1533398","0.0-119.0","battery-v0.2","","""event"",""trial"",""time""
""fullscreenenter"",""1"",""15661""
","
","
","""event"",""trial"",""time""
""fullscreenenter"",""1"",""15661""
","
","","","734.2999999523163","","","19","4535","3172","n","elianto","#3366ff99","-1"," ","0","0","[1592.2999999523163]","1","2","","","4535","115","9","2","win","no-go","0"
"pit-trial","237","1537218","0.0-120.0","battery-v0.2","","""event"",""trial"",""time""
""fullscreenenter"",""1"",""15661""
","
","
","""event"",""trial"",""time""
""fullscreenenter"",""1"",""15661""
","
","","","939.7999999523163","","","19","4535","3172","f","elianto","#3366ff99","-1"," ","0","0","[1802.1000000238419]","1","2","","","4535","116","8","2","win","no-go","0"
"pit-trial","238","1540967","0.0-121.0","battery-v0.2","","""event"",""trial"",""time""
""fullscreenenter"",""1"",""15661""
","
","
","""event"",""trial"",""time""
""fullscreenenter"",""1"",""15661""
","
","","","877.6999999284744","","","19","4535","3172","b","elianto","#f73b6a7A","-1"," ","0","-10","[1740.2000000476837]","1","2","","","4535","117","6","4","lose","no-go","0"
"pit-trial","239","1544625","0.0-122.0","battery-v0.2","","""event"",""trial"",""time""
""fullscreenenter"",""1"",""15661""
","
","
","""event"",""trial"",""time""
""fullscreenenter"",""1"",""15661""
","
","","","784.3000000715256","","","19","4535","3172","f","elianto","#3366ff99","-1"," ","0","+10","[1638]","1","2","","","4535","118","8","2","win","no-go","1"
"pit-trial","240","1548383","0.0-123.0","battery-v0.2","","""event"",""trial"",""time""
""fullscreenenter"",""1"",""15661""
","
","
","""event"",""trial"",""time""
""fullscreenenter"",""1"",""15661""
","
","","","891.5999999046326","","","19","4535","3172","n","elianto","#3366ff99","-1"," ","0","0","[1748.6000000238419]","1","2","","","4535","119","9","2","win","no-go","0"
"pit-trial","241","1552054","0.0-124.0","battery-v0.2","","""event"",""trial"",""time""
""fullscreenenter"",""1"",""15661""
","
","
","""event"",""trial"",""time""
""fullscreenenter"",""1"",""15661""
","
","","","792.2000000476837","","","19","4535","3172","c","elianto","#3366ff99"," "," ","1","+10","[1663.8999999761581]","1","2","","","4535","120","5","1","win","go","0"
"pit-trial","242","1555982","0.0-125.0","battery-v0.2","","""event"",""trial"",""time""
""fullscreenenter"",""1"",""15661""
","
","
","""event"",""trial"",""time""
""fullscreenenter"",""1"",""15661""
","
","","","1067.1999999284744","","","19","4535","3172","c","elianto","#3366ff99"," "," ","1","+10","[1920.5999999046326]","1","2","","","4535","121","5","1","win","go","0"
"pit-trial","243","1559663","0.0-126.0","battery-v0.2","","""event"",""trial"",""time""
""fullscreenenter"",""1"",""15661""
","
","
","""event"",""trial"",""time""
""fullscreenenter"",""1"",""15661""
","
","","","817.6000000238419","","","19","4535","3172","f","elianto","#3366ff99","-1"," ","0","+10","[1672]","1","2","","","4535","122","8","2","win","no-go","1"
"pit-trial","244","1563392","0.0-127.0","battery-v0.2","","""event"",""trial"",""time""
""fullscreenenter"",""1"",""15661""
","
","
","""event"",""trial"",""time""
""fullscreenenter"",""1"",""15661""
","
","","","870.5","","","19","4535","3172","n","elianto","#3366ff99","-1"," ","0","0","[1723.5]","1","2","","","4535","123","9","2","win","no-go","0"
"pit-trial","245","1567328","0.0-128.0","battery-v0.2","","""event"",""trial"",""time""
""fullscreenenter"",""1"",""15661""
","
","
","""event"",""trial"",""time""
""fullscreenenter"",""1"",""15661""
","
","","","1074","","","19","4535","3172","t","elianto","#f73b6a7A"," "," ","1","0","[1924.1999999284744]","1","2","","","4535","124","7","3","lose","go","0"
"pit-trial","246","1572191","0.0-129.0","battery-v0.2","","""event"",""trial"",""time""
""fullscreenenter"",""1"",""15661""
","
","
","""event"",""trial"",""time""
""fullscreenenter"",""1"",""15661""
","
","","","-1","","","19","4535","3172","b","elianto","#f73b6a7A","-1","-1","1","0","[]","0","2","","","4535","125","6","4","lose","no-go","0"
"pit-trial","247","1577054","0.0-130.0","battery-v0.2","","""event"",""trial"",""time""
""fullscreenenter"",""1"",""15661""
","
","
","""event"",""trial"",""time""
""fullscreenenter"",""1"",""15661""
","
","","","-1","","","19","4535","3172","f","elianto","#3366ff99","-1","-1","1","+10","[2968.7000000476837]","1","2","","","4535","126","8","2","win","no-go","0"
"pit-trial","248","1580391","0.0-131.0","battery-v0.2","","""event"",""trial"",""time""
""fullscreenenter"",""1"",""15661""
","
","
","""event"",""trial"",""time""
""fullscreenenter"",""1"",""15661""
","
","","","475.7999999523163","","","19","4535","3172","t","elianto","#f73b6a7A"," "," ","1","0","[1327.7999999523163]","1","2","","","4535","127","7","3","lose","go","0"
"pit-trial","249","1584134","0.0-132.0","battery-v0.2","","""event"",""trial"",""time""
""fullscreenenter"",""1"",""15661""
","
","
","""event"",""trial"",""time""
""fullscreenenter"",""1"",""15661""
","
","","","878.2999999523163","","","19","4535","3172","n","elianto","#3366ff99","-1"," ","0","0","[1732.7999999523163]","1","2","","","4535","128","9","2","win","no-go","0"
"pit-trial","250","1588295","0.0-133.0","battery-v0.2","","""event"",""trial"",""time""
""fullscreenenter"",""1"",""15661""
","
","
","""event"",""trial"",""time""
""fullscreenenter"",""1"",""15661""
","
","","","1303.3000000715256","","","19","4535","3172","n","elianto","#3366ff99","-1"," ","0","0","[2153.8000000715256]","1","2","","","4535","129","9","2","win","no-go","0"
"pit-trial","251","1593159","0.0-134.0","battery-v0.2","","""event"",""trial"",""time""
""fullscreenenter"",""1"",""15661""
","
","
","""event"",""trial"",""time""
""fullscreenenter"",""1"",""15661""
","
","","","-1","","","19","4535","3172","b","elianto","#f73b6a7A","-1","-1","1","0","[]","0","2","","","4535","130","6","4","lose","no-go","0"
"pit-trial","252","1596839","0.0-135.0","battery-v0.2","","""event"",""trial"",""time""
""fullscreenenter"",""1"",""15661""
","
","
","""event"",""trial"",""time""
""fullscreenenter"",""1"",""15661""
","
","","","817.1000000238419","","","19","4535","3172","f","elianto","#3366ff99","-1"," ","0","0","[1668.1000000238419]","1","2","","","4535","131","8","2","win","no-go","0"
"pit-trial","253","1600342","0.0-136.0","battery-v0.2","","""event"",""trial"",""time""
""fullscreenenter"",""1"",""15661""
","
","
","""event"",""trial"",""time""
""fullscreenenter"",""1"",""15661""
","
","","","641.1000000238419","","","19","4535","3172","t","elianto","#f73b6a7A"," "," ","1","0","[1496.2999999523163]","1","2","","","4535","132","7","3","lose","go","0"
"pit-trial","254","1603894","0.0-137.0","battery-v0.2","","""event"",""trial"",""time""
""fullscreenenter"",""1"",""15661""
","
","
","""event"",""trial"",""time""
""fullscreenenter"",""1"",""15661""
","
","","","685.3999999761581","","","19","4535","3172","f","elianto","#3366ff99","-1"," ","0","0","[1542.3999999761581]","1","2","","","4535","133","8","2","win","no-go","0"
"pit-trial","255","1608758","0.0-138.0","battery-v0.2","","""event"",""trial"",""time""
""fullscreenenter"",""1"",""15661""
","
","
","""event"",""trial"",""time""
""fullscreenenter"",""1"",""15661""
","
","","","-1","","","19","4535","3172","b","elianto","#f73b6a7A","-1","-1","1","0","[]","0","2","","","4535","134","6","4","lose","no-go","0"
"pit-trial","256","1612846","0.0-139.0","battery-v0.2","","""event"",""trial"",""time""
""fullscreenenter"",""1"",""15661""
","
","
","""event"",""trial"",""time""
""fullscreenenter"",""1"",""15661""
","
","","","1226.1000000238419","","","19","4535","3172","n","elianto","#3366ff99","-1"," ","0","0","[2077.600000023842]","1","2","","","4535","135","9","2","win","no-go","0"
"pit-trial","257","1616737","0.0-140.0","battery-v0.2","","""event"",""trial"",""time""
""fullscreenenter"",""1"",""15661""
","
","
","""event"",""trial"",""time""
""fullscreenenter"",""1"",""15661""
","
","","","1022","","","19","4535","3172","t","elianto","#f73b6a7A"," "," ","1","0","[1882.5]","1","2","","","4535","136","7","3","lose","go","0"
"pit-trial","258","1621606","0.0-141.0","battery-v0.2","","""event"",""trial"",""time""
""fullscreenenter"",""1"",""15661""
","
","
","""event"",""trial"",""time""
""fullscreenenter"",""1"",""15661""
","
","","","-1","","","19","4535","3172","b","elianto","#f73b6a7A","-1","-1","1","-10","[]","0","2","","","4535","137","6","4","lose","no-go","1"
"pit-trial","259","1625839","0.0-142.0","battery-v0.2","","""event"",""trial"",""time""
""fullscreenenter"",""1"",""15661""
","
","
","""event"",""trial"",""time""
""fullscreenenter"",""1"",""15661""
","
","","","1372.5","","","19","4535","3172","f","elianto","#3366ff99","-1"," ","0","+10","[2225.2999999523163]","1","2","","","4535","138","8","2","win","no-go","1"
"pit-trial","260","1629863","0.0-143.0","battery-v0.2","","""event"",""trial"",""time""
""fullscreenenter"",""1"",""15661""
","
","
","""event"",""trial"",""time""
""fullscreenenter"",""1"",""15661""
","
","","","1157.1000000238419","","","19","4535","3172","t","elianto","#f73b6a7A"," "," ","1","0","[2012.1000000238419]","1","2","","","4535","139","7","3","lose","go","0"
"pit-trial","261","1633646","0.0-144.0","battery-v0.2","","""event"",""trial"",""time""
""fullscreenenter"",""1"",""15661""
","
","
","""event"",""trial"",""time""
""fullscreenenter"",""1"",""15661""
","
","","","924.5","","","19","4535","3172","n","elianto","#3366ff99","-1"," ","0","0","[1778.5]","1","2","","","4535","140","9","2","win","no-go","0"
"pit-instructions","262","1671905","0.0-145.0","battery-v0.2","","""event"",""trial"",""time""
""fullscreenenter"",""1"",""15661""
","
","
","""event"",""trial"",""time""
""fullscreenenter"",""1"",""15661""
","
","","[{""page_index"":0,""viewing_time"":28306.5},{""page_index"":1,""viewing_time"":9951}]","38258.299999952316","","","","","","","","","","","","","","","","","","","","","","","",""
"pit-trial","263","1675951","0.0-146.0","battery-v0.2","","""event"",""trial"",""time""
""fullscreenenter"",""1"",""15661""
","
","
","""event"",""trial"",""time""
""fullscreenenter"",""1"",""15661""
","
