"trial_type","trial_index","time_elapsed","internal_node_id","task_version","subject_id","interactions","blur_events","focus_events","fullscreenenter_events","fullscreenexit_events","success","view_history","rt","responses","num_errors","age","subject","participantId","rune","rune_set","hex","correct","choice","accuracy","outcome","keys","total_keys","block","practice","value","sub","trial","stimulus","robot","valence","action","sham"
"pavlovia","0","7","0.0-0.0","battery-v0.2","","""event"",""trial"",""time""
""fullscreenenter"",""1"",""1690""
","
","
","""event"",""trial"",""time""
""fullscreenenter"",""1"",""1690""
","
","","","","","","","","","","","","","","","","","","","","","","","","","","",""
"fullscreen","1","2678","0.0-1.0","battery-v0.2","","""event"",""trial"",""time""
""fullscreenenter"",""1"",""1690""
""fullscreenexit"",""2"",""8756""
","
","
","""event"",""trial"",""time""
""fullscreenenter"",""1"",""1690""
","""event"",""trial"",""time""
""fullscreenexit"",""2"",""8756""
","true","","","","","","","","","","","","","","","","","","","","","","","","","",""
"pit-instructions","2","19099","0.0-2.0-0.0","battery-v0.2","","""event"",""trial"",""time""
""fullscreenenter"",""1"",""1690""
""fullscreenexit"",""2"",""8756""
","
","
","""event"",""trial"",""time""
""fullscreenenter"",""1"",""1690""
","""event"",""trial"",""time""
""fullscreenexit"",""2"",""8756""
","","[{""page_index"":0,""viewing_time"":16416.60000038147}]","16417.400000095367","","","","","","","","","","","","","","","","","","","","","","","",""
"pit-comprehension","3","30138","0.0-2.0-1.0-0.0","battery-v0.2","","""event"",""trial"",""time""
""fullscreenenter"",""1"",""1690""
""fullscreenexit"",""2"",""8756""
","
","
","""event"",""trial"",""time""
""fullscreenenter"",""1"",""1690""
","""event"",""trial"",""time""
""fullscreenexit"",""2"",""8756""
","","","11036.099999904633","[""fish""]","1","21","5132","3161","","","","","","","","","","","","","","","","","","",""
"pit-instructions","4","31724","0.0-2.0-1.0-1.0","battery-v0.2","","""event"",""trial"",""time""
""fullscreenenter"",""1"",""1690""
""fullscreenexit"",""2"",""8756""
","
","
","""event"",""trial"",""time""
""fullscreenenter"",""1"",""1690""
","""event"",""trial"",""time""
""fullscreenexit"",""2"",""8756""
","","[{""page_index"":0,""viewing_time"":1575.6999998092651}]","1576.2999997138977","","","","","","","","","","","","","","","","","","","","","","","",""
"pit-instructions","5","36859","0.0-2.0-1.0-2.0-0.0","battery-v0.2","","""event"",""trial"",""time""
""fullscreenenter"",""1"",""1690""
""fullscreenexit"",""2"",""8756""
","
","
","""event"",""trial"",""time""
""fullscreenenter"",""1"",""1690""
","""event"",""trial"",""time""
""fullscreenexit"",""2"",""8756""
","","[{""page_index"":0,""viewing_time"":5131.599999904633}]","5132.200000286102","","","","","","","","","","","","","","","","","","","","","","","",""
"pit-comprehension","6","42405","0.0-2.0-1.1-0.1","battery-v0.2","","""event"",""trial"",""time""
""fullscreenenter"",""1"",""1690""
""fullscreenexit"",""2"",""8756""
","
","
","""event"",""trial"",""time""
""fullscreenenter"",""1"",""1690""
","""event"",""trial"",""time""
""fullscreenexit"",""2"",""8756""
","","","5541.5","[""shark""]","0","21","5132","3161","","","","","","","","","","","","","","","","","","",""
"pit-instructions","7","44244","0.0-2.0-1.1-1.1","battery-v0.2","","""event"",""trial"",""time""
""fullscreenenter"",""1"",""1690""
""fullscreenexit"",""2"",""8756""
","
","
","""event"",""trial"",""time""
""fullscreenenter"",""1"",""1690""
","""event"",""trial"",""time""
""fullscreenexit"",""2"",""8756""
","","[{""page_index"":0,""viewing_time"":1833.9000000953674}]","1834.5999999046326","","","","","","","","","","","","","","","","","","","","","","","",""
"pit-comprehension","8","46398","0.0-2.0-2.0-0.0","battery-v0.2","","""event"",""trial"",""time""
""fullscreenenter"",""1"",""1690""
""fullscreenexit"",""2"",""8756""
","
","
","""event"",""trial"",""time""
""fullscreenenter"",""1"",""1690""
","""event"",""trial"",""time""
""fullscreenexit"",""2"",""8756""
","","","2148.5","[""tiger""]","0","21","5132","3161","","","","","","","","","","","","","","","","","","",""
"pit-instructions","9","49739","0.0-2.0-2.0-1.0","battery-v0.2","","""event"",""trial"",""time""
""fullscreenenter"",""1"",""1690""
""fullscreenexit"",""2"",""8756""
""blur"",""10"",""124107""
""focus"",""10"",""140829""
","""event"",""trial"",""time""
""blur"",""10"",""124107""
","""event"",""trial"",""time""
""focus"",""10"",""140829""
","""event"",""trial"",""time""
""fullscreenenter"",""1"",""1690""
","""event"",""trial"",""time""
""fullscreenexit"",""2"",""8756""
","","[{""page_index"":0,""viewing_time"":3335.300000190735}]","3335.800000190735","","","","","","","","","","","","","","","","","","","","","","","",""
"pit-instructions","10","165777","0.0-2.0-3.0","battery-v0.2","","""event"",""trial"",""time""
""fullscreenenter"",""1"",""1690""
""fullscreenexit"",""2"",""8756""
""blur"",""10"",""124107""
""focus"",""10"",""140829""
","""event"",""trial"",""time""
""blur"",""10"",""124107""
","""event"",""trial"",""time""
""focus"",""10"",""140829""
","""event"",""trial"",""time""
""fullscreenenter"",""1"",""1690""
","""event"",""trial"",""time""
""fullscreenexit"",""2"",""8756""
","","[{""page_index"":0,""viewing_time"":8189.300000190735},{""page_index"":1,""viewing_time"":5607.599999904633},{""page_index"":2,""viewing_time"":8192.200000286102},{""page_index"":3,""viewing_time"":5981.89999961853},{""page_index"":4,""viewing_time"":6090.700000286102},{""page_index"":5,""viewing_time"":5046.099999904633},{""page_index"":6,""viewing_time"":12200.900000095367},{""page_index"":7,""viewing_time"":6591.199999809265},{""page_index"":8,""viewing_time"":6472.900000095367},{""page_index"":9,""viewing_time"":7965.599999904633},{""page_index"":10,""viewing_time"":26267},{""page_index"":11,""viewing_time"":6215.300000190735},{""page_index"":12,""viewing_time"":6456},{""page_index"":13,""viewing_time"":4760.099999904633}]","116037.7000002861","","","","","","","","","","","","","","","","","","","","","","","",""
"pit-trial","11","169805","0.0-2.0-4.0-0.0","battery-v0.2","","""event"",""trial"",""time""
""fullscreenenter"",""1"",""1690""
""fullscreenexit"",""2"",""8756""
""blur"",""10"",""124107""
""focus"",""10"",""140829""
","""event"",""trial"",""time""
""blur"",""10"",""124107""
","""event"",""trial"",""time""
""focus"",""10"",""140829""
","""event"",""trial"",""time""
""fullscreenenter"",""1"",""1690""
","""event"",""trial"",""time""
""fullscreenexit"",""2"",""8756""
","","","1157.8999996185303","","","21","5132","3161","&#9784;","elianto","#FFFFF080"," "," ","1","&#10004","[2010.4000000953674]","1","0","0","","","","","","","",""
"pit-trial","12","173576","0.0-2.0-4.1-0.1","battery-v0.2","","""event"",""trial"",""time""
""fullscreenenter"",""1"",""1690""
""fullscreenexit"",""2"",""8756""
""blur"",""10"",""124107""
""focus"",""10"",""140829""
","""event"",""trial"",""time""
""blur"",""10"",""124107""
","""event"",""trial"",""time""
""focus"",""10"",""140829""
","""event"",""trial"",""time""
""fullscreenenter"",""1"",""1690""
","""event"",""trial"",""time""
""fullscreenexit"",""2"",""8756""
","","","897.0999999046326","","","21","5132","3161","&#9784;","elianto","#FFFFF080"," "," ","1","&#10004","[1750.5]","1","0","0","","","","","","","",""
"pit-trial","13","177286","0.0-2.0-4.2-0.2","battery-v0.2","","""event"",""trial"",""time""
""fullscreenenter"",""1"",""1690""
""fullscreenexit"",""2"",""8756""
""blur"",""10"",""124107""
""focus"",""10"",""140829""
","""event"",""trial"",""time""
""blur"",""10"",""124107""
","""event"",""trial"",""time""
""focus"",""10"",""140829""
","""event"",""trial"",""time""
""fullscreenenter"",""1"",""1690""
","""event"",""trial"",""time""
""fullscreenexit"",""2"",""8756""
","","","824.5999999046326","","","21","5132","3161","&#9784;","elianto","#FFFFF080"," "," ","1","&#10004","[1678.8000001907349]","1","0","0","","","","","","","",""
"pit-trial","14","180565","0.0-2.0-4.3-0.3","battery-v0.2","","""event"",""trial"",""time""
""fullscreenenter"",""1"",""1690""
""fullscreenexit"",""2"",""8756""
""blur"",""10"",""124107""
""focus"",""10"",""140829""
","""event"",""trial"",""time""
""blur"",""10"",""124107""
","""event"",""trial"",""time""
""focus"",""10"",""140829""
","""event"",""trial"",""time""
""fullscreenenter"",""1"",""1690""
","""event"",""trial"",""time""
""fullscreenexit"",""2"",""8756""
","","","396.3999996185303","","","21","5132","3161","&#9784;","elianto","#FFFFF080"," "," ","1","&#10004","[1257.5]","1","0","0","","","","","","","",""
"pit-trial","15","183885","0.0-2.0-4.4-0.4","battery-v0.2","","""event"",""trial"",""time""
""fullscreenenter"",""1"",""1690""
""fullscreenexit"",""2"",""8756""
""blur"",""10"",""124107""
""focus"",""10"",""140829""
","""event"",""trial"",""time""
""blur"",""10"",""124107""
","""event"",""trial"",""time""
""focus"",""10"",""140829""
","""event"",""trial"",""time""
""fullscreenenter"",""1"",""1690""
","""event"",""trial"",""time""
""fullscreenexit"",""2"",""8756""
","","","450","","","21","5132","3161","&#9784;","elianto","#FFFFF080"," "," ","1","&#10004","[1300.1999998092651]","1","0","0","","","","","","","",""
"pit-instructions","16","204824","0.0-2.0-5.0","battery-v0.2","","""event"",""trial"",""time""
""fullscreenenter"",""1"",""1690""
""fullscreenexit"",""2"",""8756""
""blur"",""10"",""124107""
""focus"",""10"",""140829""
","""event"",""trial"",""time""
""blur"",""10"",""124107""
","""event"",""trial"",""time""
""focus"",""10"",""140829""
","""event"",""trial"",""time""
""fullscreenenter"",""1"",""1690""
","""event"",""trial"",""time""
""fullscreenexit"",""2"",""8756""
","","[{""page_index"":0,""viewing_time"":4701.900000095367},{""page_index"":1,""viewing_time"":5336.099999904633},{""page_index"":2,""viewing_time"":4824},{""page_index"":3,""viewing_time"":6071.900000095367}]","20934.900000095367","","","","","","","","","","","","","","","","","","","","","","","",""
"pit-trial","17","209714","0.0-2.0-6.0-0.0","battery-v0.2","","""event"",""trial"",""time""
""fullscreenenter"",""1"",""1690""
""fullscreenexit"",""2"",""8756""
""blur"",""10"",""124107""
""focus"",""10"",""140829""
","""event"",""trial"",""time""
""blur"",""10"",""124107""
","""event"",""trial"",""time""
""focus"",""10"",""140829""
","""event"",""trial"",""time""
""fullscreenenter"",""1"",""1690""
","""event"",""trial"",""time""
""fullscreenexit"",""2"",""8756""
","","","-1","","","21","5132","3161","&#9854;","elianto","#FFFFF080","-1","-1","1","&#10004","[]","0","0","1","","","","","","","",""
"pit-trial","18","214595","0.0-2.0-6.1-0.1","battery-v0.2","","""event"",""trial"",""time""
""fullscreenenter"",""1"",""1690""
""fullscreenexit"",""2"",""8756""
""blur"",""10"",""124107""
""focus"",""10"",""140829""
","""event"",""trial"",""time""
""blur"",""10"",""124107""
","""event"",""trial"",""time""
""focus"",""10"",""140829""
","""event"",""trial"",""time""
""fullscreenenter"",""1"",""1690""
","""event"",""trial"",""time""
""fullscreenexit"",""2"",""8756""
","","","-1","","","21","5132","3161","&#9854;","elianto","#FFFFF080","-1","-1","1","&#10004","[]","0","0","1","","","","","","","",""
"pit-trial","19","219465","0.0-2.0-6.2-0.2","battery-v0.2","","""event"",""trial"",""time""
""fullscreenenter"",""1"",""1690""
""fullscreenexit"",""2"",""8756""
""blur"",""10"",""124107""
""focus"",""10"",""140829""
","""event"",""trial"",""time""
""blur"",""10"",""124107""
","""event"",""trial"",""time""
""focus"",""10"",""140829""
","""event"",""trial"",""time""
""fullscreenenter"",""1"",""1690""
","""event"",""trial"",""time""
""fullscreenexit"",""2"",""8756""
","","","-1","","","21","5132","3161","&#9854;","elianto","#FFFFF080","-1","-1","1","&#10004","[]","0","0","1","","","","","","","",""
"pit-trial","20","224344","0.0-2.0-6.3-0.3","battery-v0.2","","""event"",""trial"",""time""
""fullscreenenter"",""1"",""1690""
""fullscreenexit"",""2"",""8756""
""blur"",""10"",""124107""
""focus"",""10"",""140829""
","""event"",""trial"",""time""
""blur"",""10"",""124107""
","""event"",""trial"",""time""
""focus"",""10"",""140829""
","""event"",""trial"",""time""
""fullscreenenter"",""1"",""1690""
","""event"",""trial"",""time""
""fullscreenexit"",""2"",""8756""
","","","-1","","","21","5132","3161","&#9854;","elianto","#FFFFF080","-1","-1","1","&#10004","[]","0","0","1","","","","","","","",""
"pit-trial","21","229220","0.0-2.0-6.4-0.4","battery-v0.2","","""event"",""trial"",""time""
""fullscreenenter"",""1"",""1690""
""fullscreenexit"",""2"",""8756""
""blur"",""10"",""124107""
""focus"",""10"",""140829""
""blur"",""22"",""270608""
""focus"",""22"",""273991""
","""event"",""trial"",""time""
""blur"",""10"",""124107""
""blur"",""22"",""270608""
","""event"",""trial"",""time""
""focus"",""10"",""140829""
""focus"",""22"",""273991""
","""event"",""trial"",""time""
""fullscreenenter"",""1"",""1690""
","""event"",""trial"",""time""
""fullscreenexit"",""2"",""8756""
","","","-1","","","21","5132","3161","&#9854;","elianto","#FFFFF080","-1","-1","1","&#10004","[]","0","0","1","","","","","","","",""
"pit-instructions","22","363179","0.0-2.0-7.0","battery-v0.2","","""event"",""trial"",""time""
""fullscreenenter"",""1"",""1690""
""fullscreenexit"",""2"",""8756""
""blur"",""10"",""124107""
""focus"",""10"",""140829""
""blur"",""22"",""270608""
""focus"",""22"",""273991""
","""event"",""trial"",""time""
""blur"",""10"",""124107""
""blur"",""22"",""270608""
","""event"",""trial"",""time""
""focus"",""10"",""140829""
""focus"",""22"",""273991""
","""event"",""trial"",""time""
""fullscreenenter"",""1"",""1690""
","""event"",""trial"",""time""
""fullscreenexit"",""2"",""8756""
","","[{""page_index"":0,""viewing_time"":5623.199999809265},{""page_index"":1,""viewing_time"":6223.700000286102},{""page_index"":2,""viewing_time"":5173.89999961853},{""page_index"":3,""viewing_time"":5762.10000038147},{""page_index"":4,""viewing_time"":5277.599999904633},{""page_index"":5,""viewing_time"":7952.599999904633},{""page_index"":6,""viewing_time"":12778.099999904633},{""page_index"":7,""viewing_time"":7319.900000095367},{""page_index"":8,""viewing_time"":6615.400000095367},{""page_index"":9,""viewing_time"":6136.099999904633},{""page_index"":10,""viewing_time"":6040.099999904633},{""page_index"":11,""viewing_time"":4928.5},{""page_index"":12,""viewing_time"":8215.700000286102},{""page_index"":13,""viewing_time"":6174},{""page_index"":12,""viewing_time"":4976.099999904633},{""page_index"":13,""viewing_time"":5913.599999904633},{""page_index"":14,""viewing_time"":7160.199999809265},{""page_index"":15,""viewing_time"":6254.200000286102},{""page_index"":16,""viewing_time"":6385.199999809265},{""page_index"":17,""viewing_time"":9047}]","133957.59999990463","","","","","","","","","","","","","","","","","","","","","","","",""
"pit-trial","23","367051","0.0-2.0-8.0-0.0","battery-v0.2","","""event"",""trial"",""time""
""fullscreenenter"",""1"",""1690""
""fullscreenexit"",""2"",""8756""
""blur"",""10"",""124107""
""focus"",""10"",""140829""
""blur"",""22"",""270608""
""focus"",""22"",""273991""
","""event"",""trial"",""time""
""blur"",""10"",""124107""
""blur"",""22"",""270608""
","""event"",""trial"",""time""
""focus"",""10"",""140829""
""focus"",""22"",""273991""
","""event"",""trial"",""time""
""fullscreenenter"",""1"",""1690""
","""event"",""trial"",""time""
""fullscreenexit"",""2"",""8756""
","","","998.7999997138977","","","21","5132","3161","&#9776;","elianto","#3366ff99"," "," ","1","+10","[1850.5]","1","0","1","","","","","","","",""
"pit-trial","24","370672","0.0-2.0-8.0-1.0","battery-v0.2","","""event"",""trial"",""time""
""fullscreenenter"",""1"",""1690""
""fullscreenexit"",""2"",""8756""
""blur"",""10"",""124107""
""focus"",""10"",""140829""
""blur"",""22"",""270608""
""focus"",""22"",""273991""
","""event"",""trial"",""time""
""blur"",""10"",""124107""
""blur"",""22"",""270608""
","""event"",""trial"",""time""
""focus"",""10"",""140829""
""focus"",""22"",""273991""
","""event"",""trial"",""time""
""fullscreenenter"",""1"",""1690""
","""event"",""trial"",""time""
""fullscreenexit"",""2"",""8756""
","","","765","","","21","5132","3161","&#9776;","elianto","#3366ff99"," "," ","1","+10","[1616.3000001907349]","1","0","1","","","","","","","",""
"pit-trial","25","374337","0.0-2.0-8.0-2.0","battery-v0.2","","""event"",""trial"",""time""
""fullscreenenter"",""1"",""1690""
""fullscreenexit"",""2"",""8756""
""blur"",""10"",""124107""
""focus"",""10"",""140829""
""blur"",""22"",""270608""
""focus"",""22"",""273991""
","""event"",""trial"",""time""
""blur"",""10"",""124107""
""blur"",""22"",""270608""
","""event"",""trial"",""time""
""focus"",""10"",""140829""
""focus"",""22"",""273991""
","""event"",""trial"",""time""
""fullscreenenter"",""1"",""1690""
","""event"",""trial"",""time""
""fullscreenexit"",""2"",""8756""
","","","795.7000002861023","","","21","5132","3161","&#9776;","elianto","#3366ff99"," "," ","1","+10","[1647.8999996185303]","1","0","1","","","","","","","",""
"pit-trial","26","378032","0.0-2.0-8.0-3.0","battery-v0.2","","""event"",""trial"",""time""
""fullscreenenter"",""1"",""1690""
""fullscreenexit"",""2"",""8756""
""blur"",""10"",""124107""
""focus"",""10"",""140829""
""blur"",""22"",""270608""
""focus"",""22"",""273991""
","""event"",""trial"",""time""
""blur"",""10"",""124107""
""blur"",""22"",""270608""
","""event"",""trial"",""time""
""focus"",""10"",""140829""
""focus"",""22"",""273991""
","""event"",""trial"",""time""
""fullscreenenter"",""1"",""1690""
","""event"",""trial"",""time""
""fullscreenexit"",""2"",""8756""
","","","830.5","","","21","5132","3161","&#9776;","elianto","#3366ff99"," "," ","1","0","[1682.5]","1","0","1","","","","","","","",""
"pit-trial","27","381612","0.0-2.0-8.0-4.0","battery-v0.2","","""event"",""trial"",""time""
""fullscreenenter"",""1"",""1690""
""fullscreenexit"",""2"",""8756""
""blur"",""10"",""124107""
""focus"",""10"",""140829""
""blur"",""22"",""270608""
""focus"",""22"",""273991""
","""event"",""trial"",""time""
""blur"",""10"",""124107""
""blur"",""22"",""270608""
","""event"",""trial"",""time""
""focus"",""10"",""140829""
""focus"",""22"",""273991""
","""event"",""trial"",""time""
""fullscreenenter"",""1"",""1690""
","""event"",""trial"",""time""
""fullscreenexit"",""2"",""8756""
","","","711.2000002861023","","","21","5132","3161","&#9776;","elianto","#3366ff99"," "," ","1","+10","[1564.2000002861023]","1","0","1","","","","","","","",""
"pit-trial","28","385652","0.0-2.0-8.1-0.1","battery-v0.2","","""event"",""trial"",""time""
""fullscreenenter"",""1"",""1690""
""fullscreenexit"",""2"",""8756""
""blur"",""10"",""124107""
""focus"",""10"",""140829""
""blur"",""22"",""270608""
""focus"",""22"",""273991""
","""event"",""trial"",""time""
""blur"",""10"",""124107""
""blur"",""22"",""270608""
","""event"",""trial"",""time""
""focus"",""10"",""140829""
""focus"",""22"",""273991""
","""event"",""trial"",""time""
""fullscreenenter"",""1"",""1690""
","""event"",""trial"",""time""
""fullscreenexit"",""2"",""8756""
","","","1159.9000000953674","","","21","5132","3161","&#9776;","elianto","#3366ff99"," "," ","1","+10","[2015.6000003814697]","1","0","1","","","","","","","",""
"pit-trial","29","389217","0.0-2.0-8.1-1.1","battery-v0.2","","""event"",""trial"",""time""
""fullscreenenter"",""1"",""1690""
""fullscreenexit"",""2"",""8756""
""blur"",""10"",""124107""
""focus"",""10"",""140829""
""blur"",""22"",""270608""
""focus"",""22"",""273991""
","""event"",""trial"",""time""
""blur"",""10"",""124107""
""blur"",""22"",""270608""
","""event"",""trial"",""time""
""focus"",""10"",""140829""
""focus"",""22"",""273991""
","""event"",""trial"",""time""
""fullscreenenter"",""1"",""1690""
","""event"",""trial"",""time""
""fullscreenexit"",""2"",""8756""
","","","695.9000000953674","","","21","5132","3161","&#9776;","elianto","#3366ff99"," "," ","1","+10","[1553.3000001907349]","1","0","1","","","","","","","",""
"pit-trial","30","392744","0.0-2.0-8.1-2.1","battery-v0.2","","""event"",""trial"",""time""
""fullscreenenter"",""1"",""1690""
""fullscreenexit"",""2"",""8756""
""blur"",""10"",""124107""
""focus"",""10"",""140829""
""blur"",""22"",""270608""
""focus"",""22"",""273991""
","""event"",""trial"",""time""
""blur"",""10"",""124107""
""blur"",""22"",""270608""
","""event"",""trial"",""time""
""focus"",""10"",""140829""
""focus"",""22"",""273991""
","""event"",""trial"",""time""
""fullscreenenter"",""1"",""1690""
","""event"",""trial"",""time""
""fullscreenexit"",""2"",""8756""
","","","666.6999998092651","","","21","5132","3161","&#9776;","elianto","#3366ff99"," "," ","1","+10","[1518.0999999046326]","1","0","1","","","","","","","",""
"pit-trial","31","396944","0.0-2.0-8.1-3.1","battery-v0.2","","""event"",""trial"",""time""
""fullscreenenter"",""1"",""1690""
""fullscreenexit"",""2"",""8756""
""blur"",""10"",""124107""
""focus"",""10"",""140829""
""blur"",""22"",""270608""
""focus"",""22"",""273991""
","""event"",""trial"",""time""
""blur"",""10"",""124107""
""blur"",""22"",""270608""
","""event"",""trial"",""time""
""focus"",""10"",""140829""
""focus"",""22"",""273991""
","""event"",""trial"",""time""
""fullscreenenter"",""1"",""1690""
","""event"",""trial"",""time""
""fullscreenexit"",""2"",""8756""
","","","1343.2000002861023","","","21","5132","3161","&#9776;","elianto","#3366ff99"," "," ","1","0","[2195.2000002861023]","1","0","1","","","","","","","",""
"pit-trial","32","400463","0.0-2.0-8.1-4.1","battery-v0.2","","""event"",""trial"",""time""
""fullscreenenter"",""1"",""1690""
""fullscreenexit"",""2"",""8756""
""blur"",""10"",""124107""
""focus"",""10"",""140829""
""blur"",""22"",""270608""
""focus"",""22"",""273991""
","""event"",""trial"",""time""
""blur"",""10"",""124107""
""blur"",""22"",""270608""
","""event"",""trial"",""time""
""focus"",""10"",""140829""
""focus"",""22"",""273991""
","""event"",""trial"",""time""
""fullscreenenter"",""1"",""1690""
","""event"",""trial"",""time""
""fullscreenexit"",""2"",""8756""
","","","664.4000000953674","","","21","5132","3161","&#9776;","elianto","#3366ff99"," "," ","1","+10","[1514.6999998092651]","1","0","1","","","","","","","",""
"pit-trial","33","404007","0.0-2.0-8.2-0.2","battery-v0.2","","""event"",""trial"",""time""
""fullscreenenter"",""1"",""1690""
""fullscreenexit"",""2"",""8756""
""blur"",""10"",""124107""
""focus"",""10"",""140829""
""blur"",""22"",""270608""
""focus"",""22"",""273991""
","""event"",""trial"",""time""
""blur"",""10"",""124107""
""blur"",""22"",""270608""
","""event"",""trial"",""time""
""focus"",""10"",""140829""
""focus"",""22"",""273991""
","""event"",""trial"",""time""
""fullscreenenter"",""1"",""1690""
","""event"",""trial"",""time""
""fullscreenexit"",""2"",""8756""
","","","682.6999998092651","","","21","5132","3161","&#9776;","elianto","#3366ff99"," "," ","1","+10","[1535.2999997138977]","1","0","1","","","","","","","",""
"pit-trial","34","407592","0.0-2.0-8.2-1.2","battery-v0.2","","""event"",""trial"",""time""
""fullscreenenter"",""1"",""1690""
""fullscreenexit"",""2"",""8756""
""blur"",""10"",""124107""
""focus"",""10"",""140829""
""blur"",""22"",""270608""
""focus"",""22"",""273991""
","""event"",""trial"",""time""
""blur"",""10"",""124107""
""blur"",""22"",""270608""
","""event"",""trial"",""time""
""focus"",""10"",""140829""
""focus"",""22"",""273991""
","""event"",""trial"",""time""
""fullscreenenter"",""1"",""1690""
","""event"",""trial"",""time""
""fullscreenexit"",""2"",""8756""
","","","721.0999999046326","","","21","5132","3161","&#9776;","elianto","#3366ff99"," "," ","1","+10","[1573.8000001907349]","1","0","1","","","","","","","",""
"pit-trial","35","411000","0.0-2.0-8.2-2.2","battery-v0.2","","""event"",""trial"",""time""
""fullscreenenter"",""1"",""1690""
""fullscreenexit"",""2"",""8756""
""blur"",""10"",""124107""
""focus"",""10"",""140829""
""blur"",""22"",""270608""
""focus"",""22"",""273991""
","""event"",""trial"",""time""
""blur"",""10"",""124107""
""blur"",""22"",""270608""
","""event"",""trial"",""time""
""focus"",""10"",""140829""
""focus"",""22"",""273991""
","""event"",""trial"",""time""
""fullscreenenter"",""1"",""1690""
","""event"",""trial"",""time""
""fullscreenexit"",""2"",""8756""
","","","550","","","21","5132","3161","&#9776;","elianto","#3366ff99"," "," ","1","+10","[1403.4000000953674]","1","0","1","","","","","","","",""
"pit-trial","36","414376","0.0-2.0-8.2-3.2","battery-v0.2","","""event"",""trial"",""time""
""fullscreenenter"",""1"",""1690""
""fullscreenexit"",""2"",""8756""
""blur"",""10"",""124107""
""focus"",""10"",""140829""
""blur"",""22"",""270608""
""focus"",""22"",""273991""
","""event"",""trial"",""time""
""blur"",""10"",""124107""
""blur"",""22"",""270608""
","""event"",""trial"",""time""
""focus"",""10"",""140829""
""focus"",""22"",""273991""
","""event"",""trial"",""time""
""fullscreenenter"",""1"",""1690""
","""event"",""trial"",""time""
""fullscreenexit"",""2"",""8756""
","","","517.3999996185303","","","21","5132","3161","&#9776;","elianto","#3366ff99"," "," ","1","0","[1370.1999998092651]","1","0","1","","","","","","","",""
"pit-trial","37","417720","0.0-2.0-8.2-4.2","battery-v0.2","","""event"",""trial"",""time""
""fullscreenenter"",""1"",""1690""
""fullscreenexit"",""2"",""8756""
""blur"",""10"",""124107""
""focus"",""10"",""140829""
""blur"",""22"",""270608""
""focus"",""22"",""273991""
","""event"",""trial"",""time""
""blur"",""10"",""124107""
""blur"",""22"",""270608""
","""event"",""trial"",""time""
""focus"",""10"",""140829""
""focus"",""22"",""273991""
","""event"",""trial"",""time""
""fullscreenenter"",""1"",""1690""
","""event"",""trial"",""time""
""fullscreenexit"",""2"",""8756""
","","","483.7000002861023","","","21","5132","3161","&#9776;","elianto","#3366ff99"," "," ","1","+10","[1334.4000000953674]","1","0","1","","","","","","","",""
"call-function","38","417721","0.0-2.0-9.0","battery-v0.2","","""event"",""trial"",""time""
""fullscreenenter"",""1"",""1690""
""fullscreenexit"",""2"",""8756""
""blur"",""10"",""124107""
""focus"",""10"",""140829""
""blur"",""22"",""270608""
""focus"",""22"",""273991""
""blur"",""39"",""440636""
""focus"",""39"",""466047""
","""event"",""trial"",""time""
""blur"",""10"",""124107""
""blur"",""22"",""270608""
""blur"",""39"",""440636""
","""event"",""trial"",""time""
""focus"",""10"",""140829""
""focus"",""22"",""273991""
""focus"",""39"",""466047""
","""event"",""trial"",""time""
""fullscreenenter"",""1"",""1690""
","""event"",""trial"",""time""
""fullscreenexit"",""2"",""8756""
","","","","","","","","","","","","","","","","","","","","","","","","","","",""
"pit-instructions","39","488124","0.0-2.0-10.0","battery-v0.2","","""event"",""trial"",""time""
""fullscreenenter"",""1"",""1690""
""fullscreenexit"",""2"",""8756""
""blur"",""10"",""124107""
""focus"",""10"",""140829""
""blur"",""22"",""270608""
""focus"",""22"",""273991""
""blur"",""39"",""440636""
""focus"",""39"",""466047""
","""event"",""trial"",""time""
""blur"",""10"",""124107""
""blur"",""22"",""270608""
""blur"",""39"",""440636""
","""event"",""trial"",""time""
""focus"",""10"",""140829""
""focus"",""22"",""273991""
""focus"",""39"",""466047""
","""event"",""trial"",""time""
""fullscreenenter"",""1"",""1690""
","""event"",""trial"",""time""
""fullscreenexit"",""2"",""8756""
","","[{""page_index"":0,""viewing_time"":5698.89999961853},{""page_index"":1,""viewing_time"":7048.400000095367},{""page_index"":2,""viewing_time"":9118.400000095367},{""page_index"":3,""viewing_time"":31530.099999904633},{""page_index"":4,""viewing_time"":17007.5}]","70404.19999980927","","","","","","","","","","","","","","","","","","","","","","","",""
"pit-trial","40","492106","0.0-2.0-11.0-0.0","battery-v0.2","","""event"",""trial"",""time""
""fullscreenenter"",""1"",""1690""
""fullscreenexit"",""2"",""8756""
""blur"",""10"",""124107""
""focus"",""10"",""140829""
""blur"",""22"",""270608""
""focus"",""22"",""273991""
""blur"",""39"",""440636""
""focus"",""39"",""466047""
","""event"",""trial"",""time""
""blur"",""10"",""124107""
""blur"",""22"",""270608""
""blur"",""39"",""440636""
","""event"",""trial"",""time""
""focus"",""10"",""140829""
""focus"",""22"",""273991""
""focus"",""39"",""466047""
","""event"",""trial"",""time""
""fullscreenenter"",""1"",""1690""
","""event"",""trial"",""time""
""fullscreenexit"",""2"",""8756""
","","","1120.8999996185303","","","21","5132","3161","&#9761;","elianto","#3366ff99","-1"," ","0","0","[1972.5]","1","0","2","","","","","","","",""
"pit-trial","41","495615","0.0-2.0-11.0-1.0","battery-v0.2","","""event"",""trial"",""time""
""fullscreenenter"",""1"",""1690""
""fullscreenexit"",""2"",""8756""
""blur"",""10"",""124107""
""focus"",""10"",""140829""
""blur"",""22"",""270608""
""focus"",""22"",""273991""
""blur"",""39"",""440636""
""focus"",""39"",""466047""
","""event"",""trial"",""time""
""blur"",""10"",""124107""
""blur"",""22"",""270608""
""blur"",""39"",""440636""
","""event"",""trial"",""time""
""focus"",""10"",""140829""
""focus"",""22"",""273991""
""focus"",""39"",""466047""
","""event"",""trial"",""time""
""fullscreenenter"",""1"",""1690""
","""event"",""trial"",""time""
""fullscreenexit"",""2"",""8756""
","","","647","","","21","5132","3161","&#9761;","elianto","#3366ff99","-1"," ","0","0","[1500.2000002861023]","1","0","2","","","","","","","",""
"pit-trial","42","499221","0.0-2.0-11.0-2.0","battery-v0.2","","""event"",""trial"",""time""
""fullscreenenter"",""1"",""1690""
""fullscreenexit"",""2"",""8756""
""blur"",""10"",""124107""
""focus"",""10"",""140829""
""blur"",""22"",""270608""
""focus"",""22"",""273991""
""blur"",""39"",""440636""
""focus"",""39"",""466047""
","""event"",""trial"",""time""
""blur"",""10"",""124107""
""blur"",""22"",""270608""
""blur"",""39"",""440636""
","""event"",""trial"",""time""
""focus"",""10"",""140829""
""focus"",""22"",""273991""
""focus"",""39"",""466047""
","""event"",""trial"",""time""
""fullscreenenter"",""1"",""1690""
","""event"",""trial"",""time""
""fullscreenexit"",""2"",""8756""
","","","736.9000000953674","","","21","5132","3161","&#9761;","elianto","#3366ff99","-1"," ","0","0","[1589.2999997138977]","1","0","2","","","","","","","",""
"pit-trial","43","504116","0.0-2.0-11.0-3.0","battery-v0.2","","""event"",""trial"",""time""
""fullscreenenter"",""1"",""1690""
""fullscreenexit"",""2"",""8756""
""blur"",""10"",""124107""
""focus"",""10"",""140829""
""blur"",""22"",""270608""
""focus"",""22"",""273991""
""blur"",""39"",""440636""
""focus"",""39"",""466047""
","""event"",""trial"",""time""
""blur"",""10"",""124107""
""blur"",""22"",""270608""
""blur"",""39"",""440636""
","""event"",""trial"",""time""
""focus"",""10"",""140829""
""focus"",""22"",""273991""
""focus"",""39"",""466047""
","""event"",""trial"",""time""
""fullscreenenter"",""1"",""1690""
","""event"",""trial"",""time""
""fullscreenexit"",""2"",""8756""
","","","-1","","","21","5132","3161","&#9761;","elianto","#3366ff99","-1","-1","1","0","[]","0","0","2","","","","","","","",""
"pit-trial","44","508991","0.0-2.0-11.0-4.0","battery-v0.2","","""event"",""trial"",""time""
""fullscreenenter"",""1"",""1690""
""fullscreenexit"",""2"",""8756""
""blur"",""10"",""124107""
""focus"",""10"",""140829""
""blur"",""22"",""270608""
""focus"",""22"",""273991""
""blur"",""39"",""440636""
""focus"",""39"",""466047""
","""event"",""trial"",""time""
""blur"",""10"",""124107""
""blur"",""22"",""270608""
""blur"",""39"",""440636""
","""event"",""trial"",""time""
""focus"",""10"",""140829""
""focus"",""22"",""273991""
""focus"",""39"",""466047""
","""event"",""trial"",""time""
""fullscreenenter"",""1"",""1690""
","""event"",""trial"",""time""
""fullscreenexit"",""2"",""8756""
","","","-1","","","21","5132","3161","&#9761;","elianto","#3366ff99","-1","-1","1","+10","[]","0","0","2","","","","","","","",""
"pit-trial","45","513854","0.0-2.0-11.1-0.1","battery-v0.2","","""event"",""trial"",""time""
""fullscreenenter"",""1"",""1690""
""fullscreenexit"",""2"",""8756""
""blur"",""10"",""124107""
""focus"",""10"",""140829""
""blur"",""22"",""270608""
""focus"",""22"",""273991""
""blur"",""39"",""440636""
""focus"",""39"",""466047""
","""event"",""trial"",""time""
""blur"",""10"",""124107""
""blur"",""22"",""270608""
""blur"",""39"",""440636""
","""event"",""trial"",""time""
""focus"",""10"",""140829""
""focus"",""22"",""273991""
""focus"",""39"",""466047""
","""event"",""trial"",""time""
""fullscreenenter"",""1"",""1690""
","""event"",""trial"",""time""
""fullscreenexit"",""2"",""8756""
","","","-1","","","21","5132","3161","&#9761;","elianto","#3366ff99","-1","-1","1","+10","[]","0","0","2","","","","","","","",""
"pit-trial","46","517391","0.0-2.0-11.1-1.1","battery-v0.2","","""event"",""trial"",""time""
""fullscreenenter"",""1"",""1690""
""fullscreenexit"",""2"",""8756""
""blur"",""10"",""124107""
""focus"",""10"",""140829""
""blur"",""22"",""270608""
""focus"",""22"",""273991""
""blur"",""39"",""440636""
""focus"",""39"",""466047""
","""event"",""trial"",""time""
""blur"",""10"",""124107""
""blur"",""22"",""270608""
""blur"",""39"",""440636""
","""event"",""trial"",""time""
""focus"",""10"",""140829""
""focus"",""22"",""273991""
""focus"",""39"",""466047""
","""event"",""trial"",""time""
""fullscreenenter"",""1"",""1690""
","""event"",""trial"",""time""
""fullscreenexit"",""2"",""8756""
","","","673.8000001907349","","","21","5132","3161","&#9761;","elianto","#3366ff99","-1"," ","0","0","[1527.9000000953674]","1","0","2","","","","","","","",""
"pit-trial","47","522255","0.0-2.0-11.1-2.1","battery-v0.2","","""event"",""trial"",""time""
""fullscreenenter"",""1"",""1690""
""fullscreenexit"",""2"",""8756""
""blur"",""10"",""124107""
""focus"",""10"",""140829""
""blur"",""22"",""270608""
""focus"",""22"",""273991""
""blur"",""39"",""440636""
""focus"",""39"",""466047""
","""event"",""trial"",""time""
""blur"",""10"",""124107""
""blur"",""22"",""270608""
""blur"",""39"",""440636""
","""event"",""trial"",""time""
""focus"",""10"",""140829""
""focus"",""22"",""273991""
""focus"",""39"",""466047""
","""event"",""trial"",""time""
""fullscreenenter"",""1"",""1690""
","""event"",""trial"",""time""
""fullscreenexit"",""2"",""8756""
","","","-1","","","21","5132","3161","&#9761;","elianto","#3366ff99","-1","-1","1","+10","[]","0","0","2","","","","","","","",""
"pit-trial","48","527119","0.0-2.0-11.1-3.1","battery-v0.2","","""event"",""trial"",""time""
""fullscreenenter"",""1"",""1690""
""fullscreenexit"",""2"",""8756""
""blur"",""10"",""124107""
""focus"",""10"",""140829""
""blur"",""22"",""270608""
""focus"",""22"",""273991""
""blur"",""39"",""440636""
""focus"",""39"",""466047""
","""event"",""trial"",""time""
""blur"",""10"",""124107""
""blur"",""22"",""270608""
""blur"",""39"",""440636""
","""event"",""trial"",""time""
""focus"",""10"",""140829""
""focus"",""22"",""273991""
""focus"",""39"",""466047""
","""event"",""trial"",""time""
""fullscreenenter"",""1"",""1690""
","""event"",""trial"",""time""
""fullscreenexit"",""2"",""8756""
","","","-1","","","21","5132","3161","&#9761;","elianto","#3366ff99","-1","-1","1","0","[]","0","0","2","","","","","","","",""
"pit-trial","49","530791","0.0-2.0-11.1-4.1","battery-v0.2","","""event"",""trial"",""time""
""fullscreenenter"",""1"",""1690""
""fullscreenexit"",""2"",""8756""
""blur"",""10"",""124107""
""focus"",""10"",""140829""
""blur"",""22"",""270608""
""focus"",""22"",""273991""
""blur"",""39"",""440636""
""focus"",""39"",""466047""
","""event"",""trial"",""time""
""blur"",""10"",""124107""
""blur"",""22"",""270608""
""blur"",""39"",""440636""
","""event"",""trial"",""time""
""focus"",""10"",""140829""
""focus"",""22"",""273991""
""focus"",""39"",""466047""
","""event"",""trial"",""time""
""fullscreenenter"",""1"",""1690""
","""event"",""trial"",""time""
""fullscreenexit"",""2"",""8756""
","","","813.5999999046326","","","21","5132","3161","&#9761;","elianto","#3366ff99","-1"," ","0","0","[1666.8999996185303]","1","0","2","","","","","","","",""
"pit-trial","50","535295","0.0-2.0-11.2-0.2","battery-v0.2","","""event"",""trial"",""time""
""fullscreenenter"",""1"",""1690""
""fullscreenexit"",""2"",""8756""
""blur"",""10"",""124107""
""focus"",""10"",""140829""
""blur"",""22"",""270608""
""focus"",""22"",""273991""
""blur"",""39"",""440636""
""focus"",""39"",""466047""
","""event"",""trial"",""time""
""blur"",""10"",""124107""
""blur"",""22"",""270608""
""blur"",""39"",""440636""
","""event"",""trial"",""time""
""focus"",""10"",""140829""
""focus"",""22"",""273991""
""focus"",""39"",""466047""
","""event"",""trial"",""time""
""fullscreenenter"",""1"",""1690""
","""event"",""trial"",""time""
""fullscreenexit"",""2"",""8756""
","","","1643.3000001907349","","","21","5132","3161","&#9761;","elianto","#3366ff99","-1"," ","0","0","[2494.300000190735]","1","0","2","","","","","","","",""
"pit-trial","51","540158","0.0-2.0-11.2-1.2","battery-v0.2","","""event"",""trial"",""time""
""fullscreenenter"",""1"",""1690""
""fullscreenexit"",""2"",""8756""
""blur"",""10"",""124107""
""focus"",""10"",""140829""
""blur"",""22"",""270608""
""focus"",""22"",""273991""
""blur"",""39"",""440636""
""focus"",""39"",""466047""
","""event"",""trial"",""time""
""blur"",""10"",""124107""
""blur"",""22"",""270608""
""blur"",""39"",""440636""
","""event"",""trial"",""time""
""focus"",""10"",""140829""
""focus"",""22"",""273991""
""focus"",""39"",""466047""
","""event"",""trial"",""time""
""fullscreenenter"",""1"",""1690""
","""event"",""trial"",""time""
""fullscreenexit"",""2"",""8756""
","","","-1","","","21","5132","3161","&#9761;","elianto","#3366ff99","-1","-1","1","+10","[]","0","0","2","","","","","","","",""
"pit-trial","52","545023","0.0-2.0-11.2-2.2","battery-v0.2","","""event"",""trial"",""time""
""fullscreenenter"",""1"",""1690""
""fullscreenexit"",""2"",""8756""
""blur"",""10"",""124107""
""focus"",""10"",""140829""
""blur"",""22"",""270608""
""focus"",""22"",""273991""
""blur"",""39"",""440636""
""focus"",""39"",""466047""
","""event"",""trial"",""time""
""blur"",""10"",""124107""
""blur"",""22"",""270608""
""blur"",""39"",""440636""
","""event"",""trial"",""time""
""focus"",""10"",""140829""
""focus"",""22"",""273991""
""focus"",""39"",""466047""
","""event"",""trial"",""time""
""fullscreenenter"",""1"",""1690""
","""event"",""trial"",""time""
""fullscreenexit"",""2"",""8756""
","","","-1","","","21","5132","3161","&#9761;","elianto","#3366ff99","-1","-1","1","+10","[]","0","0","2","","","","","","","",""
"pit-trial","53","549181","0.0-2.0-11.2-3.2","battery-v0.2","","""event"",""trial"",""time""
""fullscreenenter"",""1"",""1690""
""fullscreenexit"",""2"",""8756""
""blur"",""10"",""124107""
""focus"",""10"",""140829""
""blur"",""22"",""270608""
""focus"",""22"",""273991""
""blur"",""39"",""440636""
""focus"",""39"",""466047""
","""event"",""trial"",""time""
""blur"",""10"",""124107""
""blur"",""22"",""270608""
""blur"",""39"",""440636""
","""event"",""trial"",""time""
""focus"",""10"",""140829""
""focus"",""22"",""273991""
""focus"",""39"",""466047""
","""event"",""trial"",""time""
""fullscreenenter"",""1"",""1690""
","""event"",""trial"",""time""
""fullscreenexit"",""2"",""8756""
","","","1302.4000000953674","","","21","5132","3161","&#9761;","elianto","#3366ff99","-1"," ","0","+10","[2156.5]","1","0","2","","","","","","","",""
"pit-trial","54","553004","0.0-2.0-11.2-4.2","battery-v0.2","","""event"",""trial"",""time""
""fullscreenenter"",""1"",""1690""
""fullscreenexit"",""2"",""8756""
""blur"",""10"",""124107""
""focus"",""10"",""140829""
""blur"",""22"",""270608""
""focus"",""22"",""273991""
""blur"",""39"",""440636""
""focus"",""39"",""466047""
","""event"",""trial"",""time""
""blur"",""10"",""124107""
""blur"",""22"",""270608""
""blur"",""39"",""440636""
","""event"",""trial"",""time""
""focus"",""10"",""140829""
""focus"",""22"",""273991""
""focus"",""39"",""466047""
","""event"",""trial"",""time""
""fullscreenenter"",""1"",""1690""
","""event"",""trial"",""time""
""fullscreenexit"",""2"",""8756""
","","","947.1000003814697","","","21","5132","3161","&#9761;","elianto","#3366ff99","-1"," ","0","0","[1801.8000001907349]","1","0","2","","","","","","","",""
"pit-trial","55","556766","0.0-2.0-11.3-0.3","battery-v0.2","","""event"",""trial"",""time""
""fullscreenenter"",""1"",""1690""
""fullscreenexit"",""2"",""8756""
""blur"",""10"",""124107""
""focus"",""10"",""140829""
""blur"",""22"",""270608""
""focus"",""22"",""273991""
""blur"",""39"",""440636""
""focus"",""39"",""466047""
","""event"",""trial"",""time""
""blur"",""10"",""124107""
""blur"",""22"",""270608""
""blur"",""39"",""440636""
","""event"",""trial"",""time""
""focus"",""10"",""140829""
""focus"",""22"",""273991""
""focus"",""39"",""466047""
","""event"",""trial"",""time""
""fullscreenenter"",""1"",""1690""
","""event"",""trial"",""time""
""fullscreenexit"",""2"",""8756""
","","","901.5","","","21","5132","3161","&#9761;","elianto","#3366ff99","-1"," ","0","0","[1755]","1","0","2","","","","","","","",""
"pit-trial","56","561638","0.0-2.0-11.3-1.3","battery-v0.2","","""event"",""trial"",""time""
""fullscreenenter"",""1"",""1690""
""fullscreenexit"",""2"",""8756""
""blur"",""10"",""124107""
""focus"",""10"",""140829""
""blur"",""22"",""270608""
""focus"",""22"",""273991""
""blur"",""39"",""440636""
""focus"",""39"",""466047""
","""event"",""trial"",""time""
""blur"",""10"",""124107""
""blur"",""22"",""270608""
""blur"",""39"",""440636""
","""event"",""trial"",""time""
""focus"",""10"",""140829""
""focus"",""22"",""273991""
""focus"",""39"",""466047""
","""event"",""trial"",""time""
""fullscreenenter"",""1"",""1690""
","""event"",""trial"",""time""
""fullscreenexit"",""2"",""8756""
","","","-1","","","21","5132","3161","&#9761;","elianto","#3366ff99","-1","-1","1","+10","[]","0","0","2","","","","","","","",""
"pit-trial","57","565172","0.0-2.0-11.3-2.3","battery-v0.2","","""event"",""trial"",""time""
""fullscreenenter"",""1"",""1690""
""fullscreenexit"",""2"",""8756""
""blur"",""10"",""124107""
""focus"",""10"",""140829""
""blur"",""22"",""270608""
""focus"",""22"",""273991""
""blur"",""39"",""440636""
""focus"",""39"",""466047""
","""event"",""trial"",""time""
""blur"",""10"",""124107""
""blur"",""22"",""270608""
""blur"",""39"",""440636""
","""event"",""trial"",""time""
""focus"",""10"",""140829""
""focus"",""22"",""273991""
""focus"",""39"",""466047""
","""event"",""trial"",""time""
""fullscreenenter"",""1"",""1690""
","""event"",""trial"",""time""
""fullscreenexit"",""2"",""8756""
","","","666.3999996185303","","","21","5132","3161","&#9761;","elianto","#3366ff99","-1"," ","0","0","[1520.6999998092651]","1","0","2","","","","","","","",""
"pit-trial","58","569230","0.0-2.0-11.3-3.3","battery-v0.2","","""event"",""trial"",""time""
""fullscreenenter"",""1"",""1690""
""fullscreenexit"",""2"",""8756""
""blur"",""10"",""124107""
""focus"",""10"",""140829""
""blur"",""22"",""270608""
""focus"",""22"",""273991""
""blur"",""39"",""440636""
""focus"",""39"",""466047""
","""event"",""trial"",""time""
""blur"",""10"",""124107""
""blur"",""22"",""270608""
""blur"",""39"",""440636""
","""event"",""trial"",""time""
""focus"",""10"",""140829""
""focus"",""22"",""273991""
""focus"",""39"",""466047""
","""event"",""trial"",""time""
""fullscreenenter"",""1"",""1690""
","""event"",""trial"",""time""
""fullscreenexit"",""2"",""8756""
","","","1198.5","","","21","5132","3161","&#9761;","elianto","#3366ff99","-1"," ","0","+10","[2052.4000000953674]","1","0","2","","","","","","","",""
"pit-trial","59","574102","0.0-2.0-11.3-4.3","battery-v0.2","","""event"",""trial"",""time""
""fullscreenenter"",""1"",""1690""
""fullscreenexit"",""2"",""8756""
""blur"",""10"",""124107""
""focus"",""10"",""140829""
""blur"",""22"",""270608""
""focus"",""22"",""273991""
""blur"",""39"",""440636""
""focus"",""39"",""466047""
","""event"",""trial"",""time""
""blur"",""10"",""124107""
""blur"",""22"",""270608""
""blur"",""39"",""440636""
","""event"",""trial"",""time""
""focus"",""10"",""140829""
""focus"",""22"",""273991""
""focus"",""39"",""466047""
","""event"",""trial"",""time""
""fullscreenenter"",""1"",""1690""
","""event"",""trial"",""time""
""fullscreenexit"",""2"",""8756""
","","","-1","","","21","5132","3161","&#9761;","elianto","#3366ff99","-1","-1","1","+10","[]","0","0","2","","","","","","","",""
"call-function","60","574105","0.0-2.0-12.0","battery-v0.2","","""event"",""trial"",""time""
""fullscreenenter"",""1"",""1690""
""fullscreenexit"",""2"",""8756""
""blur"",""10"",""124107""
""focus"",""10"",""140829""
""blur"",""22"",""270608""
""focus"",""22"",""273991""
""blur"",""39"",""440636""
""focus"",""39"",""466047""
","""event"",""trial"",""time""
""blur"",""10"",""124107""
""blur"",""22"",""270608""
""blur"",""39"",""440636""
","""event"",""trial"",""time""
""focus"",""10"",""140829""
""focus"",""22"",""273991""
""focus"",""39"",""466047""
","""event"",""trial"",""time""
""fullscreenenter"",""1"",""1690""
","""event"",""trial"",""time""
""fullscreenexit"",""2"",""8756""
","","","","","","","","","","","","","","","","","","","","","","","","","","",""
"pit-instructions","61","611163","0.0-2.0-13.0","battery-v0.2","","""event"",""trial"",""time""
""fullscreenenter"",""1"",""1690""
""fullscreenexit"",""2"",""8756""
""blur"",""10"",""124107""
""focus"",""10"",""140829""
""blur"",""22"",""270608""
""focus"",""22"",""273991""
""blur"",""39"",""440636""
""focus"",""39"",""466047""
","""event"",""trial"",""time""
""blur"",""10"",""124107""
""blur"",""22"",""270608""
""blur"",""39"",""440636""
","""event"",""trial"",""time""
""focus"",""10"",""140829""
""focus"",""22"",""273991""
""focus"",""39"",""466047""
","""event"",""trial"",""time""
""fullscreenenter"",""1"",""1690""
","""event"",""trial"",""time""
""fullscreenexit"",""2"",""8756""
","","[{""page_index"":0,""viewing_time"":6680.900000095367},{""page_index"":1,""viewing_time"":6447.900000095367},{""page_index"":2,""viewing_time"":7863.89999961853},{""page_index"":3,""viewing_time"":10231.5},{""page_index"":4,""viewing_time"":5832.10000038147}]","37057.09999990463","","","","","","","","","","","","","","","","","","","","","","","",""
"pit-trial","62","616039","0.0-2.0-14.0-0.0","battery-v0.2","","""event"",""trial"",""time""
""fullscreenenter"",""1"",""1690""
""fullscreenexit"",""2"",""8756""
""blur"",""10"",""124107""
""focus"",""10"",""140829""
""blur"",""22"",""270608""
""focus"",""22"",""273991""
""blur"",""39"",""440636""
""focus"",""39"",""466047""
","""event"",""trial"",""time""
""blur"",""10"",""124107""
""blur"",""22"",""270608""
""blur"",""39"",""440636""
","""event"",""trial"",""time""
""focus"",""10"",""140829""
""focus"",""22"",""273991""
""focus"",""39"",""466047""
","""event"",""trial"",""time""
""fullscreenenter"",""1"",""1690""
","""event"",""trial"",""time""
""fullscreenexit"",""2"",""8756""
","","","-1","","","21","5132","3161","&#9826;","elianto","#f73b6a7A","-1","-1","1","0","[]","0","0","3","","","","","","","",""
"pit-trial","63","620908","0.0-2.0-14.0-1.0","battery-v0.2","","""event"",""trial"",""time""
""fullscreenenter"",""1"",""1690""
""fullscreenexit"",""2"",""8756""
""blur"",""10"",""124107""
""focus"",""10"",""140829""
""blur"",""22"",""270608""
""focus"",""22"",""273991""
""blur"",""39"",""440636""
""focus"",""39"",""466047""
","""event"",""trial"",""time""
""blur"",""10"",""124107""
""blur"",""22"",""270608""
""blur"",""39"",""440636""
","""event"",""trial"",""time""
""focus"",""10"",""140829""
""focus"",""22"",""273991""
""focus"",""39"",""466047""
","""event"",""trial"",""time""
""fullscreenenter"",""1"",""1690""
","""event"",""trial"",""time""
""fullscreenexit"",""2"",""8756""
","","","-1","","","21","5132","3161","&#9826;","elianto","#f73b6a7A","-1","-1","1","0","[]","0","0","3","","","","","","","",""
"pit-trial","64","625799","0.0-2.0-14.0-2.0","battery-v0.2","","""event"",""trial"",""time""
""fullscreenenter"",""1"",""1690""
""fullscreenexit"",""2"",""8756""
""blur"",""10"",""124107""
""focus"",""10"",""140829""
""blur"",""22"",""270608""
""focus"",""22"",""273991""
""blur"",""39"",""440636""
""focus"",""39"",""466047""
","""event"",""trial"",""time""
""blur"",""10"",""124107""
""blur"",""22"",""270608""
""blur"",""39"",""440636""
","""event"",""trial"",""time""
""focus"",""10"",""140829""
""focus"",""22"",""273991""
""focus"",""39"",""466047""
","""event"",""trial"",""time""
""fullscreenenter"",""1"",""1690""
","""event"",""trial"",""time""
""fullscreenexit"",""2"",""8756""
","","","-1","","","21","5132","3161","&#9826;","elianto","#f73b6a7A","-1","-1","1","0","[]","0","0","3","","","","","","","",""
"pit-trial","65","630688","0.0-2.0-14.0-3.0","battery-v0.2","","""event"",""trial"",""time""
""fullscreenenter"",""1"",""1690""
""fullscreenexit"",""2"",""8756""
""blur"",""10"",""124107""
""focus"",""10"",""140829""
""blur"",""22"",""270608""
""focus"",""22"",""273991""
""blur"",""39"",""440636""
""focus"",""39"",""466047""
","""event"",""trial"",""time""
""blur"",""10"",""124107""
""blur"",""22"",""270608""
""blur"",""39"",""440636""
","""event"",""trial"",""time""
""focus"",""10"",""140829""
""focus"",""22"",""273991""
""focus"",""39"",""466047""
","""event"",""trial"",""time""
""fullscreenenter"",""1"",""1690""
","""event"",""trial"",""time""
""fullscreenexit"",""2"",""8756""
","","","-1","","","21","5132","3161","&#9826;","elianto","#f73b6a7A","-1","-1","1","-10","[]","0","0","3","","","","","","","",""
"pit-trial","66","635558","0.0-2.0-14.0-4.0","battery-v0.2","","""event"",""trial"",""time""
""fullscreenenter"",""1"",""1690""
""fullscreenexit"",""2"",""8756""
""blur"",""10"",""124107""
""focus"",""10"",""140829""
""blur"",""22"",""270608""
""focus"",""22"",""273991""
""blur"",""39"",""440636""
""focus"",""39"",""466047""
","""event"",""trial"",""time""
""blur"",""10"",""124107""
""blur"",""22"",""270608""
""blur"",""39"",""440636""
","""event"",""trial"",""time""
""focus"",""10"",""140829""
""focus"",""22"",""273991""
""focus"",""39"",""466047""
","""event"",""trial"",""time""
""fullscreenenter"",""1"",""1690""
","""event"",""trial"",""time""
""fullscreenexit"",""2"",""8756""
","","","-1","","","21","5132","3161","&#9826;","elianto","#f73b6a7A","-1","-1","1","0","[]","0","0","3","","","","","","","",""
"pit-trial","67","640431","0.0-2.0-14.1-0.1","battery-v0.2","","""event"",""trial"",""time""
""fullscreenenter"",""1"",""1690""
""fullscreenexit"",""2"",""8756""
""blur"",""10"",""124107""
""focus"",""10"",""140829""
""blur"",""22"",""270608""
""focus"",""22"",""273991""
""blur"",""39"",""440636""
""focus"",""39"",""466047""
","""event"",""trial"",""time""
""blur"",""10"",""124107""
""blur"",""22"",""270608""
""blur"",""39"",""440636""
","""event"",""trial"",""time""
""focus"",""10"",""140829""
""focus"",""22"",""273991""
""focus"",""39"",""466047""
","""event"",""trial"",""time""
""fullscreenenter"",""1"",""1690""
","""event"",""trial"",""time""
""fullscreenexit"",""2"",""8756""
","","","-1","","","21","5132","3161","&#9826;","elianto","#f73b6a7A","-1","-1","1","0","[]","0","0","3","","","","","","","",""
"pit-trial","68","645294","0.0-2.0-14.1-1.1","battery-v0.2","","""event"",""trial"",""time""
""fullscreenenter"",""1"",""1690""
""fullscreenexit"",""2"",""8756""
""blur"",""10"",""124107""
""focus"",""10"",""140829""
""blur"",""22"",""270608""
""focus"",""22"",""273991""
""blur"",""39"",""440636""
""focus"",""39"",""466047""
","""event"",""trial"",""time""
""blur"",""10"",""124107""
""blur"",""22"",""270608""
""blur"",""39"",""440636""
","""event"",""trial"",""time""
""focus"",""10"",""140829""
""focus"",""22"",""273991""
""focus"",""39"",""466047""
","""event"",""trial"",""time""
""fullscreenenter"",""1"",""1690""
","""event"",""trial"",""time""
""fullscreenexit"",""2"",""8756""
","","","-1","","","21","5132","3161","&#9826;","elianto","#f73b6a7A","-1","-1","1","0","[]","0","0","3","","","","","","","",""
"pit-trial","69","650158","0.0-2.0-14.1-2.1","battery-v0.2","","""event"",""trial"",""time""
""fullscreenenter"",""1"",""1690""
""fullscreenexit"",""2"",""8756""
""blur"",""10"",""124107""
""focus"",""10"",""140829""
""blur"",""22"",""270608""
""focus"",""22"",""273991""
""blur"",""39"",""440636""
""focus"",""39"",""466047""
","""event"",""trial"",""time""
""blur"",""10"",""124107""
""blur"",""22"",""270608""
""blur"",""39"",""440636""
","""event"",""trial"",""time""
""focus"",""10"",""140829""
""focus"",""22"",""273991""
""focus"",""39"",""466047""
","""event"",""trial"",""time""
""fullscreenenter"",""1"",""1690""
","""event"",""trial"",""time""
""fullscreenexit"",""2"",""8756""
","","","-1","","","21","5132","3161","&#9826;","elianto","#f73b6a7A","-1","-1","1","0","[]","0","0","3","","","","","","","",""
"pit-trial","70","655032","0.0-2.0-14.1-3.1","battery-v0.2","","""event"",""trial"",""time""
""fullscreenenter"",""1"",""1690""
""fullscreenexit"",""2"",""8756""
""blur"",""10"",""124107""
""focus"",""10"",""140829""
""blur"",""22"",""270608""
""focus"",""22"",""273991""
""blur"",""39"",""440636""
""focus"",""39"",""466047""
","""event"",""trial"",""time""
""blur"",""10"",""124107""
""blur"",""22"",""270608""
""blur"",""39"",""440636""
","""event"",""trial"",""time""
""focus"",""10"",""140829""
""focus"",""22"",""273991""
""focus"",""39"",""466047""
","""event"",""trial"",""time""
""fullscreenenter"",""1"",""1690""
","""event"",""trial"",""time""
""fullscreenexit"",""2"",""8756""
","","","-1","","","21","5132","3161","&#9826;","elianto","#f73b6a7A","-1","-1","1","-10","[]","0","0","3","","","","","","","",""
"pit-trial","71","659894","0.0-2.0-14.1-4.1","battery-v0.2","","""event"",""trial"",""time""
""fullscreenenter"",""1"",""1690""
""fullscreenexit"",""2"",""8756""
""blur"",""10"",""124107""
""focus"",""10"",""140829""
""blur"",""22"",""270608""
""focus"",""22"",""273991""
""blur"",""39"",""440636""
""focus"",""39"",""466047""
","""event"",""trial"",""time""
""blur"",""10"",""124107""
""blur"",""22"",""270608""
""blur"",""39"",""440636""
","""event"",""trial"",""time""
""focus"",""10"",""140829""
""focus"",""22"",""273991""
""focus"",""39"",""466047""
","""event"",""trial"",""time""
""fullscreenenter"",""1"",""1690""
","""event"",""trial"",""time""
""fullscreenexit"",""2"",""8756""
","","","-1","","","21","5132","3161","&#9826;","elianto","#f73b6a7A","-1","-1","1","0","[]","0","0","3","","","","","","","",""
"pit-trial","72","664758","0.0-2.0-14.2-0.2","battery-v0.2","","""event"",""trial"",""time""
""fullscreenenter"",""1"",""1690""
""fullscreenexit"",""2"",""8756""
""blur"",""10"",""124107""
""focus"",""10"",""140829""
""blur"",""22"",""270608""
""focus"",""22"",""273991""
""blur"",""39"",""440636""
""focus"",""39"",""466047""
","""event"",""trial"",""time""
""blur"",""10"",""124107""
""blur"",""22"",""270608""
""blur"",""39"",""440636""
","""event"",""trial"",""time""
""focus"",""10"",""140829""
""focus"",""22"",""273991""
""focus"",""39"",""466047""
","""event"",""trial"",""time""
""fullscreenenter"",""1"",""1690""
","""event"",""trial"",""time""
""fullscreenexit"",""2"",""8756""
","","","-1","","","21","5132","3161","&#9826;","elianto","#f73b6a7A","-1","-1","1","0","[]","0","0","3","","","","","","","",""
"pit-trial","73","669621","0.0-2.0-14.2-1.2","battery-v0.2","","""event"",""trial"",""time""
""fullscreenenter"",""1"",""1690""
""fullscreenexit"",""2"",""8756""
""blur"",""10"",""124107""
""focus"",""10"",""140829""
""blur"",""22"",""270608""
""focus"",""22"",""273991""
""blur"",""39"",""440636""
""focus"",""39"",""466047""
","""event"",""trial"",""time""
""blur"",""10"",""124107""
""blur"",""22"",""270608""
""blur"",""39"",""440636""
","""event"",""trial"",""time""
""focus"",""10"",""140829""
""focus"",""22"",""273991""
""focus"",""39"",""466047""
","""event"",""trial"",""time""
""fullscreenenter"",""1"",""1690""
","""event"",""trial"",""time""
""fullscreenexit"",""2"",""8756""
","","","-1","","","21","5132","3161","&#9826;","elianto","#f73b6a7A","-1","-1","1","0","[]","0","0","3","","","","","","","",""
"pit-trial","74","674497","0.0-2.0-14.2-2.2","battery-v0.2","","""event"",""trial"",""time""
""fullscreenenter"",""1"",""1690""
""fullscreenexit"",""2"",""8756""
""blur"",""10"",""124107""
""focus"",""10"",""140829""
""blur"",""22"",""270608""
""focus"",""22"",""273991""
""blur"",""39"",""440636""
""focus"",""39"",""466047""
","""event"",""trial"",""time""
""blur"",""10"",""124107""
""blur"",""22"",""270608""
""blur"",""39"",""440636""
","""event"",""trial"",""time""
""focus"",""10"",""140829""
""focus"",""22"",""273991""
""focus"",""39"",""466047""
","""event"",""trial"",""time""
""fullscreenenter"",""1"",""1690""
","""event"",""trial"",""time""
""fullscreenexit"",""2"",""8756""
","","","-1","","","21","5132","3161","&#9826;","elianto","#f73b6a7A","-1","-1","1","0","[]","0","0","3","","","","","","","",""
"pit-trial","75","679365","0.0-2.0-14.2-3.2","battery-v0.2","","""event"",""trial"",""time""
""fullscreenenter"",""1"",""1690""
""fullscreenexit"",""2"",""8756""
""blur"",""10"",""124107""
""focus"",""10"",""140829""
""blur"",""22"",""270608""
""focus"",""22"",""273991""
""blur"",""39"",""440636""
""focus"",""39"",""466047""
","""event"",""trial"",""time""
""blur"",""10"",""124107""
""blur"",""22"",""270608""
""blur"",""39"",""440636""
","""event"",""trial"",""time""
""focus"",""10"",""140829""
""focus"",""22"",""273991""
""focus"",""39"",""466047""
","""event"",""trial"",""time""
""fullscreenenter"",""1"",""1690""
","""event"",""trial"",""time""
""fullscreenexit"",""2"",""8756""
","","","-1","","","21","5132","3161","&#9826;","elianto","#f73b6a7A","-1","-1","1","-10","[]","0","0","3","","","","","","","",""
"pit-trial","76","684229","0.0-2.0-14.2-4.2","battery-v0.2","","""event"",""trial"",""time""
""fullscreenenter"",""1"",""1690""
""fullscreenexit"",""2"",""8756""
""blur"",""10"",""124107""
""focus"",""10"",""140829""
""blur"",""22"",""270608""
""focus"",""22"",""273991""
""blur"",""39"",""440636""
""focus"",""39"",""466047""
","""event"",""trial"",""time""
""blur"",""10"",""124107""
""blur"",""22"",""270608""
""blur"",""39"",""440636""
","""event"",""trial"",""time""
""focus"",""10"",""140829""
""focus"",""22"",""273991""
""focus"",""39"",""466047""
","""event"",""trial"",""time""
""fullscreenenter"",""1"",""1690""
","""event"",""trial"",""time""
""fullscreenexit"",""2"",""8756""
","","","-1","","","21","5132","3161","&#9826;","elianto","#f73b6a7A","-1","-1","1","0","[]","0","0","3","","","","","","","",""
"pit-trial","77","689093","0.0-2.0-14.3-0.3","battery-v0.2","","""event"",""trial"",""time""
""fullscreenenter"",""1"",""1690""
""fullscreenexit"",""2"",""8756""
""blur"",""10"",""124107""
""focus"",""10"",""140829""
""blur"",""22"",""270608""
""focus"",""22"",""273991""
""blur"",""39"",""440636""
""focus"",""39"",""466047""
","""event"",""trial"",""time""
""blur"",""10"",""124107""
""blur"",""22"",""270608""
""blur"",""39"",""440636""
","""event"",""trial"",""time""
""focus"",""10"",""140829""
""focus"",""22"",""273991""
""focus"",""39"",""466047""
","""event"",""trial"",""time""
""fullscreenenter"",""1"",""1690""
","""event"",""trial"",""time""
""fullscreenexit"",""2"",""8756""
","","","-1","","","21","5132","3161","&#9826;","elianto","#f73b6a7A","-1","-1","1","0","[]","0","0","3","","","","","","","",""
"pit-trial","78","693958","0.0-2.0-14.3-1.3","battery-v0.2","","""event"",""trial"",""time""
""fullscreenenter"",""1"",""1690""
""fullscreenexit"",""2"",""8756""
""blur"",""10"",""124107""
""focus"",""10"",""140829""
""blur"",""22"",""270608""
""focus"",""22"",""273991""
""blur"",""39"",""440636""
""focus"",""39"",""466047""
","""event"",""trial"",""time""
""blur"",""10"",""124107""
""blur"",""22"",""270608""
""blur"",""39"",""440636""
","""event"",""trial"",""time""
""focus"",""10"",""140829""
""focus"",""22"",""273991""
""focus"",""39"",""466047""
","""event"",""trial"",""time""
""fullscreenenter"",""1"",""1690""
","""event"",""trial"",""time""
""fullscreenexit"",""2"",""8756""
","","","-1","","","21","5132","3161","&#9826;","elianto","#f73b6a7A","-1","-1","1","0","[]","0","0","3","","","","","","","",""
"pit-trial","79","698822","0.0-2.0-14.3-2.3","battery-v0.2","","""event"",""trial"",""time""
""fullscreenenter"",""1"",""1690""
""fullscreenexit"",""2"",""8756""
""blur"",""10"",""124107""
""focus"",""10"",""140829""
""blur"",""22"",""270608""
""focus"",""22"",""273991""
""blur"",""39"",""440636""
""focus"",""39"",""466047""
","""event"",""trial"",""time""
""blur"",""10"",""124107""
""blur"",""22"",""270608""
""blur"",""39"",""440636""
","""event"",""trial"",""time""
""focus"",""10"",""140829""
""focus"",""22"",""273991""
""focus"",""39"",""466047""
","""event"",""trial"",""time""
""fullscreenenter"",""1"",""1690""
","""event"",""trial"",""time""
""fullscreenexit"",""2"",""8756""
","","","-1","","","21","5132","3161","&#9826;","elianto","#f73b6a7A","-1","-1","1","0","[]","0","0","3","","","","","","","",""
"pit-trial","80","703686","0.0-2.0-14.3-3.3","battery-v0.2","","""event"",""trial"",""time""
""fullscreenenter"",""1"",""1690""
""fullscreenexit"",""2"",""8756""
""blur"",""10"",""124107""
""focus"",""10"",""140829""
""blur"",""22"",""270608""
""focus"",""22"",""273991""
""blur"",""39"",""440636""
""focus"",""39"",""466047""
","""event"",""trial"",""time""
""blur"",""10"",""124107""
""blur"",""22"",""270608""
""blur"",""39"",""440636""
","""event"",""trial"",""time""
""focus"",""10"",""140829""
""focus"",""22"",""273991""
""focus"",""39"",""466047""
","""event"",""trial"",""time""
""fullscreenenter"",""1"",""1690""
","""event"",""trial"",""time""
""fullscreenexit"",""2"",""8756""
","","","-1","","","21","5132","3161","&#9826;","elianto","#f73b6a7A","-1","-1","1","-10","[]","0","0","3","","","","","","","",""
"pit-trial","81","708549","0.0-2.0-14.3-4.3","battery-v0.2","","""event"",""trial"",""time""
""fullscreenenter"",""1"",""1690""
""fullscreenexit"",""2"",""8756""
""blur"",""10"",""124107""
""focus"",""10"",""140829""
""blur"",""22"",""270608""
""focus"",""22"",""273991""
""blur"",""39"",""440636""
""focus"",""39"",""466047""
","""event"",""trial"",""time""
""blur"",""10"",""124107""
""blur"",""22"",""270608""
""blur"",""39"",""440636""
","""event"",""trial"",""time""
""focus"",""10"",""140829""
""focus"",""22"",""273991""
""focus"",""39"",""466047""
","""event"",""trial"",""time""
""fullscreenenter"",""1"",""1690""
","""event"",""trial"",""time""
""fullscreenexit"",""2"",""8756""
","","","-1","","","21","5132","3161","&#9826;","elianto","#f73b6a7A","-1","-1","1","0","[]","0","0","3","","","","","","","",""
"call-function","82","708550","0.0-2.0-15.0","battery-v0.2","","""event"",""trial"",""time""
""fullscreenenter"",""1"",""1690""
""fullscreenexit"",""2"",""8756""
""blur"",""10"",""124107""
""focus"",""10"",""140829""
""blur"",""22"",""270608""
""focus"",""22"",""273991""
""blur"",""39"",""440636""
""focus"",""39"",""466047""
","""event"",""trial"",""time""
""blur"",""10"",""124107""
""blur"",""22"",""270608""
""blur"",""39"",""440636""
","""event"",""trial"",""time""
""focus"",""10"",""140829""
""focus"",""22"",""273991""
""focus"",""39"",""466047""
","""event"",""trial"",""time""
""fullscreenenter"",""1"",""1690""
","""event"",""trial"",""time""
""fullscreenexit"",""2"",""8756""
","","","","","","","","","","","","","","","","","","","","","","","","","","",""
"pit-instructions","83","738185","0.0-2.0-16.0","battery-v0.2","","""event"",""trial"",""time""
""fullscreenenter"",""1"",""1690""
""fullscreenexit"",""2"",""8756""
""blur"",""10"",""124107""
""focus"",""10"",""140829""
""blur"",""22"",""270608""
""focus"",""22"",""273991""
""blur"",""39"",""440636""
""focus"",""39"",""466047""
","""event"",""trial"",""time""
""blur"",""10"",""124107""
""blur"",""22"",""270608""
""blur"",""39"",""440636""
","""event"",""trial"",""time""
""focus"",""10"",""140829""
""focus"",""22"",""273991""
""focus"",""39"",""466047""
","""event"",""trial"",""time""
""fullscreenenter"",""1"",""1690""
","""event"",""trial"",""time""
""fullscreenexit"",""2"",""8756""
","","[{""page_index"":0,""viewing_time"":7380.800000190735},{""page_index"":1,""viewing_time"":12342.099999904633},{""page_index"":2,""viewing_time"":5086.699999809265},{""page_index"":3,""viewing_time"":4825}]","29635","","","","","","","","","","","","","","","","","","","","","","","",""
"pit-trial","84","742880","0.0-2.0-17.0-0.0","battery-v0.2","","""event"",""trial"",""time""
""fullscreenenter"",""1"",""1690""
""fullscreenexit"",""2"",""8756""
""blur"",""10"",""124107""
""focus"",""10"",""140829""
""blur"",""22"",""270608""
""focus"",""22"",""273991""
""blur"",""39"",""440636""
""focus"",""39"",""466047""
","""event"",""trial"",""time""
""blur"",""10"",""124107""
""blur"",""22"",""270608""
""blur"",""39"",""440636""
","""event"",""trial"",""time""
""focus"",""10"",""140829""
""focus"",""22"",""273991""
""focus"",""39"",""466047""
","""event"",""trial"",""time""
""fullscreenenter"",""1"",""1690""
","""event"",""trial"",""time""
""fullscreenexit"",""2"",""8756""
","","","1822.1999998092651","","","21","5132","3161","&#9789;","elianto","#f73b6a7A"," "," ","1","0","[2678.4000000953674]","1","0","4","","","","","","","",""
"pit-trial","85","746739","0.0-2.0-17.0-1.0","battery-v0.2","","""event"",""trial"",""time""
""fullscreenenter"",""1"",""1690""
""fullscreenexit"",""2"",""8756""
""blur"",""10"",""124107""
""focus"",""10"",""140829""
""blur"",""22"",""270608""
""focus"",""22"",""273991""
""blur"",""39"",""440636""
""focus"",""39"",""466047""
","""event"",""trial"",""time""
""blur"",""10"",""124107""
""blur"",""22"",""270608""
""blur"",""39"",""440636""
","""event"",""trial"",""time""
""focus"",""10"",""140829""
""focus"",""22"",""273991""
""focus"",""39"",""466047""
","""event"",""trial"",""time""
""fullscreenenter"",""1"",""1690""
","""event"",""trial"",""time""
""fullscreenexit"",""2"",""8756""
","","","989.1999998092651","","","21","5132","3161","&#9789;","elianto","#f73b6a7A"," "," ","1","0","[1847.0999999046326]","1","0","4","","","","","","","",""
"pit-trial","86","750559","0.0-2.0-17.0-2.0","battery-v0.2","","""event"",""trial"",""time""
""fullscreenenter"",""1"",""1690""
""fullscreenexit"",""2"",""8756""
""blur"",""10"",""124107""
""focus"",""10"",""140829""
""blur"",""22"",""270608""
""focus"",""22"",""273991""
""blur"",""39"",""440636""
""focus"",""39"",""466047""
","""event"",""trial"",""time""
""blur"",""10"",""124107""
""blur"",""22"",""270608""
""blur"",""39"",""440636""
","""event"",""trial"",""time""
""focus"",""10"",""140829""
""focus"",""22"",""273991""
""focus"",""39"",""466047""
","""event"",""trial"",""time""
""fullscreenenter"",""1"",""1690""
","""event"",""trial"",""time""
""fullscreenexit"",""2"",""8756""
","","","938.9000000953674","","","21","5132","3161","&#9789;","elianto","#f73b6a7A"," "," ","1","0","[1789.9000000953674]","1","0","4","","","","","","","",""
"pit-trial","87","755428","0.0-2.0-17.0-3.0","battery-v0.2","","""event"",""trial"",""time""
""fullscreenenter"",""1"",""1690""
""fullscreenexit"",""2"",""8756""
""blur"",""10"",""124107""
""focus"",""10"",""140829""
""blur"",""22"",""270608""
""focus"",""22"",""273991""
""blur"",""39"",""440636""
""focus"",""39"",""466047""
","""event"",""trial"",""time""
""blur"",""10"",""124107""
""blur"",""22"",""270608""
""blur"",""39"",""440636""
","""event"",""trial"",""time""
""focus"",""10"",""140829""
""focus"",""22"",""273991""
""focus"",""39"",""466047""
","""event"",""trial"",""time""
""fullscreenenter"",""1"",""1690""
","""event"",""trial"",""time""
""fullscreenexit"",""2"",""8756""
","","","-1","","","21","5132","3161","&#9789;","elianto","#f73b6a7A"," ","-1","0","0","[]","0","0","4","","","","","","","",""
"pit-trial","88","759006","0.0-2.0-17.0-4.0","battery-v0.2","","""event"",""trial"",""time""
""fullscreenenter"",""1"",""1690""
""fullscreenexit"",""2"",""8756""
""blur"",""10"",""124107""
""focus"",""10"",""140829""
""blur"",""22"",""270608""
""focus"",""22"",""273991""
""blur"",""39"",""440636""
""focus"",""39"",""466047""
","""event"",""trial"",""time""
""blur"",""10"",""124107""
""blur"",""22"",""270608""
""blur"",""39"",""440636""
","""event"",""trial"",""time""
""focus"",""10"",""140829""
""focus"",""22"",""273991""
""focus"",""39"",""466047""
","""event"",""trial"",""time""
""fullscreenenter"",""1"",""1690""
","""event"",""trial"",""time""
""fullscreenexit"",""2"",""8756""
","","","715.7000002861023","","","21","5132","3161","&#9789;","elianto","#f73b6a7A"," "," ","1","0","[1570.2000002861023]","1","0","4","","","","","","","",""
"pit-trial","89","763170","0.0-2.0-17.1-0.1","battery-v0.2","","""event"",""trial"",""time""
""fullscreenenter"",""1"",""1690""
""fullscreenexit"",""2"",""8756""
""blur"",""10"",""124107""
""focus"",""10"",""140829""
""blur"",""22"",""270608""
""focus"",""22"",""273991""
""blur"",""39"",""440636""
""focus"",""39"",""466047""
","""event"",""trial"",""time""
""blur"",""10"",""124107""
""blur"",""22"",""270608""
""blur"",""39"",""440636""
","""event"",""trial"",""time""
""focus"",""10"",""140829""
""focus"",""22"",""273991""
""focus"",""39"",""466047""
","""event"",""trial"",""time""
""fullscreenenter"",""1"",""1690""
","""event"",""trial"",""time""
""fullscreenexit"",""2"",""8756""
","","","1301.0999999046326","","","21","5132","3161","&#9789;","elianto","#f73b6a7A"," "," ","1","0","[2151.5999999046326]","1","0","4","","","","","","","",""
"pit-trial","90","766759","0.0-2.0-17.1-1.1","battery-v0.2","","""event"",""trial"",""time""
""fullscreenenter"",""1"",""1690""
""fullscreenexit"",""2"",""8756""
""blur"",""10"",""124107""
""focus"",""10"",""140829""
""blur"",""22"",""270608""
""focus"",""22"",""273991""
""blur"",""39"",""440636""
""focus"",""39"",""466047""
","""event"",""trial"",""time""
""blur"",""10"",""124107""
""blur"",""22"",""270608""
""blur"",""39"",""440636""
","""event"",""trial"",""time""
""focus"",""10"",""140829""
""focus"",""22"",""273991""
""focus"",""39"",""466047""
","""event"",""trial"",""time""
""fullscreenenter"",""1"",""1690""
","""event"",""trial"",""time""
""fullscreenexit"",""2"",""8756""
","","","722.4000000953674","","","21","5132","3161","&#9789;","elianto","#f73b6a7A"," "," ","1","0","[1576]","1","0","4","","","","","","","",""
"pit-trial","91","770197","0.0-2.0-17.1-2.1","battery-v0.2","","""event"",""trial"",""time""
""fullscreenenter"",""1"",""1690""
""fullscreenexit"",""2"",""8756""
""blur"",""10"",""124107""
""focus"",""10"",""140829""
""blur"",""22"",""270608""
""focus"",""22"",""273991""
""blur"",""39"",""440636""
""focus"",""39"",""466047""
","""event"",""trial"",""time""
""blur"",""10"",""124107""
""blur"",""22"",""270608""
""blur"",""39"",""440636""
","""event"",""trial"",""time""
""focus"",""10"",""140829""
""focus"",""22"",""273991""
""focus"",""39"",""466047""
","""event"",""trial"",""time""
""fullscreenenter"",""1"",""1690""
","""event"",""trial"",""time""
""fullscreenexit"",""2"",""8756""
","","","577.4000000953674","","","21","5132","3161","&#9789;","elianto","#f73b6a7A"," "," ","1","0","[1428.4000000953674]","1","0","4","","","","","","","",""
"pit-trial","92","773445","0.0-2.0-17.1-3.1","battery-v0.2","","""event"",""trial"",""time""
""fullscreenenter"",""1"",""1690""
""fullscreenexit"",""2"",""8756""
""blur"",""10"",""124107""
""focus"",""10"",""140829""
""blur"",""22"",""270608""
""focus"",""22"",""273991""
""blur"",""39"",""440636""
""focus"",""39"",""466047""
","""event"",""trial"",""time""
""blur"",""10"",""124107""
""blur"",""22"",""270608""
""blur"",""39"",""440636""
","""event"",""trial"",""time""
""focus"",""10"",""140829""
""focus"",""22"",""273991""
""focus"",""39"",""466047""
","""event"",""trial"",""time""
""fullscreenenter"",""1"",""1690""
","""event"",""trial"",""time""
""fullscreenexit"",""2"",""8756""
","","","387.2000002861023","","","21","5132","3161","&#9789;","elianto","#f73b6a7A"," "," ","1","-10","[1240.2000002861023]","1","0","4","","","","","","","",""
"pit-trial","93","778310","0.0-2.0-17.1-4.1","battery-v0.2","","""event"",""trial"",""time""
""fullscreenenter"",""1"",""1690""
""fullscreenexit"",""2"",""8756""
""blur"",""10"",""124107""
""focus"",""10"",""140829""
""blur"",""22"",""270608""
""focus"",""22"",""273991""
""blur"",""39"",""440636""
""focus"",""39"",""466047""
","""event"",""trial"",""time""
""blur"",""10"",""124107""
""blur"",""22"",""270608""
""blur"",""39"",""440636""
","""event"",""trial"",""time""
""focus"",""10"",""140829""
""focus"",""22"",""273991""
""focus"",""39"",""466047""
","""event"",""trial"",""time""
""fullscreenenter"",""1"",""1690""
","""event"",""trial"",""time""
""fullscreenexit"",""2"",""8756""
","","","-1","","","21","5132","3161","&#9789;","elianto","#f73b6a7A"," ","-1","0","-10","[]","0","0","4","","","","","","","",""
"pit-trial","94","783173","0.0-2.0-17.2-0.2","battery-v0.2","","""event"",""trial"",""time""
""fullscreenenter"",""1"",""1690""
""fullscreenexit"",""2"",""8756""
""blur"",""10"",""124107""
""focus"",""10"",""140829""
""blur"",""22"",""270608""
""focus"",""22"",""273991""
""blur"",""39"",""440636""
""focus"",""39"",""466047""
","""event"",""trial"",""time""
""blur"",""10"",""124107""
""blur"",""22"",""270608""
""blur"",""39"",""440636""
","""event"",""trial"",""time""
""focus"",""10"",""140829""
""focus"",""22"",""273991""
""focus"",""39"",""466047""
","""event"",""trial"",""time""
""fullscreenenter"",""1"",""1690""
","""event"",""trial"",""time""
""fullscreenexit"",""2"",""8756""
","","","-1","","","21","5132","3161","&#9789;","elianto","#f73b6a7A"," ","-1","0","-10","[]","0","0","4","","","","","","","",""
"pit-trial","95","788045","0.0-2.0-17.2-1.2","battery-v0.2","","""event"",""trial"",""time""
""fullscreenenter"",""1"",""1690""
""fullscreenexit"",""2"",""8756""
""blur"",""10"",""124107""
""focus"",""10"",""140829""
""blur"",""22"",""270608""
""focus"",""22"",""273991""
""blur"",""39"",""440636""
""focus"",""39"",""466047""
","""event"",""trial"",""time""
""blur"",""10"",""124107""
""blur"",""22"",""270608""
""blur"",""39"",""440636""
","""event"",""trial"",""time""
""focus"",""10"",""140829""
""focus"",""22"",""273991""
""focus"",""39"",""466047""
","""event"",""trial"",""time""
""fullscreenenter"",""1"",""1690""
","""event"",""trial"",""time""
""fullscreenexit"",""2"",""8756""
","","","-1","","","21","5132","3161","&#9789;","elianto","#f73b6a7A"," ","-1","0","-10","[]","0","0","4","","","","","","","",""
"pit-trial","96","792908","0.0-2.0-17.2-2.2","battery-v0.2","","""event"",""trial"",""time""
""fullscreenenter"",""1"",""1690""
""fullscreenexit"",""2"",""8756""
""blur"",""10"",""124107""
""focus"",""10"",""140829""
""blur"",""22"",""270608""
""focus"",""22"",""273991""
""blur"",""39"",""440636""
""focus"",""39"",""466047""
","""event"",""trial"",""time""
""blur"",""10"",""124107""
""blur"",""22"",""270608""
""blur"",""39"",""440636""
","""event"",""trial"",""time""
""focus"",""10"",""140829""
""focus"",""22"",""273991""
""focus"",""39"",""466047""
","""event"",""trial"",""time""
""fullscreenenter"",""1"",""1690""
","""event"",""trial"",""time""
""fullscreenexit"",""2"",""8756""
","","","-1","","","21","5132","3161","&#9789;","elianto","#f73b6a7A"," ","-1","0","-10","[]","0","0","4","","","","","","","",""
"pit-trial","97","797772","0.0-2.0-17.2-3.2","battery-v0.2","","""event"",""trial"",""time""
""fullscreenenter"",""1"",""1690""
""fullscreenexit"",""2"",""8756""
""blur"",""10"",""124107""
""focus"",""10"",""140829""
""blur"",""22"",""270608""
""focus"",""22"",""273991""
""blur"",""39"",""440636""
""focus"",""39"",""466047""
","""event"",""trial"",""time""
""blur"",""10"",""124107""
""blur"",""22"",""270608""
""blur"",""39"",""440636""
","""event"",""trial"",""time""
""focus"",""10"",""140829""
""focus"",""22"",""273991""
""focus"",""39"",""466047""
","""event"",""trial"",""time""
""fullscreenenter"",""1"",""1690""
","""event"",""trial"",""time""
""fullscreenexit"",""2"",""8756""
","","","-1","","","21","5132","3161","&#9789;","elianto","#f73b6a7A"," ","-1","0","0","[]","0","0","4","","","","","","","",""
"pit-trial","98","802636","0.0-2.0-17.2-4.2","battery-v0.2","","""event"",""trial"",""time""
""fullscreenenter"",""1"",""1690""
""fullscreenexit"",""2"",""8756""
""blur"",""10"",""124107""
""focus"",""10"",""140829""
""blur"",""22"",""270608""
""focus"",""22"",""273991""
""blur"",""39"",""440636""
""focus"",""39"",""466047""
","""event"",""trial"",""time""
""blur"",""10"",""124107""
""blur"",""22"",""270608""
""blur"",""39"",""440636""
","""event"",""trial"",""time""
""focus"",""10"",""140829""
""focus"",""22"",""273991""
""focus"",""39"",""466047""
","""event"",""trial"",""time""
""fullscreenenter"",""1"",""1690""
","""event"",""trial"",""time""
""fullscreenexit"",""2"",""8756""
","","","-1","","","21","5132","3161","&#9789;","elianto","#f73b6a7A"," ","-1","0","-10","[]","0","0","4","","","","","","","",""
"pit-trial","99","807513","0.0-2.0-17.3-0.3","battery-v0.2","","""event"",""trial"",""time""
""fullscreenenter"",""1"",""1690""
""fullscreenexit"",""2"",""8756""
""blur"",""10"",""124107""
""focus"",""10"",""140829""
""blur"",""22"",""270608""
""focus"",""22"",""273991""
""blur"",""39"",""440636""
""focus"",""39"",""466047""
","""event"",""trial"",""time""
""blur"",""10"",""124107""
""blur"",""22"",""270608""
""blur"",""39"",""440636""
","""event"",""trial"",""time""
""focus"",""10"",""140829""
""focus"",""22"",""273991""
""focus"",""39"",""466047""
","""event"",""trial"",""time""
""fullscreenenter"",""1"",""1690""
","""event"",""trial"",""time""
""fullscreenexit"",""2"",""8756""
","","","-1","","","21","5132","3161","&#9789;","elianto","#f73b6a7A"," ","-1","0","-10","[]","0","0","4","","","","","","","",""
"pit-trial","100","812381","0.0-2.0-17.3-1.3","battery-v0.2","","""event"",""trial"",""time""
""fullscreenenter"",""1"",""1690""
""fullscreenexit"",""2"",""8756""
""blur"",""10"",""124107""
""focus"",""10"",""140829""
""blur"",""22"",""270608""
""focus"",""22"",""273991""
""blur"",""39"",""440636""
""focus"",""39"",""466047""
","""event"",""trial"",""time""
""blur"",""10"",""124107""
""blur"",""22"",""270608""
""blur"",""39"",""440636""
","""event"",""trial"",""time""
""focus"",""10"",""140829""
""focus"",""22"",""273991""
""focus"",""39"",""466047""
","""event"",""trial"",""time""
""fullscreenenter"",""1"",""1690""
","""event"",""trial"",""time""
""fullscreenexit"",""2"",""8756""
","","","-1","","","21","5132","3161","&#9789;","elianto","#f73b6a7A"," ","-1","0","-10","[]","0","0","4","","","","","","","",""
"pit-trial","101","817253","0.0-2.0-17.3-2.3","battery-v0.2","","""event"",""trial"",""time""
""fullscreenenter"",""1"",""1690""
""fullscreenexit"",""2"",""8756""
""blur"",""10"",""124107""
""focus"",""10"",""140829""
""blur"",""22"",""270608""
""focus"",""22"",""273991""
""blur"",""39"",""440636""
""focus"",""39"",""466047""
","""event"",""trial"",""time""
""blur"",""10"",""124107""
""blur"",""22"",""270608""
""blur"",""39"",""440636""
","""event"",""trial"",""time""
""focus"",""10"",""140829""
""focus"",""22"",""273991""
""focus"",""39"",""466047""
","""event"",""trial"",""time""
""fullscreenenter"",""1"",""1690""
","""event"",""trial"",""time""
""fullscreenexit"",""2"",""8756""
","","","-1","","","21","5132","3161","&#9789;","elianto","#f73b6a7A"," ","-1","0","-10","[]","0","0","4","","","","","","","",""
"pit-trial","102","822116","0.0-2.0-17.3-3.3","battery-v0.2","","""event"",""trial"",""time""
""fullscreenenter"",""1"",""1690""
""fullscreenexit"",""2"",""8756""
""blur"",""10"",""124107""
""focus"",""10"",""140829""
""blur"",""22"",""270608""
""focus"",""22"",""273991""
""blur"",""39"",""440636""
""focus"",""39"",""466047""
","""event"",""trial"",""time""
""blur"",""10"",""124107""
""blur"",""22"",""270608""
""blur"",""39"",""440636""
","""event"",""trial"",""time""
""focus"",""10"",""140829""
""focus"",""22"",""273991""
""focus"",""39"",""466047""
","""event"",""trial"",""time""
""fullscreenenter"",""1"",""1690""
","""event"",""trial"",""time""
""fullscreenexit"",""2"",""8756""
","","","-1","","","21","5132","3161","&#9789;","elianto","#f73b6a7A"," ","-1","0","0","[]","0","0","4","","","","","","","",""
"pit-trial","103","826981","0.0-2.0-17.3-4.3","battery-v0.2","","""event"",""trial"",""time""
""fullscreenenter"",""1"",""1690""
""fullscreenexit"",""2"",""8756""
""blur"",""10"",""124107""
""focus"",""10"",""140829""
""blur"",""22"",""270608""
""focus"",""22"",""273991""
""blur"",""39"",""440636""
""focus"",""39"",""466047""
","""event"",""trial"",""time""
""blur"",""10"",""124107""
""blur"",""22"",""270608""
""blur"",""39"",""440636""
","""event"",""trial"",""time""
""focus"",""10"",""140829""
""focus"",""22"",""273991""
""focus"",""39"",""466047""
","""event"",""trial"",""time""
""fullscreenenter"",""1"",""1690""
","""event"",""trial"",""time""
""fullscreenexit"",""2"",""8756""
","","","-1","","","21","5132","3161","&#9789;","elianto","#f73b6a7A"," ","-1","0","-10","[]","0","0","4","","","","","","","",""
"call-function","104","826984","0.0-2.0-18.0","battery-v0.2","","""event"",""trial"",""time""
""fullscreenenter"",""1"",""1690""
""fullscreenexit"",""2"",""8756""
""blur"",""10"",""124107""
""focus"",""10"",""140829""
""blur"",""22"",""270608""
""focus"",""22"",""273991""
""blur"",""39"",""440636""
""focus"",""39"",""466047""
","""event"",""trial"",""time""
""blur"",""10"",""124107""
""blur"",""22"",""270608""
""blur"",""39"",""440636""
","""event"",""trial"",""time""
""focus"",""10"",""140829""
""focus"",""22"",""273991""
""focus"",""39"",""466047""
","""event"",""trial"",""time""
""fullscreenenter"",""1"",""1690""
","""event"",""trial"",""time""
""fullscreenexit"",""2"",""8756""
","","","","","","","","","","","","","","","","","","","","","","","","","","",""
"pit-instructions","105","903877","0.0-2.0-19.0","battery-v0.2","","""event"",""trial"",""time""
""fullscreenenter"",""1"",""1690""
""fullscreenexit"",""2"",""8756""
""blur"",""10"",""124107""
""focus"",""10"",""140829""
""blur"",""22"",""270608""
""focus"",""22"",""273991""
""blur"",""39"",""440636""
""focus"",""39"",""466047""
","""event"",""trial"",""time""
""blur"",""10"",""124107""
""blur"",""22"",""270608""
""blur"",""39"",""440636""
","""event"",""trial"",""time""
""focus"",""10"",""140829""
""focus"",""22"",""273991""
""focus"",""39"",""466047""
","""event"",""trial"",""time""
""fullscreenenter"",""1"",""1690""
","""event"",""trial"",""time""
""fullscreenexit"",""2"",""8756""
","","[{""page_index"":0,""viewing_time"":16256.300000190735},{""page_index"":1,""viewing_time"":5360},{""page_index"":2,""viewing_time"":11720.199999809265},{""page_index"":3,""viewing_time"":8111.60000038147},{""page_index"":4,""viewing_time"":8463.39999961853},{""page_index"":5,""viewing_time"":8912.10000038147},{""page_index"":6,""viewing_time"":8950.299999713898},{""page_index"":7,""viewing_time"":5752.099999904633},{""page_index"":8,""viewing_time"":3368}]","76894.5","","","","","","","","","","","","","","","","","","","","","","","",""
"pit-comprehension","106","908409","0.0-2.0-20.0-0.0","battery-v0.2","","""event"",""trial"",""time""
""fullscreenenter"",""1"",""1690""
""fullscreenexit"",""2"",""8756""
""blur"",""10"",""124107""
""focus"",""10"",""140829""
""blur"",""22"",""270608""
""focus"",""22"",""273991""
""blur"",""39"",""440636""
""focus"",""39"",""466047""
","""event"",""trial"",""time""
""blur"",""10"",""124107""
""blur"",""22"",""270608""
""blur"",""39"",""440636""
","""event"",""trial"",""time""
""focus"",""10"",""140829""
""focus"",""22"",""273991""
""focus"",""39"",""466047""
","""event"",""trial"",""time""
""fullscreenenter"",""1"",""1690""
","""event"",""trial"",""time""
""fullscreenexit"",""2"",""8756""
","","","4528.099999904633","[""SPACE""]","0","21","5132","3161","","","","","","","","","","","","","","","","","","",""
"pit-instructions","107","913709","0.0-2.0-20.0-1.0","battery-v0.2","","""event"",""trial"",""time""
""fullscreenenter"",""1"",""1690""
""fullscreenexit"",""2"",""8756""
""blur"",""10"",""124107""
""focus"",""10"",""140829""
""blur"",""22"",""270608""
""focus"",""22"",""273991""
""blur"",""39"",""440636""
""focus"",""39"",""466047""
","""event"",""trial"",""time""
""blur"",""10"",""124107""
""blur"",""22"",""270608""
""blur"",""39"",""440636""
","""event"",""trial"",""time""
""focus"",""10"",""140829""
""focus"",""22"",""273991""
""focus"",""39"",""466047""
","""event"",""trial"",""time""
""fullscreenenter"",""1"",""1690""
","""event"",""trial"",""time""
""fullscreenexit"",""2"",""8756""
","","[{""page_index"":0,""viewing_time"":5252.099999904633}]","5252.39999961853","","","","","","","","","","","","","","","","","","","","","","","",""
"pit-comprehension","108","919792","0.0-2.0-21.0-0.0","battery-v0.2","","""event"",""trial"",""time""
""fullscreenenter"",""1"",""1690""
""fullscreenexit"",""2"",""8756""
""blur"",""10"",""124107""
""focus"",""10"",""140829""
""blur"",""22"",""270608""
""focus"",""22"",""273991""
""blur"",""39"",""440636""
""focus"",""39"",""466047""
","""event"",""trial"",""time""
""blur"",""10"",""124107""
""blur"",""22"",""270608""
""blur"",""39"",""440636""
","""event"",""trial"",""time""
""focus"",""10"",""140829""
""focus"",""22"",""273991""
""focus"",""39"",""466047""
","""event"",""trial"",""time""
""fullscreenenter"",""1"",""1690""
","""event"",""trial"",""time""
""fullscreenexit"",""2"",""8756""
","","","6081.10000038147","[""10""]","0","21","5132","3161","","","","","","","","","","","","","","","","","","",""
"pit-instructions","109","921359","0.0-2.0-21.0-1.0","battery-v0.2","","""event"",""trial"",""time""
""fullscreenenter"",""1"",""1690""
""fullscreenexit"",""2"",""8756""
""blur"",""10"",""124107""
""focus"",""10"",""140829""
""blur"",""22"",""270608""
""focus"",""22"",""273991""
""blur"",""39"",""440636""
""focus"",""39"",""466047""
","""event"",""trial"",""time""
""blur"",""10"",""124107""
""blur"",""22"",""270608""
""blur"",""39"",""440636""
","""event"",""trial"",""time""
""focus"",""10"",""140829""
""focus"",""22"",""273991""
""focus"",""39"",""466047""
","""event"",""trial"",""time""
""fullscreenenter"",""1"",""1690""
","""event"",""trial"",""time""
""fullscreenexit"",""2"",""8756""
","","[{""page_index"":0,""viewing_time"":1518.1000003814697}]","1518.7000002861023","","","","","","","","","","","","","","","","","","","","","","","",""
"pit-comprehension","110","928944","0.0-2.0-22.0-0.0","battery-v0.2","","""event"",""trial"",""time""
""fullscreenenter"",""1"",""1690""
""fullscreenexit"",""2"",""8756""
""blur"",""10"",""124107""
""focus"",""10"",""140829""
""blur"",""22"",""270608""
""focus"",""22"",""273991""
""blur"",""39"",""440636""
""focus"",""39"",""466047""
","""event"",""trial"",""time""
""blur"",""10"",""124107""
""blur"",""22"",""270608""
""blur"",""39"",""440636""
","""event"",""trial"",""time""
""focus"",""10"",""140829""
""focus"",""22"",""273991""
""focus"",""39"",""466047""
","""event"",""trial"",""time""
""fullscreenenter"",""1"",""1690""
","""event"",""trial"",""time""
""fullscreenexit"",""2"",""8756""
","","","7579.39999961853","[""0""]","0","21","5132","3161","","","","","","","","","","","","","","","","","","",""
"pit-instructions","111","930559","0.0-2.0-22.0-1.0","battery-v0.2","","""event"",""trial"",""time""
""fullscreenenter"",""1"",""1690""
""fullscreenexit"",""2"",""8756""
""blur"",""10"",""124107""
""focus"",""10"",""140829""
""blur"",""22"",""270608""
""focus"",""22"",""273991""
""blur"",""39"",""440636""
""focus"",""39"",""466047""
","""event"",""trial"",""time""
""blur"",""10"",""124107""
""blur"",""22"",""270608""
""blur"",""39"",""440636""
","""event"",""trial"",""time""
""focus"",""10"",""140829""
""focus"",""22"",""273991""
""focus"",""39"",""466047""
","""event"",""trial"",""time""
""fullscreenenter"",""1"",""1690""
","""event"",""trial"",""time""
""fullscreenexit"",""2"",""8756""
","","[{""page_index"":0,""viewing_time"":1566.5999999046326}]","1567.0999999046326","","","","","","","","","","","","","","","","","","","","","","","",""
"pit-comprehension","112","939392","0.0-2.0-23.0-0.0","battery-v0.2","","""event"",""trial"",""time""
""fullscreenenter"",""1"",""1690""
""fullscreenexit"",""2"",""8756""
""blur"",""10"",""124107""
""focus"",""10"",""140829""
""blur"",""22"",""270608""
""focus"",""22"",""273991""
""blur"",""39"",""440636""
""focus"",""39"",""466047""
","""event"",""trial"",""time""
""blur"",""10"",""124107""
""blur"",""22"",""270608""
""blur"",""39"",""440636""
","""event"",""trial"",""time""
""focus"",""10"",""140829""
""focus"",""22"",""273991""
""focus"",""39"",""466047""
","""event"",""trial"",""time""
""fullscreenenter"",""1"",""1690""
","""event"",""trial"",""time""
""fullscreenexit"",""2"",""8756""
","","","8828.10000038147","[""True""]","0","21","5132","3161","","","","","","","","","","","","","","","","","","",""
"pit-instructions","113","941440","0.0-2.0-23.0-1.0","battery-v0.2","","""event"",""trial"",""time""
""fullscreenenter"",""1"",""1690""
""fullscreenexit"",""2"",""8756""
""blur"",""10"",""124107""
""focus"",""10"",""140829""
""blur"",""22"",""270608""
""focus"",""22"",""273991""
""blur"",""39"",""440636""
""focus"",""39"",""466047""
","""event"",""trial"",""time""
""blur"",""10"",""124107""
""blur"",""22"",""270608""
""blur"",""39"",""440636""
","""event"",""trial"",""time""
""focus"",""10"",""140829""
""focus"",""22"",""273991""
""focus"",""39"",""466047""
","""event"",""trial"",""time""
""fullscreenenter"",""1"",""1690""
","""event"",""trial"",""time""
""fullscreenexit"",""2"",""8756""
","","[{""page_index"":0,""viewing_time"":2001.7999997138977}]","2002.5","","","","","","","","","","","","","","","","","","","","","","","",""
"pit-comprehension","114","954128","0.0-2.0-24.0-0.0","battery-v0.2","","""event"",""trial"",""time""
""fullscreenenter"",""1"",""1690""
""fullscreenexit"",""2"",""8756""
""blur"",""10"",""124107""
""focus"",""10"",""140829""
""blur"",""22"",""270608""
""focus"",""22"",""273991""
""blur"",""39"",""440636""
""focus"",""39"",""466047""
","""event"",""trial"",""time""
""blur"",""10"",""124107""
""blur"",""22"",""270608""
""blur"",""39"",""440636""
","""event"",""trial"",""time""
""focus"",""10"",""140829""
""focus"",""22"",""273991""
""focus"",""39"",""466047""
","""event"",""trial"",""time""
""fullscreenenter"",""1"",""1690""
","""event"",""trial"",""time""
""fullscreenexit"",""2"",""8756""
","","","12683.10000038147","[""True""]","0","21","5132","3161","","","","","","","","","","","","","","","","","","",""
"pit-instructions","115","955975","0.0-2.0-24.0-1.0","battery-v0.2","","""event"",""trial"",""time""
""fullscreenenter"",""1"",""1690""
""fullscreenexit"",""2"",""8756""
""blur"",""10"",""124107""
""focus"",""10"",""140829""
""blur"",""22"",""270608""
""focus"",""22"",""273991""
""blur"",""39"",""440636""
""focus"",""39"",""466047""
","""event"",""trial"",""time""
""blur"",""10"",""124107""
""blur"",""22"",""270608""
""blur"",""39"",""440636""
","""event"",""trial"",""time""
""focus"",""10"",""140829""
""focus"",""22"",""273991""
""focus"",""39"",""466047""
","""event"",""trial"",""time""
""fullscreenenter"",""1"",""1690""
","""event"",""trial"",""time""
""fullscreenexit"",""2"",""8756""
","","[{""page_index"":0,""viewing_time"":1810.0999999046326}]","1810.7999997138977","","","","","","","","","","","","","","","","","","","","","","","",""
"pit-comprehension","116","965032","0.0-2.0-25.0-0.0","battery-v0.2","","""event"",""trial"",""time""
""fullscreenenter"",""1"",""1690""
""fullscreenexit"",""2"",""8756""
""blur"",""10"",""124107""
""focus"",""10"",""140829""
""blur"",""22"",""270608""
""focus"",""22"",""273991""
""blur"",""39"",""440636""
""focus"",""39"",""466047""
","""event"",""trial"",""time""
""blur"",""10"",""124107""
""blur"",""22"",""270608""
""blur"",""39"",""440636""
","""event"",""trial"",""time""
""focus"",""10"",""140829""
""focus"",""22"",""273991""
""focus"",""39"",""466047""
","""event"",""trial"",""time""
""fullscreenenter"",""1"",""1690""
","""event"",""trial"",""time""
""fullscreenexit"",""2"",""8756""
","","","9051.900000095367","[""True""]","0","21","5132","3161","","","","","","","","","","","","","","","","","","",""
"pit-instructions","117","966727","0.0-2.0-25.0-1.0","battery-v0.2","","""event"",""trial"",""time""
""fullscreenenter"",""1"",""1690""
""fullscreenexit"",""2"",""8756""
""blur"",""10"",""124107""
""focus"",""10"",""140829""
""blur"",""22"",""270608""
""focus"",""22"",""273991""
""blur"",""39"",""440636""
""focus"",""39"",""466047""
","""event"",""trial"",""time""
""blur"",""10"",""124107""
""blur"",""22"",""270608""
""blur"",""39"",""440636""
","""event"",""trial"",""time""
""focus"",""10"",""140829""
""focus"",""22"",""273991""
""focus"",""39"",""466047""
","""event"",""trial"",""time""
""fullscreenenter"",""1"",""1690""
","""event"",""trial"",""time""
""fullscreenexit"",""2"",""8756""
","","[{""page_index"":0,""viewing_time"":1650.7999997138977}]","1651.3999996185303","","","","","","","","","","","","","","","","","","","","","","","",""
"pit-comprehension","118","980078","0.0-2.0-26.0-0.0","battery-v0.2","","""event"",""trial"",""time""
""fullscreenenter"",""1"",""1690""
""fullscreenexit"",""2"",""8756""
""blur"",""10"",""124107""
""focus"",""10"",""140829""
""blur"",""22"",""270608""
""focus"",""22"",""273991""
""blur"",""39"",""440636""
""focus"",""39"",""466047""
","""event"",""trial"",""time""
""blur"",""10"",""124107""
""blur"",""22"",""270608""
""blur"",""39"",""440636""
","""event"",""trial"",""time""
""focus"",""10"",""140829""
""focus"",""22"",""273991""
""focus"",""39"",""466047""
","""event"",""trial"",""time""
""fullscreenenter"",""1"",""1690""
","""event"",""trial"",""time""
""fullscreenexit"",""2"",""8756""
","","","13347.599999904633","[""True""]","1","21","5132","3161","","","","","","","","","","","","","","","","","","",""
"pit-instructions","119","984965","0.0-2.0-26.0-1.0","battery-v0.2","","""event"",""trial"",""time""
""fullscreenenter"",""1"",""1690""
""fullscreenexit"",""2"",""8756""
""blur"",""10"",""124107""
""focus"",""10"",""140829""
""blur"",""22"",""270608""
""focus"",""22"",""273991""
""blur"",""39"",""440636""
""focus"",""39"",""466047""
","""event"",""trial"",""time""
""blur"",""10"",""124107""
""blur"",""22"",""270608""
""blur"",""39"",""440636""
","""event"",""trial"",""time""
""focus"",""10"",""140829""
""focus"",""22"",""273991""
""focus"",""39"",""466047""
","""event"",""trial"",""time""
""fullscreenenter"",""1"",""1690""
","""event"",""trial"",""time""
""fullscreenexit"",""2"",""8756""
","","[{""page_index"":0,""viewing_time"":4841.099999904633}]","4841.900000095367","","","","","","","","","","","","","","","","","","","","","","","",""
"pit-instructions","120","986237","0.0-2.0-26.0-2.0-0.0","battery-v0.2","","""event"",""trial"",""time""
""fullscreenenter"",""1"",""1690""
""fullscreenexit"",""2"",""8756""
""blur"",""10"",""124107""
""focus"",""10"",""140829""
""blur"",""22"",""270608""
""focus"",""22"",""273991""
""blur"",""39"",""440636""
""focus"",""39"",""466047""
","""event"",""trial"",""time""
""blur"",""10"",""124107""
""blur"",""22"",""270608""
""blur"",""39"",""440636""
","""event"",""trial"",""time""
""focus"",""10"",""140829""
""focus"",""22"",""273991""
""focus"",""39"",""466047""
","""event"",""trial"",""time""
""fullscreenenter"",""1"",""1690""
","""event"",""trial"",""time""
""fullscreenexit"",""2"",""8756""
","","[{""page_index"":0,""viewing_time"":1268.3999996185303}]","1269","","","","","","","","","","","","","","","","","","","","","","","",""
"pit-comprehension","121","991070","0.0-2.0-26.1-0.1","battery-v0.2","","""event"",""trial"",""time""
""fullscreenenter"",""1"",""1690""
""fullscreenexit"",""2"",""8756""
""blur"",""10"",""124107""
""focus"",""10"",""140829""
""blur"",""22"",""270608""
""focus"",""22"",""273991""
""blur"",""39"",""440636""
""focus"",""39"",""466047""
","""event"",""trial"",""time""
""blur"",""10"",""124107""
""blur"",""22"",""270608""
""blur"",""39"",""440636""
","""event"",""trial"",""time""
""focus"",""10"",""140829""
""focus"",""22"",""273991""
""focus"",""39"",""466047""
","""event"",""trial"",""time""
""fullscreenenter"",""1"",""1690""
","""event"",""trial"",""time""
""fullscreenexit"",""2"",""8756""
","","","4829.60000038147","[""False""]","0","21","5132","3161","","","","","","","","","","","","","","","","","","",""
"pit-instructions","122","994084","0.0-2.0-26.1-1.1","battery-v0.2","","""event"",""trial"",""time""
""fullscreenenter"",""1"",""1690""
""fullscreenexit"",""2"",""8756""
""blur"",""10"",""124107""
""focus"",""10"",""140829""
""blur"",""22"",""270608""
""focus"",""22"",""273991""
""blur"",""39"",""440636""
""focus"",""39"",""466047""
","""event"",""trial"",""time""
""blur"",""10"",""124107""
""blur"",""22"",""270608""
""blur"",""39"",""440636""
","""event"",""trial"",""time""
""focus"",""10"",""140829""
""focus"",""22"",""273991""
""focus"",""39"",""466047""
","""event"",""trial"",""time""
""fullscreenenter"",""1"",""1690""
","""event"",""trial"",""time""
""fullscreenexit"",""2"",""8756""
","","[{""page_index"":0,""viewing_time"":2957}]","2957.5","","","","","","","","","","","","","","","","","","","","","","","",""
"pit-instructions","123","1009933","0.0-3.0","battery-v0.2","","""event"",""trial"",""time""
""fullscreenenter"",""1"",""1690""
""fullscreenexit"",""2"",""8756""
""blur"",""10"",""124107""
""focus"",""10"",""140829""
""blur"",""22"",""270608""
""focus"",""22"",""273991""
""blur"",""39"",""440636""
""focus"",""39"",""466047""
","""event"",""trial"",""time""
