"trial_type","trial_index","time_elapsed","internal_node_id","task_version","subject_id","interactions","blur_events","focus_events","fullscreenenter_events","fullscreenexit_events","success","view_history","rt","responses","num_errors","age","subject","participantId","rune","rune_set","hex","correct","choice","accuracy","outcome","keys","total_keys","block","practice","value","sub","trial","stimulus","robot","valence","action","sham"
"pavlovia","0","6","0.0-0.0","battery-v0.2","","""event"",""trial"",""time""
""fullscreenenter"",""1"",""3479""
","
","
","""event"",""trial"",""time""
""fullscreenenter"",""1"",""3479""
","
","","","","","","","","","","","","","","","","","","","","","","","","","","",""
"fullscreen","1","4470","0.0-1.0","battery-v0.2","","""event"",""trial"",""time""
""fullscreenenter"",""1"",""3479""
","
","
","""event"",""trial"",""time""
""fullscreenenter"",""1"",""3479""
","
","true","","","","","","","","","","","","","","","","","","","","","","","","","",""
"pit-instructions","2","8305","0.0-2.0-0.0","battery-v0.2","","""event"",""trial"",""time""
""fullscreenenter"",""1"",""3479""
","
","
","""event"",""trial"",""time""
""fullscreenenter"",""1"",""3479""
","
","","[{""page_index"":0,""viewing_time"":3833.2999999523163}]","3833.5","","","","","","","","","","","","","","","","","","","","","","","",""
"pit-comprehension","3","10832","0.0-2.0-1.0-0.0","battery-v0.2","","""event"",""trial"",""time""
""fullscreenenter"",""1"",""3479""
","
","
","""event"",""trial"",""time""
""fullscreenenter"",""1"",""3479""
","
","","","2525.399999976158","[""shark""]","0","21","10160","4728","","","","","","","","","","","","","","","","","","",""
"pit-instructions","4","12443","0.0-2.0-1.0-1.0","battery-v0.2","","""event"",""trial"",""time""
""fullscreenenter"",""1"",""3479""
","
","
","""event"",""trial"",""time""
""fullscreenenter"",""1"",""3479""
","
","","[{""page_index"":0,""viewing_time"":1604.3999999761581}]","1604.5","","","","","","","","","","","","","","","","","","","","","","","",""
"pit-comprehension","5","14144","0.0-2.0-2.0-0.0","battery-v0.2","","""event"",""trial"",""time""
""fullscreenenter"",""1"",""3479""
","
","
","""event"",""trial"",""time""
""fullscreenenter"",""1"",""3479""
","
","","","1699.0999999046326","[""tiger""]","0","21","10160","4728","","","","","","","","","","","","","","","","","","",""
"pit-instructions","6","16536","0.0-2.0-2.0-1.0","battery-v0.2","","""event"",""trial"",""time""
""fullscreenenter"",""1"",""3479""
","
","
","""event"",""trial"",""time""
""fullscreenenter"",""1"",""3479""
","
","","[{""page_index"":0,""viewing_time"":2391}]","2391.100000023842","","","","","","","","","","","","","","","","","","","","","","","",""
"pit-instructions","7","100563","0.0-2.0-3.0","battery-v0.2","","""event"",""trial"",""time""
""fullscreenenter"",""1"",""3479""
","
","
","""event"",""trial"",""time""
""fullscreenenter"",""1"",""3479""
","
","","[{""page_index"":0,""viewing_time"":7815.300000071526},{""page_index"":1,""viewing_time"":5573.299999952316},{""page_index"":2,""viewing_time"":6934.799999952316},{""page_index"":3,""viewing_time"":5080.700000047684},{""page_index"":4,""viewing_time"":5139.399999976158},{""page_index"":5,""viewing_time"":5322.899999976158},{""page_index"":6,""viewing_time"":5958.300000071526},{""page_index"":7,""viewing_time"":6245.100000023842},{""page_index"":8,""viewing_time"":6374},{""page_index"":9,""viewing_time"":6567.799999952316},{""page_index"":10,""viewing_time"":7412.600000023842},{""page_index"":11,""viewing_time"":4507.399999976158},{""page_index"":12,""viewing_time"":6043.299999952316},{""page_index"":13,""viewing_time"":5050.400000095367}]","84025.39999997616","","","","","","","","","","","","","","","","","","","","","","","",""
"pit-trial","8","103760","0.0-2.0-4.0-0.0","battery-v0.2","","""event"",""trial"",""time""
""fullscreenenter"",""1"",""3479""
","
","
","""event"",""trial"",""time""
""fullscreenenter"",""1"",""3479""
","
","","","335.59999990463257","","","21","10160","4728","&#9784;","elianto","#FFFFF080"," "," ","1","&#10004","[1191.4000000953674]","1","0","0","","","","","","","",""
"pit-trial","9","107136","0.0-2.0-4.1-0.1","battery-v0.2","","""event"",""trial"",""time""
""fullscreenenter"",""1"",""3479""
","
","
","""event"",""trial"",""time""
""fullscreenenter"",""1"",""3479""
","
","","","513.3999999761581","","","21","10160","4728","&#9784;","elianto","#FFFFF080"," "," ","1","&#10004","[1365.7999999523163]","1","0","0","","","","","","","",""
"pit-trial","10","110576","0.0-2.0-4.2-0.2","battery-v0.2","","""event"",""trial"",""time""
""fullscreenenter"",""1"",""3479""
","
","
","""event"",""trial"",""time""
""fullscreenenter"",""1"",""3479""
","
","","","576.7000000476837","","","21","10160","4728","&#9784;","elianto","#FFFFF080"," "," ","1","&#10004","[1429.1000000238419]","1","0","0","","","","","","","",""
"pit-trial","11","113877","0.0-2.0-4.3-0.3","battery-v0.2","","""event"",""trial"",""time""
""fullscreenenter"",""1"",""3479""
","
","
","""event"",""trial"",""time""
""fullscreenenter"",""1"",""3479""
","
","","","448.5","","","21","10160","4728","&#9784;","elianto","#FFFFF080"," "," ","1","&#10004","[1298.7000000476837]","1","0","0","","","","","","","",""
"pit-trial","12","117152","0.0-2.0-4.4-0.4","battery-v0.2","","""event"",""trial"",""time""
""fullscreenenter"",""1"",""3479""
","
","
","""event"",""trial"",""time""
""fullscreenenter"",""1"",""3479""
","
","","","418.89999997615814","","","21","10160","4728","&#9784;","elianto","#FFFFF080"," "," ","1","&#10004","[1272.6999999284744]","1","0","0","","","","","","","",""
"pit-instructions","13","138408","0.0-2.0-5.0","battery-v0.2","","""event"",""trial"",""time""
""fullscreenenter"",""1"",""3479""
","
","
","""event"",""trial"",""time""
""fullscreenenter"",""1"",""3479""
","
","","[{""page_index"":0,""viewing_time"":5775.5},{""page_index"":1,""viewing_time"":5473.699999928474},{""page_index"":2,""viewing_time"":4543.700000047684},{""page_index"":3,""viewing_time"":5460.699999928474}]","21253.799999952316","","","","","","","","","","","","","","","","","","","","","","","",""
"pit-trial","14","143274","0.0-2.0-6.0-0.0","battery-v0.2","","""event"",""trial"",""time""
""fullscreenenter"",""1"",""3479""
","
","
","""event"",""trial"",""time""
""fullscreenenter"",""1"",""3479""
","
","","","-1","","","21","10160","4728","&#9854;","elianto","#FFFFF080","-1","-1","1","&#10004","[]","0","0","1","","","","","","","",""
"pit-trial","15","148147","0.0-2.0-6.1-0.1","battery-v0.2","","""event"",""trial"",""time""
""fullscreenenter"",""1"",""3479""
","
","
","""event"",""trial"",""time""
""fullscreenenter"",""1"",""3479""
","
","","","-1","","","21","10160","4728","&#9854;","elianto","#FFFFF080","-1","-1","1","&#10004","[]","0","0","1","","","","","","","",""
"pit-trial","16","153018","0.0-2.0-6.2-0.2","battery-v0.2","","""event"",""trial"",""time""
""fullscreenenter"",""1"",""3479""
","
","
","""event"",""trial"",""time""
""fullscreenenter"",""1"",""3479""
","
","","","-1","","","21","10160","4728","&#9854;","elianto","#FFFFF080","-1","-1","1","&#10004","[]","0","0","1","","","","","","","",""
"pit-trial","17","157879","0.0-2.0-6.3-0.3","battery-v0.2","","""event"",""trial"",""time""
""fullscreenenter"",""1"",""3479""
","
","
","""event"",""trial"",""time""
""fullscreenenter"",""1"",""3479""
","
","","","-1","","","21","10160","4728","&#9854;","elianto","#FFFFF080","-1","-1","1","&#10004","[]","0","0","1","","","","","","","",""
"pit-trial","18","162744","0.0-2.0-6.4-0.4","battery-v0.2","","""event"",""trial"",""time""
""fullscreenenter"",""1"",""3479""
","
","
","""event"",""trial"",""time""
""fullscreenenter"",""1"",""3479""
","
","","","-1","","","21","10160","4728","&#9854;","elianto","#FFFFF080","-1","-1","1","&#10004","[]","0","0","1","","","","","","","",""
"pit-instructions","19","289019","0.0-2.0-7.0","battery-v0.2","","""event"",""trial"",""time""
""fullscreenenter"",""1"",""3479""
","
","
","""event"",""trial"",""time""
""fullscreenenter"",""1"",""3479""
","
","","[{""page_index"":0,""viewing_time"":5340.5},{""page_index"":1,""viewing_time"":6034.100000023842},{""page_index"":2,""viewing_time"":5680.100000023842},{""page_index"":3,""viewing_time"":5671},{""page_index"":4,""viewing_time"":5478.899999976158},{""page_index"":5,""viewing_time"":12285},{""page_index"":6,""viewing_time"":4239.100000023842},{""page_index"":7,""viewing_time"":7409.199999928474},{""page_index"":8,""viewing_time"":7443.899999976158},{""page_index"":9,""viewing_time"":8809.900000095367},{""page_index"":10,""viewing_time"":7894.699999928474},{""page_index"":11,""viewing_time"":4634},{""page_index"":12,""viewing_time"":7279.700000047684},{""page_index"":13,""viewing_time"":7154.799999952316},{""page_index"":14,""viewing_time"":7177.5},{""page_index"":15,""viewing_time"":8758.899999976158},{""page_index"":16,""viewing_time"":8262.400000095367},{""page_index"":17,""viewing_time"":6720.5}]","126274.39999997616","","","","","","","","","","","","","","","","","","","","","","","",""
"pit-trial","20","293178","0.0-2.0-8.0-0.0","battery-v0.2","","""event"",""trial"",""time""
""fullscreenenter"",""1"",""3479""
","
","
","""event"",""trial"",""time""
""fullscreenenter"",""1"",""3479""
","
","","","1300.2000000476837","","","21","10160","4728","&#9776;","elianto","#3366ff99"," "," ","1","+10","[2150.399999976158]","1","0","1","","","","","","","",""
"pit-trial","21","296474","0.0-2.0-8.0-1.0","battery-v0.2","","""event"",""trial"",""time""
""fullscreenenter"",""1"",""3479""
","
","
","""event"",""trial"",""time""
""fullscreenenter"",""1"",""3479""
","
","","","429.7000000476837","","","21","10160","4728","&#9776;","elianto","#3366ff99"," "," ","1","+10","[1280.9000000953674]","1","0","1","","","","","","","",""
"pit-trial","22","299663","0.0-2.0-8.0-2.0","battery-v0.2","","""event"",""trial"",""time""
""fullscreenenter"",""1"",""3479""
","
","
","""event"",""trial"",""time""
""fullscreenenter"",""1"",""3479""
","
","","","320.3000000715256","","","21","10160","4728","&#9776;","elianto","#3366ff99"," "," ","1","+10","[1174.1000000238419]","1","0","1","","","","","","","",""
"pit-trial","23","303020","0.0-2.0-8.0-3.0","battery-v0.2","","""event"",""trial"",""time""
""fullscreenenter"",""1"",""3479""
","
","
","""event"",""trial"",""time""
""fullscreenenter"",""1"",""3479""
","
","","","494.7000000476837","","","21","10160","4728","&#9776;","elianto","#3366ff99"," "," ","1","0","[610.7000000476837,1346.5]","2","0","1","","","","","","","",""
"pit-trial","24","306307","0.0-2.0-8.0-4.0","battery-v0.2","","""event"",""trial"",""time""
""fullscreenenter"",""1"",""3479""
","
","
","""event"",""trial"",""time""
""fullscreenenter"",""1"",""3479""
","
","","","415","","","21","10160","4728","&#9776;","elianto","#3366ff99"," "," ","1","+10","[1271]","1","0","1","","","","","","","",""
"pit-trial","25","309281","0.0-2.0-8.1-0.1","battery-v0.2","","""event"",""trial"",""time""
""fullscreenenter"",""1"",""3479""
","
","
","""event"",""trial"",""time""
""fullscreenenter"",""1"",""3479""
","
","","","104.90000009536743","","","21","10160","4728","&#9776;","elianto","#3366ff99"," "," ","1","+10","[958.2000000476837]","1","0","1","","","","","","","",""
"pit-trial","26","312282","0.0-2.0-8.1-1.1","battery-v0.2","","""event"",""trial"",""time""
""fullscreenenter"",""1"",""3479""
","
","
","""event"",""trial"",""time""
""fullscreenenter"",""1"",""3479""
","
","","","134.20000004768372","","","21","10160","4728","&#9776;","elianto","#3366ff99"," "," ","1","+10","[985.8000000715256]","1","0","1","","","","","","","",""
"pit-trial","27","315583","0.0-2.0-8.1-2.1","battery-v0.2","","""event"",""trial"",""time""
""fullscreenenter"",""1"",""3479""
","
","
","""event"",""trial"",""time""
""fullscreenenter"",""1"",""3479""
","
","","","441.7000000476837","","","21","10160","4728","&#9776;","elianto","#3366ff99"," "," ","1","+10","[1292.1000000238419]","1","0","1","","","","","","","",""
"pit-trial","28","319197","0.0-2.0-8.1-3.1","battery-v0.2","","""event"",""trial"",""time""
""fullscreenenter"",""1"",""3479""
","
","
","""event"",""trial"",""time""
""fullscreenenter"",""1"",""3479""
","
","","","757","","","21","10160","4728","&#9776;","elianto","#3366ff99"," "," ","1","0","[1612.2000000476837]","1","0","1","","","","","","","",""
"pit-trial","29","322721","0.0-2.0-8.1-4.1","battery-v0.2","","""event"",""trial"",""time""
""fullscreenenter"",""1"",""3479""
","
","
","""event"",""trial"",""time""
""fullscreenenter"",""1"",""3479""
","
","","","671.9000000953674","","","21","10160","4728","&#9776;","elianto","#3366ff99"," "," ","1","+10","[1522]","1","0","1","","","","","","","",""
"pit-trial","30","325604","0.0-2.0-8.2-0.2","battery-v0.2","","""event"",""trial"",""time""
""fullscreenenter"",""1"",""3479""
","
","
","""event"",""trial"",""time""
""fullscreenenter"",""1"",""3479""
","
","","","30.700000047683716","","","21","10160","4728","&#9776;","elianto","#3366ff99"," "," ","1","+10","[880.7000000476837]","1","0","1","","","","","","","",""
"pit-trial","31","329107","0.0-2.0-8.2-1.2","battery-v0.2","","""event"",""trial"",""time""
""fullscreenenter"",""1"",""3479""
","
","
","""event"",""trial"",""time""
""fullscreenenter"",""1"",""3479""
","
","","","650","","","21","10160","4728","&#9776;","elianto","#3366ff99"," "," ","1","+10","[1501.0999999046326]","1","0","1","","","","","","","",""
"pit-trial","32","332166","0.0-2.0-8.2-2.2","battery-v0.2","","""event"",""trial"",""time""
""fullscreenenter"",""1"",""3479""
","
","
","""event"",""trial"",""time""
""fullscreenenter"",""1"",""3479""
","
","","","206.70000004768372","","","21","10160","4728","&#9776;","elianto","#3366ff99"," "," ","1","+10","[1056.7999999523163]","1","0","1","","","","","","","",""
"pit-trial","33","335735","0.0-2.0-8.2-3.2","battery-v0.2","","""event"",""trial"",""time""
""fullscreenenter"",""1"",""3479""
","
","
","""event"",""trial"",""time""
""fullscreenenter"",""1"",""3479""
","
","","","715.1000000238419","","","21","10160","4728","&#9776;","elianto","#3366ff99"," "," ","1","0","[1567.1000000238419]","1","0","1","","","","","","","",""
"pit-trial","34","338962","0.0-2.0-8.2-4.2","battery-v0.2","","""event"",""trial"",""time""
""fullscreenenter"",""1"",""3479""
","
","
","""event"",""trial"",""time""
""fullscreenenter"",""1"",""3479""
","
","","","374.2999999523163","","","21","10160","4728","&#9776;","elianto","#3366ff99"," "," ","1","+10","[832.1000000238419,1225]","2","0","1","","","","","","","",""
"call-function","35","338963","0.0-2.0-9.0","battery-v0.2","","""event"",""trial"",""time""
""fullscreenenter"",""1"",""3479""
","
","
","""event"",""trial"",""time""
""fullscreenenter"",""1"",""3479""
","
","","","","","","","","","","","","","","","","","","","","","","","","","","",""
"pit-instructions","36","377326","0.0-2.0-10.0","battery-v0.2","","""event"",""trial"",""time""
""fullscreenenter"",""1"",""3479""
","
","
","""event"",""trial"",""time""
""fullscreenenter"",""1"",""3479""
","
","","[{""page_index"":0,""viewing_time"":6573.200000047684},{""page_index"":1,""viewing_time"":6310.600000023842},{""page_index"":2,""viewing_time"":9460},{""page_index"":3,""viewing_time"":8753.899999976158},{""page_index"":4,""viewing_time"":7265.399999976158}]","38363.200000047684","","","","","","","","","","","","","","","","","","","","","","","",""
"pit-trial","37","380533","0.0-2.0-11.0-0.0","battery-v0.2","","""event"",""trial"",""time""
""fullscreenenter"",""1"",""3479""
","
","
","""event"",""trial"",""time""
""fullscreenenter"",""1"",""3479""
","
","","","349.5","","","21","10160","4728","&#9761;","elianto","#3366ff99","-1"," ","0","0","[1201.7000000476837]","1","0","2","","","","","","","",""
"pit-trial","38","384211","0.0-2.0-11.0-1.0","battery-v0.2","","""event"",""trial"",""time""
""fullscreenenter"",""1"",""3479""
","
","
","""event"",""trial"",""time""
""fullscreenenter"",""1"",""3479""
","
","","","814.1000000238419","","","21","10160","4728","&#9761;","elianto","#3366ff99","-1"," ","0","0","[1666]","1","0","2","","","","","","","",""
"pit-trial","39","389070","0.0-2.0-11.0-2.0","battery-v0.2","","""event"",""trial"",""time""
""fullscreenenter"",""1"",""3479""
","
","
","""event"",""trial"",""time""
""fullscreenenter"",""1"",""3479""
","
","","","-1","","","21","10160","4728","&#9761;","elianto","#3366ff99","-1","-1","1","+10","[]","0","0","2","","","","","","","",""
"pit-trial","40","392044","0.0-2.0-11.0-3.0","battery-v0.2","","""event"",""trial"",""time""
""fullscreenenter"",""1"",""3479""
","
","
","""event"",""trial"",""time""
""fullscreenenter"",""1"",""3479""
","
","","","116","","","21","10160","4728","&#9761;","elianto","#3366ff99","-1"," ","0","+10","[967.1000000238419]","1","0","2","","","","","","","",""
"pit-trial","41","394911","0.0-2.0-11.0-4.0","battery-v0.2","","""event"",""trial"",""time""
""fullscreenenter"",""1"",""3479""
","
","
","""event"",""trial"",""time""
""fullscreenenter"",""1"",""3479""
","
","","","7.799999952316284","","","21","10160","4728","&#9761;","elianto","#3366ff99","-1"," ","0","0","[863.7999999523163]","1","0","2","","","","","","","",""
"pit-trial","42","399782","0.0-2.0-11.1-0.1","battery-v0.2","","""event"",""trial"",""time""
""fullscreenenter"",""1"",""3479""
","
","
","""event"",""trial"",""time""
""fullscreenenter"",""1"",""3479""
","
","","","-1","","","21","10160","4728","&#9761;","elianto","#3366ff99","-1","-1","1","+10","[]","0","0","2","","","","","","","",""
"pit-trial","43","404647","0.0-2.0-11.1-1.1","battery-v0.2","","""event"",""trial"",""time""
""fullscreenenter"",""1"",""3479""
","
","
","""event"",""trial"",""time""
""fullscreenenter"",""1"",""3479""
","
","","","-1","","","21","10160","4728","&#9761;","elianto","#3366ff99","-1","-1","1","+10","[]","0","0","2","","","","","","","",""
"pit-trial","44","409500","0.0-2.0-11.1-2.1","battery-v0.2","","""event"",""trial"",""time""
""fullscreenenter"",""1"",""3479""
","
","
","""event"",""trial"",""time""
""fullscreenenter"",""1"",""3479""
","
","","","-1","","","21","10160","4728","&#9761;","elianto","#3366ff99","-1","-1","1","+10","[]","0","0","2","","","","","","","",""
"pit-trial","45","413343","0.0-2.0-11.1-3.1","battery-v0.2","","""event"",""trial"",""time""
""fullscreenenter"",""1"",""3479""
","
","
","""event"",""trial"",""time""
""fullscreenenter"",""1"",""3479""
","
","","","990.7000000476837","","","21","10160","4728","&#9761;","elianto","#3366ff99","-1"," ","0","+10","[1841.5]","1","0","2","","","","","","","",""
"pit-trial","46","416460","0.0-2.0-11.1-4.1","battery-v0.2","","""event"",""trial"",""time""
""fullscreenenter"",""1"",""3479""
","
","
","""event"",""trial"",""time""
""fullscreenenter"",""1"",""3479""
","
","","","263.89999997615814","","","21","10160","4728","&#9761;","elianto","#3366ff99","-1"," ","0","0","[1114]","1","0","2","","","","","","","",""
"pit-trial","47","419317","0.0-2.0-11.2-0.2","battery-v0.2","","""event"",""trial"",""time""
""fullscreenenter"",""1"",""3479""
","
","
","""event"",""trial"",""time""
""fullscreenenter"",""1"",""3479""
","
","","","4.600000023841858","","","21","10160","4728","&#9761;","elianto","#3366ff99","-1"," ","0","0","[855]","1","0","2","","","","","","","",""
"pit-trial","48","422225","0.0-2.0-11.2-1.2","battery-v0.2","","""event"",""trial"",""time""
""fullscreenenter"",""1"",""3479""
","
","
","""event"",""trial"",""time""
""fullscreenenter"",""1"",""3479""
","
","","","55.699999928474426","","","21","10160","4728","&#9761;","elianto","#3366ff99","-1"," ","0","0","[906]","1","0","2","","","","","","","",""
"pit-trial","49","425112","0.0-2.0-11.2-2.2","battery-v0.2","","""event"",""trial"",""time""
""fullscreenenter"",""1"",""3479""
","
","
","""event"",""trial"",""time""
""fullscreenenter"",""1"",""3479""
","
","","","33.89999997615814","","","21","10160","4728","&#9761;","elianto","#3366ff99","-1"," ","0","0","[884.1000000238419]","1","0","2","","","","","","","",""
"pit-trial","50","427981","0.0-2.0-11.2-3.2","battery-v0.2","","""event"",""trial"",""time""
""fullscreenenter"",""1"",""3479""
","
","
","""event"",""trial"",""time""
""fullscreenenter"",""1"",""3479""
","
","","","17.300000071525574","","","21","10160","4728","&#9761;","elianto","#3366ff99","-1"," ","0","+10","[867.6000000238419]","1","0","2","","","","","","","",""
"pit-trial","51","432834","0.0-2.0-11.2-4.2","battery-v0.2","","""event"",""trial"",""time""
""fullscreenenter"",""1"",""3479""
","
","
","""event"",""trial"",""time""
""fullscreenenter"",""1"",""3479""
","
","","","-1","","","21","10160","4728","&#9761;","elianto","#3366ff99","-1","-1","1","+10","[]","0","0","2","","","","","","","",""
"pit-trial","52","437686","0.0-2.0-11.3-0.3","battery-v0.2","","""event"",""trial"",""time""
""fullscreenenter"",""1"",""3479""
","
","
","""event"",""trial"",""time""
""fullscreenenter"",""1"",""3479""
","
","","","-1","","","21","10160","4728","&#9761;","elianto","#3366ff99","-1","-1","1","+10","[]","0","0","2","","","","","","","",""
"pit-trial","53","442539","0.0-2.0-11.3-1.3","battery-v0.2","","""event"",""trial"",""time""
""fullscreenenter"",""1"",""3479""
","
","
","""event"",""trial"",""time""
""fullscreenenter"",""1"",""3479""
","
","","","-1","","","21","10160","4728","&#9761;","elianto","#3366ff99","-1","-1","1","+10","[]","0","0","2","","","","","","","",""
"pit-trial","54","447392","0.0-2.0-11.3-2.3","battery-v0.2","","""event"",""trial"",""time""
""fullscreenenter"",""1"",""3479""
","
","
","""event"",""trial"",""time""
""fullscreenenter"",""1"",""3479""
","
","","","-1","","","21","10160","4728","&#9761;","elianto","#3366ff99","-1","-1","1","+10","[]","0","0","2","","","","","","","",""
"pit-trial","55","452245","0.0-2.0-11.3-3.3","battery-v0.2","","""event"",""trial"",""time""
""fullscreenenter"",""1"",""3479""
","
","
","""event"",""trial"",""time""
""fullscreenenter"",""1"",""3479""
","
","","","-1","","","21","10160","4728","&#9761;","elianto","#3366ff99","-1","-1","1","0","[]","0","0","2","","","","","","","",""
"pit-trial","56","457098","0.0-2.0-11.3-4.3","battery-v0.2","","""event"",""trial"",""time""
""fullscreenenter"",""1"",""3479""
","
","
","""event"",""trial"",""time""
""fullscreenenter"",""1"",""3479""
","
","","","-1","","","21","10160","4728","&#9761;","elianto","#3366ff99","-1","-1","1","+10","[4182.200000047684]","1","0","2","","","","","","","",""
"call-function","57","457099","0.0-2.0-12.0","battery-v0.2","","""event"",""trial"",""time""
""fullscreenenter"",""1"",""3479""
","
","
","""event"",""trial"",""time""
""fullscreenenter"",""1"",""3479""
","
","","","","","","","","","","","","","","","","","","","","","","","","","","",""
"pit-instructions","58","488270","0.0-2.0-13.0","battery-v0.2","","""event"",""trial"",""time""
""fullscreenenter"",""1"",""3479""
","
","
","""event"",""trial"",""time""
""fullscreenenter"",""1"",""3479""
","
","","[{""page_index"":0,""viewing_time"":4454.200000047684},{""page_index"":1,""viewing_time"":7864.399999976158},{""page_index"":2,""viewing_time"":3196.8000000715256},{""page_index"":3,""viewing_time"":10746.099999904633},{""page_index"":4,""viewing_time"":4909.100000023842}]","31170.700000047684","","","","","","","","","","","","","","","","","","","","","","","",""
"pit-trial","59","491317","0.0-2.0-14.0-0.0","battery-v0.2","","""event"",""trial"",""time""
""fullscreenenter"",""1"",""3479""
","
","
","""event"",""trial"",""time""
""fullscreenenter"",""1"",""3479""
","
","","","184.60000002384186","","","21","10160","4728","&#9826;","elianto","#f73b6a7A","-1"," ","0","-10","[1040.1999999284744]","1","0","3","","","","","","","",""
"pit-trial","60","496191","0.0-2.0-14.0-1.0","battery-v0.2","","""event"",""trial"",""time""
""fullscreenenter"",""1"",""3479""
","
","
","""event"",""trial"",""time""
""fullscreenenter"",""1"",""3479""
","
","","","-1","","","21","10160","4728","&#9826;","elianto","#f73b6a7A","-1","-1","1","0","[]","0","0","3","","","","","","","",""
"pit-trial","61","501053","0.0-2.0-14.0-2.0","battery-v0.2","","""event"",""trial"",""time""
""fullscreenenter"",""1"",""3479""
","
","
","""event"",""trial"",""time""
""fullscreenenter"",""1"",""3479""
","
","","","-1","","","21","10160","4728","&#9826;","elianto","#f73b6a7A","-1","-1","1","0","[]","0","0","3","","","","","","","",""
"pit-trial","62","505923","0.0-2.0-14.0-3.0","battery-v0.2","","""event"",""trial"",""time""
""fullscreenenter"",""1"",""3479""
","
","
","""event"",""trial"",""time""
""fullscreenenter"",""1"",""3479""
","
","","","-1","","","21","10160","4728","&#9826;","elianto","#f73b6a7A","-1","-1","1","-10","[]","0","0","3","","","","","","","",""
"pit-trial","63","510790","0.0-2.0-14.0-4.0","battery-v0.2","","""event"",""trial"",""time""
""fullscreenenter"",""1"",""3479""
","
","
","""event"",""trial"",""time""
""fullscreenenter"",""1"",""3479""
","
","","","-1","","","21","10160","4728","&#9826;","elianto","#f73b6a7A","-1","-1","1","0","[]","0","0","3","","","","","","","",""
"pit-trial","64","515673","0.0-2.0-14.1-0.1","battery-v0.2","","""event"",""trial"",""time""
""fullscreenenter"",""1"",""3479""
","
","
","""event"",""trial"",""time""
""fullscreenenter"",""1"",""3479""
","
","","","-1","","","21","10160","4728","&#9826;","elianto","#f73b6a7A","-1","-1","1","0","[]","0","0","3","","","","","","","",""
"pit-trial","65","520525","0.0-2.0-14.1-1.1","battery-v0.2","","""event"",""trial"",""time""
""fullscreenenter"",""1"",""3479""
","
","
","""event"",""trial"",""time""
""fullscreenenter"",""1"",""3479""
","
","","","-1","","","21","10160","4728","&#9826;","elianto","#f73b6a7A","-1","-1","1","0","[]","0","0","3","","","","","","","",""
"pit-trial","66","525377","0.0-2.0-14.1-2.1","battery-v0.2","","""event"",""trial"",""time""
""fullscreenenter"",""1"",""3479""
","
","
","""event"",""trial"",""time""
""fullscreenenter"",""1"",""3479""
","
","","","-1","","","21","10160","4728","&#9826;","elianto","#f73b6a7A","-1","-1","1","0","[]","0","0","3","","","","","","","",""
"pit-trial","67","530229","0.0-2.0-14.1-3.1","battery-v0.2","","""event"",""trial"",""time""
""fullscreenenter"",""1"",""3479""
","
","
","""event"",""trial"",""time""
""fullscreenenter"",""1"",""3479""
","
","","","-1","","","21","10160","4728","&#9826;","elianto","#f73b6a7A","-1","-1","1","-10","[]","0","0","3","","","","","","","",""
"pit-trial","68","535081","0.0-2.0-14.1-4.1","battery-v0.2","","""event"",""trial"",""time""
""fullscreenenter"",""1"",""3479""
","
","
","""event"",""trial"",""time""
""fullscreenenter"",""1"",""3479""
","
","","","-1","","","21","10160","4728","&#9826;","elianto","#f73b6a7A","-1","-1","1","0","[]","0","0","3","","","","","","","",""
"pit-trial","69","539934","0.0-2.0-14.2-0.2","battery-v0.2","","""event"",""trial"",""time""
""fullscreenenter"",""1"",""3479""
","
","
","""event"",""trial"",""time""
""fullscreenenter"",""1"",""3479""
","
","","","-1","","","21","10160","4728","&#9826;","elianto","#f73b6a7A","-1","-1","1","0","[]","0","0","3","","","","","","","",""
"pit-trial","70","544787","0.0-2.0-14.2-1.2","battery-v0.2","","""event"",""trial"",""time""
""fullscreenenter"",""1"",""3479""
","
","
","""event"",""trial"",""time""
""fullscreenenter"",""1"",""3479""
","
","","","-1","","","21","10160","4728","&#9826;","elianto","#f73b6a7A","-1","-1","1","0","[]","0","0","3","","","","","","","",""
"pit-trial","71","549640","0.0-2.0-14.2-2.2","battery-v0.2","","""event"",""trial"",""time""
""fullscreenenter"",""1"",""3479""
","
","
","""event"",""trial"",""time""
""fullscreenenter"",""1"",""3479""
","
","","","-1","","","21","10160","4728","&#9826;","elianto","#f73b6a7A","-1","-1","1","0","[]","0","0","3","","","","","","","",""
"pit-trial","72","554492","0.0-2.0-14.2-3.2","battery-v0.2","","""event"",""trial"",""time""
""fullscreenenter"",""1"",""3479""
","
","
","""event"",""trial"",""time""
""fullscreenenter"",""1"",""3479""
","
","","","-1","","","21","10160","4728","&#9826;","elianto","#f73b6a7A","-1","-1","1","-10","[]","0","0","3","","","","","","","",""
"pit-trial","73","559345","0.0-2.0-14.2-4.2","battery-v0.2","","""event"",""trial"",""time""
""fullscreenenter"",""1"",""3479""
","
","
","""event"",""trial"",""time""
""fullscreenenter"",""1"",""3479""
","
","","","-1","","","21","10160","4728","&#9826;","elianto","#f73b6a7A","-1","-1","1","0","[]","0","0","3","","","","","","","",""
"pit-trial","74","564198","0.0-2.0-14.3-0.3","battery-v0.2","","""event"",""trial"",""time""
""fullscreenenter"",""1"",""3479""
","
","
","""event"",""trial"",""time""
""fullscreenenter"",""1"",""3479""
","
","","","-1","","","21","10160","4728","&#9826;","elianto","#f73b6a7A","-1","-1","1","0","[]","0","0","3","","","","","","","",""
"pit-trial","75","569050","0.0-2.0-14.3-1.3","battery-v0.2","","""event"",""trial"",""time""
""fullscreenenter"",""1"",""3479""
","
","
","""event"",""trial"",""time""
""fullscreenenter"",""1"",""3479""
","
","","","-1","","","21","10160","4728","&#9826;","elianto","#f73b6a7A","-1","-1","1","0","[]","0","0","3","","","","","","","",""
"pit-trial","76","573902","0.0-2.0-14.3-2.3","battery-v0.2","","""event"",""trial"",""time""
""fullscreenenter"",""1"",""3479""
","
","
","""event"",""trial"",""time""
""fullscreenenter"",""1"",""3479""
","
","","","-1","","","21","10160","4728","&#9826;","elianto","#f73b6a7A","-1","-1","1","0","[]","0","0","3","","","","","","","",""
"pit-trial","77","578756","0.0-2.0-14.3-3.3","battery-v0.2","","""event"",""trial"",""time""
""fullscreenenter"",""1"",""3479""
","
","
","""event"",""trial"",""time""
""fullscreenenter"",""1"",""3479""
","
","","","-1","","","21","10160","4728","&#9826;","elianto","#f73b6a7A","-1","-1","1","-10","[]","0","0","3","","","","","","","",""
"pit-trial","78","583610","0.0-2.0-14.3-4.3","battery-v0.2","","""event"",""trial"",""time""
""fullscreenenter"",""1"",""3479""
","
","
","""event"",""trial"",""time""
""fullscreenenter"",""1"",""3479""
","
","","","-1","","","21","10160","4728","&#9826;","elianto","#f73b6a7A","-1","-1","1","0","[]","0","0","3","","","","","","","",""
"call-function","79","583611","0.0-2.0-15.0","battery-v0.2","","""event"",""trial"",""time""
""fullscreenenter"",""1"",""3479""
","
","
","""event"",""trial"",""time""
""fullscreenenter"",""1"",""3479""
","
","","","","","","","","","","","","","","","","","","","","","","","","","","",""
"pit-instructions","80","610696","0.0-2.0-16.0","battery-v0.2","","""event"",""trial"",""time""
""fullscreenenter"",""1"",""3479""
","
","
","""event"",""trial"",""time""
""fullscreenenter"",""1"",""3479""
","
","","[{""page_index"":0,""viewing_time"":6473.299999952316},{""page_index"":1,""viewing_time"":11380},{""page_index"":2,""viewing_time"":4412},{""page_index"":3,""viewing_time"":4820}]","27085.599999904633","","","","","","","","","","","","","","","","","","","","","","","",""
"pit-trial","81","613896","0.0-2.0-17.0-0.0","battery-v0.2","","""event"",""trial"",""time""
""fullscreenenter"",""1"",""3479""
","
","
","""event"",""trial"",""time""
""fullscreenenter"",""1"",""3479""
","
","","","331.39999997615814","","","21","10160","4728","&#9789;","elianto","#f73b6a7A"," "," ","1","0","[1185.5]","1","0","4","","","","","","","",""
"pit-trial","82","617269","0.0-2.0-17.0-1.0","battery-v0.2","","""event"",""trial"",""time""
""fullscreenenter"",""1"",""3479""
","
","
","""event"",""trial"",""time""
""fullscreenenter"",""1"",""3479""
","
","","","508.2999999523163","","","21","10160","4728","&#9789;","elianto","#f73b6a7A"," "," ","1","0","[98.29999995231628,1358.2999999523163]","2","0","4","","","","","","","",""
"pit-trial","83","620195","0.0-2.0-17.0-2.0","battery-v0.2","","""event"",""trial"",""time""
""fullscreenenter"",""1"",""3479""
","
","
","""event"",""trial"",""time""
""fullscreenenter"",""1"",""3479""
","
","","","63.200000047683716","","","21","10160","4728","&#9789;","elianto","#f73b6a7A"," "," ","1","0","[914.1000000238419]","1","0","4","","","","","","","",""
"pit-trial","84","623258","0.0-2.0-17.0-3.0","battery-v0.2","","""event"",""trial"",""time""
""fullscreenenter"",""1"",""3479""
","
","
","""event"",""trial"",""time""
""fullscreenenter"",""1"",""3479""
","
","","","207.59999990463257","","","21","10160","4728","&#9789;","elianto","#f73b6a7A"," "," ","1","-10","[830.3999999761581,1058.2999999523163]","2","0","4","","","","","","","",""
"pit-trial","85","626335","0.0-2.0-17.0-4.0","battery-v0.2","","""event"",""trial"",""time""
""fullscreenenter"",""1"",""3479""
","
","
","""event"",""trial"",""time""
""fullscreenenter"",""1"",""3479""
","
","","","213.79999995231628","","","21","10160","4728","&#9789;","elianto","#f73b6a7A"," "," ","1","0","[833.5,1067.1999999284744]","2","0","4","","","","","","","",""
"pit-trial","86","629252","0.0-2.0-17.1-0.1","battery-v0.2","","""event"",""trial"",""time""
""fullscreenenter"",""1"",""3479""
","
","
","""event"",""trial"",""time""
""fullscreenenter"",""1"",""3479""
","
","","","57.89999997615814","","","21","10160","4728","&#9789;","elianto","#f73b6a7A"," "," ","1","0","[257.09999990463257,527.8999999761581,732.5,911.5999999046326]","4","0","4","","","","","","","",""
"pit-trial","87","632123","0.0-2.0-17.1-1.1","battery-v0.2","","""event"",""trial"",""time""
""fullscreenenter"",""1"",""3479""
","
","
","""event"",""trial"",""time""
""fullscreenenter"",""1"",""3479""
","
","","","1.5","","","21","10160","4728","&#9789;","elianto","#f73b6a7A"," "," ","1","0","[854.6999999284744]","1","0","4","","","","","","","",""
"pit-trial","88","634999","0.0-2.0-17.1-2.1","battery-v0.2","","""event"",""trial"",""time""
""fullscreenenter"",""1"",""3479""
","
","
","""event"",""trial"",""time""
""fullscreenenter"",""1"",""3479""
","
","","","16.600000023841858","","","21","10160","4728","&#9789;","elianto","#f73b6a7A"," "," ","1","0","[866.7000000476837,1108.5]","2","0","4","","","","","","","",""
"pit-trial","89","637878","0.0-2.0-17.1-3.1","battery-v0.2","","""event"",""trial"",""time""
""fullscreenenter"",""1"",""3479""
","
","
","""event"",""trial"",""time""
""fullscreenenter"",""1"",""3479""
","
","","","16.100000023841858","","","21","10160","4728","&#9789;","elianto","#f73b6a7A"," "," ","1","-10","[866.3999999761581]","1","0","4","","","","","","","",""
"pit-trial","90","640838","0.0-2.0-17.1-4.1","battery-v0.2","","""event"",""trial"",""time""
""fullscreenenter"",""1"",""3479""
","
","
","""event"",""trial"",""time""
""fullscreenenter"",""1"",""3479""
","
","","","106.89999997615814","","","21","10160","4728","&#9789;","elianto","#f73b6a7A"," "," ","1","0","[959.1000000238419]","1","0","4","","","","","","","",""
"pit-trial","91","643774","0.0-2.0-17.2-0.2","battery-v0.2","","""event"",""trial"",""time""
""fullscreenenter"",""1"",""3479""
","
","
","""event"",""trial"",""time""
""fullscreenenter"",""1"",""3479""
","
","","","83.30000007152557","","","21","10160","4728","&#9789;","elianto","#f73b6a7A"," "," ","1","0","[933.6000000238419]","1","0","4","","","","","","","",""
"pit-trial","92","646702","0.0-2.0-17.2-1.2","battery-v0.2","","""event"",""trial"",""time""
""fullscreenenter"",""1"",""3479""
","
","
","""event"",""trial"",""time""
""fullscreenenter"",""1"",""3479""
","
","","","76.69999992847443","","","21","10160","4728","&#9789;","elianto","#f73b6a7A"," "," ","1","0","[927]","1","0","4","","","","","","","",""
"pit-trial","93","649606","0.0-2.0-17.2-2.2","battery-v0.2","","""event"",""trial"",""time""
""fullscreenenter"",""1"",""3479""
","
","
","""event"",""trial"",""time""
""fullscreenenter"",""1"",""3479""
","
","","","50.799999952316284","","","21","10160","4728","&#9789;","elianto","#f73b6a7A"," "," ","1","0","[901.7999999523163]","1","0","4","","","","","","","",""
"pit-trial","94","652538","0.0-2.0-17.2-3.2","battery-v0.2","","""event"",""trial"",""time""
""fullscreenenter"",""1"",""3479""
","
","
","""event"",""trial"",""time""
""fullscreenenter"",""1"",""3479""
","
","","","79.69999992847443","","","21","10160","4728","&#9789;","elianto","#f73b6a7A"," "," ","1","-10","[929.8999999761581]","1","0","4","","","","","","","",""
"pit-trial","95","657390","0.0-2.0-17.2-4.2","battery-v0.2","","""event"",""trial"",""time""
""fullscreenenter"",""1"",""3479""
","
","
","""event"",""trial"",""time""
""fullscreenenter"",""1"",""3479""
","
","","","-1","","","21","10160","4728","&#9789;","elianto","#f73b6a7A"," ","-1","0","-10","[806.1000000238419,3420.100000023842]","2","0","4","","","","","","","",""
"pit-trial","96","660245","0.0-2.0-17.3-0.3","battery-v0.2","","""event"",""trial"",""time""
""fullscreenenter"",""1"",""3479""
","
","
","""event"",""trial"",""time""
""fullscreenenter"",""1"",""3479""
","
","","","2.600000023841858","","","21","10160","4728","&#9789;","elianto","#f73b6a7A"," "," ","1","0","[852.7999999523163]","1","0","4","","","","","","","",""
"pit-trial","97","663265","0.0-2.0-17.3-1.3","battery-v0.2","","""event"",""trial"",""time""
""fullscreenenter"",""1"",""3479""
","
","
","""event"",""trial"",""time""
""fullscreenenter"",""1"",""3479""
","
","","","167.59999990463257","","","21","10160","4728","&#9789;","elianto","#f73b6a7A"," "," ","1","0","[305,502.89999997615814,679.3000000715256,836.8999999761581,1017.8999999761581,1428.8999999761581,1644.8000000715256,1869.8000000715256]","8","0","4","","","","","","","",""
"pit-trial","98","666953","0.0-2.0-17.3-2.3","battery-v0.2","","""event"",""trial"",""time""
""fullscreenenter"",""1"",""3479""
","
","
","""event"",""trial"",""time""
""fullscreenenter"",""1"",""3479""
","
","","","836.9000000953674","","","21","10160","4728","&#9789;","elianto","#f73b6a7A"," "," ","1","0","[1687.1000000238419,1808.1999999284744,2529.100000023842]","3","0","4","","","","","","","",""
"pit-trial","99","671031","0.0-2.0-17.3-3.3","battery-v0.2","","""event"",""trial"",""time""
""fullscreenenter"",""1"",""3479""
","
","
","""event"",""trial"",""time""
""fullscreenenter"",""1"",""3479""
","
","","","1225.5","","","21","10160","4728","&#9789;","elianto","#f73b6a7A"," "," ","1","-10","[2076]","1","0","4","","","","","","","",""
"pit-trial","100","673903","0.0-2.0-17.3-4.3","battery-v0.2","","""event"",""trial"",""time""
""fullscreenenter"",""1"",""3479""
","
","
","""event"",""trial"",""time""
""fullscreenenter"",""1"",""3479""
","
","","","20.399999976158142","","","21","10160","4728","&#9789;","elianto","#f73b6a7A"," "," ","1","0","[871,1081.9000000953674]","2","0","4","","","","","","","",""
"call-function","101","673904","0.0-2.0-18.0","battery-v0.2","","""event"",""trial"",""time""
""fullscreenenter"",""1"",""3479""
","
","
","""event"",""trial"",""time""
""fullscreenenter"",""1"",""3479""
","
","","","","","","","","","","","","","","","","","","","","","","","","","","",""
"pit-instructions","102","732406","0.0-2.0-19.0","battery-v0.2","","""event"",""trial"",""time""
""fullscreenenter"",""1"",""3479""
","
","
","""event"",""trial"",""time""
""fullscreenenter"",""1"",""3479""
","
","","[{""page_index"":0,""viewing_time"":6388.400000095367},{""page_index"":1,""viewing_time"":5688.199999928474},{""page_index"":2,""viewing_time"":9160.600000023842},{""page_index"":3,""viewing_time"":5490.100000023842},{""page_index"":4,""viewing_time"":6122.799999952316},{""page_index"":5,""viewing_time"":8822.100000023842},{""page_index"":6,""viewing_time"":5778.600000023842},{""page_index"":7,""viewing_time"":6257.299999952316},{""page_index"":8,""viewing_time"":4793.700000047684}]","58501.90000009537","","","","","","","","","","","","","","","","","","","","","","","",""
"pit-comprehension","103","736928","0.0-2.0-20.0-0.0","battery-v0.2","","""event"",""trial"",""time""
""fullscreenenter"",""1"",""3479""
","
","
","""event"",""trial"",""time""
""fullscreenenter"",""1"",""3479""
","
","","","4519.699999928474","[""SPACE""]","0","21","10160","4728","","","","","","","","","","","","","","","","","","",""
"pit-instructions","104","739970","0.0-2.0-20.0-1.0","battery-v0.2","","""event"",""trial"",""time""
""fullscreenenter"",""1"",""3479""
","
","
","""event"",""trial"",""time""
""fullscreenenter"",""1"",""3479""
","
","","[{""page_index"":0,""viewing_time"":3017.600000023842}]","3017.7000000476837","","","","","","","","","","","","","","","","","","","","","","","",""
"pit-comprehension","105","746502","0.0-2.0-21.0-0.0","battery-v0.2","","""event"",""trial"",""time""
""fullscreenenter"",""1"",""3479""
","
","
","""event"",""trial"",""time""
""fullscreenenter"",""1"",""3479""
","
","","","6530.199999928474","[""10""]","0","21","10160","4728","","","","","","","","","","","","","","","","","","",""
"pit-instructions","106","750257","0.0-2.0-21.0-1.0","battery-v0.2","","""event"",""trial"",""time""
""fullscreenenter"",""1"",""3479""
","
","
","""event"",""trial"",""time""
""fullscreenenter"",""1"",""3479""
","
","","[{""page_index"":0,""viewing_time"":3732.9000000953674}]","3733","","","","","","","","","","","","","","","","","","","","","","","",""
"pit-comprehension","107","756603","0.0-2.0-22.0-0.0","battery-v0.2","","""event"",""trial"",""time""
""fullscreenenter"",""1"",""3479""
","
","
","""event"",""trial"",""time""
""fullscreenenter"",""1"",""3479""
","
","","","6344.899999976158","[""0""]","0","21","10160","4728","","","","","","","","","","","","","","","","","","",""
"pit-instructions","108","761700","0.0-2.0-22.0-1.0","battery-v0.2","","""event"",""trial"",""time""
""fullscreenenter"",""1"",""3479""
","
","
","""event"",""trial"",""time""
""fullscreenenter"",""1"",""3479""
","
","","[{""page_index"":0,""viewing_time"":5073.5}]","5073.600000023842","","","","","","","","","","","","","","","","","","","","","","","",""
"pit-comprehension","109","769911","0.0-2.0-23.0-0.0","battery-v0.2","","""event"",""trial"",""time""
""fullscreenenter"",""1"",""3479""
","
","
","""event"",""trial"",""time""
""fullscreenenter"",""1"",""3479""
","
","","","8209.299999952316","[""True""]","0","21","10160","4728","","","","","","","","","","","","","","","","","","",""
"pit-instructions","110","772058","0.0-2.0-23.0-1.0","battery-v0.2","","""event"",""trial"",""time""
""fullscreenenter"",""1"",""3479""
","
","
","""event"",""trial"",""time""
""fullscreenenter"",""1"",""3479""
","
","","[{""page_index"":0,""viewing_time"":2123.5}]","2123.7000000476837","","","","","","","","","","","","","","","","","","","","","","","",""
"pit-comprehension","111","779387","0.0-2.0-24.0-0.0","battery-v0.2","","""event"",""trial"",""time""
""fullscreenenter"",""1"",""3479""
","
","
","""event"",""trial"",""time""
""fullscreenenter"",""1"",""3479""
","
","","","7327.899999976158","[""True""]","0","21","10160","4728","","","","","","","","","","","","","","","","","","",""
"pit-instructions","112","780926","0.0-2.0-24.0-1.0","battery-v0.2","","""event"",""trial"",""time""
""fullscreenenter"",""1"",""3479""
","
","
","""event"",""trial"",""time""
""fullscreenenter"",""1"",""3479""
","
","","[{""page_index"":0,""viewing_time"":1514.4000000953674}]","1514.5","","","","","","","","","","","","","","","","","","","","","","","",""
"pit-comprehension","113","787242","0.0-2.0-25.0-0.0","battery-v0.2","","""event"",""trial"",""time""
""fullscreenenter"",""1"",""3479""
","
","
","""event"",""trial"",""time""
""fullscreenenter"",""1"",""3479""
","
","","","6314.5","[""True""]","0","21","10160","4728","","","","","","","","","","","","","","","","","","",""
"pit-instructions","114","789180","0.0-2.0-25.0-1.0","battery-v0.2","","""event"",""trial"",""time""
""fullscreenenter"",""1"",""3479""
","
","
","""event"",""trial"",""time""
""fullscreenenter"",""1"",""3479""
","
","","[{""page_index"":0,""viewing_time"":1913.7000000476837}]","1913.8999999761581","","","","","","","","","","","","","","","","","","","","","","","",""
"pit-comprehension","115","796278","0.0-2.0-26.0-0.0","battery-v0.2","","""event"",""trial"",""time""
""fullscreenenter"",""1"",""3479""
","
","
","""event"",""trial"",""time""
""fullscreenenter"",""1"",""3479""
","
","","","7096.199999928474","[""False""]","0","21","10160","4728","","","","","","","","","","","","","","","","","","",""
"pit-instructions","116","798022","0.0-2.0-26.0-1.0","battery-v0.2","","""event"",""trial"",""time""
""fullscreenenter"",""1"",""3479""
","
","
","""event"",""trial"",""time""
""fullscreenenter"",""1"",""3479""
","
","","[{""page_index"":0,""viewing_time"":1717.1000000238419}]","1717.3000000715256","","","","","","","","","","","","","","","","","","","","","","","",""
"pit-instructions","117","820565","0.0-3.0","battery-v0.2","","""event"",""trial"",""time""
""fullscreenenter"",""1"",""3479""
","
","
","""event"",""trial"",""time""
""fullscreenenter"",""1"",""3479""
","
","","[{""page_index"":0,""viewing_time"":3415.5},{""page_index"":1,""viewing_time"":5475.799999952316},{""page_index"":2,""viewing_time"":13651}]","22542.5","","","","","","","","","","","","","","","","","","","","","","","",""
"pit-trial","118","824360","0.0-4.0","battery-v0.2","","""event"",""trial"",""time""
""fullscreenenter"",""1"",""3479""
","
","
","""event"",""trial"",""time""
""fullscreenenter"",""1"",""3479""
","
","","","933.3999999761581","","","21","10160","4728","&#9752;","elianto","#f73b6a7A"," "," ","1","0","[1783.7000000476837]","1","1","","","10160","1","3","3","lose","go","0"
"pit-trial","119","829147","0.0-5.0","battery-v0.2","","""event"",""trial"",""time""
""fullscreenenter"",""1"",""3479""
","
","
","""event"",""trial"",""time""
""fullscreenenter"",""1"",""3479""
","
","","","1919.6000000238419","","","21","10160","4728","&#9730;","elianto","#3366ff99"," "," ","1","+10","[2773.7000000476837]","1","1","","","10160","2","1","1","win","go","0"
"pit-trial","120","833080","0.0-6.0","battery-v0.2","","""event"",""trial"",""time""
""fullscreenenter"",""1"",""3479""
","
","
","""event"",""trial"",""time""
""fullscreenenter"",""1"",""3479""
","
","","","1076.0999999046326","","","21","10160","4728","&#9728;","elianto","#f73b6a7A","-1"," ","0","-10","[1928.0999999046326]","1","1","","","10160","3","0","4","lose","no-go","0"
"pit-trial","121","836401","0.0-7.0","battery-v0.2","","""event"",""trial"",""time""
""fullscreenenter"",""1"",""3479""
","
","
","""event"",""trial"",""time""
""fullscreenenter"",""1"",""3479""
","
","","","456","","","21","10160","4728","&#9733;","elianto","#3366ff99","-1"," ","0","+10","[1306.5]","1","1","","","10160","4","2","2","win","no-go","1"
"pit-trial","122","840072","0.0-8.0","battery-v0.2","","""event"",""trial"",""time""
""fullscreenenter"",""1"",""3479""
","
","
","""event"",""trial"",""time""
""fullscreenenter"",""1"",""3479""
","
","","","808.5","","","21","10160","4728","&#9730;","elianto","#3366ff99"," "," ","1","+10","[1662.6999999284744]","1","1","","","10160","5","1","1","win","go","0"
"pit-trial","123","843371","0.0-9.0","battery-v0.2","","""event"",""trial"",""time""
""fullscreenenter"",""1"",""3479""
","
","
","""event"",""trial"",""time""
""fullscreenenter"",""1"",""3479""
","
","","","446.10000002384186","","","21","10160","4728","&#9733;","elianto","#3366ff99","-1"," ","0","0","[1296.6000000238419]","1","1","","","10160","6","2","2","win","no-go","0"
"pit-trial","124","848224","0.0-10.0","battery-v0.2","","""event"",""trial"",""time""
""fullscreenenter"",""1"",""3479""
","
","
","""event"",""trial"",""time""
""fullscreenenter"",""1"",""3479""
","
","","","-1","","","21","10160","4728","&#9752;","elianto","#f73b6a7A"," ","-1","0","-10","[3997.9000000953674]","1","1","","","10160","7","3","3","lose","go","0"
"pit-trial","125","851181","0.0-11.0","battery-v0.2","","""event"",""trial"",""time""
""fullscreenenter"",""1"",""3479""
","
","
","""event"",""trial"",""time""
""fullscreenenter"",""1"",""3479""
","
","","","106.19999992847443","","","21","10160","4728","&#9728;","elianto","#f73b6a7A","-1"," ","0","-10","[956.5999999046326]","1","1","","","10160","8","0","4","lose","no-go","0"
"pit-trial","126","854551","0.0-12.0","battery-v0.2","","""event"",""trial"",""time""
""fullscreenenter"",""1"",""3479""
","
","
","""event"",""trial"",""time""
""fullscreenenter"",""1"",""3479""
","
","","","518.3999999761581","","","21","10160","4728","&#9733;","elianto","#3366ff99","-1"," ","0","0","[1369.0999999046326]","1","1","","","10160","9","2","2","win","no-go","0"
"pit-trial","127","858135","0.0-13.0","battery-v0.2","","""event"",""trial"",""time""
""fullscreenenter"",""1"",""3479""
","
","
","""event"",""trial"",""time""
""fullscreenenter"",""1"",""3479""
","
","","","732.6000000238419","","","21","10160","4728","&#9752;","elianto","#f73b6a7A"," "," ","1","0","[1582.8000000715256]","1","1","","","10160","10","3","3","lose","go","0"
"pit-trial","128","861145","0.0-14.0","battery-v0.2","","""event"",""trial"",""time""
""fullscreenenter"",""1"",""3479""
","
","
","""event"",""trial"",""time""
""fullscreenenter"",""1"",""3479""
","
","","","157.20000004768372","","","21","10160","4728","&#9730;","elianto","#3366ff99"," "," ","1","+10","[1007.8000000715256]","1","1","","","10160","11","1","1","win","go","0"
"pit-trial","129","864268","0.0-15.0","battery-v0.2","","""event"",""trial"",""time""
""fullscreenenter"",""1"",""3479""
","
","
","""event"",""trial"",""time""
""fullscreenenter"",""1"",""3479""
","
","","","270.8000000715256","","","21","10160","4728","&#9728;","elianto","#f73b6a7A","-1"," ","0","-10","[1121.4000000953674]","1","1","","","10160","12","0","4","lose","no-go","0"
"pit-trial","130","867616","0.0-16.0","battery-v0.2","","""event"",""trial"",""time""
""fullscreenenter"",""1"",""3479""
","
","
","""event"",""trial"",""time""
""fullscreenenter"",""1"",""3479""
","
","","","494.89999997615814","","","21","10160","4728","&#9730;","elianto","#3366ff99"," "," ","1","+10","[1345.7999999523163]","1","1","","","10160","13","1","1","win","go","0"
"pit-trial","131","871588","0.0-17.0","battery-v0.2","","""event"",""trial"",""time""
""fullscreenenter"",""1"",""3479""
","
","
","""event"",""trial"",""time""
""fullscreenenter"",""1"",""3479""
","
","","","1119.3000000715256","","","21","10160","4728","&#9752;","elianto","#f73b6a7A"," "," ","1","0","[1970]","1","1","","","10160","14","3","3","lose","go","0"
"pit-trial","132","875492","0.0-18.0","battery-v0.2","","""event"",""trial"",""time""
""fullscreenenter"",""1"",""3479""
","
","
","""event"",""trial"",""time""
""fullscreenenter"",""1"",""3479""
","
","","","1051.8999999761581","","","21","10160","4728","&#9728;","elianto","#f73b6a7A","-1"," ","0","-10","[1902.2999999523163]","1","1","","","10160","15","0","4","lose","no-go","0"
"pit-trial","133","878891","0.0-19.0","battery-v0.2","","""event"",""trial"",""time""
""fullscreenenter"",""1"",""3479""
","
","
","""event"",""trial"",""time""
""fullscreenenter"",""1"",""3479""
","
","","","546","","","21","10160","4728","&#9733;","elianto","#3366ff99","-1"," ","0","0","[1396.8999999761581]","1","1","","","10160","16","2","2","win","no-go","0"
"pit-trial","134","882734","0.0-20.0","battery-v0.2","","""event"",""trial"",""time""
""fullscreenenter"",""1"",""3479""
","
","
","""event"",""trial"",""time""
""fullscreenenter"",""1"",""3479""
","
","","","991.8999999761581","","","21","10160","4728","&#9733;","elianto","#3366ff99","-1"," ","0","0","[1842]","1","1","","","10160","17","2","2","win","no-go","0"
"pit-trial","135","886374","0.0-21.0","battery-v0.2","","""event"",""trial"",""time""
""fullscreenenter"",""1"",""3479""
","
","
","""event"",""trial"",""time""
""fullscreenenter"",""1"",""3479""
","
","","","787.2000000476837","","","21","10160","4728","&#9752;","elianto","#f73b6a7A"," "," ","1","-10","[1638]","1","1","","","10160","18","3","3","lose","go","1"
"pit-trial","136","890185","0.0-22.0","battery-v0.2","","""event"",""trial"",""time""
""fullscreenenter"",""1"",""3479""
","
","
","""event"",""trial"",""time""
""fullscreenenter"",""1"",""3479""
","
","","","958.8999999761581","","","21","10160","4728","&#9728;","elianto","#f73b6a7A","-1"," ","0","-10","[1809.0999999046326]","1","1","","","10160","19","0","4","lose","no-go","0"
"pit-trial","137","893722","0.0-23.0","battery-v0.2","","""event"",""trial"",""time""
""fullscreenenter"",""1"",""3479""
","
","
","""event"",""trial"",""time""
""fullscreenenter"",""1"",""3479""
","
","","","684.7000000476837","","","21","10160","4728","&#9730;","elianto","#3366ff99"," "," ","1","+10","[1536]","1","1","","","10160","20","1","1","win","go","0"
"pit-instructions","138","905259","0.0-24.0","battery-v0.2","","""event"",""trial"",""time""
""fullscreenenter"",""1"",""3479""
","
","
","""event"",""trial"",""time""
""fullscreenenter"",""1"",""3479""
","
","","[{""page_index"":0,""viewing_time"":5469.700000047684},{""page_index"":1,""viewing_time"":6066.200000047684}]","11536","","","","","","","","","","","","","","","","","","","","","","","",""
"pit-trial","139","908568","0.0-25.0","battery-v0.2","","""event"",""trial"",""time""
""fullscreenenter"",""1"",""3479""
","
","
","""event"",""trial"",""time""
""fullscreenenter"",""1"",""3479""
","
","","","452.10000002384186","","","21","10160","4728","r","elianto","#3366ff99"," "," ","1","+10","[1306.5]","1","2","","","10160","21","1","1","win","go","0"
"pit-trial","140","912448","0.0-26.0","battery-v0.2","","""event"",""trial"",""time""
""fullscreenenter"",""1"",""3479""
","
","
","""event"",""trial"",""time""
""fullscreenenter"",""1"",""3479""
","
","","","1025","","","21","10160","4728","y","elianto","#f73b6a7A","-1"," ","0","-10","[1876.6000000238419]","1","2","","","10160","22","2","4","lose","no-go","0"
"pit-trial","141","917306","0.0-27.0","battery-v0.2","","""event"",""trial"",""time""
""fullscreenenter"",""1"",""3479""
","
","
","""event"",""trial"",""time""
""fullscreenenter"",""1"",""3479""
","
","","","-1","","","21","10160","4728","h","elianto","#f73b6a7A"," ","-1","0","-10","[]","0","2","","","10160","23","3","3","lose","go","0"
"pit-trial","142","920745","0.0-28.0","battery-v0.2","","""event"",""trial"",""time""
""fullscreenenter"",""1"",""3479""
","
","
","""event"",""trial"",""time""
""fullscreenenter"",""1"",""3479""
","
","","","580.1000000238419","","","21","10160","4728","m","elianto","#f73b6a7A","-1"," ","0","0","[1431.8000000715256]","1","2","","","10160","24","0","4","lose","no-go","1"
"pit-trial","143","924389","0.0-29.0","battery-v0.2","","""event"",""trial"",""time""
""fullscreenenter"",""1"",""3479""
","
","
","""event"",""trial"",""time""
""fullscreenenter"",""1"",""3479""
","
","","","776.8999999761581","","","21","10160","4728","m","elianto","#f73b6a7A","-1"," ","0","0","[1631.5]","1","2","","","10160","25","0","4","lose","no-go","1"
"pit-trial","144","929266","0.0-30.0","battery-v0.2","","""event"",""trial"",""time""
""fullscreenenter"",""1"",""3479""
","
","
","""event"",""trial"",""time""
""fullscreenenter"",""1"",""3479""
","
","","","-1","","","21","10160","4728","y","elianto","#f73b6a7A","-1","-1","1","0","[]","0","2","","","10160","26","2","4","lose","no-go","0"
"pit-trial","145","932906","0.0-31.0","battery-v0.2","","""event"",""trial"",""time""
""fullscreenenter"",""1"",""3479""
","
","
","""event"",""trial"",""time""
""fullscreenenter"",""1"",""3479""
","
","","","778.3000000715256","","","21","10160","4728","h","elianto","#f73b6a7A"," "," ","1","0","[1632.6000000238419]","1","2","","","10160","27","3","3","lose","go","0"
"pit-trial","146","936262","0.0-32.0","battery-v0.2","","""event"",""trial"",""time""
""fullscreenenter"",""1"",""3479""
","
","
","""event"",""trial"",""time""
""fullscreenenter"",""1"",""3479""
","
","","","503.7999999523163","","","21","10160","4728","r","elianto","#3366ff99"," "," ","1","+10","[1355]","1","2","","","10160","28","1","1","win","go","0"
"pit-trial","147","939578","0.0-33.0","battery-v0.2","","""event"",""trial"",""time""
""fullscreenenter"",""1"",""3479""
","
","
","""event"",""trial"",""time""
""fullscreenenter"",""1"",""3479""
","
","","","464.60000002384186","","","21","10160","4728","r","elianto","#3366ff99"," "," ","1","+10","[1314.9000000953674]","1","2","","","10160","29","1","1","win","go","0"
"pit-trial","148","943199","0.0-34.0","battery-v0.2","","""event"",""trial"",""time""
""fullscreenenter"",""1"",""3479""
","
","
","""event"",""trial"",""time""
""fullscreenenter"",""1"",""3479""
","
","","","768.7999999523163","","","21","10160","4728","m","elianto","#f73b6a7A","-1"," ","0","-10","[1618.8000000715256]","1","2","","","10160","30","0","4","lose","no-go","0"
"pit-trial","149","946741","0.0-35.0","battery-v0.2","","""event"",""trial"",""time""
""fullscreenenter"",""1"",""3479""
","
","
","""event"",""trial"",""time""
""fullscreenenter"",""1"",""3479""
","
","","","689.4000000953674","","","21","10160","4728","h","elianto","#f73b6a7A"," "," ","1","0","[1540.1000000238419]","1","2","","","10160","31","3","3","lose","go","0"
"pit-trial","150","951594","0.0-36.0","battery-v0.2","","""event"",""trial"",""time""
""fullscreenenter"",""1"",""3479""
","
","
","""event"",""trial"",""time""
""fullscreenenter"",""1"",""3479""
","
","","","-1","","","21","10160","4728","y","elianto","#f73b6a7A","-1","-1","1","-10","[3847.3000000715256]","1","2","","","10160","32","2","4","lose","no-go","1"
"pit-trial","151","955103","0.0-37.0","battery-v0.2","","""event"",""trial"",""time""
""fullscreenenter"",""1"",""3479""
","
","
","""event"",""trial"",""time""
""fullscreenenter"",""1"",""3479""
","
","","","658.1000000238419","","","21","10160","4728","m","elianto","#f73b6a7A","-1"," ","0","-10","[1508.1000000238419]","1","2","","","10160","33","0","4","lose","no-go","0"
"pit-trial","152","958681","0.0-38.0","battery-v0.2","","""event"",""trial"",""time""
""fullscreenenter"",""1"",""3479""
","
","
","""event"",""trial"",""time""
""fullscreenenter"",""1"",""3479""
","
","","","725.3000000715256","","","21","10160","4728","h","elianto","#f73b6a7A"," "," ","1","0","[1577.1000000238419]","1","2","","","10160","34","3","3","lose","go","0"
"pit-trial","153","961992","0.0-39.0","battery-v0.2","","""event"",""trial"",""time""
""fullscreenenter"",""1"",""3479""
","
","
","""event"",""trial"",""time""
""fullscreenenter"",""1"",""3479""
","
","","","459.39999997615814","","","21","10160","4728","r","elianto","#3366ff99"," "," ","1","0","[1310]","1","2","","","10160","35","1","1","win","go","1"
"pit-trial","154","965493","0.0-40.0","battery-v0.2","","""event"",""trial"",""time""
""fullscreenenter"",""1"",""3479""
","
","
","""event"",""trial"",""time""
""fullscreenenter"",""1"",""3479""
","
","","","647.4000000953674","","","21","10160","4728","y","elianto","#f73b6a7A","-1"," ","0","-10","[1499.7000000476837]","1","2","","","10160","36","2","4","lose","no-go","0"
"pit-trial","155","970346","0.0-41.0","battery-v0.2","","""event"",""trial"",""time""
""fullscreenenter"",""1"",""3479""
","
","
","""event"",""trial"",""time""
""fullscreenenter"",""1"",""3479""
","
","","","-1","","","21","10160","4728","y","elianto","#f73b6a7A","-1","-1","1","0","[]","0","2","","","10160","37","2","4","lose","no-go","0"
"pit-trial","156","973598","0.0-42.0","battery-v0.2","","""event"",""trial"",""time""
""fullscreenenter"",""1"",""3479""
","
","
","""event"",""trial"",""time""
""fullscreenenter"",""1"",""3479""
","
","","","398.90000009536743","","","21","10160","4728","r","elianto","#3366ff99"," "," ","1","+10","[1250.2000000476837]","1","2","","","10160","38","1","1","win","go","0"
"pit-trial","157","977151","0.0-43.0","battery-v0.2","","""event"",""trial"",""time""
""fullscreenenter"",""1"",""3479""
","
","
","""event"",""trial"",""time""
""fullscreenenter"",""1"",""3479""
","
","","","699.7000000476837","","","21","10160","4728","m","elianto","#f73b6a7A","-1"," ","0","-10","[1550.8999999761581]","1","2","","","10160","39","0","4","lose","no-go","0"
"pit-trial","158","981158","0.0-44.0","battery-v0.2","","""event"",""trial"",""time""
""fullscreenenter"",""1"",""3479""
","
","
","""event"",""trial"",""time""
""fullscreenenter"",""1"",""3479""
","
","","","1155.1000000238419","","","21","10160","4728","h","elianto","#f73b6a7A"," "," ","1","0","[2005.5]","1","2","","","10160","40","3","3","lose","go","0"
"pit-trial","159","984624","0.0-45.0","battery-v0.2","","""event"",""trial"",""time""
""fullscreenenter"",""1"",""3479""
","
","
","""event"",""trial"",""time""
""fullscreenenter"",""1"",""3479""
","
","","","613.5","","","21","10160","4728","h","elianto","#f73b6a7A"," "," ","1","-10","[1464.5]","1","2","","","10160","41","3","3","lose","go","1"
"pit-trial","160","988211","0.0-46.0","battery-v0.2","","""event"",""trial"",""time""
""fullscreenenter"",""1"",""3479""
","
","
","""event"",""trial"",""time""
""fullscreenenter"",""1"",""3479""
","
","","","734.9000000953674","","","21","10160","4728","y","elianto","#f73b6a7A","-1"," ","0","-10","[1585.1000000238419]","1","2","","","10160","42","2","4","lose","no-go","0"
"pit-trial","161","993064","0.0-47.0","battery-v0.2","","""event"",""trial"",""time""
""fullscreenenter"",""1"",""3479""
","
","
","""event"",""trial"",""time""
""fullscreenenter"",""1"",""3479""
","
","","","-1","","","21","10160","4728","m","elianto","#f73b6a7A","-1","-1","1","0","[]","0","2","","","10160","43","0","4","lose","no-go","0"
"pit-trial","162","996368","0.0-48.0","battery-v0.2","","""event"",""trial"",""time""
""fullscreenenter"",""1"",""3479""
","
","
","""event"",""trial"",""time""
""fullscreenenter"",""1"",""3479""
","
","","","452.90000009536743","","","21","10160","4728","r","elianto","#3366ff99"," "," ","1","+10","[1303.4000000953674]","1","2","","","10160","44","1","1","win","go","0"
"pit-trial","163","1001222","0.0-49.0","battery-v0.2","","""event"",""trial"",""time""
""fullscreenenter"",""1"",""3479""
","
","
","""event"",""trial"",""time""
""fullscreenenter"",""1"",""3479""
","
","","","-1","","","21","10160","4728","m","elianto","#f73b6a7A","-1","-1","1","0","[]","0","2","","","10160","45","0","4","lose","no-go","0"
"pit-trial","164","1005429","0.0-50.0","battery-v0.2","","""event"",""trial"",""time""
""fullscreenenter"",""1"",""3479""
","
","
","""event"",""trial"",""time""
""fullscreenenter"",""1"",""3479""
","
","","","1355.1000000238419","","","21","10160","4728","h","elianto","#f73b6a7A"," "," ","1","0","[2205.7000000476837]","1","2","","","10160","46","3","3","lose","go","0"
"pit-trial","165","1008870","0.0-51.0","battery-v0.2","","""event"",""trial"",""time""
""fullscreenenter"",""1"",""3479""
","
","
","""event"",""trial"",""time""
""fullscreenenter"",""1"",""3479""
","
","","","590.3000000715256","","","21","10160","4728","z","elianto","#3366ff99","-1"," ","0","0","[1440.9000000953674]","1","2","","","10160","47","4","2","win","no-go","0"
"pit-trial","166","1012220","0.0-52.0","battery-v0.2","","""event"",""trial"",""time""
""fullscreenenter"",""1"",""3479""
","
","
","""event"",""trial"",""time""
""fullscreenenter"",""1"",""3479""
","
","","","497.6999999284744","","","21","10160","4728","y","elianto","#f73b6a7A","-1"," ","0","-10","[1348.1999999284744]","1","2","","","10160","48","2","4","lose","no-go","0"
"pit-trial","167","1015486","0.0-53.0","battery-v0.2","","""event"",""trial"",""time""
""fullscreenenter"",""1"",""3479""
","
","
","""event"",""trial"",""time""
""fullscreenenter"",""1"",""3479""
","
","","","413.7000000476837","","","21","10160","4728","z","elianto","#3366ff99","-1"," ","0","0","[1264.2999999523163]","1","2","","","10160","49","4","2","win","no-go","0"
"pit-trial","168","1019078","0.0-54.0","battery-v0.2","","""event"",""trial"",""time""
""fullscreenenter"",""1"",""3479""
","
","
","""event"",""trial"",""time""
""fullscreenenter"",""1"",""3479""
","
","","","740.1000000238419","","","21","10160","4728","m","elianto","#f73b6a7A","-1"," ","0","-10","[1590.8999999761581]","1","2","","","10160","50","0","4","lose","no-go","0"
"pit-trial","169","1022393","0.0-55.0","battery-v0.2","","""event"",""trial"",""time""
""fullscreenenter"",""1"",""3479""
","
","
","""event"",""trial"",""time""
""fullscreenenter"",""1"",""3479""
","
","","","463.3000000715256","","","21","10160","4728","h","elianto","#f73b6a7A"," "," ","1","0","[1314.1000000238419]","1","2","","","10160","51","3","3","lose","go","0"
"pit-trial","170","1025735","0.0-56.0","battery-v0.2","","""event"",""trial"",""time""
""fullscreenenter"",""1"",""3479""
","
","
","""event"",""trial"",""time""
""fullscreenenter"",""1"",""3479""
","
","","","489.90000009536743","","","21","10160","4728","r","elianto","#3366ff99"," "," ","1","0","[1341]","1","2","","","10160","52","1","1","win","go","1"
"pit-trial","171","1030587","0.0-57.0","battery-v0.2","","""event"",""trial"",""time""
""fullscreenenter"",""1"",""3479""
","
","
","""event"",""trial"",""time""
""fullscreenenter"",""1"",""3479""
","
","","","-1","","","21","10160","4728","y","elianto","#f73b6a7A","-1","-1","1","0","[]","0","2","","","10160","53","2","4","lose","no-go","0"
"pit-trial","172","1033955","0.0-58.0","battery-v0.2","","""event"",""trial"",""time""
""fullscreenenter"",""1"",""3479""
","
","
","""event"",""trial"",""time""
""fullscreenenter"",""1"",""3479""
","
","","","513.8000000715256","","","21","10160","4728","z","elianto","#3366ff99","-1"," ","0","0","[1365]","1","2","","","10160","54","4","2","win","no-go","0"
"pit-trial","173","1038808","0.0-59.0","battery-v0.2","","""event"",""trial"",""time""
""fullscreenenter"",""1"",""3479""
","
","
","""event"",""trial"",""time""
""fullscreenenter"",""1"",""3479""
","
","","","-1","","","21","10160","4728","r","elianto","#3366ff99"," ","-1","0","0","[]","0","2","","","10160","55","1","1","win","go","0"
"pit-trial","174","1042312","0.0-60.0","battery-v0.2","","""event"",""trial"",""time""
""fullscreenenter"",""1"",""3479""
","
","
","""event"",""trial"",""time""
""fullscreenenter"",""1"",""3479""
","
","","","651.6000000238419","","","21","10160","4728","m","elianto","#f73b6a7A","-1"," ","0","0","[1502]","1","2","","","10160","56","0","4","lose","no-go","1"
"pit-trial","175","1045769","0.0-61.0","battery-v0.2","","""event"",""trial"",""time""
""fullscreenenter"",""1"",""3479""
","
","
","""event"",""trial"",""time""
""fullscreenenter"",""1"",""3479""
","
","","","605.4000000953674","","","21","10160","4728","m","elianto","#f73b6a7A","-1"," ","0","-10","[1456.2000000476837]","1","2","","","10160","57","0","4","lose","no-go","0"
"pit-trial","176","1049139","0.0-62.0","battery-v0.2","","""event"",""trial"",""time""
""fullscreenenter"",""1"",""3479""
","
","
","""event"",""trial"",""time""
""fullscreenenter"",""1"",""3479""
","
","","","518.2000000476837","","","21","10160","4728","r","elianto","#3366ff99"," "," ","1","0","[1368.9000000953674]","1","2","","","10160","58","1","1","win","go","1"
"pit-trial","177","1052832","0.0-63.0","battery-v0.2","","""event"",""trial"",""time""
""fullscreenenter"",""1"",""3479""
","
","
","""event"",""trial"",""time""
""fullscreenenter"",""1"",""3479""
","
","","","840.5","","","21","10160","4728","h","elianto","#f73b6a7A"," "," ","1","0","[1691.3999999761581]","1","2","","","10160","59","3","3","lose","go","0"
"pit-trial","178","1056287","0.0-64.0","battery-v0.2","","""event"",""trial"",""time""
""fullscreenenter"",""1"",""3479""
","
","
","""event"",""trial"",""time""
""fullscreenenter"",""1"",""3479""
","
","","","601.0999999046326","","","21","10160","4728","z","elianto","#3366ff99","-1"," ","0","+10","[1452.1999999284744]","1","2","","","10160","60","4","2","win","no-go","1"
"pit-trial","179","1059750","0.0-65.0","battery-v0.2","","""event"",""trial"",""time""
""fullscreenenter"",""1"",""3479""
","
","
","""event"",""trial"",""time""
""fullscreenenter"",""1"",""3479""
","
","","","610.2000000476837","","","21","10160","4728","z","elianto","#3366ff99","-1"," ","0","0","[1461]","1","2","","","10160","61","4","2","win","no-go","0"
"pit-trial","180","1063384","0.0-66.0","battery-v0.2","","""event"",""trial"",""time""
""fullscreenenter"",""1"",""3479""
","
","
","""event"",""trial"",""time""
""fullscreenenter"",""1"",""3479""
","
","","","782.7000000476837","","","21","10160","4728","h","elianto","#f73b6a7A"," "," ","1","-10","[1633.3999999761581]","1","2","","","10160","62","3","3","lose","go","1"
"pit-trial","181","1066822","0.0-67.0","battery-v0.2","","""event"",""trial"",""time""
""fullscreenenter"",""1"",""3479""
","
","
","""event"",""trial"",""time""
""fullscreenenter"",""1"",""3479""
","
","","","585.3000000715256","","","21","10160","4728","r","elianto","#3366ff99"," "," ","1","+10","[1435.5]","1","2","","","10160","63","1","1","win","go","0"
"pit-trial","182","1071674","0.0-68.0","battery-v0.2","","""event"",""trial"",""time""
""fullscreenenter"",""1"",""3479""
","
","
","""event"",""trial"",""time""
""fullscreenenter"",""1"",""3479""
","
","","","-1","","","21","10160","4728","y","elianto","#f73b6a7A","-1","-1","1","-10","[]","0","2","","","10160","64","2","4","lose","no-go","1"
"pit-trial","183","1075370","0.0-69.0","battery-v0.2","","""event"",""trial"",""time""
""fullscreenenter"",""1"",""3479""
","
","
","""event"",""trial"",""time""
""fullscreenenter"",""1"",""3479""
","
","","","844.8999999761581","","","21","10160","4728","y","elianto","#f73b6a7A","-1"," ","0","0","[1695.1000000238419]","1","2","","","10160","65","2","4","lose","no-go","1"
"pit-trial","184","1080223","0.0-70.0","battery-v0.2","","""event"",""trial"",""time""
""fullscreenenter"",""1"",""3479""
","
","
","""event"",""trial"",""time""
""fullscreenenter"",""1"",""3479""
","
","","","-1","","","21","10160","4728","h","elianto","#f73b6a7A"," ","-1","0","-10","[3632.7000000476837]","1","2","","","10160","66","3","3","lose","go","0"
"pit-trial","185","1083540","0.0-71.0","battery-v0.2","","""event"",""trial"",""time""
""fullscreenenter"",""1"",""3479""
","
","
","""event"",""trial"",""time""
""fullscreenenter"",""1"",""3479""
","
","","","463.7000000476837","","","21","10160","4728","z","elianto","#3366ff99","-1"," ","0","0","[1315]","1","2","","","10160","67","4","2","win","no-go","0"
"pit-trial","186","1087195","0.0-72.0","battery-v0.2","","""event"",""trial"",""time""
""fullscreenenter"",""1"",""3479""
","
","
","""event"",""trial"",""time""
""fullscreenenter"",""1"",""3479""
","
","","","803.9000000953674","","","21","10160","4728","r","elianto","#3366ff99"," "," ","1","+10","[1654.3000000715256]","1","2","","","10160","68","1","1","win","go","0"
"pit-trial","187","1092048","0.0-73.0","battery-v0.2","","""event"",""trial"",""time""
""fullscreenenter"",""1"",""3479""
","
","
","""event"",""trial"",""time""
""fullscreenenter"",""1"",""3479""
","
","","","-1","","","21","10160","4728","z","elianto","#3366ff99","-1","-1","1","+10","[]","0","2","","","10160","69","4","2","win","no-go","0"
"pit-trial","188","1095673","0.0-74.0","battery-v0.2","","""event"",""trial"",""time""
""fullscreenenter"",""1"",""3479""
","
","
","""event"",""trial"",""time""
""fullscreenenter"",""1"",""3479""
","
","","","772.9000000953674","","","21","10160","4728","h","elianto","#f73b6a7A"," "," ","1","0","[1623]","1","2","","","10160","70","3","3","lose","go","0"
"pit-trial","189","1099195","0.0-75.0","battery-v0.2","","""event"",""trial"",""time""
""fullscreenenter"",""1"",""3479""
","
","
","""event"",""trial"",""time""
""fullscreenenter"",""1"",""3479""
","
","","","669.9000000953674","","","21","10160","4728","c","elianto","#3366ff99"," "," ","1","+10","[1520.1000000238419]","1","2","","","10160","71","5","1","win","go","0"
"pit-trial","190","1104047","0.0-76.0","battery-v0.2","","""event"",""trial"",""time""
""fullscreenenter"",""1"",""3479""
","
","
","""event"",""trial"",""time""
""fullscreenenter"",""1"",""3479""
","
","","","-1","","","21","10160","4728","r","elianto","#3366ff99"," ","-1","0","0","[]","0","2","","","10160","72","1","1","win","go","0"
"pit-trial","191","1107709","0.0-77.0","battery-v0.2","","""event"",""trial"",""time""
""fullscreenenter"",""1"",""3479""
","
","
","""event"",""trial"",""time""
""fullscreenenter"",""1"",""3479""
","
","","","809.4000000953674","","","21","10160","4728","c","elianto","#3366ff99"," "," ","1","0","[1659.9000000953674]","1","2","","","10160","73","5","1","win","go","1"
"pit-trial","192","1111317","0.0-78.0","battery-v0.2","","""event"",""trial"",""time""
""fullscreenenter"",""1"",""3479""
","
","
","""event"",""trial"",""time""
""fullscreenenter"",""1"",""3479""
","
","","","754.7000000476837","","","21","10160","4728","h","elianto","#f73b6a7A"," "," ","1","0","[1606]","1","2","","","10160","74","3","3","lose","go","0"
"pit-trial","193","1114697","0.0-79.0","battery-v0.2","","""event"",""trial"",""time""
""fullscreenenter"",""1"",""3479""
","
","
","""event"",""trial"",""time""
""fullscreenenter"",""1"",""3479""
","
","","","527.8000000715256","","","21","10160","4728","r","elianto","#3366ff99"," "," ","1","+10","[1378]","1","2","","","10160","75","1","1","win","go","0"
"pit-trial","194","1119551","0.0-80.0","battery-v0.2","","""event"",""trial"",""time""
""fullscreenenter"",""1"",""3479""
","
","
","""event"",""trial"",""time""
""fullscreenenter"",""1"",""3479""
","
","","","-1","","","21","10160","4728","z","elianto","#3366ff99","-1","-1","1","+10","[]","0","2","","","10160","76","4","2","win","no-go","0"
"pit-trial","195","1123268","0.0-81.0","battery-v0.2","","""event"",""trial"",""time""
""fullscreenenter"",""1"",""3479""
","
","
","""event"",""trial"",""time""
""fullscreenenter"",""1"",""3479""
","
","","","863.8000000715256","","","21","10160","4728","b","elianto","#f73b6a7A","-1"," ","0","-10","[1714.1000000238419]","1","2","","","10160","77","6","4","lose","no-go","0"
"pit-trial","196","1126663","0.0-82.0","battery-v0.2","","""event"",""trial"",""time""
""fullscreenenter"",""1"",""3479""
","
","
","""event"",""trial"",""time""
""fullscreenenter"",""1"",""3479""
","
","","","542.5","","","21","10160","4728","c","elianto","#3366ff99"," "," ","1","0","[1393.5]","1","2","","","10160","78","5","1","win","go","1"
"pit-trial","197","1130303","0.0-83.0","battery-v0.2","","""event"",""trial"",""time""
""fullscreenenter"",""1"",""3479""
","
","
","""event"",""trial"",""time""
""fullscreenenter"",""1"",""3479""
","
","","","786.8999999761581","","","21","10160","4728","h","elianto","#f73b6a7A"," "," ","1","0","[1637.5]","1","2","","","10160","79","3","3","lose","go","0"
"pit-trial","198","1133870","0.0-84.0","battery-v0.2","","""event"",""trial"",""time""
""fullscreenenter"",""1"",""3479""
","
","
","""event"",""trial"",""time""
""fullscreenenter"",""1"",""3479""
","
","","","715.2000000476837","","","21","10160","4728","z","elianto","#3366ff99","-1"," ","0","+10","[1565.6000000238419]","1","2","","","10160","80","4","2","win","no-go","1"
"pit-trial","199","1138723","0.0-85.0","battery-v0.2","","""event"",""trial"",""time""
""fullscreenenter"",""1"",""3479""
","
","
","""event"",""trial"",""time""
""fullscreenenter"",""1"",""3479""
","
","","","-1","","","21","10160","4728","b","elianto","#f73b6a7A","-1","-1","1","0","[]","0","2","","","10160","81","6","4","lose","no-go","0"
"pit-trial","200","1142109","0.0-86.0","battery-v0.2","","""event"",""trial"",""time""
""fullscreenenter"",""1"",""3479""
","
","
","""event"",""trial"",""time""
""fullscreenenter"",""1"",""3479""
","
","","","532.8999999761581","","","21","10160","4728","c","elianto","#3366ff99"," "," ","1","+10","[1383.1000000238419]","1","2","","","10160","82","5","1","win","go","0"
"pit-trial","201","1145829","0.0-87.0","battery-v0.2","","""event"",""trial"",""time""
""fullscreenenter"",""1"",""3479""
","
","
","""event"",""trial"",""time""
""fullscreenenter"",""1"",""3479""
","
","","","868.5","","","21","10160","4728","z","elianto","#3366ff99","-1"," ","0","0","[1719]","1","2","","","10160","83","4","2","win","no-go","0"
"pit-trial","202","1149639","0.0-88.0","battery-v0.2","","""event"",""trial"",""time""
""fullscreenenter"",""1"",""3479""
","
","
","""event"",""trial"",""time""
""fullscreenenter"",""1"",""3479""
","
","","","956.8999999761581","","","21","10160","4728","t","elianto","#f73b6a7A"," "," ","1","0","[1808.1000000238419]","1","2","","","10160","84","7","3","lose","go","0"
"pit-trial","203","1153864","0.0-89.0","battery-v0.2","","""event"",""trial"",""time""
""fullscreenenter"",""1"",""3479""
","
","
","""event"",""trial"",""time""
""fullscreenenter"",""1"",""3479""
","
","","","1373.3000000715256","","","21","10160","4728","b","elianto","#f73b6a7A","-1"," ","0","-10","[2224.100000023842]","1","2","","","10160","85","6","4","lose","no-go","0"
"pit-trial","204","1157187","0.0-90.0","battery-v0.2","","""event"",""trial"",""time""
""fullscreenenter"",""1"",""3479""
","
","
","""event"",""trial"",""time""
""fullscreenenter"",""1"",""3479""
","
","","","470.89999997615814","","","21","10160","4728","c","elianto","#3366ff99"," "," ","1","+10","[1321.1000000238419]","1","2","","","10160","86","5","1","win","go","0"
"pit-trial","205","1162040","0.0-91.0","battery-v0.2","","""event"",""trial"",""time""
""fullscreenenter"",""1"",""3479""
","
","
","""event"",""trial"",""time""
""fullscreenenter"",""1"",""3479""
","
","","","-1","","","21","10160","4728","t","elianto","#f73b6a7A"," ","-1","0","0","[]","0","2","","","10160","87","7","3","lose","go","1"
"pit-trial","206","1165422","0.0-92.0","battery-v0.2","","""event"",""trial"",""time""
""fullscreenenter"",""1"",""3479""
","
","
","""event"",""trial"",""time""
""fullscreenenter"",""1"",""3479""
","
","","","529.6000000238419","","","21","10160","4728","z","elianto","#3366ff99","-1"," ","0","0","[1380.2999999523163,2963.1999999284744]","2","2","","","10160","88","4","2","win","no-go","0"
"pit-trial","207","1168842","0.0-93.0","battery-v0.2","","""event"",""trial"",""time""
""fullscreenenter"",""1"",""3479""
","
","
","""event"",""trial"",""time""
""fullscreenenter"",""1"",""3479""
","
","","","567.8000000715256","","","21","10160","4728","z","elianto","#3366ff99","-1"," ","0","0","[1418.1000000238419]","1","2","","","10160","89","4","2","win","no-go","0"
"pit-trial","208","1173695","0.0-94.0","battery-v0.2","","""event"",""trial"",""time""
""fullscreenenter"",""1"",""3479""
","
","
","""event"",""trial"",""time""
""fullscreenenter"",""1"",""3479""
","
","","","-1","","","21","10160","4728","t","elianto","#f73b6a7A"," ","-1","0","-10","[]","0","2","","","10160","90","7","3","lose","go","0"
"pit-trial","209","1177009","0.0-95.0","battery-v0.2","","""event"",""trial"",""time""
""fullscreenenter"",""1"",""3479""
","
","
","""event"",""trial"",""time""
""fullscreenenter"",""1"",""3479""
","
","","","461.5","","","21","10160","4728","c","elianto","#3366ff99"," "," ","1","+10","[1312.8999999761581]","1","2","","","10160","91","5","1","win","go","0"
"pit-trial","210","1181862","0.0-96.0","battery-v0.2","","""event"",""trial"",""time""
""fullscreenenter"",""1"",""3479""
","
","
","""event"",""trial"",""time""
""fullscreenenter"",""1"",""3479""
","
","","","-1","","","21","10160","4728","b","elianto","#f73b6a7A","-1","-1","1","0","[]","0","2","","","10160","92","6","4","lose","no-go","0"
"pit-trial","211","1185314","0.0-97.0","battery-v0.2","","""event"",""trial"",""time""
""fullscreenenter"",""1"",""3479""
","
","
","""event"",""trial"",""time""
""fullscreenenter"",""1"",""3479""
","
","","","601.7000000476837","","","21","10160","4728","c","elianto","#3366ff99"," "," ","1","+10","[1451.7999999523163]","1","2","","","10160","93","5","1","win","go","0"
"pit-trial","212","1190167","0.0-98.0","battery-v0.2","","""event"",""trial"",""time""
""fullscreenenter"",""1"",""3479""
","
","
","""event"",""trial"",""time""
""fullscreenenter"",""1"",""3479""
","
","","","-1","","","21","10160","4728","t","elianto","#f73b6a7A"," ","-1","0","-10","[]","0","2","","","10160","94","7","3","lose","go","0"
"pit-trial","213","1195020","0.0-99.0","battery-v0.2","","""event"",""trial"",""time""
""fullscreenenter"",""1"",""3479""
","
","
","""event"",""trial"",""time""
""fullscreenenter"",""1"",""3479""
","
","","","-1","","","21","10160","4728","b","elianto","#f73b6a7A","-1","-1","1","0","[]","0","2","","","10160","95","6","4","lose","no-go","0"
"pit-trial","214","1198609","0.0-100.0","battery-v0.2","","""event"",""trial"",""time""
""fullscreenenter"",""1"",""3479""
","
","
","""event"",""trial"",""time""
""fullscreenenter"",""1"",""3479""
","
","","","736.7000000476837","","","21","10160","4728","f","elianto","#3366ff99","-1"," ","0","0","[1587.3999999761581]","1","2","","","10160","96","8","2","win","no-go","0"
"pit-trial","215","1203466","0.0-101.0","battery-v0.2","","""event"",""trial"",""time""
""fullscreenenter"",""1"",""3479""
","
","
","""event"",""trial"",""time""
""fullscreenenter"",""1"",""3479""
","
","","","-1","","","21","10160","4728","t","elianto","#f73b6a7A"," ","-1","0","-10","[]","0","2","","","10160","97","7","3","lose","go","0"
"pit-trial","216","1206805","0.0-102.0","battery-v0.2","","""event"",""trial"",""time""
""fullscreenenter"",""1"",""3479""
","
","
","""event"",""trial"",""time""
""fullscreenenter"",""1"",""3479""
","
","","","487","","","21","10160","4728","c","elianto","#3366ff99"," "," ","1","+10","[1337]","1","2","","","10160","98","5","1","win","go","0"
"pit-trial","217","1211658","0.0-103.0","battery-v0.2","","""event"",""trial"",""time""
""fullscreenenter"",""1"",""3479""
","
","
","""event"",""trial"",""time""
""fullscreenenter"",""1"",""3479""
","
","","","-1","","","21","10160","4728","b","elianto","#f73b6a7A","-1","-1","1","0","[]","0","2","","","10160","99","6","4","lose","no-go","0"
"pit-trial","218","1215538","0.0-104.0","battery-v0.2","","""event"",""trial"",""time""
""fullscreenenter"",""1"",""3479""
","
","
","""event"",""trial"",""time""
""fullscreenenter"",""1"",""3479""
","
","","","1027.7999999523163","","","21","10160","4728","f","elianto","#3366ff99","-1"," ","0","0","[1878.2999999523163]","1","2","","","10160","100","8","2","win","no-go","0"
"pit-trial","219","1218961","0.0-105.0","battery-v0.2","","""event"",""trial"",""time""
""fullscreenenter"",""1"",""3479""
","
","
","""event"",""trial"",""time""
""fullscreenenter"",""1"",""3479""
","
","","","569.1000000238419","","","21","10160","4728","c","elianto","#3366ff99"," "," ","1","+10","[1421]","1","2","","","10160","101","5","1","win","go","0"
"pit-trial","220","1223815","0.0-106.0","battery-v0.2","","""event"",""trial"",""time""
""fullscreenenter"",""1"",""3479""
","
","
","""event"",""trial"",""time""
""fullscreenenter"",""1"",""3479""
","
","","","-1","","","21","10160","4728","f","elianto","#3366ff99","-1","-1","1","+10","[]","0","2","","","10160","102","8","2","win","no-go","0"
"pit-trial","221","1228668","0.0-107.0","battery-v0.2","","""event"",""trial"",""time""
""fullscreenenter"",""1"",""3479""
","
","
","""event"",""trial"",""time""
""fullscreenenter"",""1"",""3479""
","
","","","-1","","","21","10160","4728","n","elianto","#3366ff99","-1","-1","1","+10","[]","0","2","","","10160","103","9","2","win","no-go","0"
"pit-trial","222","1232786","0.0-108.0","battery-v0.2","","""event"",""trial"",""time""
""fullscreenenter"",""1"",""3479""
","
","
","""event"",""trial"",""time""
""fullscreenenter"",""1"",""3479""
","
","","","1264.4000000953674","","","21","10160","4728","b","elianto","#f73b6a7A","-1"," ","0","-10","[2116.100000023842]","1","2","","","10160","104","6","4","lose","no-go","0"
"pit-trial","223","1237640","0.0-109.0","battery-v0.2","","""event"",""trial"",""time""
""fullscreenenter"",""1"",""3479""
","
","
","""event"",""trial"",""time""
""fullscreenenter"",""1"",""3479""
","
","","","-1","","","21","10160","4728","b","elianto","#f73b6a7A","-1","-1","1","0","[]","0","2","","","10160","105","6","4","lose","no-go","0"
"pit-trial","224","1241099","0.0-110.0","battery-v0.2","","""event"",""trial"",""time""
""fullscreenenter"",""1"",""3479""
","
","
","""event"",""trial"",""time""
""fullscreenenter"",""1"",""3479""
","
","","","606.6000000238419","","","21","10160","4728","f","elianto","#3366ff99","-1"," ","0","0","[1458]","1","2","","","10160","106","8","2","win","no-go","0"
"pit-trial","225","1245951","0.0-111.0","battery-v0.2","","""event"",""trial"",""time""
""fullscreenenter"",""1"",""3479""
","
","
","""event"",""trial"",""time""
""fullscreenenter"",""1"",""3479""
","
","","","-1","","","21","10160","4728","n","elianto","#3366ff99","-1","-1","1","+10","[]","0","2","","","10160","107","9","2","win","no-go","0"
"pit-trial","226","1249894","0.0-112.0","battery-v0.2","","""event"",""trial"",""time""
""fullscreenenter"",""1"",""3479""
","
","
","""event"",""trial"",""time""
""fullscreenenter"",""1"",""3479""
","
","","","1090.5","","","21","10160","4728","c","elianto","#3366ff99"," "," ","1","0","[1940.8999999761581]","1","2","","","10160","108","5","1","win","go","1"
"pit-trial","227","1254746","0.0-113.0","battery-v0.2","","""event"",""trial"",""time""
""fullscreenenter"",""1"",""3479""
","
","
","""event"",""trial"",""time""
""fullscreenenter"",""1"",""3479""
","
","","","-1","","","21","10160","4728","b","elianto","#f73b6a7A","-1","-1","1","0","[]","0","2","","","10160","109","6","4","lose","no-go","0"
"pit-trial","228","1259600","0.0-114.0","battery-v0.2","","""event"",""trial"",""time""
""fullscreenenter"",""1"",""3479""
","
","
","""event"",""trial"",""time""
""fullscreenenter"",""1"",""3479""
","
","","","-1","","","21","10160","4728","n","elianto","#3366ff99","-1","-1","1","+10","[]","0","2","","","10160","110","9","2","win","no-go","0"
"pit-trial","229","1264454","0.0-115.0","battery-v0.2","","""event"",""trial"",""time""
""fullscreenenter"",""1"",""3479""
","
","
","""event"",""trial"",""time""
""fullscreenenter"",""1"",""3479""
","
","","","-1","","","21","10160","4728","f","elianto","#3366ff99","-1","-1","1","+10","[]","0","2","","","10160","111","8","2","win","no-go","0"
"pit-trial","230","1268131","0.0-116.0","battery-v0.2","","""event"",""trial"",""time""
""fullscreenenter"",""1"",""3479""
","
","
","""event"",""trial"",""time""
""fullscreenenter"",""1"",""3479""
","
","","","824","","","21","10160","4728","c","elianto","#3366ff99"," "," ","1","+10","[1675.1000000238419]","1","2","","","10160","112","5","1","win","go","0"
"pit-trial","231","1272983","0.0-117.0","battery-v0.2","","""event"",""trial"",""time""
""fullscreenenter"",""1"",""3479""
","
","
","""event"",""trial"",""time""
""fullscreenenter"",""1"",""3479""
","
","","","-1","","","21","10160","4728","f","elianto","#3366ff99","-1","-1","1","+10","[]","0","2","","","10160","113","8","2","win","no-go","0"
"pit-trial","232","1277837","0.0-118.0","battery-v0.2","","""event"",""trial"",""time""
""fullscreenenter"",""1"",""3479""
","
","
","""event"",""trial"",""time""
""fullscreenenter"",""1"",""3479""
","
","","","-1","","","21","10160","4728","t","elianto","#f73b6a7A"," ","-1","0","-10","[]","0","2","","","10160","114","7","3","lose","go","0"
"pit-trial","233","1281330","0.0-119.0","battery-v0.2","","""event"",""trial"",""time""
""fullscreenenter"",""1"",""3479""
","
","
","""event"",""trial"",""time""
""fullscreenenter"",""1"",""3479""
","
","","","641.8999999761581","","","21","10160","4728","c","elianto","#3366ff99"," "," ","1","+10","[1492.2000000476837]","1","2","","","10160","115","5","1","win","go","0"
"pit-trial","234","1286183","0.0-120.0","battery-v0.2","","""event"",""trial"",""time""
""fullscreenenter"",""1"",""3479""
","
","
","""event"",""trial"",""time""
""fullscreenenter"",""1"",""3479""
","
","","","-1","","","21","10160","4728","n","elianto","#3366ff99","-1","-1","1","+10","[]","0","2","","","10160","116","9","2","win","no-go","0"
"pit-trial","235","1291037","0.0-121.0","battery-v0.2","","""event"",""trial"",""time""
""fullscreenenter"",""1"",""3479""
","
","
","""event"",""trial"",""time""
""fullscreenenter"",""1"",""3479""
","
","","","-1","","","21","10160","4728","f","elianto","#3366ff99","-1","-1","1","+10","[]","0","2","","","10160","117","8","2","win","no-go","0"
"pit-trial","236","1295889","0.0-122.0","battery-v0.2","","""event"",""trial"",""time""
""fullscreenenter"",""1"",""3479""
","
","
","""event"",""trial"",""time""
""fullscreenenter"",""1"",""3479""
","
","","","-1","","","21","10160","4728","n","elianto","#3366ff99","-1","-1","1","+10","[]","0","2","","","10160","118","9","2","win","no-go","0"
"pit-trial","237","1300743","0.0-123.0","battery-v0.2","","""event"",""trial"",""time""
""fullscreenenter"",""1"",""3479""
","
","
","""event"",""trial"",""time""
""fullscreenenter"",""1"",""3479""
","
","","","-1","","","21","10160","4728","b","elianto","#f73b6a7A","-1","-1","1","0","[]","0","2","","","10160","119","6","4","lose","no-go","0"
"pit-trial","238","1304181","0.0-124.0","battery-v0.2","","""event"",""trial"",""time""
""fullscreenenter"",""1"",""3479""
","
","
","""event"",""trial"",""time""
""fullscreenenter"",""1"",""3479""
","
","","","585.8999999761581","","","21","10160","4728","c","elianto","#3366ff99"," "," ","1","+10","[1436]","1","2","","","10160","120","5","1","win","go","0"
"pit-trial","239","1309034","0.0-125.0","battery-v0.2","","""event"",""trial"",""time""
""fullscreenenter"",""1"",""3479""
","
","
","""event"",""trial"",""time""
""fullscreenenter"",""1"",""3479""
","
","","","-1","","","21","10160","4728","f","elianto","#3366ff99","-1","-1","1","+10","[]","0","2","","","10160","121","8","2","win","no-go","0"
"pit-trial","240","1313887","0.0-126.0","battery-v0.2","","""event"",""trial"",""time""
""fullscreenenter"",""1"",""3479""
","
","
","""event"",""trial"",""time""
""fullscreenenter"",""1"",""3479""
","
","","","-1","","","21","10160","4728","n","elianto","#3366ff99","-1","-1","1","0","[]","0","2","","","10160","122","9","2","win","no-go","1"
"pit-trial","241","1317471","0.0-127.0","battery-v0.2","","""event"",""trial"",""time""
""fullscreenenter"",""1"",""3479""
","
","
","""event"",""trial"",""time""
""fullscreenenter"",""1"",""3479""
","
","","","730.5","","","21","10160","4728","c","elianto","#3366ff99"," "," ","1","+10","[1582.1000000238419]","1","2","","","10160","123","5","1","win","go","0"
"pit-trial","242","1322323","0.0-128.0","battery-v0.2","","""event"",""trial"",""time""
""fullscreenenter"",""1"",""3479""
","
","
","""event"",""trial"",""time""
""fullscreenenter"",""1"",""3479""
","
","","","-1","","","21","10160","4728","t","elianto","#f73b6a7A"," ","-1","0","0","[]","0","2","","","10160","124","7","3","lose","go","1"
"pit-trial","243","1327175","0.0-129.0","battery-v0.2","","""event"",""trial"",""time""
""fullscreenenter"",""1"",""3479""
","
","
","""event"",""trial"",""time""
""fullscreenenter"",""1"",""3479""
","
","","","-1","","","21","10160","4728","f","elianto","#3366ff99","-1","-1","1","+10","[]","0","2","","","10160","125","8","2","win","no-go","0"
"pit-trial","244","1332028","0.0-130.0","battery-v0.2","","""event"",""trial"",""time""
""fullscreenenter"",""1"",""3479""
","
","
","""event"",""trial"",""time""
""fullscreenenter"",""1"",""3479""
","
","","","-1","","","21","10160","4728","n","elianto","#3366ff99","-1","-1","1","+10","[]","0","2","","","10160","126","9","2","win","no-go","0"
"pit-trial","245","1336881","0.0-131.0","battery-v0.2","","""event"",""trial"",""time""
""fullscreenenter"",""1"",""3479""
","
","
","""event"",""trial"",""time""
""fullscreenenter"",""1"",""3479""
","
","","","-1","","","21","10160","4728","t","elianto","#f73b6a7A"," ","-1","0","-10","[]","0","2","","","10160","127","7","3","lose","go","0"
"pit-trial","246","1341734","0.0-132.0","battery-v0.2","","""event"",""trial"",""time""
""fullscreenenter"",""1"",""3479""
","
","
","""event"",""trial"",""time""
""fullscreenenter"",""1"",""3479""
","
","","","-1","","","21","10160","4728","b","elianto","#f73b6a7A","-1","-1","1","0","[]","0","2","","","10160","128","6","4","lose","no-go","0"
"pit-trial","247","1346587","0.0-133.0","battery-v0.2","","""event"",""trial"",""time""
""fullscreenenter"",""1"",""3479""
","
","
","""event"",""trial"",""time""
""fullscreenenter"",""1"",""3479""
","
","","","-1","","","21","10160","4728","f","elianto","#3366ff99","-1","-1","1","+10","[]","0","2","","","10160","129","8","2","win","no-go","0"
"pit-trial","248","1351440","0.0-134.0","battery-v0.2","","""event"",""trial"",""time""
""fullscreenenter"",""1"",""3479""
","
","
","""event"",""trial"",""time""
""fullscreenenter"",""1"",""3479""
","
","","","-1","","","21","10160","4728","t","elianto","#f73b6a7A"," ","-1","0","-10","[]","0","2","","","10160","130","7","3","lose","go","0"
"pit-trial","249","1356293","0.0-135.0","battery-v0.2","","""event"",""trial"",""time""
""fullscreenenter"",""1"",""3479""
","
","
","""event"",""trial"",""time""
""fullscreenenter"",""1"",""3479""
","
","","","-1","","","21","10160","4728","b","elianto","#f73b6a7A","-1","-1","1","0","[]","0","2","","","10160","131","6","4","lose","no-go","0"
"pit-trial","250","1361146","0.0-136.0","battery-v0.2","","""event"",""trial"",""time""
""fullscreenenter"",""1"",""3479""
","
","
","""event"",""trial"",""time""
""fullscreenenter"",""1"",""3479""
","
","","","-1","","","21","10160","4728","n","elianto","#3366ff99","-1","-1","1","0","[]","0","2","","","10160","132","9","2","win","no-go","1"
"pit-trial","251","1365999","0.0-137.0","battery-v0.2","","""event"",""trial"",""time""
""fullscreenenter"",""1"",""3479""
","
","
","""event"",""trial"",""time""
""fullscreenenter"",""1"",""3479""
","
","","","-1","","","21","10160","4728","n","elianto","#3366ff99","-1","-1","1","+10","[]","0","2","","","10160","133","9","2","win","no-go","0"
"pit-trial","252","1370852","0.0-138.0","battery-v0.2","","""event"",""trial"",""time""
""fullscreenenter"",""1"",""3479""
","
","
","""event"",""trial"",""time""
""fullscreenenter"",""1"",""3479""
","
","","","-1","","","21","10160","4728","t","elianto","#f73b6a7A"," ","-1","0","-10","[]","0","2","","","10160","134","7","3","lose","go","0"
"pit-trial","253","1375704","0.0-139.0","battery-v0.2","","""event"",""trial"",""time""
""fullscreenenter"",""1"",""3479""
","
","
","""event"",""trial"",""time""
""fullscreenenter"",""1"",""3479""
","
","","","-1","","","21","10160","4728","b","elianto","#f73b6a7A","-1","-1","1","0","[]","0","2","","","10160","135","6","4","lose","no-go","0"
"pit-trial","254","1380557","0.0-140.0","battery-v0.2","","""event"",""trial"",""time""
""fullscreenenter"",""1"",""3479""
","
","
","""event"",""trial"",""time""
""fullscreenenter"",""1"",""3479""
","
","","","-1","","","21","10160","4728","f","elianto","#3366ff99","-1","-1","1","+10","[]","0","2","","","10160","136","8","2","win","no-go","0"
"pit-trial","255","1385410","0.0-141.0","battery-v0.2","","""event"",""trial"",""time""
""fullscreenenter"",""1"",""3479""
","
","
","""event"",""trial"",""time""
""fullscreenenter"",""1"",""3479""
","
","","","-1","","","21","10160","4728","f","elianto","#3366ff99","-1","-1","1","+10","[]","0","2","","","10160","137","8","2","win","no-go","0"
"pit-trial","256","1389006","0.0-142.0","battery-v0.2","","""event"",""trial"",""time""
""fullscreenenter"",""1"",""3479""
","
","
","""event"",""trial"",""time""
""fullscreenenter"",""1"",""3479""
","
","","","743.7999999523163","","","21","10160","4728","t","elianto","#f73b6a7A"," "," ","1","0","[1593.8999999761581]","1","2","","","10160","138","7","3","lose","go","0"
"pit-trial","257","1393859","0.0-143.0","battery-v0.2","","""event"",""trial"",""time""
""fullscreenenter"",""1"",""3479""
","
","
","""event"",""trial"",""time""
""fullscreenenter"",""1"",""3479""
","
","","","-1","","","21","10160","4728","b","elianto","#f73b6a7A","-1","-1","1","0","[]","0","2","","","10160","139","6","4","lose","no-go","0"
"pit-trial","258","1398711","0.0-144.0","battery-v0.2","","""event"",""trial"",""time""
""fullscreenenter"",""1"",""3479""
","
","
","""event"",""trial"",""time""
""fullscreenenter"",""1"",""3479""
","
","","","-1","","","21","10160","4728","n","elianto","#3366ff99","-1","-1","1","+10","[]","0","2","","","10160","140","9","2","win","no-go","0"
"pit-instructions","259","1676965","0.0-145.0","battery-v0.2","","""event"",""trial"",""time""
""fullscreenenter"",""1"",""3479""
","
","
","""event"",""trial"",""time""
""fullscreenenter"",""1"",""3479""
","
","","[{""page_index"":0,""viewing_time"":269728.2999999523},{""page_index"":1,""viewing_time"":8524.800000071526}]","278253.2999999523","","","","","","","","","","","","","","","","","","","","","","","",""
"pit-trial","260","1680414","0.0-146.0","battery-v0.2","","""event"",""trial"",""time""
""fullscreenenter"",""1"",""3479""
","
","
","""event"",""trial"",""time""
""fullscreenenter"",""1"",""3479""
","
","","","586.8000000715256","","","21","10160","4728","u","elianto","#f73b6a7A"," "," ","1","-10","[1437]","1","3","","","10160","141","0","3","lose","go","1"
"pit-trial","261","1683757","0.0-147.0","battery-v0.2","","""event"",""trial"",""time""
""fullscreenenter"",""1"",""3479""
","
","
","""event"",""trial"",""time""
""fullscreenenter"",""1"",""3479""
","
","","","481.2000000476837","","","21","10160","4728","l","elianto","#3366ff99","-1"," ","0","0","[1335.8000000715256]","1","3","","","10160","142","1","2","win","no-go","0"
"pit-trial","262","1687310","0.0-148.0","battery-v0.2","","""event"",""trial"",""time""
""fullscreenenter"",""1"",""3479""
","
","
","""event"",""trial"",""time""
""fullscreenenter"",""1"",""3479""
","
","","","692.1000000238419","","","21","10160","4728","g","elianto","#f73b6a7A","-1"," ","0","-10","[1543.7000000476837]","1","3","","","10160","143","3","4","lose","no-go","0"
"pit-trial","263","1690877","0.0-149.0","battery-v0.2","","""event"",""trial"",""time""
""fullscreenenter"",""1"",""3479""
","
","
","""event"",""trial"",""time""
""fullscreenenter"",""1"",""3479""
","
","","","706.8999999761581","","","21","10160","4728","a","elianto","#f73b6a7A"," "," ","1","0","[1560.8999999761581]","1","3","","","10160","144","2","3","lose","go","0"
"pit-trial","264","1695730","0.0-150.0","battery-v0.2","","""event"",""trial"",""time""
""fullscreenenter"",""1"",""3479""
","
","
","""event"",""trial"",""time""
""fullscreenenter"",""1"",""3479""
","
","","","-1","","","21","10160","4728","u","elianto","#f73b6a7A"," ","-1","0","-10","[]","0","3","","","10160","145","0","3","lose","go","0"
