"trial_type","trial_index","time_elapsed","internal_node_id","task_version","subject_id","interactions","blur_events","focus_events","fullscreenenter_events","fullscreenexit_events","success","view_history","rt","responses","num_errors","age","subject","participantId","rune","rune_set","hex","correct","choice","accuracy","outcome","keys","total_keys","block","practice","value","sub","trial","stimulus","robot","valence","action","sham"
"pavlovia","0","42","0.0-0.0","battery-v0.2","","""event"",""trial"",""time""
""fullscreenenter"",""1"",""2600""
","
","
","""event"",""trial"",""time""
""fullscreenenter"",""1"",""2600""
","
","","","","","","","","","","","","","","","","","","","","","","","","","","",""
"fullscreen","1","3567","0.0-1.0","battery-v0.2","","""event"",""trial"",""time""
""fullscreenenter"",""1"",""2600""
","
","
","""event"",""trial"",""time""
""fullscreenenter"",""1"",""2600""
","
","true","","","","","","","","","","","","","","","","","","","","","","","","","",""
"pit-instructions","2","7826","0.0-2.0-0.0","battery-v0.2","","""event"",""trial"",""time""
""fullscreenenter"",""1"",""2600""
","
","
","""event"",""trial"",""time""
""fullscreenenter"",""1"",""2600""
","
","","[{""page_index"":0,""viewing_time"":4252.70000000298}]","4253.9000000059605","","","","","","","","","","","","","","","","","","","","","","","",""
"pit-comprehension","3","10216","0.0-2.0-1.0-0.0","battery-v0.2","","""event"",""trial"",""time""
""fullscreenenter"",""1"",""2600""
","
","
","""event"",""trial"",""time""
""fullscreenenter"",""1"",""2600""
","
","","","2381.7999999970198","[""shark""]","0","22","4231","3091","","","","","","","","","","","","","","","","","","",""
"pit-instructions","4","12495","0.0-2.0-1.0-1.0","battery-v0.2","","""event"",""trial"",""time""
""fullscreenenter"",""1"",""2600""
","
","
","""event"",""trial"",""time""
""fullscreenenter"",""1"",""2600""
","
","","[{""page_index"":0,""viewing_time"":2264.5999999940395}]","2265","","","","","","","","","","","","","","","","","","","","","","","",""
"pit-comprehension","5","14975","0.0-2.0-2.0-0.0","battery-v0.2","","""event"",""trial"",""time""
""fullscreenenter"",""1"",""2600""
","
","
","""event"",""trial"",""time""
""fullscreenenter"",""1"",""2600""
","
","","","2476.2000000029802","[""tiger""]","0","22","4231","3091","","","","","","","","","","","","","","","","","","",""
"pit-instructions","6","15447","0.0-2.0-2.0-1.0","battery-v0.2","","""event"",""trial"",""time""
""fullscreenenter"",""1"",""2600""
","
","
","""event"",""trial"",""time""
""fullscreenenter"",""1"",""2600""
","
","","[{""page_index"":0,""viewing_time"":465.79999999701977}]","466.29999999701977","","","","","","","","","","","","","","","","","","","","","","","",""
"pit-instructions","7","106663","0.0-2.0-3.0","battery-v0.2","","""event"",""trial"",""time""
""fullscreenenter"",""1"",""2600""
","
","
","""event"",""trial"",""time""
""fullscreenenter"",""1"",""2600""
","
","","[{""page_index"":0,""viewing_time"":8302},{""page_index"":1,""viewing_time"":5511.100000008941},{""page_index"":2,""viewing_time"":6570},{""page_index"":3,""viewing_time"":5249.70000000298},{""page_index"":4,""viewing_time"":5934.399999991059},{""page_index"":5,""viewing_time"":5767.600000008941},{""page_index"":6,""viewing_time"":6587.199999988079},{""page_index"":7,""viewing_time"":6274.4000000059605},{""page_index"":8,""viewing_time"":6238.70000000298},{""page_index"":9,""viewing_time"":7675.5},{""page_index"":10,""viewing_time"":8249.89999999106},{""page_index"":11,""viewing_time"":6856.600000008941},{""page_index"":12,""viewing_time"":6756.70000000298},{""page_index"":13,""viewing_time"":5240.5999999940395}]","91214.80000001192","","","","","","","","","","","","","","","","","","","","","","","",""
"pit-trial","8","110145","0.0-2.0-4.0-0.0","battery-v0.2","","""event"",""trial"",""time""
""fullscreenenter"",""1"",""2600""
","
","
","""event"",""trial"",""time""
""fullscreenenter"",""1"",""2600""
","
","","","622.8000000119209","","","22","4231","3091","&#9784;","elianto","#FFFFF080"," "," ","1","&#10004","[1473.2999999970198]","1","0","0","","","","","","","",""
"pit-trial","9","113487","0.0-2.0-4.1-0.1","battery-v0.2","","""event"",""trial"",""time""
""fullscreenenter"",""1"",""2600""
","
","
","""event"",""trial"",""time""
""fullscreenenter"",""1"",""2600""
","
","","","485.29999999701977","","","22","4231","3091","&#9784;","elianto","#FFFFF080"," "," ","1","&#10004","[1336.2999999970198]","1","0","0","","","","","","","",""
"pit-trial","10","116870","0.0-2.0-4.2-0.2","battery-v0.2","","""event"",""trial"",""time""
""fullscreenenter"",""1"",""2600""
","
","
","""event"",""trial"",""time""
""fullscreenenter"",""1"",""2600""
","
","","","523.3000000119209","","","22","4231","3091","&#9784;","elianto","#FFFFF080"," "," ","1","&#10004","[1373.4000000059605]","1","0","0","","","","","","","",""
"pit-trial","11","120254","0.0-2.0-4.3-0.3","battery-v0.2","","""event"",""trial"",""time""
""fullscreenenter"",""1"",""2600""
","
","
","""event"",""trial"",""time""
""fullscreenenter"",""1"",""2600""
","
","","","530.1000000089407","","","22","4231","3091","&#9784;","elianto","#FFFFF080"," "," ","1","&#10004","[1380.5999999940395]","1","0","0","","","","","","","",""
"pit-trial","12","123616","0.0-2.0-4.4-0.4","battery-v0.2","","""event"",""trial"",""time""
""fullscreenenter"",""1"",""2600""
","
","
","""event"",""trial"",""time""
""fullscreenenter"",""1"",""2600""
","
","","","507.80000001192093","","","22","4231","3091","&#9784;","elianto","#FFFFF080"," "," ","1","&#10004","[1358.3999999910593]","1","0","0","","","","","","","",""
"pit-instructions","13","145549","0.0-2.0-5.0","battery-v0.2","","""event"",""trial"",""time""
""fullscreenenter"",""1"",""2600""
","
","
","""event"",""trial"",""time""
""fullscreenenter"",""1"",""2600""
","
","","[{""page_index"":0,""viewing_time"":4526.899999991059},{""page_index"":1,""viewing_time"":5255.70000000298},{""page_index"":2,""viewing_time"":6497.70000000298},{""page_index"":3,""viewing_time"":5650}]","21930.89999999106","","","","","","","","","","","","","","","","","","","","","","","",""
"pit-trial","14","150408","0.0-2.0-6.0-0.0","battery-v0.2","","""event"",""trial"",""time""
""fullscreenenter"",""1"",""2600""
","
","
","""event"",""trial"",""time""
""fullscreenenter"",""1"",""2600""
","
","","","-1","","","22","4231","3091","&#9854;","elianto","#FFFFF080","-1","-1","1","&#10004","[]","0","0","1","","","","","","","",""
"pit-trial","15","155267","0.0-2.0-6.1-0.1","battery-v0.2","","""event"",""trial"",""time""
""fullscreenenter"",""1"",""2600""
","
","
","""event"",""trial"",""time""
""fullscreenenter"",""1"",""2600""
","
","","","-1","","","22","4231","3091","&#9854;","elianto","#FFFFF080","-1","-1","1","&#10004","[]","0","0","1","","","","","","","",""
"pit-trial","16","160128","0.0-2.0-6.2-0.2","battery-v0.2","","""event"",""trial"",""time""
""fullscreenenter"",""1"",""2600""
","
","
","""event"",""trial"",""time""
""fullscreenenter"",""1"",""2600""
","
","","","-1","","","22","4231","3091","&#9854;","elianto","#FFFFF080","-1","-1","1","&#10004","[]","0","0","1","","","","","","","",""
"pit-trial","17","164988","0.0-2.0-6.3-0.3","battery-v0.2","","""event"",""trial"",""time""
""fullscreenenter"",""1"",""2600""
","
","
","""event"",""trial"",""time""
""fullscreenenter"",""1"",""2600""
","
","","","-1","","","22","4231","3091","&#9854;","elianto","#FFFFF080","-1","-1","1","&#10004","[]","0","0","1","","","","","","","",""
"pit-trial","18","169848","0.0-2.0-6.4-0.4","battery-v0.2","","""event"",""trial"",""time""
""fullscreenenter"",""1"",""2600""
","
","
","""event"",""trial"",""time""
""fullscreenenter"",""1"",""2600""
","
","","","-1","","","22","4231","3091","&#9854;","elianto","#FFFFF080","-1","-1","1","&#10004","[]","0","0","1","","","","","","","",""
"pit-instructions","19","282897","0.0-2.0-7.0","battery-v0.2","","""event"",""trial"",""time""
""fullscreenenter"",""1"",""2600""
","
","
","""event"",""trial"",""time""
""fullscreenenter"",""1"",""2600""
","
","","[{""page_index"":0,""viewing_time"":6403.5999999940395},{""page_index"":1,""viewing_time"":6993.79999999702},{""page_index"":2,""viewing_time"":5434.600000008941},{""page_index"":3,""viewing_time"":5702.5999999940395},{""page_index"":4,""viewing_time"":5993.29999999702},{""page_index"":5,""viewing_time"":5162.100000008941},{""page_index"":6,""viewing_time"":4169.5},{""page_index"":7,""viewing_time"":7113.0999999940395},{""page_index"":8,""viewing_time"":6277.5},{""page_index"":9,""viewing_time"":5705.5999999940395},{""page_index"":10,""viewing_time"":6766.800000011921},{""page_index"":11,""viewing_time"":4255.79999999702},{""page_index"":12,""viewing_time"":8163.5},{""page_index"":13,""viewing_time"":7324.399999991059},{""page_index"":14,""viewing_time"":7366.800000011921},{""page_index"":15,""viewing_time"":6804.899999991059},{""page_index"":16,""viewing_time"":6420.4000000059605},{""page_index"":17,""viewing_time"":6930.899999991059}]","112990.29999999702","","","","","","","","","","","","","","","","","","","","","","","",""
"pit-trial","20","286264","0.0-2.0-8.0-0.0","battery-v0.2","","""event"",""trial"",""time""
""fullscreenenter"",""1"",""2600""
","
","
","""event"",""trial"",""time""
""fullscreenenter"",""1"",""2600""
","
","","","509.40000000596046","","","22","4231","3091","&#9776;","elianto","#3366ff99"," "," ","1","+10","[1360.0999999940395]","1","0","1","","","","","","","",""
"pit-trial","21","289566","0.0-2.0-8.0-1.0","battery-v0.2","","""event"",""trial"",""time""
""fullscreenenter"",""1"",""2600""
","
","
","""event"",""trial"",""time""
""fullscreenenter"",""1"",""2600""
","
","","","442","","","22","4231","3091","&#9776;","elianto","#3366ff99"," "," ","1","+10","[1296.0999999940395]","1","0","1","","","","","","","",""
"pit-trial","22","292805","0.0-2.0-8.0-2.0","battery-v0.2","","""event"",""trial"",""time""
""fullscreenenter"",""1"",""2600""
","
","
","""event"",""trial"",""time""
""fullscreenenter"",""1"",""2600""
","
","","","382","","","22","4231","3091","&#9776;","elianto","#3366ff99"," "," ","1","+10","[1233]","1","0","1","","","","","","","",""
"pit-trial","23","296105","0.0-2.0-8.0-3.0","battery-v0.2","","""event"",""trial"",""time""
""fullscreenenter"",""1"",""2600""
","
","
","""event"",""trial"",""time""
""fullscreenenter"",""1"",""2600""
","
","","","444.09999999403954","","","22","4231","3091","&#9776;","elianto","#3366ff99"," "," ","1","0","[1294.2999999970198]","1","0","1","","","","","","","",""
"pit-trial","24","299452","0.0-2.0-8.0-4.0","battery-v0.2","","""event"",""trial"",""time""
""fullscreenenter"",""1"",""2600""
","
","
","""event"",""trial"",""time""
""fullscreenenter"",""1"",""2600""
","
","","","489.5","","","22","4231","3091","&#9776;","elianto","#3366ff99"," "," ","1","+10","[1340.7000000029802]","1","0","1","","","","","","","",""
"pit-trial","25","302816","0.0-2.0-8.1-0.1","battery-v0.2","","""event"",""trial"",""time""
""fullscreenenter"",""1"",""2600""
","
","
","""event"",""trial"",""time""
""fullscreenenter"",""1"",""2600""
","
","","","505.59999999403954","","","22","4231","3091","&#9776;","elianto","#3366ff99"," "," ","1","+10","[1356.2000000029802]","1","0","1","","","","","","","",""
"pit-trial","26","306254","0.0-2.0-8.1-1.1","battery-v0.2","","""event"",""trial"",""time""
""fullscreenenter"",""1"",""2600""
","
","
","""event"",""trial"",""time""
""fullscreenenter"",""1"",""2600""
","
","","","584.3999999910593","","","22","4231","3091","&#9776;","elianto","#3366ff99"," "," ","1","+10","[1434.4000000059605]","1","0","1","","","","","","","",""
"pit-trial","27","309628","0.0-2.0-8.1-2.1","battery-v0.2","","""event"",""trial"",""time""
""fullscreenenter"",""1"",""2600""
","
","
","""event"",""trial"",""time""
""fullscreenenter"",""1"",""2600""
","
","","","518.5999999940395","","","22","4231","3091","&#9776;","elianto","#3366ff99"," "," ","1","+10","[1368.7000000029802]","1","0","1","","","","","","","",""
"pit-trial","28","313065","0.0-2.0-8.1-3.1","battery-v0.2","","""event"",""trial"",""time""
""fullscreenenter"",""1"",""2600""
","
","
","""event"",""trial"",""time""
""fullscreenenter"",""1"",""2600""
","
","","","578.7999999970198","","","22","4231","3091","&#9776;","elianto","#3366ff99"," "," ","1","0","[1430.2000000029802]","1","0","1","","","","","","","",""
"pit-trial","29","316398","0.0-2.0-8.1-4.1","battery-v0.2","","""event"",""trial"",""time""
""fullscreenenter"",""1"",""2600""
","
","
","""event"",""trial"",""time""
""fullscreenenter"",""1"",""2600""
","
","","","473.70000000298023","","","22","4231","3091","&#9776;","elianto","#3366ff99"," "," ","1","+10","[1324.2999999970198]","1","0","1","","","","","","","",""
"pit-trial","30","319997","0.0-2.0-8.2-0.2","battery-v0.2","","""event"",""trial"",""time""
""fullscreenenter"",""1"",""2600""
","
","
","""event"",""trial"",""time""
""fullscreenenter"",""1"",""2600""
","
","","","738.0999999940395","","","22","4231","3091","&#9776;","elianto","#3366ff99"," "," ","1","+10","[1588.4000000059605]","1","0","1","","","","","","","",""
"pit-trial","31","323311","0.0-2.0-8.2-1.2","battery-v0.2","","""event"",""trial"",""time""
""fullscreenenter"",""1"",""2600""
","
","
","""event"",""trial"",""time""
""fullscreenenter"",""1"",""2600""
","
","","","453.5","","","22","4231","3091","&#9776;","elianto","#3366ff99"," "," ","1","+10","[1305.5999999940395]","1","0","1","","","","","","","",""
"pit-trial","32","326898","0.0-2.0-8.2-2.2","battery-v0.2","","""event"",""trial"",""time""
""fullscreenenter"",""1"",""2600""
","
","
","""event"",""trial"",""time""
""fullscreenenter"",""1"",""2600""
","
","","","730.1000000089407","","","22","4231","3091","&#9776;","elianto","#3366ff99"," "," ","1","+10","[1582.1000000089407]","1","0","1","","","","","","","",""
"pit-trial","33","330155","0.0-2.0-8.2-3.2","battery-v0.2","","""event"",""trial"",""time""
""fullscreenenter"",""1"",""2600""
","
","
","""event"",""trial"",""time""
""fullscreenenter"",""1"",""2600""
","
","","","397.1000000089407","","","22","4231","3091","&#9776;","elianto","#3366ff99"," "," ","1","0","[1249.2999999970198]","1","0","1","","","","","","","",""
"pit-trial","34","333384","0.0-2.0-8.2-4.2","battery-v0.2","","""event"",""trial"",""time""
""fullscreenenter"",""1"",""2600""
","
","
","""event"",""trial"",""time""
""fullscreenenter"",""1"",""2600""
","
","","","372.20000000298023","","","22","4231","3091","&#9776;","elianto","#3366ff99"," "," ","1","+10","[1223.2000000029802]","1","0","1","","","","","","","",""
"call-function","35","333389","0.0-2.0-9.0","battery-v0.2","","""event"",""trial"",""time""
""fullscreenenter"",""1"",""2600""
""fullscreenexit"",""36"",""358760""
""blur"",""36"",""366704""
""focus"",""36"",""372950""
""blur"",""36"",""374630""
""focus"",""36"",""375547""
","""event"",""trial"",""time""
""blur"",""36"",""366704""
""blur"",""36"",""374630""
","""event"",""trial"",""time""
""focus"",""36"",""372950""
""focus"",""36"",""375547""
","""event"",""trial"",""time""
""fullscreenenter"",""1"",""2600""
","""event"",""trial"",""time""
""fullscreenexit"",""36"",""358760""
","","","","","","","","","","","","","","","","","","","","","","","","","","",""
"pit-instructions","36","376218","0.0-2.0-10.0","battery-v0.2","","""event"",""trial"",""time""
""fullscreenenter"",""1"",""2600""
""fullscreenexit"",""36"",""358760""
""blur"",""36"",""366704""
""focus"",""36"",""372950""
""blur"",""36"",""374630""
""focus"",""36"",""375547""
""blur"",""37"",""381015""
","""event"",""trial"",""time""
""blur"",""36"",""366704""
""blur"",""36"",""374630""
""blur"",""37"",""381015""
","""event"",""trial"",""time""
""focus"",""36"",""372950""
""focus"",""36"",""375547""
","""event"",""trial"",""time""
""fullscreenenter"",""1"",""2600""
","""event"",""trial"",""time""
""fullscreenexit"",""36"",""358760""
","","[{""page_index"":0,""viewing_time"":6688},{""page_index"":1,""viewing_time"":6814.5999999940395},{""page_index"":2,""viewing_time"":9576.10000000894},{""page_index"":3,""viewing_time"":8099.5999999940395},{""page_index"":4,""viewing_time"":11650.59999999404}]","42829.39999999106","","","","","","","","","","","","","","","","","","","","","","","",""
"pit-trial","37","381074","0.0-2.0-11.0-0.0","battery-v0.2","","""event"",""trial"",""time""
""fullscreenenter"",""1"",""2600""
""fullscreenexit"",""36"",""358760""
""blur"",""36"",""366704""
""focus"",""36"",""372950""
""blur"",""36"",""374630""
""focus"",""36"",""375547""
""blur"",""37"",""381015""
""focus"",""38"",""382436""
""blur"",""38"",""384994""
","""event"",""trial"",""time""
""blur"",""36"",""366704""
""blur"",""36"",""374630""
""blur"",""37"",""381015""
""blur"",""38"",""384994""
","""event"",""trial"",""time""
""focus"",""36"",""372950""
""focus"",""36"",""375547""
""focus"",""38"",""382436""
","""event"",""trial"",""time""
""fullscreenenter"",""1"",""2600""
","""event"",""trial"",""time""
""fullscreenexit"",""36"",""358760""
","","","-1","","","22","4231","3091","&#9761;","elianto","#3366ff99","-1","-1","1","+10","[]","0","0","2","","","","","","","",""
"pit-trial","38","385932","0.0-2.0-11.0-1.0","battery-v0.2","","""event"",""trial"",""time""
""fullscreenenter"",""1"",""2600""
""fullscreenexit"",""36"",""358760""
""blur"",""36"",""366704""
""focus"",""36"",""372950""
""blur"",""36"",""374630""
""focus"",""36"",""375547""
""blur"",""37"",""381015""
""focus"",""38"",""382436""
""blur"",""38"",""384994""
""focus"",""39"",""388363""
""blur"",""39"",""389724""
","""event"",""trial"",""time""
""blur"",""36"",""366704""
""blur"",""36"",""374630""
""blur"",""37"",""381015""
""blur"",""38"",""384994""
""blur"",""39"",""389724""
","""event"",""trial"",""time""
""focus"",""36"",""372950""
""focus"",""36"",""375547""
""focus"",""38"",""382436""
""focus"",""39"",""388363""
","""event"",""trial"",""time""
""fullscreenenter"",""1"",""2600""
","""event"",""trial"",""time""
""fullscreenexit"",""36"",""358760""
","","","-1","","","22","4231","3091","&#9761;","elianto","#3366ff99","-1","-1","1","+10","[]","0","0","2","","","","","","","",""
"pit-trial","39","390792","0.0-2.0-11.0-2.0","battery-v0.2","","""event"",""trial"",""time""
""fullscreenenter"",""1"",""2600""
""fullscreenexit"",""36"",""358760""
""blur"",""36"",""366704""
""focus"",""36"",""372950""
""blur"",""36"",""374630""
""focus"",""36"",""375547""
""blur"",""37"",""381015""
""focus"",""38"",""382436""
""blur"",""38"",""384994""
""focus"",""39"",""388363""
""blur"",""39"",""389724""
","""event"",""trial"",""time""
""blur"",""36"",""366704""
""blur"",""36"",""374630""
""blur"",""37"",""381015""
""blur"",""38"",""384994""
""blur"",""39"",""389724""
","""event"",""trial"",""time""
""focus"",""36"",""372950""
""focus"",""36"",""375547""
""focus"",""38"",""382436""
""focus"",""39"",""388363""
","""event"",""trial"",""time""
""fullscreenenter"",""1"",""2600""
","""event"",""trial"",""time""
""fullscreenexit"",""36"",""358760""
","","","-1","","","22","4231","3091","&#9761;","elianto","#3366ff99","-1","-1","1","+10","[]","0","0","2","","","","","","","",""
"pit-trial","40","395649","0.0-2.0-11.0-3.0","battery-v0.2","","""event"",""trial"",""time""
""fullscreenenter"",""1"",""2600""
""fullscreenexit"",""36"",""358760""
""blur"",""36"",""366704""
""focus"",""36"",""372950""
""blur"",""36"",""374630""
""focus"",""36"",""375547""
""blur"",""37"",""381015""
""focus"",""38"",""382436""
""blur"",""38"",""384994""
""focus"",""39"",""388363""
""blur"",""39"",""389724""
""focus"",""41"",""396926""
""blur"",""41"",""399317""
","""event"",""trial"",""time""
""blur"",""36"",""366704""
""blur"",""36"",""374630""
""blur"",""37"",""381015""
""blur"",""38"",""384994""
""blur"",""39"",""389724""
""blur"",""41"",""399317""
","""event"",""trial"",""time""
""focus"",""36"",""372950""
""focus"",""36"",""375547""
""focus"",""38"",""382436""
""focus"",""39"",""388363""
""focus"",""41"",""396926""
","""event"",""trial"",""time""
""fullscreenenter"",""1"",""2600""
","""event"",""trial"",""time""
""fullscreenexit"",""36"",""358760""
","","","-1","","","22","4231","3091","&#9761;","elianto","#3366ff99","-1","-1","1","0","[]","0","0","2","","","","","","","",""
"pit-trial","41","400510","0.0-2.0-11.0-4.0","battery-v0.2","","""event"",""trial"",""time""
""fullscreenenter"",""1"",""2600""
""fullscreenexit"",""36"",""358760""
""blur"",""36"",""366704""
""focus"",""36"",""372950""
""blur"",""36"",""374630""
""focus"",""36"",""375547""
""blur"",""37"",""381015""
""focus"",""38"",""382436""
""blur"",""38"",""384994""
""focus"",""39"",""388363""
""blur"",""39"",""389724""
""focus"",""41"",""396926""
""blur"",""41"",""399317""
","""event"",""trial"",""time""
""blur"",""36"",""366704""
""blur"",""36"",""374630""
""blur"",""37"",""381015""
""blur"",""38"",""384994""
""blur"",""39"",""389724""
""blur"",""41"",""399317""
","""event"",""trial"",""time""
""focus"",""36"",""372950""
""focus"",""36"",""375547""
""focus"",""38"",""382436""
""focus"",""39"",""388363""
""focus"",""41"",""396926""
","""event"",""trial"",""time""
""fullscreenenter"",""1"",""2600""
","""event"",""trial"",""time""
""fullscreenexit"",""36"",""358760""
","","","-1","","","22","4231","3091","&#9761;","elianto","#3366ff99","-1","-1","1","+10","[]","0","0","2","","","","","","","",""
"pit-trial","42","405369","0.0-2.0-11.1-0.1","battery-v0.2","","""event"",""trial"",""time""
""fullscreenenter"",""1"",""2600""
""fullscreenexit"",""36"",""358760""
""blur"",""36"",""366704""
""focus"",""36"",""372950""
""blur"",""36"",""374630""
""focus"",""36"",""375547""
""blur"",""37"",""381015""
""focus"",""38"",""382436""
""blur"",""38"",""384994""
""focus"",""39"",""388363""
""blur"",""39"",""389724""
""focus"",""41"",""396926""
""blur"",""41"",""399317""
","""event"",""trial"",""time""
""blur"",""36"",""366704""
""blur"",""36"",""374630""
""blur"",""37"",""381015""
""blur"",""38"",""384994""
""blur"",""39"",""389724""
""blur"",""41"",""399317""
","""event"",""trial"",""time""
""focus"",""36"",""372950""
""focus"",""36"",""375547""
""focus"",""38"",""382436""
""focus"",""39"",""388363""
""focus"",""41"",""396926""
","""event"",""trial"",""time""
""fullscreenenter"",""1"",""2600""
","""event"",""trial"",""time""
""fullscreenexit"",""36"",""358760""
","","","-1","","","22","4231","3091","&#9761;","elianto","#3366ff99","-1","-1","1","+10","[]","0","0","2","","","","","","","",""
"pit-trial","43","410230","0.0-2.0-11.1-1.1","battery-v0.2","","""event"",""trial"",""time""
""fullscreenenter"",""1"",""2600""
""fullscreenexit"",""36"",""358760""
""blur"",""36"",""366704""
""focus"",""36"",""372950""
""blur"",""36"",""374630""
""focus"",""36"",""375547""
""blur"",""37"",""381015""
""focus"",""38"",""382436""
""blur"",""38"",""384994""
""focus"",""39"",""388363""
""blur"",""39"",""389724""
""focus"",""41"",""396926""
""blur"",""41"",""399317""
","""event"",""trial"",""time""
""blur"",""36"",""366704""
""blur"",""36"",""374630""
""blur"",""37"",""381015""
""blur"",""38"",""384994""
""blur"",""39"",""389724""
""blur"",""41"",""399317""
","""event"",""trial"",""time""
""focus"",""36"",""372950""
""focus"",""36"",""375547""
""focus"",""38"",""382436""
""focus"",""39"",""388363""
""focus"",""41"",""396926""
","""event"",""trial"",""time""
""fullscreenenter"",""1"",""2600""
","""event"",""trial"",""time""
""fullscreenexit"",""36"",""358760""
","","","-1","","","22","4231","3091","&#9761;","elianto","#3366ff99","-1","-1","1","+10","[]","0","0","2","","","","","","","",""
"pit-trial","44","415085","0.0-2.0-11.1-2.1","battery-v0.2","","""event"",""trial"",""time""
""fullscreenenter"",""1"",""2600""
""fullscreenexit"",""36"",""358760""
""blur"",""36"",""366704""
""focus"",""36"",""372950""
""blur"",""36"",""374630""
""focus"",""36"",""375547""
""blur"",""37"",""381015""
""focus"",""38"",""382436""
""blur"",""38"",""384994""
""focus"",""39"",""388363""
""blur"",""39"",""389724""
""focus"",""41"",""396926""
""blur"",""41"",""399317""
""focus"",""45"",""415562""
","""event"",""trial"",""time""
""blur"",""36"",""366704""
""blur"",""36"",""374630""
""blur"",""37"",""381015""
""blur"",""38"",""384994""
""blur"",""39"",""389724""
""blur"",""41"",""399317""
","""event"",""trial"",""time""
""focus"",""36"",""372950""
""focus"",""36"",""375547""
""focus"",""38"",""382436""
""focus"",""39"",""388363""
""focus"",""41"",""396926""
""focus"",""45"",""415562""
","""event"",""trial"",""time""
""fullscreenenter"",""1"",""2600""
","""event"",""trial"",""time""
""fullscreenexit"",""36"",""358760""
","","","-1","","","22","4231","3091","&#9761;","elianto","#3366ff99","-1","-1","1","+10","[]","0","0","2","","","","","","","",""
"pit-trial","45","419947","0.0-2.0-11.1-3.1","battery-v0.2","","""event"",""trial"",""time""
""fullscreenenter"",""1"",""2600""
""fullscreenexit"",""36"",""358760""
""blur"",""36"",""366704""
""focus"",""36"",""372950""
""blur"",""36"",""374630""
""focus"",""36"",""375547""
""blur"",""37"",""381015""
""focus"",""38"",""382436""
""blur"",""38"",""384994""
""focus"",""39"",""388363""
""blur"",""39"",""389724""
""focus"",""41"",""396926""
""blur"",""41"",""399317""
""focus"",""45"",""415562""
""blur"",""46"",""423212""
","""event"",""trial"",""time""
""blur"",""36"",""366704""
""blur"",""36"",""374630""
""blur"",""37"",""381015""
""blur"",""38"",""384994""
""blur"",""39"",""389724""
""blur"",""41"",""399317""
""blur"",""46"",""423212""
","""event"",""trial"",""time""
""focus"",""36"",""372950""
""focus"",""36"",""375547""
""focus"",""38"",""382436""
""focus"",""39"",""388363""
""focus"",""41"",""396926""
""focus"",""45"",""415562""
","""event"",""trial"",""time""
""fullscreenenter"",""1"",""2600""
","""event"",""trial"",""time""
""fullscreenexit"",""36"",""358760""
","","","-1","","","22","4231","3091","&#9761;","elianto","#3366ff99","-1","-1","1","0","[]","0","0","2","","","","","","","",""
"pit-trial","46","424805","0.0-2.0-11.1-4.1","battery-v0.2","","""event"",""trial"",""time""
""fullscreenenter"",""1"",""2600""
""fullscreenexit"",""36"",""358760""
""blur"",""36"",""366704""
""focus"",""36"",""372950""
""blur"",""36"",""374630""
""focus"",""36"",""375547""
""blur"",""37"",""381015""
""focus"",""38"",""382436""
""blur"",""38"",""384994""
""focus"",""39"",""388363""
""blur"",""39"",""389724""
""focus"",""41"",""396926""
""blur"",""41"",""399317""
""focus"",""45"",""415562""
""blur"",""46"",""423212""
""focus"",""47"",""429284""
","""event"",""trial"",""time""
""blur"",""36"",""366704""
""blur"",""36"",""374630""
""blur"",""37"",""381015""
""blur"",""38"",""384994""
""blur"",""39"",""389724""
""blur"",""41"",""399317""
""blur"",""46"",""423212""
","""event"",""trial"",""time""
""focus"",""36"",""372950""
""focus"",""36"",""375547""
""focus"",""38"",""382436""
""focus"",""39"",""388363""
""focus"",""41"",""396926""
""focus"",""45"",""415562""
""focus"",""47"",""429284""
","""event"",""trial"",""time""
""fullscreenenter"",""1"",""2600""
","""event"",""trial"",""time""
""fullscreenexit"",""36"",""358760""
","","","-1","","","22","4231","3091","&#9761;","elianto","#3366ff99","-1","-1","1","+10","[]","0","0","2","","","","","","","",""
"pit-trial","47","429667","0.0-2.0-11.2-0.2","battery-v0.2","","""event"",""trial"",""time""
""fullscreenenter"",""1"",""2600""
""fullscreenexit"",""36"",""358760""
""blur"",""36"",""366704""
""focus"",""36"",""372950""
""blur"",""36"",""374630""
""focus"",""36"",""375547""
""blur"",""37"",""381015""
""focus"",""38"",""382436""
""blur"",""38"",""384994""
""focus"",""39"",""388363""
""blur"",""39"",""389724""
""focus"",""41"",""396926""
""blur"",""41"",""399317""
""focus"",""45"",""415562""
""blur"",""46"",""423212""
""focus"",""47"",""429284""
","""event"",""trial"",""time""
""blur"",""36"",""366704""
""blur"",""36"",""374630""
""blur"",""37"",""381015""
""blur"",""38"",""384994""
""blur"",""39"",""389724""
""blur"",""41"",""399317""
""blur"",""46"",""423212""
","""event"",""trial"",""time""
""focus"",""36"",""372950""
""focus"",""36"",""375547""
""focus"",""38"",""382436""
""focus"",""39"",""388363""
""focus"",""41"",""396926""
""focus"",""45"",""415562""
""focus"",""47"",""429284""
","""event"",""trial"",""time""
""fullscreenenter"",""1"",""2600""
","""event"",""trial"",""time""
""fullscreenexit"",""36"",""358760""
","","","-1","","","22","4231","3091","&#9761;","elianto","#3366ff99","-1","-1","1","+10","[]","0","0","2","","","","","","","",""
"pit-trial","48","434526","0.0-2.0-11.2-1.2","battery-v0.2","","""event"",""trial"",""time""
""fullscreenenter"",""1"",""2600""
""fullscreenexit"",""36"",""358760""
""blur"",""36"",""366704""
""focus"",""36"",""372950""
""blur"",""36"",""374630""
""focus"",""36"",""375547""
""blur"",""37"",""381015""
""focus"",""38"",""382436""
""blur"",""38"",""384994""
""focus"",""39"",""388363""
""blur"",""39"",""389724""
""focus"",""41"",""396926""
""blur"",""41"",""399317""
""focus"",""45"",""415562""
""blur"",""46"",""423212""
""focus"",""47"",""429284""
","""event"",""trial"",""time""
""blur"",""36"",""366704""
""blur"",""36"",""374630""
""blur"",""37"",""381015""
""blur"",""38"",""384994""
""blur"",""39"",""389724""
""blur"",""41"",""399317""
""blur"",""46"",""423212""
","""event"",""trial"",""time""
""focus"",""36"",""372950""
""focus"",""36"",""375547""
""focus"",""38"",""382436""
""focus"",""39"",""388363""
""focus"",""41"",""396926""
""focus"",""45"",""415562""
""focus"",""47"",""429284""
","""event"",""trial"",""time""
""fullscreenenter"",""1"",""2600""
","""event"",""trial"",""time""
""fullscreenexit"",""36"",""358760""
","","","-1","","","22","4231","3091","&#9761;","elianto","#3366ff99","-1","-1","1","+10","[]","0","0","2","","","","","","","",""
"pit-trial","49","439385","0.0-2.0-11.2-2.2","battery-v0.2","","""event"",""trial"",""time""
""fullscreenenter"",""1"",""2600""
""fullscreenexit"",""36"",""358760""
""blur"",""36"",""366704""
""focus"",""36"",""372950""
""blur"",""36"",""374630""
""focus"",""36"",""375547""
""blur"",""37"",""381015""
""focus"",""38"",""382436""
""blur"",""38"",""384994""
""focus"",""39"",""388363""
""blur"",""39"",""389724""
""focus"",""41"",""396926""
""blur"",""41"",""399317""
""focus"",""45"",""415562""
""blur"",""46"",""423212""
""focus"",""47"",""429284""
","""event"",""trial"",""time""
""blur"",""36"",""366704""
""blur"",""36"",""374630""
""blur"",""37"",""381015""
""blur"",""38"",""384994""
""blur"",""39"",""389724""
""blur"",""41"",""399317""
""blur"",""46"",""423212""
","""event"",""trial"",""time""
""focus"",""36"",""372950""
""focus"",""36"",""375547""
""focus"",""38"",""382436""
""focus"",""39"",""388363""
""focus"",""41"",""396926""
""focus"",""45"",""415562""
""focus"",""47"",""429284""
","""event"",""trial"",""time""
""fullscreenenter"",""1"",""2600""
","""event"",""trial"",""time""
""fullscreenexit"",""36"",""358760""
","","","-1","","","22","4231","3091","&#9761;","elianto","#3366ff99","-1","-1","1","+10","[]","0","0","2","","","","","","","",""
"pit-trial","50","444244","0.0-2.0-11.2-3.2","battery-v0.2","","""event"",""trial"",""time""
""fullscreenenter"",""1"",""2600""
""fullscreenexit"",""36"",""358760""
""blur"",""36"",""366704""
""focus"",""36"",""372950""
""blur"",""36"",""374630""
""focus"",""36"",""375547""
""blur"",""37"",""381015""
""focus"",""38"",""382436""
""blur"",""38"",""384994""
""focus"",""39"",""388363""
""blur"",""39"",""389724""
""focus"",""41"",""396926""
""blur"",""41"",""399317""
""focus"",""45"",""415562""
""blur"",""46"",""423212""
""focus"",""47"",""429284""
","""event"",""trial"",""time""
""blur"",""36"",""366704""
""blur"",""36"",""374630""
""blur"",""37"",""381015""
""blur"",""38"",""384994""
""blur"",""39"",""389724""
""blur"",""41"",""399317""
""blur"",""46"",""423212""
","""event"",""trial"",""time""
""focus"",""36"",""372950""
""focus"",""36"",""375547""
""focus"",""38"",""382436""
""focus"",""39"",""388363""
""focus"",""41"",""396926""
""focus"",""45"",""415562""
""focus"",""47"",""429284""
","""event"",""trial"",""time""
""fullscreenenter"",""1"",""2600""
","""event"",""trial"",""time""
""fullscreenexit"",""36"",""358760""
","","","-1","","","22","4231","3091","&#9761;","elianto","#3366ff99","-1","-1","1","0","[]","0","0","2","","","","","","","",""
"pit-trial","51","449102","0.0-2.0-11.2-4.2","battery-v0.2","","""event"",""trial"",""time""
""fullscreenenter"",""1"",""2600""
""fullscreenexit"",""36"",""358760""
""blur"",""36"",""366704""
""focus"",""36"",""372950""
""blur"",""36"",""374630""
""focus"",""36"",""375547""
""blur"",""37"",""381015""
""focus"",""38"",""382436""
""blur"",""38"",""384994""
""focus"",""39"",""388363""
""blur"",""39"",""389724""
""focus"",""41"",""396926""
""blur"",""41"",""399317""
""focus"",""45"",""415562""
""blur"",""46"",""423212""
""focus"",""47"",""429284""
","""event"",""trial"",""time""
""blur"",""36"",""366704""
""blur"",""36"",""374630""
""blur"",""37"",""381015""
""blur"",""38"",""384994""
""blur"",""39"",""389724""
""blur"",""41"",""399317""
""blur"",""46"",""423212""
","""event"",""trial"",""time""
""focus"",""36"",""372950""
""focus"",""36"",""375547""
""focus"",""38"",""382436""
""focus"",""39"",""388363""
""focus"",""41"",""396926""
""focus"",""45"",""415562""
""focus"",""47"",""429284""
","""event"",""trial"",""time""
""fullscreenenter"",""1"",""2600""
","""event"",""trial"",""time""
""fullscreenexit"",""36"",""358760""
","","","-1","","","22","4231","3091","&#9761;","elianto","#3366ff99","-1","-1","1","+10","[]","0","0","2","","","","","","","",""
"pit-trial","52","453968","0.0-2.0-11.3-0.3","battery-v0.2","","""event"",""trial"",""time""
""fullscreenenter"",""1"",""2600""
""fullscreenexit"",""36"",""358760""
""blur"",""36"",""366704""
""focus"",""36"",""372950""
""blur"",""36"",""374630""
""focus"",""36"",""375547""
""blur"",""37"",""381015""
""focus"",""38"",""382436""
""blur"",""38"",""384994""
""focus"",""39"",""388363""
""blur"",""39"",""389724""
""focus"",""41"",""396926""
""blur"",""41"",""399317""
""focus"",""45"",""415562""
""blur"",""46"",""423212""
""focus"",""47"",""429284""
","""event"",""trial"",""time""
""blur"",""36"",""366704""
""blur"",""36"",""374630""
""blur"",""37"",""381015""
""blur"",""38"",""384994""
""blur"",""39"",""389724""
""blur"",""41"",""399317""
""blur"",""46"",""423212""
","""event"",""trial"",""time""
""focus"",""36"",""372950""
""focus"",""36"",""375547""
""focus"",""38"",""382436""
""focus"",""39"",""388363""
""focus"",""41"",""396926""
""focus"",""45"",""415562""
""focus"",""47"",""429284""
","""event"",""trial"",""time""
""fullscreenenter"",""1"",""2600""
","""event"",""trial"",""time""
""fullscreenexit"",""36"",""358760""
","","","-1","","","22","4231","3091","&#9761;","elianto","#3366ff99","-1","-1","1","+10","[]","0","0","2","","","","","","","",""
"pit-trial","53","458825","0.0-2.0-11.3-1.3","battery-v0.2","","""event"",""trial"",""time""
""fullscreenenter"",""1"",""2600""
""fullscreenexit"",""36"",""358760""
""blur"",""36"",""366704""
""focus"",""36"",""372950""
""blur"",""36"",""374630""
""focus"",""36"",""375547""
""blur"",""37"",""381015""
""focus"",""38"",""382436""
""blur"",""38"",""384994""
""focus"",""39"",""388363""
""blur"",""39"",""389724""
""focus"",""41"",""396926""
""blur"",""41"",""399317""
""focus"",""45"",""415562""
""blur"",""46"",""423212""
""focus"",""47"",""429284""
","""event"",""trial"",""time""
""blur"",""36"",""366704""
""blur"",""36"",""374630""
""blur"",""37"",""381015""
""blur"",""38"",""384994""
""blur"",""39"",""389724""
""blur"",""41"",""399317""
""blur"",""46"",""423212""
","""event"",""trial"",""time""
""focus"",""36"",""372950""
""focus"",""36"",""375547""
""focus"",""38"",""382436""
""focus"",""39"",""388363""
""focus"",""41"",""396926""
""focus"",""45"",""415562""
""focus"",""47"",""429284""
","""event"",""trial"",""time""
""fullscreenenter"",""1"",""2600""
","""event"",""trial"",""time""
""fullscreenexit"",""36"",""358760""
","","","-1","","","22","4231","3091","&#9761;","elianto","#3366ff99","-1","-1","1","+10","[]","0","0","2","","","","","","","",""
"pit-trial","54","463686","0.0-2.0-11.3-2.3","battery-v0.2","","""event"",""trial"",""time""
""fullscreenenter"",""1"",""2600""
""fullscreenexit"",""36"",""358760""
""blur"",""36"",""366704""
""focus"",""36"",""372950""
""blur"",""36"",""374630""
""focus"",""36"",""375547""
""blur"",""37"",""381015""
""focus"",""38"",""382436""
""blur"",""38"",""384994""
""focus"",""39"",""388363""
""blur"",""39"",""389724""
""focus"",""41"",""396926""
""blur"",""41"",""399317""
""focus"",""45"",""415562""
""blur"",""46"",""423212""
""focus"",""47"",""429284""
","""event"",""trial"",""time""
""blur"",""36"",""366704""
""blur"",""36"",""374630""
""blur"",""37"",""381015""
""blur"",""38"",""384994""
""blur"",""39"",""389724""
""blur"",""41"",""399317""
""blur"",""46"",""423212""
","""event"",""trial"",""time""
""focus"",""36"",""372950""
""focus"",""36"",""375547""
""focus"",""38"",""382436""
""focus"",""39"",""388363""
""focus"",""41"",""396926""
""focus"",""45"",""415562""
""focus"",""47"",""429284""
","""event"",""trial"",""time""
""fullscreenenter"",""1"",""2600""
","""event"",""trial"",""time""
""fullscreenexit"",""36"",""358760""
","","","-1","","","22","4231","3091","&#9761;","elianto","#3366ff99","-1","-1","1","+10","[]","0","0","2","","","","","","","",""
"pit-trial","55","468548","0.0-2.0-11.3-3.3","battery-v0.2","","""event"",""trial"",""time""
""fullscreenenter"",""1"",""2600""
""fullscreenexit"",""36"",""358760""
""blur"",""36"",""366704""
""focus"",""36"",""372950""
""blur"",""36"",""374630""
""focus"",""36"",""375547""
""blur"",""37"",""381015""
""focus"",""38"",""382436""
""blur"",""38"",""384994""
""focus"",""39"",""388363""
""blur"",""39"",""389724""
""focus"",""41"",""396926""
""blur"",""41"",""399317""
""focus"",""45"",""415562""
""blur"",""46"",""423212""
""focus"",""47"",""429284""
","""event"",""trial"",""time""
""blur"",""36"",""366704""
""blur"",""36"",""374630""
""blur"",""37"",""381015""
""blur"",""38"",""384994""
""blur"",""39"",""389724""
""blur"",""41"",""399317""
""blur"",""46"",""423212""
","""event"",""trial"",""time""
""focus"",""36"",""372950""
""focus"",""36"",""375547""
""focus"",""38"",""382436""
""focus"",""39"",""388363""
""focus"",""41"",""396926""
""focus"",""45"",""415562""
""focus"",""47"",""429284""
","""event"",""trial"",""time""
""fullscreenenter"",""1"",""2600""
","""event"",""trial"",""time""
""fullscreenexit"",""36"",""358760""
","","","-1","","","22","4231","3091","&#9761;","elianto","#3366ff99","-1","-1","1","0","[]","0","0","2","","","","","","","",""
"pit-trial","56","473408","0.0-2.0-11.3-4.3","battery-v0.2","","""event"",""trial"",""time""
""fullscreenenter"",""1"",""2600""
""fullscreenexit"",""36"",""358760""
""blur"",""36"",""366704""
""focus"",""36"",""372950""
""blur"",""36"",""374630""
""focus"",""36"",""375547""
""blur"",""37"",""381015""
""focus"",""38"",""382436""
""blur"",""38"",""384994""
""focus"",""39"",""388363""
""blur"",""39"",""389724""
""focus"",""41"",""396926""
""blur"",""41"",""399317""
""focus"",""45"",""415562""
""blur"",""46"",""423212""
""focus"",""47"",""429284""
","""event"",""trial"",""time""
""blur"",""36"",""366704""
""blur"",""36"",""374630""
""blur"",""37"",""381015""
""blur"",""38"",""384994""
""blur"",""39"",""389724""
""blur"",""41"",""399317""
""blur"",""46"",""423212""
","""event"",""trial"",""time""
""focus"",""36"",""372950""
""focus"",""36"",""375547""
""focus"",""38"",""382436""
""focus"",""39"",""388363""
""focus"",""41"",""396926""
""focus"",""45"",""415562""
""focus"",""47"",""429284""
","""event"",""trial"",""time""
""fullscreenenter"",""1"",""2600""
","""event"",""trial"",""time""
""fullscreenexit"",""36"",""358760""
","","","-1","","","22","4231","3091","&#9761;","elianto","#3366ff99","-1","-1","1","+10","[]","0","0","2","","","","","","","",""
"call-function","57","473412","0.0-2.0-12.0","battery-v0.2","","""event"",""trial"",""time""
""fullscreenenter"",""1"",""2600""
""fullscreenexit"",""36"",""358760""
""blur"",""36"",""366704""
""focus"",""36"",""372950""
""blur"",""36"",""374630""
""focus"",""36"",""375547""
""blur"",""37"",""381015""
""focus"",""38"",""382436""
""blur"",""38"",""384994""
""focus"",""39"",""388363""
""blur"",""39"",""389724""
""focus"",""41"",""396926""
""blur"",""41"",""399317""
""focus"",""45"",""415562""
""blur"",""46"",""423212""
""focus"",""47"",""429284""
""blur"",""58"",""493475""
""focus"",""58"",""503805""
","""event"",""trial"",""time""
""blur"",""36"",""366704""
""blur"",""36"",""374630""
""blur"",""37"",""381015""
""blur"",""38"",""384994""
""blur"",""39"",""389724""
""blur"",""41"",""399317""
""blur"",""46"",""423212""
""blur"",""58"",""493475""
","""event"",""trial"",""time""
""focus"",""36"",""372950""
""focus"",""36"",""375547""
""focus"",""38"",""382436""
""focus"",""39"",""388363""
""focus"",""41"",""396926""
""focus"",""45"",""415562""
""focus"",""47"",""429284""
""focus"",""58"",""503805""
","""event"",""trial"",""time""
""fullscreenenter"",""1"",""2600""
","""event"",""trial"",""time""
""fullscreenexit"",""36"",""358760""
","","","","","","","","","","","","","","","","","","","","","","","","","","",""
"pit-instructions","58","509234","0.0-2.0-13.0","battery-v0.2","","""event"",""trial"",""time""
""fullscreenenter"",""1"",""2600""
""fullscreenexit"",""36"",""358760""
""blur"",""36"",""366704""
""focus"",""36"",""372950""
""blur"",""36"",""374630""
""focus"",""36"",""375547""
""blur"",""37"",""381015""
""focus"",""38"",""382436""
""blur"",""38"",""384994""
""focus"",""39"",""388363""
""blur"",""39"",""389724""
""focus"",""41"",""396926""
""blur"",""41"",""399317""
""focus"",""45"",""415562""
""blur"",""46"",""423212""
""focus"",""47"",""429284""
""blur"",""58"",""493475""
""focus"",""58"",""503805""
","""event"",""trial"",""time""
""blur"",""36"",""366704""
""blur"",""36"",""374630""
""blur"",""37"",""381015""
""blur"",""38"",""384994""
""blur"",""39"",""389724""
""blur"",""41"",""399317""
""blur"",""46"",""423212""
""blur"",""58"",""493475""
","""event"",""trial"",""time""
""focus"",""36"",""372950""
""focus"",""36"",""375547""
""focus"",""38"",""382436""
""focus"",""39"",""388363""
""focus"",""41"",""396926""
""focus"",""45"",""415562""
""focus"",""47"",""429284""
""focus"",""58"",""503805""
","""event"",""trial"",""time""
""fullscreenenter"",""1"",""2600""
","""event"",""trial"",""time""
""fullscreenexit"",""36"",""358760""
","","[{""page_index"":0,""viewing_time"":5359.5},{""page_index"":1,""viewing_time"":7182.899999991059},{""page_index"":2,""viewing_time"":4408.9000000059605},{""page_index"":3,""viewing_time"":14239.59999999404},{""page_index"":4,""viewing_time"":4631.4000000059605}]","35822.79999999702","","","","","","","","","","","","","","","","","","","","","","","",""
"pit-trial","59","514091","0.0-2.0-14.0-0.0","battery-v0.2","","""event"",""trial"",""time""
""fullscreenenter"",""1"",""2600""
""fullscreenexit"",""36"",""358760""
""blur"",""36"",""366704""
""focus"",""36"",""372950""
""blur"",""36"",""374630""
""focus"",""36"",""375547""
""blur"",""37"",""381015""
""focus"",""38"",""382436""
""blur"",""38"",""384994""
""focus"",""39"",""388363""
""blur"",""39"",""389724""
""focus"",""41"",""396926""
""blur"",""41"",""399317""
""focus"",""45"",""415562""
""blur"",""46"",""423212""
""focus"",""47"",""429284""
""blur"",""58"",""493475""
""focus"",""58"",""503805""
","""event"",""trial"",""time""
""blur"",""36"",""366704""
""blur"",""36"",""374630""
""blur"",""37"",""381015""
""blur"",""38"",""384994""
""blur"",""39"",""389724""
""blur"",""41"",""399317""
""blur"",""46"",""423212""
""blur"",""58"",""493475""
","""event"",""trial"",""time""
""focus"",""36"",""372950""
""focus"",""36"",""375547""
""focus"",""38"",""382436""
""focus"",""39"",""388363""
""focus"",""41"",""396926""
""focus"",""45"",""415562""
""focus"",""47"",""429284""
""focus"",""58"",""503805""
","""event"",""trial"",""time""
""fullscreenenter"",""1"",""2600""
","""event"",""trial"",""time""
""fullscreenexit"",""36"",""358760""
","","","-1","","","22","4231","3091","&#9826;","elianto","#f73b6a7A","-1","-1","1","0","[]","0","0","3","","","","","","","",""
"pit-trial","60","518949","0.0-2.0-14.0-1.0","battery-v0.2","","""event"",""trial"",""time""
""fullscreenenter"",""1"",""2600""
""fullscreenexit"",""36"",""358760""
""blur"",""36"",""366704""
""focus"",""36"",""372950""
""blur"",""36"",""374630""
""focus"",""36"",""375547""
""blur"",""37"",""381015""
""focus"",""38"",""382436""
""blur"",""38"",""384994""
""focus"",""39"",""388363""
""blur"",""39"",""389724""
""focus"",""41"",""396926""
""blur"",""41"",""399317""
""focus"",""45"",""415562""
""blur"",""46"",""423212""
""focus"",""47"",""429284""
""blur"",""58"",""493475""
""focus"",""58"",""503805""
""blur"",""61"",""522908""
","""event"",""trial"",""time""
""blur"",""36"",""366704""
""blur"",""36"",""374630""
""blur"",""37"",""381015""
""blur"",""38"",""384994""
""blur"",""39"",""389724""
""blur"",""41"",""399317""
""blur"",""46"",""423212""
""blur"",""58"",""493475""
""blur"",""61"",""522908""
","""event"",""trial"",""time""
""focus"",""36"",""372950""
""focus"",""36"",""375547""
""focus"",""38"",""382436""
""focus"",""39"",""388363""
""focus"",""41"",""396926""
""focus"",""45"",""415562""
""focus"",""47"",""429284""
""focus"",""58"",""503805""
","""event"",""trial"",""time""
""fullscreenenter"",""1"",""2600""
","""event"",""trial"",""time""
""fullscreenexit"",""36"",""358760""
","","","-1","","","22","4231","3091","&#9826;","elianto","#f73b6a7A","-1","-1","1","0","[]","0","0","3","","","","","","","",""
"pit-trial","61","523807","0.0-2.0-14.0-2.0","battery-v0.2","","""event"",""trial"",""time""
""fullscreenenter"",""1"",""2600""
""fullscreenexit"",""36"",""358760""
""blur"",""36"",""366704""
""focus"",""36"",""372950""
""blur"",""36"",""374630""
""focus"",""36"",""375547""
""blur"",""37"",""381015""
""focus"",""38"",""382436""
""blur"",""38"",""384994""
""focus"",""39"",""388363""
""blur"",""39"",""389724""
""focus"",""41"",""396926""
""blur"",""41"",""399317""
""focus"",""45"",""415562""
""blur"",""46"",""423212""
""focus"",""47"",""429284""
""blur"",""58"",""493475""
""focus"",""58"",""503805""
""blur"",""61"",""522908""
","""event"",""trial"",""time""
""blur"",""36"",""366704""
""blur"",""36"",""374630""
""blur"",""37"",""381015""
""blur"",""38"",""384994""
""blur"",""39"",""389724""
""blur"",""41"",""399317""
""blur"",""46"",""423212""
""blur"",""58"",""493475""
""blur"",""61"",""522908""
","""event"",""trial"",""time""
""focus"",""36"",""372950""
""focus"",""36"",""375547""
""focus"",""38"",""382436""
""focus"",""39"",""388363""
""focus"",""41"",""396926""
""focus"",""45"",""415562""
""focus"",""47"",""429284""
""focus"",""58"",""503805""
","""event"",""trial"",""time""
""fullscreenenter"",""1"",""2600""
","""event"",""trial"",""time""
""fullscreenexit"",""36"",""358760""
","","","-1","","","22","4231","3091","&#9826;","elianto","#f73b6a7A","-1","-1","1","0","[]","0","0","3","","","","","","","",""
"pit-trial","62","528668","0.0-2.0-14.0-3.0","battery-v0.2","","""event"",""trial"",""time""
""fullscreenenter"",""1"",""2600""
""fullscreenexit"",""36"",""358760""
""blur"",""36"",""366704""
""focus"",""36"",""372950""
""blur"",""36"",""374630""
""focus"",""36"",""375547""
""blur"",""37"",""381015""
""focus"",""38"",""382436""
""blur"",""38"",""384994""
""focus"",""39"",""388363""
""blur"",""39"",""389724""
""focus"",""41"",""396926""
""blur"",""41"",""399317""
""focus"",""45"",""415562""
""blur"",""46"",""423212""
""focus"",""47"",""429284""
""blur"",""58"",""493475""
""focus"",""58"",""503805""
""blur"",""61"",""522908""
""focus"",""63"",""531442""
","""event"",""trial"",""time""
""blur"",""36"",""366704""
""blur"",""36"",""374630""
""blur"",""37"",""381015""
""blur"",""38"",""384994""
""blur"",""39"",""389724""
""blur"",""41"",""399317""
""blur"",""46"",""423212""
""blur"",""58"",""493475""
""blur"",""61"",""522908""
","""event"",""trial"",""time""
""focus"",""36"",""372950""
""focus"",""36"",""375547""
""focus"",""38"",""382436""
""focus"",""39"",""388363""
""focus"",""41"",""396926""
""focus"",""45"",""415562""
""focus"",""47"",""429284""
""focus"",""58"",""503805""
""focus"",""63"",""531442""
","""event"",""trial"",""time""
""fullscreenenter"",""1"",""2600""
","""event"",""trial"",""time""
""fullscreenexit"",""36"",""358760""
","","","-1","","","22","4231","3091","&#9826;","elianto","#f73b6a7A","-1","-1","1","-10","[]","0","0","3","","","","","","","",""
"pit-trial","63","533525","0.0-2.0-14.0-4.0","battery-v0.2","","""event"",""trial"",""time""
""fullscreenenter"",""1"",""2600""
""fullscreenexit"",""36"",""358760""
""blur"",""36"",""366704""
""focus"",""36"",""372950""
""blur"",""36"",""374630""
""focus"",""36"",""375547""
""blur"",""37"",""381015""
""focus"",""38"",""382436""
""blur"",""38"",""384994""
""focus"",""39"",""388363""
""blur"",""39"",""389724""
""focus"",""41"",""396926""
""blur"",""41"",""399317""
""focus"",""45"",""415562""
""blur"",""46"",""423212""
""focus"",""47"",""429284""
""blur"",""58"",""493475""
""focus"",""58"",""503805""
""blur"",""61"",""522908""
""focus"",""63"",""531442""
","""event"",""trial"",""time""
""blur"",""36"",""366704""
""blur"",""36"",""374630""
""blur"",""37"",""381015""
""blur"",""38"",""384994""
""blur"",""39"",""389724""
""blur"",""41"",""399317""
""blur"",""46"",""423212""
""blur"",""58"",""493475""
""blur"",""61"",""522908""
","""event"",""trial"",""time""
""focus"",""36"",""372950""
""focus"",""36"",""375547""
""focus"",""38"",""382436""
""focus"",""39"",""388363""
""focus"",""41"",""396926""
""focus"",""45"",""415562""
""focus"",""47"",""429284""
""focus"",""58"",""503805""
""focus"",""63"",""531442""
","""event"",""trial"",""time""
""fullscreenenter"",""1"",""2600""
","""event"",""trial"",""time""
""fullscreenexit"",""36"",""358760""
","","","-1","","","22","4231","3091","&#9826;","elianto","#f73b6a7A","-1","-1","1","0","[]","0","0","3","","","","","","","",""
"pit-trial","64","538390","0.0-2.0-14.1-0.1","battery-v0.2","","""event"",""trial"",""time""
""fullscreenenter"",""1"",""2600""
""fullscreenexit"",""36"",""358760""
""blur"",""36"",""366704""
""focus"",""36"",""372950""
""blur"",""36"",""374630""
""focus"",""36"",""375547""
""blur"",""37"",""381015""
""focus"",""38"",""382436""
""blur"",""38"",""384994""
""focus"",""39"",""388363""
""blur"",""39"",""389724""
""focus"",""41"",""396926""
""blur"",""41"",""399317""
""focus"",""45"",""415562""
""blur"",""46"",""423212""
""focus"",""47"",""429284""
""blur"",""58"",""493475""
""focus"",""58"",""503805""
""blur"",""61"",""522908""
""focus"",""63"",""531442""
","""event"",""trial"",""time""
""blur"",""36"",""366704""
""blur"",""36"",""374630""
""blur"",""37"",""381015""
""blur"",""38"",""384994""
""blur"",""39"",""389724""
""blur"",""41"",""399317""
""blur"",""46"",""423212""
""blur"",""58"",""493475""
""blur"",""61"",""522908""
","""event"",""trial"",""time""
""focus"",""36"",""372950""
""focus"",""36"",""375547""
""focus"",""38"",""382436""
""focus"",""39"",""388363""
""focus"",""41"",""396926""
""focus"",""45"",""415562""
""focus"",""47"",""429284""
""focus"",""58"",""503805""
""focus"",""63"",""531442""
","""event"",""trial"",""time""
""fullscreenenter"",""1"",""2600""
","""event"",""trial"",""time""
""fullscreenexit"",""36"",""358760""
","","","-1","","","22","4231","3091","&#9826;","elianto","#f73b6a7A","-1","-1","1","0","[]","0","0","3","","","","","","","",""
"pit-trial","65","543250","0.0-2.0-14.1-1.1","battery-v0.2","","""event"",""trial"",""time""
""fullscreenenter"",""1"",""2600""
""fullscreenexit"",""36"",""358760""
""blur"",""36"",""366704""
""focus"",""36"",""372950""
""blur"",""36"",""374630""
""focus"",""36"",""375547""
""blur"",""37"",""381015""
""focus"",""38"",""382436""
""blur"",""38"",""384994""
""focus"",""39"",""388363""
""blur"",""39"",""389724""
""focus"",""41"",""396926""
""blur"",""41"",""399317""
""focus"",""45"",""415562""
""blur"",""46"",""423212""
""focus"",""47"",""429284""
""blur"",""58"",""493475""
""focus"",""58"",""503805""
""blur"",""61"",""522908""
""focus"",""63"",""531442""
""blur"",""66"",""547158""
","""event"",""trial"",""time""
""blur"",""36"",""366704""
""blur"",""36"",""374630""
""blur"",""37"",""381015""
""blur"",""38"",""384994""
""blur"",""39"",""389724""
""blur"",""41"",""399317""
""blur"",""46"",""423212""
""blur"",""58"",""493475""
""blur"",""61"",""522908""
""blur"",""66"",""547158""
","""event"",""trial"",""time""
""focus"",""36"",""372950""
""focus"",""36"",""375547""
""focus"",""38"",""382436""
""focus"",""39"",""388363""
""focus"",""41"",""396926""
""focus"",""45"",""415562""
""focus"",""47"",""429284""
""focus"",""58"",""503805""
""focus"",""63"",""531442""
","""event"",""trial"",""time""
""fullscreenenter"",""1"",""2600""
","""event"",""trial"",""time""
""fullscreenexit"",""36"",""358760""
","","","-1","","","22","4231","3091","&#9826;","elianto","#f73b6a7A","-1","-1","1","0","[]","0","0","3","","","","","","","",""
"pit-trial","66","548105","0.0-2.0-14.1-2.1","battery-v0.2","","""event"",""trial"",""time""
""fullscreenenter"",""1"",""2600""
""fullscreenexit"",""36"",""358760""
""blur"",""36"",""366704""
""focus"",""36"",""372950""
""blur"",""36"",""374630""
""focus"",""36"",""375547""
""blur"",""37"",""381015""
""focus"",""38"",""382436""
""blur"",""38"",""384994""
""focus"",""39"",""388363""
""blur"",""39"",""389724""
""focus"",""41"",""396926""
""blur"",""41"",""399317""
""focus"",""45"",""415562""
""blur"",""46"",""423212""
""focus"",""47"",""429284""
""blur"",""58"",""493475""
""focus"",""58"",""503805""
""blur"",""61"",""522908""
""focus"",""63"",""531442""
""blur"",""66"",""547158""
","""event"",""trial"",""time""
""blur"",""36"",""366704""
""blur"",""36"",""374630""
""blur"",""37"",""381015""
""blur"",""38"",""384994""
""blur"",""39"",""389724""
""blur"",""41"",""399317""
""blur"",""46"",""423212""
""blur"",""58"",""493475""
""blur"",""61"",""522908""
""blur"",""66"",""547158""
","""event"",""trial"",""time""
""focus"",""36"",""372950""
""focus"",""36"",""375547""
""focus"",""38"",""382436""
""focus"",""39"",""388363""
""focus"",""41"",""396926""
""focus"",""45"",""415562""
""focus"",""47"",""429284""
""focus"",""58"",""503805""
""focus"",""63"",""531442""
","""event"",""trial"",""time""
""fullscreenenter"",""1"",""2600""
","""event"",""trial"",""time""
""fullscreenexit"",""36"",""358760""
","","","-1","","","22","4231","3091","&#9826;","elianto","#f73b6a7A","-1","-1","1","0","[]","0","0","3","","","","","","","",""
"pit-trial","67","552965","0.0-2.0-14.1-3.1","battery-v0.2","","""event"",""trial"",""time""
""fullscreenenter"",""1"",""2600""
""fullscreenexit"",""36"",""358760""
""blur"",""36"",""366704""
""focus"",""36"",""372950""
""blur"",""36"",""374630""
""focus"",""36"",""375547""
""blur"",""37"",""381015""
""focus"",""38"",""382436""
""blur"",""38"",""384994""
""focus"",""39"",""388363""
""blur"",""39"",""389724""
""focus"",""41"",""396926""
""blur"",""41"",""399317""
""focus"",""45"",""415562""
""blur"",""46"",""423212""
""focus"",""47"",""429284""
""blur"",""58"",""493475""
""focus"",""58"",""503805""
""blur"",""61"",""522908""
""focus"",""63"",""531442""
""blur"",""66"",""547158""
","""event"",""trial"",""time""
""blur"",""36"",""366704""
""blur"",""36"",""374630""
""blur"",""37"",""381015""
""blur"",""38"",""384994""
""blur"",""39"",""389724""
""blur"",""41"",""399317""
""blur"",""46"",""423212""
""blur"",""58"",""493475""
""blur"",""61"",""522908""
""blur"",""66"",""547158""
","""event"",""trial"",""time""
""focus"",""36"",""372950""
""focus"",""36"",""375547""
""focus"",""38"",""382436""
""focus"",""39"",""388363""
""focus"",""41"",""396926""
""focus"",""45"",""415562""
""focus"",""47"",""429284""
""focus"",""58"",""503805""
""focus"",""63"",""531442""
","""event"",""trial"",""time""
""fullscreenenter"",""1"",""2600""
","""event"",""trial"",""time""
""fullscreenexit"",""36"",""358760""
","","","-1","","","22","4231","3091","&#9826;","elianto","#f73b6a7A","-1","-1","1","-10","[]","0","0","3","","","","","","","",""
"pit-trial","68","557823","0.0-2.0-14.1-4.1","battery-v0.2","","""event"",""trial"",""time""
""fullscreenenter"",""1"",""2600""
""fullscreenexit"",""36"",""358760""
""blur"",""36"",""366704""
""focus"",""36"",""372950""
""blur"",""36"",""374630""
""focus"",""36"",""375547""
""blur"",""37"",""381015""
""focus"",""38"",""382436""
""blur"",""38"",""384994""
""focus"",""39"",""388363""
""blur"",""39"",""389724""
""focus"",""41"",""396926""
""blur"",""41"",""399317""
""focus"",""45"",""415562""
""blur"",""46"",""423212""
""focus"",""47"",""429284""
""blur"",""58"",""493475""
""focus"",""58"",""503805""
""blur"",""61"",""522908""
""focus"",""63"",""531442""
""blur"",""66"",""547158""
","""event"",""trial"",""time""
""blur"",""36"",""366704""
""blur"",""36"",""374630""
""blur"",""37"",""381015""
""blur"",""38"",""384994""
""blur"",""39"",""389724""
""blur"",""41"",""399317""
""blur"",""46"",""423212""
""blur"",""58"",""493475""
""blur"",""61"",""522908""
""blur"",""66"",""547158""
","""event"",""trial"",""time""
""focus"",""36"",""372950""
""focus"",""36"",""375547""
""focus"",""38"",""382436""
""focus"",""39"",""388363""
""focus"",""41"",""396926""
""focus"",""45"",""415562""
""focus"",""47"",""429284""
""focus"",""58"",""503805""
""focus"",""63"",""531442""
","""event"",""trial"",""time""
""fullscreenenter"",""1"",""2600""
","""event"",""trial"",""time""
""fullscreenexit"",""36"",""358760""
","","","-1","","","22","4231","3091","&#9826;","elianto","#f73b6a7A","-1","-1","1","0","[]","0","0","3","","","","","","","",""
"pit-trial","69","562682","0.0-2.0-14.2-0.2","battery-v0.2","","""event"",""trial"",""time""
""fullscreenenter"",""1"",""2600""
""fullscreenexit"",""36"",""358760""
""blur"",""36"",""366704""
""focus"",""36"",""372950""
""blur"",""36"",""374630""
""focus"",""36"",""375547""
""blur"",""37"",""381015""
""focus"",""38"",""382436""
""blur"",""38"",""384994""
""focus"",""39"",""388363""
""blur"",""39"",""389724""
""focus"",""41"",""396926""
""blur"",""41"",""399317""
""focus"",""45"",""415562""
""blur"",""46"",""423212""
""focus"",""47"",""429284""
""blur"",""58"",""493475""
""focus"",""58"",""503805""
""blur"",""61"",""522908""
""focus"",""63"",""531442""
""blur"",""66"",""547158""
","""event"",""trial"",""time""
""blur"",""36"",""366704""
""blur"",""36"",""374630""
""blur"",""37"",""381015""
""blur"",""38"",""384994""
""blur"",""39"",""389724""
""blur"",""41"",""399317""
""blur"",""46"",""423212""
""blur"",""58"",""493475""
""blur"",""61"",""522908""
""blur"",""66"",""547158""
","""event"",""trial"",""time""
""focus"",""36"",""372950""
""focus"",""36"",""375547""
""focus"",""38"",""382436""
""focus"",""39"",""388363""
""focus"",""41"",""396926""
""focus"",""45"",""415562""
""focus"",""47"",""429284""
""focus"",""58"",""503805""
""focus"",""63"",""531442""
","""event"",""trial"",""time""
""fullscreenenter"",""1"",""2600""
","""event"",""trial"",""time""
""fullscreenexit"",""36"",""358760""
","","","-1","","","22","4231","3091","&#9826;","elianto","#f73b6a7A","-1","-1","1","0","[]","0","0","3","","","","","","","",""
"pit-trial","70","567541","0.0-2.0-14.2-1.2","battery-v0.2","","""event"",""trial"",""time""
""fullscreenenter"",""1"",""2600""
""fullscreenexit"",""36"",""358760""
""blur"",""36"",""366704""
""focus"",""36"",""372950""
""blur"",""36"",""374630""
""focus"",""36"",""375547""
""blur"",""37"",""381015""
""focus"",""38"",""382436""
""blur"",""38"",""384994""
""focus"",""39"",""388363""
""blur"",""39"",""389724""
""focus"",""41"",""396926""
""blur"",""41"",""399317""
""focus"",""45"",""415562""
""blur"",""46"",""423212""
""focus"",""47"",""429284""
""blur"",""58"",""493475""
""focus"",""58"",""503805""
""blur"",""61"",""522908""
""focus"",""63"",""531442""
""blur"",""66"",""547158""
","""event"",""trial"",""time""
""blur"",""36"",""366704""
""blur"",""36"",""374630""
""blur"",""37"",""381015""
""blur"",""38"",""384994""
""blur"",""39"",""389724""
""blur"",""41"",""399317""
""blur"",""46"",""423212""
""blur"",""58"",""493475""
""blur"",""61"",""522908""
""blur"",""66"",""547158""
","""event"",""trial"",""time""
""focus"",""36"",""372950""
""focus"",""36"",""375547""
""focus"",""38"",""382436""
""focus"",""39"",""388363""
""focus"",""41"",""396926""
""focus"",""45"",""415562""
""focus"",""47"",""429284""
""focus"",""58"",""503805""
""focus"",""63"",""531442""
","""event"",""trial"",""time""
""fullscreenenter"",""1"",""2600""
","""event"",""trial"",""time""
""fullscreenexit"",""36"",""358760""
","","","-1","","","22","4231","3091","&#9826;","elianto","#f73b6a7A","-1","-1","1","0","[]","0","0","3","","","","","","","",""
"pit-trial","71","572401","0.0-2.0-14.2-2.2","battery-v0.2","","""event"",""trial"",""time""
""fullscreenenter"",""1"",""2600""
""fullscreenexit"",""36"",""358760""
""blur"",""36"",""366704""
""focus"",""36"",""372950""
""blur"",""36"",""374630""
""focus"",""36"",""375547""
""blur"",""37"",""381015""
""focus"",""38"",""382436""
""blur"",""38"",""384994""
""focus"",""39"",""388363""
""blur"",""39"",""389724""
""focus"",""41"",""396926""
""blur"",""41"",""399317""
""focus"",""45"",""415562""
""blur"",""46"",""423212""
""focus"",""47"",""429284""
""blur"",""58"",""493475""
""focus"",""58"",""503805""
""blur"",""61"",""522908""
""focus"",""63"",""531442""
""blur"",""66"",""547158""
","""event"",""trial"",""time""
""blur"",""36"",""366704""
""blur"",""36"",""374630""
""blur"",""37"",""381015""
""blur"",""38"",""384994""
""blur"",""39"",""389724""
""blur"",""41"",""399317""
""blur"",""46"",""423212""
""blur"",""58"",""493475""
""blur"",""61"",""522908""
""blur"",""66"",""547158""
","""event"",""trial"",""time""
""focus"",""36"",""372950""
""focus"",""36"",""375547""
""focus"",""38"",""382436""
""focus"",""39"",""388363""
""focus"",""41"",""396926""
""focus"",""45"",""415562""
""focus"",""47"",""429284""
""focus"",""58"",""503805""
""focus"",""63"",""531442""
","""event"",""trial"",""time""
""fullscreenenter"",""1"",""2600""
","""event"",""trial"",""time""
""fullscreenexit"",""36"",""358760""
","","","-1","","","22","4231","3091","&#9826;","elianto","#f73b6a7A","-1","-1","1","0","[]","0","0","3","","","","","","","",""
"pit-trial","72","577258","0.0-2.0-14.2-3.2","battery-v0.2","","""event"",""trial"",""time""
""fullscreenenter"",""1"",""2600""
""fullscreenexit"",""36"",""358760""
""blur"",""36"",""366704""
""focus"",""36"",""372950""
""blur"",""36"",""374630""
""focus"",""36"",""375547""
""blur"",""37"",""381015""
""focus"",""38"",""382436""
""blur"",""38"",""384994""
""focus"",""39"",""388363""
""blur"",""39"",""389724""
""focus"",""41"",""396926""
""blur"",""41"",""399317""
""focus"",""45"",""415562""
""blur"",""46"",""423212""
""focus"",""47"",""429284""
""blur"",""58"",""493475""
""focus"",""58"",""503805""
""blur"",""61"",""522908""
""focus"",""63"",""531442""
""blur"",""66"",""547158""
","""event"",""trial"",""time""
""blur"",""36"",""366704""
""blur"",""36"",""374630""
""blur"",""37"",""381015""
""blur"",""38"",""384994""
""blur"",""39"",""389724""
""blur"",""41"",""399317""
""blur"",""46"",""423212""
""blur"",""58"",""493475""
""blur"",""61"",""522908""
""blur"",""66"",""547158""
","""event"",""trial"",""time""
""focus"",""36"",""372950""
""focus"",""36"",""375547""
""focus"",""38"",""382436""
""focus"",""39"",""388363""
""focus"",""41"",""396926""
""focus"",""45"",""415562""
""focus"",""47"",""429284""
""focus"",""58"",""503805""
""focus"",""63"",""531442""
","""event"",""trial"",""time""
""fullscreenenter"",""1"",""2600""
","""event"",""trial"",""time""
""fullscreenexit"",""36"",""358760""
","","","-1","","","22","4231","3091","&#9826;","elianto","#f73b6a7A","-1","-1","1","-10","[]","0","0","3","","","","","","","",""
"pit-trial","73","582116","0.0-2.0-14.2-4.2","battery-v0.2","","""event"",""trial"",""time""
""fullscreenenter"",""1"",""2600""
""fullscreenexit"",""36"",""358760""
""blur"",""36"",""366704""
""focus"",""36"",""372950""
""blur"",""36"",""374630""
""focus"",""36"",""375547""
""blur"",""37"",""381015""
""focus"",""38"",""382436""
""blur"",""38"",""384994""
""focus"",""39"",""388363""
""blur"",""39"",""389724""
""focus"",""41"",""396926""
""blur"",""41"",""399317""
""focus"",""45"",""415562""
""blur"",""46"",""423212""
""focus"",""47"",""429284""
""blur"",""58"",""493475""
""focus"",""58"",""503805""
""blur"",""61"",""522908""
""focus"",""63"",""531442""
""blur"",""66"",""547158""
","""event"",""trial"",""time""
""blur"",""36"",""366704""
""blur"",""36"",""374630""
""blur"",""37"",""381015""
""blur"",""38"",""384994""
""blur"",""39"",""389724""
""blur"",""41"",""399317""
""blur"",""46"",""423212""
""blur"",""58"",""493475""
""blur"",""61"",""522908""
""blur"",""66"",""547158""
","""event"",""trial"",""time""
""focus"",""36"",""372950""
""focus"",""36"",""375547""
""focus"",""38"",""382436""
""focus"",""39"",""388363""
""focus"",""41"",""396926""
""focus"",""45"",""415562""
""focus"",""47"",""429284""
""focus"",""58"",""503805""
""focus"",""63"",""531442""
","""event"",""trial"",""time""
""fullscreenenter"",""1"",""2600""
","""event"",""trial"",""time""
""fullscreenexit"",""36"",""358760""
","","","-1","","","22","4231","3091","&#9826;","elianto","#f73b6a7A","-1","-1","1","0","[]","0","0","3","","","","","","","",""
"pit-trial","74","586978","0.0-2.0-14.3-0.3","battery-v0.2","","""event"",""trial"",""time""
""fullscreenenter"",""1"",""2600""
""fullscreenexit"",""36"",""358760""
""blur"",""36"",""366704""
""focus"",""36"",""372950""
""blur"",""36"",""374630""
""focus"",""36"",""375547""
""blur"",""37"",""381015""
""focus"",""38"",""382436""
""blur"",""38"",""384994""
""focus"",""39"",""388363""
""blur"",""39"",""389724""
""focus"",""41"",""396926""
""blur"",""41"",""399317""
""focus"",""45"",""415562""
""blur"",""46"",""423212""
""focus"",""47"",""429284""
""blur"",""58"",""493475""
""focus"",""58"",""503805""
""blur"",""61"",""522908""
""focus"",""63"",""531442""
""blur"",""66"",""547158""
""focus"",""75"",""591098""
","""event"",""trial"",""time""
""blur"",""36"",""366704""
""blur"",""36"",""374630""
""blur"",""37"",""381015""
""blur"",""38"",""384994""
""blur"",""39"",""389724""
""blur"",""41"",""399317""
""blur"",""46"",""423212""
""blur"",""58"",""493475""
""blur"",""61"",""522908""
""blur"",""66"",""547158""
","""event"",""trial"",""time""
""focus"",""36"",""372950""
""focus"",""36"",""375547""
""focus"",""38"",""382436""
""focus"",""39"",""388363""
""focus"",""41"",""396926""
""focus"",""45"",""415562""
""focus"",""47"",""429284""
""focus"",""58"",""503805""
""focus"",""63"",""531442""
""focus"",""75"",""591098""
","""event"",""trial"",""time""
""fullscreenenter"",""1"",""2600""
","""event"",""trial"",""time""
""fullscreenexit"",""36"",""358760""
","","","-1","","","22","4231","3091","&#9826;","elianto","#f73b6a7A","-1","-1","1","0","[]","0","0","3","","","","","","","",""
"pit-trial","75","591842","0.0-2.0-14.3-1.3","battery-v0.2","","""event"",""trial"",""time""
""fullscreenenter"",""1"",""2600""
""fullscreenexit"",""36"",""358760""
""blur"",""36"",""366704""
""focus"",""36"",""372950""
""blur"",""36"",""374630""
""focus"",""36"",""375547""
""blur"",""37"",""381015""
""focus"",""38"",""382436""
""blur"",""38"",""384994""
""focus"",""39"",""388363""
""blur"",""39"",""389724""
""focus"",""41"",""396926""
""blur"",""41"",""399317""
""focus"",""45"",""415562""
""blur"",""46"",""423212""
""focus"",""47"",""429284""
""blur"",""58"",""493475""
""focus"",""58"",""503805""
""blur"",""61"",""522908""
""focus"",""63"",""531442""
""blur"",""66"",""547158""
""focus"",""75"",""591098""
","""event"",""trial"",""time""
""blur"",""36"",""366704""
""blur"",""36"",""374630""
""blur"",""37"",""381015""
""blur"",""38"",""384994""
""blur"",""39"",""389724""
""blur"",""41"",""399317""
""blur"",""46"",""423212""
""blur"",""58"",""493475""
""blur"",""61"",""522908""
""blur"",""66"",""547158""
","""event"",""trial"",""time""
""focus"",""36"",""372950""
""focus"",""36"",""375547""
""focus"",""38"",""382436""
""focus"",""39"",""388363""
""focus"",""41"",""396926""
""focus"",""45"",""415562""
""focus"",""47"",""429284""
""focus"",""58"",""503805""
""focus"",""63"",""531442""
""focus"",""75"",""591098""
","""event"",""trial"",""time""
""fullscreenenter"",""1"",""2600""
","""event"",""trial"",""time""
""fullscreenexit"",""36"",""358760""
","","","-1","","","22","4231","3091","&#9826;","elianto","#f73b6a7A","-1","-1","1","0","[]","0","0","3","","","","","","","",""
"pit-trial","76","596703","0.0-2.0-14.3-2.3","battery-v0.2","","""event"",""trial"",""time""
""fullscreenenter"",""1"",""2600""
""fullscreenexit"",""36"",""358760""
""blur"",""36"",""366704""
""focus"",""36"",""372950""
""blur"",""36"",""374630""
""focus"",""36"",""375547""
""blur"",""37"",""381015""
""focus"",""38"",""382436""
""blur"",""38"",""384994""
""focus"",""39"",""388363""
""blur"",""39"",""389724""
""focus"",""41"",""396926""
""blur"",""41"",""399317""
""focus"",""45"",""415562""
""blur"",""46"",""423212""
""focus"",""47"",""429284""
""blur"",""58"",""493475""
""focus"",""58"",""503805""
""blur"",""61"",""522908""
""focus"",""63"",""531442""
""blur"",""66"",""547158""
""focus"",""75"",""591098""
","""event"",""trial"",""time""
""blur"",""36"",""366704""
""blur"",""36"",""374630""
""blur"",""37"",""381015""
""blur"",""38"",""384994""
""blur"",""39"",""389724""
""blur"",""41"",""399317""
""blur"",""46"",""423212""
""blur"",""58"",""493475""
""blur"",""61"",""522908""
""blur"",""66"",""547158""
","""event"",""trial"",""time""
""focus"",""36"",""372950""
""focus"",""36"",""375547""
""focus"",""38"",""382436""
""focus"",""39"",""388363""
""focus"",""41"",""396926""
""focus"",""45"",""415562""
""focus"",""47"",""429284""
""focus"",""58"",""503805""
""focus"",""63"",""531442""
""focus"",""75"",""591098""
","""event"",""trial"",""time""
""fullscreenenter"",""1"",""2600""
","""event"",""trial"",""time""
""fullscreenexit"",""36"",""358760""
","","","-1","","","22","4231","3091","&#9826;","elianto","#f73b6a7A","-1","-1","1","0","[]","0","0","3","","","","","","","",""
"pit-trial","77","601566","0.0-2.0-14.3-3.3","battery-v0.2","","""event"",""trial"",""time""
""fullscreenenter"",""1"",""2600""
""fullscreenexit"",""36"",""358760""
""blur"",""36"",""366704""
""focus"",""36"",""372950""
""blur"",""36"",""374630""
""focus"",""36"",""375547""
""blur"",""37"",""381015""
""focus"",""38"",""382436""
""blur"",""38"",""384994""
""focus"",""39"",""388363""
""blur"",""39"",""389724""
""focus"",""41"",""396926""
""blur"",""41"",""399317""
""focus"",""45"",""415562""
""blur"",""46"",""423212""
""focus"",""47"",""429284""
""blur"",""58"",""493475""
""focus"",""58"",""503805""
""blur"",""61"",""522908""
""focus"",""63"",""531442""
""blur"",""66"",""547158""
""focus"",""75"",""591098""
","""event"",""trial"",""time""
""blur"",""36"",""366704""
""blur"",""36"",""374630""
""blur"",""37"",""381015""
""blur"",""38"",""384994""
""blur"",""39"",""389724""
""blur"",""41"",""399317""
""blur"",""46"",""423212""
""blur"",""58"",""493475""
""blur"",""61"",""522908""
""blur"",""66"",""547158""
","""event"",""trial"",""time""
""focus"",""36"",""372950""
""focus"",""36"",""375547""
""focus"",""38"",""382436""
""focus"",""39"",""388363""
""focus"",""41"",""396926""
""focus"",""45"",""415562""
""focus"",""47"",""429284""
""focus"",""58"",""503805""
""focus"",""63"",""531442""
""focus"",""75"",""591098""
","""event"",""trial"",""time""
""fullscreenenter"",""1"",""2600""
","""event"",""trial"",""time""
""fullscreenexit"",""36"",""358760""
","","","-1","","","22","4231","3091","&#9826;","elianto","#f73b6a7A","-1","-1","1","-10","[]","0","0","3","","","","","","","",""
"pit-trial","78","606426","0.0-2.0-14.3-4.3","battery-v0.2","","""event"",""trial"",""time""
""fullscreenenter"",""1"",""2600""
""fullscreenexit"",""36"",""358760""
""blur"",""36"",""366704""
""focus"",""36"",""372950""
""blur"",""36"",""374630""
""focus"",""36"",""375547""
""blur"",""37"",""381015""
""focus"",""38"",""382436""
""blur"",""38"",""384994""
""focus"",""39"",""388363""
""blur"",""39"",""389724""
""focus"",""41"",""396926""
""blur"",""41"",""399317""
""focus"",""45"",""415562""
""blur"",""46"",""423212""
""focus"",""47"",""429284""
""blur"",""58"",""493475""
""focus"",""58"",""503805""
""blur"",""61"",""522908""
""focus"",""63"",""531442""
""blur"",""66"",""547158""
""focus"",""75"",""591098""
","""event"",""trial"",""time""
""blur"",""36"",""366704""
""blur"",""36"",""374630""
""blur"",""37"",""381015""
""blur"",""38"",""384994""
""blur"",""39"",""389724""
""blur"",""41"",""399317""
""blur"",""46"",""423212""
""blur"",""58"",""493475""
""blur"",""61"",""522908""
""blur"",""66"",""547158""
","""event"",""trial"",""time""
""focus"",""36"",""372950""
""focus"",""36"",""375547""
""focus"",""38"",""382436""
""focus"",""39"",""388363""
""focus"",""41"",""396926""
""focus"",""45"",""415562""
""focus"",""47"",""429284""
""focus"",""58"",""503805""
""focus"",""63"",""531442""
""focus"",""75"",""591098""
","""event"",""trial"",""time""
""fullscreenenter"",""1"",""2600""
","""event"",""trial"",""time""
""fullscreenexit"",""36"",""358760""
","","","-1","","","22","4231","3091","&#9826;","elianto","#f73b6a7A","-1","-1","1","0","[]","0","0","3","","","","","","","",""
"call-function","79","606430","0.0-2.0-15.0","battery-v0.2","","""event"",""trial"",""time""
""fullscreenenter"",""1"",""2600""
""fullscreenexit"",""36"",""358760""
""blur"",""36"",""366704""
""focus"",""36"",""372950""
""blur"",""36"",""374630""
""focus"",""36"",""375547""
""blur"",""37"",""381015""
""focus"",""38"",""382436""
""blur"",""38"",""384994""
""focus"",""39"",""388363""
""blur"",""39"",""389724""
""focus"",""41"",""396926""
""blur"",""41"",""399317""
""focus"",""45"",""415562""
""blur"",""46"",""423212""
""focus"",""47"",""429284""
""blur"",""58"",""493475""
""focus"",""58"",""503805""
""blur"",""61"",""522908""
""focus"",""63"",""531442""
""blur"",""66"",""547158""
""focus"",""75"",""591098""
","""event"",""trial"",""time""
""blur"",""36"",""366704""
""blur"",""36"",""374630""
""blur"",""37"",""381015""
""blur"",""38"",""384994""
""blur"",""39"",""389724""
""blur"",""41"",""399317""
""blur"",""46"",""423212""
""blur"",""58"",""493475""
""blur"",""61"",""522908""
""blur"",""66"",""547158""
","""event"",""trial"",""time""
""focus"",""36"",""372950""
""focus"",""36"",""375547""
""focus"",""38"",""382436""
""focus"",""39"",""388363""
""focus"",""41"",""396926""
""focus"",""45"",""415562""
""focus"",""47"",""429284""
""focus"",""58"",""503805""
""focus"",""63"",""531442""
""focus"",""75"",""591098""
","""event"",""trial"",""time""
""fullscreenenter"",""1"",""2600""
","""event"",""trial"",""time""
""fullscreenexit"",""36"",""358760""
","","","","","","","","","","","","","","","","","","","","","","","","","","",""
"pit-instructions","80","632406","0.0-2.0-16.0","battery-v0.2","","""event"",""trial"",""time""
""fullscreenenter"",""1"",""2600""
""fullscreenexit"",""36"",""358760""
""blur"",""36"",""366704""
""focus"",""36"",""372950""
""blur"",""36"",""374630""
""focus"",""36"",""375547""
""blur"",""37"",""381015""
""focus"",""38"",""382436""
""blur"",""38"",""384994""
""focus"",""39"",""388363""
""blur"",""39"",""389724""
""focus"",""41"",""396926""
""blur"",""41"",""399317""
""focus"",""45"",""415562""
""blur"",""46"",""423212""
""focus"",""47"",""429284""
""blur"",""58"",""493475""
""focus"",""58"",""503805""
""blur"",""61"",""522908""
""focus"",""63"",""531442""
""blur"",""66"",""547158""
""focus"",""75"",""591098""
","""event"",""trial"",""time""
""blur"",""36"",""366704""
""blur"",""36"",""374630""
""blur"",""37"",""381015""
""blur"",""38"",""384994""
""blur"",""39"",""389724""
""blur"",""41"",""399317""
""blur"",""46"",""423212""
""blur"",""58"",""493475""
""blur"",""61"",""522908""
""blur"",""66"",""547158""
","""event"",""trial"",""time""
""focus"",""36"",""372950""
""focus"",""36"",""375547""
""focus"",""38"",""382436""
""focus"",""39"",""388363""
""focus"",""41"",""396926""
""focus"",""45"",""415562""
""focus"",""47"",""429284""
""focus"",""58"",""503805""
""focus"",""63"",""531442""
""focus"",""75"",""591098""
","""event"",""trial"",""time""
""fullscreenenter"",""1"",""2600""
","""event"",""trial"",""time""
""fullscreenexit"",""36"",""358760""
","","[{""page_index"":0,""viewing_time"":7179},{""page_index"":1,""viewing_time"":9003.20000000298},{""page_index"":2,""viewing_time"":5398.79999999702},{""page_index"":3,""viewing_time"":4394.79999999702}]","25976.40000000596","","","","","","","","","","","","","","","","","","","","","","","",""
"pit-trial","81","635908","0.0-2.0-17.0-0.0","battery-v0.2","","""event"",""trial"",""time""
""fullscreenenter"",""1"",""2600""
""fullscreenexit"",""36"",""358760""
""blur"",""36"",""366704""
""focus"",""36"",""372950""
""blur"",""36"",""374630""
""focus"",""36"",""375547""
""blur"",""37"",""381015""
""focus"",""38"",""382436""
""blur"",""38"",""384994""
""focus"",""39"",""388363""
""blur"",""39"",""389724""
""focus"",""41"",""396926""
""blur"",""41"",""399317""
""focus"",""45"",""415562""
""blur"",""46"",""423212""
""focus"",""47"",""429284""
""blur"",""58"",""493475""
""focus"",""58"",""503805""
""blur"",""61"",""522908""
""focus"",""63"",""531442""
""blur"",""66"",""547158""
""focus"",""75"",""591098""
","""event"",""trial"",""time""
""blur"",""36"",""366704""
""blur"",""36"",""374630""
""blur"",""37"",""381015""
""blur"",""38"",""384994""
""blur"",""39"",""389724""
""blur"",""41"",""399317""
""blur"",""46"",""423212""
""blur"",""58"",""493475""
""blur"",""61"",""522908""
""blur"",""66"",""547158""
","""event"",""trial"",""time""
""focus"",""36"",""372950""
""focus"",""36"",""375547""
""focus"",""38"",""382436""
""focus"",""39"",""388363""
""focus"",""41"",""396926""
""focus"",""45"",""415562""
""focus"",""47"",""429284""
""focus"",""58"",""503805""
""focus"",""63"",""531442""
""focus"",""75"",""591098""
","""event"",""trial"",""time""
""fullscreenenter"",""1"",""2600""
","""event"",""trial"",""time""
""fullscreenexit"",""36"",""358760""
","","","648","","","22","4231","3091","&#9789;","elianto","#f73b6a7A"," "," ","1","0","[1498.2000000029802]","1","0","4","","","","","","","",""
"pit-trial","82","639176","0.0-2.0-17.0-1.0","battery-v0.2","","""event"",""trial"",""time""
""fullscreenenter"",""1"",""2600""
""fullscreenexit"",""36"",""358760""
""blur"",""36"",""366704""
""focus"",""36"",""372950""
""blur"",""36"",""374630""
""focus"",""36"",""375547""
""blur"",""37"",""381015""
""focus"",""38"",""382436""
""blur"",""38"",""384994""
""focus"",""39"",""388363""
""blur"",""39"",""389724""
""focus"",""41"",""396926""
""blur"",""41"",""399317""
""focus"",""45"",""415562""
""blur"",""46"",""423212""
""focus"",""47"",""429284""
""blur"",""58"",""493475""
""focus"",""58"",""503805""
""blur"",""61"",""522908""
""focus"",""63"",""531442""
""blur"",""66"",""547158""
""focus"",""75"",""591098""
","""event"",""trial"",""time""
""blur"",""36"",""366704""
""blur"",""36"",""374630""
""blur"",""37"",""381015""
""blur"",""38"",""384994""
""blur"",""39"",""389724""
""blur"",""41"",""399317""
""blur"",""46"",""423212""
""blur"",""58"",""493475""
""blur"",""61"",""522908""
""blur"",""66"",""547158""
","""event"",""trial"",""time""
""focus"",""36"",""372950""
""focus"",""36"",""375547""
""focus"",""38"",""382436""
""focus"",""39"",""388363""
""focus"",""41"",""396926""
""focus"",""45"",""415562""
""focus"",""47"",""429284""
""focus"",""58"",""503805""
""focus"",""63"",""531442""
""focus"",""75"",""591098""
","""event"",""trial"",""time""
""fullscreenenter"",""1"",""2600""
","""event"",""trial"",""time""
""fullscreenexit"",""36"",""358760""
","","","406.70000000298023","","","22","4231","3091","&#9789;","elianto","#f73b6a7A"," "," ","1","0","[1258.2000000029802]","1","0","4","","","","","","","",""
"pit-trial","83","642478","0.0-2.0-17.0-2.0","battery-v0.2","","""event"",""trial"",""time""
""fullscreenenter"",""1"",""2600""
""fullscreenexit"",""36"",""358760""
""blur"",""36"",""366704""
""focus"",""36"",""372950""
""blur"",""36"",""374630""
""focus"",""36"",""375547""
""blur"",""37"",""381015""
""focus"",""38"",""382436""
""blur"",""38"",""384994""
""focus"",""39"",""388363""
""blur"",""39"",""389724""
""focus"",""41"",""396926""
""blur"",""41"",""399317""
""focus"",""45"",""415562""
""blur"",""46"",""423212""
""focus"",""47"",""429284""
""blur"",""58"",""493475""
""focus"",""58"",""503805""
""blur"",""61"",""522908""
""focus"",""63"",""531442""
""blur"",""66"",""547158""
""focus"",""75"",""591098""
","""event"",""trial"",""time""
""blur"",""36"",""366704""
""blur"",""36"",""374630""
""blur"",""37"",""381015""
""blur"",""38"",""384994""
""blur"",""39"",""389724""
""blur"",""41"",""399317""
""blur"",""46"",""423212""
""blur"",""58"",""493475""
""blur"",""61"",""522908""
""blur"",""66"",""547158""
","""event"",""trial"",""time""
""focus"",""36"",""372950""
""focus"",""36"",""375547""
""focus"",""38"",""382436""
""focus"",""39"",""388363""
""focus"",""41"",""396926""
""focus"",""45"",""415562""
""focus"",""47"",""429284""
""focus"",""58"",""503805""
""focus"",""63"",""531442""
""focus"",""75"",""591098""
","""event"",""trial"",""time""
""fullscreenenter"",""1"",""2600""
","""event"",""trial"",""time""
""fullscreenexit"",""36"",""358760""
","","","443.59999999403954","","","22","4231","3091","&#9789;","elianto","#f73b6a7A"," "," ","1","0","[1297]","1","0","4","","","","","","","",""
"pit-trial","84","645770","0.0-2.0-17.0-3.0","battery-v0.2","","""event"",""trial"",""time""
""fullscreenenter"",""1"",""2600""
""fullscreenexit"",""36"",""358760""
""blur"",""36"",""366704""
""focus"",""36"",""372950""
""blur"",""36"",""374630""
""focus"",""36"",""375547""
""blur"",""37"",""381015""
""focus"",""38"",""382436""
""blur"",""38"",""384994""
""focus"",""39"",""388363""
""blur"",""39"",""389724""
""focus"",""41"",""396926""
""blur"",""41"",""399317""
""focus"",""45"",""415562""
""blur"",""46"",""423212""
""focus"",""47"",""429284""
""blur"",""58"",""493475""
""focus"",""58"",""503805""
""blur"",""61"",""522908""
""focus"",""63"",""531442""
""blur"",""66"",""547158""
""focus"",""75"",""591098""
","""event"",""trial"",""time""
""blur"",""36"",""366704""
""blur"",""36"",""374630""
""blur"",""37"",""381015""
""blur"",""38"",""384994""
""blur"",""39"",""389724""
""blur"",""41"",""399317""
""blur"",""46"",""423212""
""blur"",""58"",""493475""
""blur"",""61"",""522908""
""blur"",""66"",""547158""
","""event"",""trial"",""time""
""focus"",""36"",""372950""
""focus"",""36"",""375547""
""focus"",""38"",""382436""
""focus"",""39"",""388363""
""focus"",""41"",""396926""
""focus"",""45"",""415562""
""focus"",""47"",""429284""
""focus"",""58"",""503805""
""focus"",""63"",""531442""
""focus"",""75"",""591098""
","""event"",""trial"",""time""
""fullscreenenter"",""1"",""2600""
","""event"",""trial"",""time""
""fullscreenexit"",""36"",""358760""
","","","434.70000000298023","","","22","4231","3091","&#9789;","elianto","#f73b6a7A"," "," ","1","-10","[1287.3999999910593]","1","0","4","","","","","","","",""
"pit-trial","85","649145","0.0-2.0-17.0-4.0","battery-v0.2","","""event"",""trial"",""time""
""fullscreenenter"",""1"",""2600""
""fullscreenexit"",""36"",""358760""
""blur"",""36"",""366704""
""focus"",""36"",""372950""
""blur"",""36"",""374630""
""focus"",""36"",""375547""
""blur"",""37"",""381015""
""focus"",""38"",""382436""
""blur"",""38"",""384994""
""focus"",""39"",""388363""
""blur"",""39"",""389724""
""focus"",""41"",""396926""
""blur"",""41"",""399317""
""focus"",""45"",""415562""
""blur"",""46"",""423212""
""focus"",""47"",""429284""
""blur"",""58"",""493475""
""focus"",""58"",""503805""
""blur"",""61"",""522908""
""focus"",""63"",""531442""
""blur"",""66"",""547158""
""focus"",""75"",""591098""
","""event"",""trial"",""time""
""blur"",""36"",""366704""
""blur"",""36"",""374630""
""blur"",""37"",""381015""
""blur"",""38"",""384994""
""blur"",""39"",""389724""
""blur"",""41"",""399317""
""blur"",""46"",""423212""
""blur"",""58"",""493475""
""blur"",""61"",""522908""
""blur"",""66"",""547158""
","""event"",""trial"",""time""
""focus"",""36"",""372950""
""focus"",""36"",""375547""
""focus"",""38"",""382436""
""focus"",""39"",""388363""
""focus"",""41"",""396926""
""focus"",""45"",""415562""
""focus"",""47"",""429284""
""focus"",""58"",""503805""
""focus"",""63"",""531442""
""focus"",""75"",""591098""
","""event"",""trial"",""time""
""fullscreenenter"",""1"",""2600""
","""event"",""trial"",""time""
""fullscreenexit"",""36"",""358760""
","","","517.8999999910593","","","22","4231","3091","&#9789;","elianto","#f73b6a7A"," "," ","1","0","[1369.0999999940395]","1","0","4","","","","","","","",""
"pit-trial","86","652684","0.0-2.0-17.1-0.1","battery-v0.2","","""event"",""trial"",""time""
""fullscreenenter"",""1"",""2600""
""fullscreenexit"",""36"",""358760""
""blur"",""36"",""366704""
""focus"",""36"",""372950""
""blur"",""36"",""374630""
""focus"",""36"",""375547""
""blur"",""37"",""381015""
""focus"",""38"",""382436""
""blur"",""38"",""384994""
""focus"",""39"",""388363""
""blur"",""39"",""389724""
""focus"",""41"",""396926""
""blur"",""41"",""399317""
""focus"",""45"",""415562""
""blur"",""46"",""423212""
""focus"",""47"",""429284""
""blur"",""58"",""493475""
""focus"",""58"",""503805""
""blur"",""61"",""522908""
""focus"",""63"",""531442""
""blur"",""66"",""547158""
""focus"",""75"",""591098""
","""event"",""trial"",""time""
""blur"",""36"",""366704""
""blur"",""36"",""374630""
""blur"",""37"",""381015""
""blur"",""38"",""384994""
""blur"",""39"",""389724""
""blur"",""41"",""399317""
""blur"",""46"",""423212""
""blur"",""58"",""493475""
""blur"",""61"",""522908""
""blur"",""66"",""547158""
","""event"",""trial"",""time""
""focus"",""36"",""372950""
""focus"",""36"",""375547""
""focus"",""38"",""382436""
""focus"",""39"",""388363""
""focus"",""41"",""396926""
""focus"",""45"",""415562""
""focus"",""47"",""429284""
""focus"",""58"",""503805""
""focus"",""63"",""531442""
""focus"",""75"",""591098""
","""event"",""trial"",""time""
""fullscreenenter"",""1"",""2600""
","""event"",""trial"",""time""
""fullscreenexit"",""36"",""358760""
","","","677.5999999940395","","","22","4231","3091","&#9789;","elianto","#f73b6a7A"," "," ","1","0","[1528.7000000029802]","1","0","4","","","","","","","",""
"pit-trial","87","656035","0.0-2.0-17.1-1.1","battery-v0.2","","""event"",""trial"",""time""
""fullscreenenter"",""1"",""2600""
""fullscreenexit"",""36"",""358760""
""blur"",""36"",""366704""
""focus"",""36"",""372950""
""blur"",""36"",""374630""
""focus"",""36"",""375547""
""blur"",""37"",""381015""
""focus"",""38"",""382436""
""blur"",""38"",""384994""
""focus"",""39"",""388363""
""blur"",""39"",""389724""
""focus"",""41"",""396926""
""blur"",""41"",""399317""
""focus"",""45"",""415562""
""blur"",""46"",""423212""
""focus"",""47"",""429284""
""blur"",""58"",""493475""
""focus"",""58"",""503805""
""blur"",""61"",""522908""
""focus"",""63"",""531442""
""blur"",""66"",""547158""
""focus"",""75"",""591098""
","""event"",""trial"",""time""
""blur"",""36"",""366704""
""blur"",""36"",""374630""
""blur"",""37"",""381015""
""blur"",""38"",""384994""
""blur"",""39"",""389724""
""blur"",""41"",""399317""
""blur"",""46"",""423212""
""blur"",""58"",""493475""
""blur"",""61"",""522908""
""blur"",""66"",""547158""
","""event"",""trial"",""time""
""focus"",""36"",""372950""
""focus"",""36"",""375547""
""focus"",""38"",""382436""
""focus"",""39"",""388363""
""focus"",""41"",""396926""
""focus"",""45"",""415562""
""focus"",""47"",""429284""
""focus"",""58"",""503805""
""focus"",""63"",""531442""
""focus"",""75"",""591098""
","""event"",""trial"",""time""
""fullscreenenter"",""1"",""2600""
","""event"",""trial"",""time""
""fullscreenexit"",""36"",""358760""
","","","492.29999999701977","","","22","4231","3091","&#9789;","elianto","#f73b6a7A"," "," ","1","0","[1342.7000000029802]","1","0","4","","","","","","","",""
"pit-trial","88","659331","0.0-2.0-17.1-2.1","battery-v0.2","","""event"",""trial"",""time""
""fullscreenenter"",""1"",""2600""
""fullscreenexit"",""36"",""358760""
""blur"",""36"",""366704""
""focus"",""36"",""372950""
""blur"",""36"",""374630""
""focus"",""36"",""375547""
""blur"",""37"",""381015""
""focus"",""38"",""382436""
""blur"",""38"",""384994""
""focus"",""39"",""388363""
""blur"",""39"",""389724""
""focus"",""41"",""396926""
""blur"",""41"",""399317""
""focus"",""45"",""415562""
""blur"",""46"",""423212""
""focus"",""47"",""429284""
""blur"",""58"",""493475""
""focus"",""58"",""503805""
""blur"",""61"",""522908""
""focus"",""63"",""531442""
""blur"",""66"",""547158""
""focus"",""75"",""591098""
","""event"",""trial"",""time""
""blur"",""36"",""366704""
""blur"",""36"",""374630""
""blur"",""37"",""381015""
""blur"",""38"",""384994""
""blur"",""39"",""389724""
""blur"",""41"",""399317""
""blur"",""46"",""423212""
""blur"",""58"",""493475""
""blur"",""61"",""522908""
""blur"",""66"",""547158""
","""event"",""trial"",""time""
""focus"",""36"",""372950""
""focus"",""36"",""375547""
""focus"",""38"",""382436""
""focus"",""39"",""388363""
""focus"",""41"",""396926""
""focus"",""45"",""415562""
""focus"",""47"",""429284""
""focus"",""58"",""503805""
""focus"",""63"",""531442""
""focus"",""75"",""591098""
","""event"",""trial"",""time""
""fullscreenenter"",""1"",""2600""
","""event"",""trial"",""time""
""fullscreenexit"",""36"",""358760""
","","","437","","","22","4231","3091","&#9789;","elianto","#f73b6a7A"," "," ","1","0","[1288.6000000089407]","1","0","4","","","","","","","",""
"pit-trial","89","662698","0.0-2.0-17.1-3.1","battery-v0.2","","""event"",""trial"",""time""
""fullscreenenter"",""1"",""2600""
""fullscreenexit"",""36"",""358760""
""blur"",""36"",""366704""
""focus"",""36"",""372950""
""blur"",""36"",""374630""
""focus"",""36"",""375547""
""blur"",""37"",""381015""
""focus"",""38"",""382436""
""blur"",""38"",""384994""
""focus"",""39"",""388363""
""blur"",""39"",""389724""
""focus"",""41"",""396926""
""blur"",""41"",""399317""
""focus"",""45"",""415562""
""blur"",""46"",""423212""
""focus"",""47"",""429284""
""blur"",""58"",""493475""
""focus"",""58"",""503805""
""blur"",""61"",""522908""
""focus"",""63"",""531442""
""blur"",""66"",""547158""
""focus"",""75"",""591098""
","""event"",""trial"",""time""
""blur"",""36"",""366704""
""blur"",""36"",""374630""
""blur"",""37"",""381015""
""blur"",""38"",""384994""
""blur"",""39"",""389724""
""blur"",""41"",""399317""
""blur"",""46"",""423212""
""blur"",""58"",""493475""
""blur"",""61"",""522908""
""blur"",""66"",""547158""
","""event"",""trial"",""time""
""focus"",""36"",""372950""
""focus"",""36"",""375547""
""focus"",""38"",""382436""
""focus"",""39"",""388363""
""focus"",""41"",""396926""
""focus"",""45"",""415562""
""focus"",""47"",""429284""
""focus"",""58"",""503805""
""focus"",""63"",""531442""
""focus"",""75"",""591098""
","""event"",""trial"",""time""
""fullscreenenter"",""1"",""2600""
","""event"",""trial"",""time""
""fullscreenexit"",""36"",""358760""
","","","512.3999999910593","","","22","4231","3091","&#9789;","elianto","#f73b6a7A"," "," ","1","-10","[1362.9000000059605]","1","0","4","","","","","","","",""
"pit-trial","90","666021","0.0-2.0-17.1-4.1","battery-v0.2","","""event"",""trial"",""time""
""fullscreenenter"",""1"",""2600""
""fullscreenexit"",""36"",""358760""
""blur"",""36"",""366704""
""focus"",""36"",""372950""
""blur"",""36"",""374630""
""focus"",""36"",""375547""
""blur"",""37"",""381015""
""focus"",""38"",""382436""
""blur"",""38"",""384994""
""focus"",""39"",""388363""
""blur"",""39"",""389724""
""focus"",""41"",""396926""
""blur"",""41"",""399317""
""focus"",""45"",""415562""
""blur"",""46"",""423212""
""focus"",""47"",""429284""
""blur"",""58"",""493475""
""focus"",""58"",""503805""
""blur"",""61"",""522908""
""focus"",""63"",""531442""
""blur"",""66"",""547158""
""focus"",""75"",""591098""
","""event"",""trial"",""time""
""blur"",""36"",""366704""
""blur"",""36"",""374630""
""blur"",""37"",""381015""
""blur"",""38"",""384994""
""blur"",""39"",""389724""
""blur"",""41"",""399317""
""blur"",""46"",""423212""
""blur"",""58"",""493475""
""blur"",""61"",""522908""
""blur"",""66"",""547158""
","""event"",""trial"",""time""
""focus"",""36"",""372950""
""focus"",""36"",""375547""
""focus"",""38"",""382436""
""focus"",""39"",""388363""
""focus"",""41"",""396926""
""focus"",""45"",""415562""
""focus"",""47"",""429284""
""focus"",""58"",""503805""
""focus"",""63"",""531442""
""focus"",""75"",""591098""
","""event"",""trial"",""time""
""fullscreenenter"",""1"",""2600""
","""event"",""trial"",""time""
""fullscreenexit"",""36"",""358760""
","","","464.29999999701977","","","22","4231","3091","&#9789;","elianto","#f73b6a7A"," "," ","1","0","[1314.5999999940395]","1","0","4","","","","","","","",""
"pit-trial","91","669217","0.0-2.0-17.2-0.2","battery-v0.2","","""event"",""trial"",""time""
""fullscreenenter"",""1"",""2600""
""fullscreenexit"",""36"",""358760""
""blur"",""36"",""366704""
""focus"",""36"",""372950""
""blur"",""36"",""374630""
""focus"",""36"",""375547""
""blur"",""37"",""381015""
""focus"",""38"",""382436""
""blur"",""38"",""384994""
""focus"",""39"",""388363""
""blur"",""39"",""389724""
""focus"",""41"",""396926""
""blur"",""41"",""399317""
""focus"",""45"",""415562""
""blur"",""46"",""423212""
""focus"",""47"",""429284""
""blur"",""58"",""493475""
""focus"",""58"",""503805""
""blur"",""61"",""522908""
""focus"",""63"",""531442""
""blur"",""66"",""547158""
""focus"",""75"",""591098""
","""event"",""trial"",""time""
""blur"",""36"",""366704""
""blur"",""36"",""374630""
""blur"",""37"",""381015""
""blur"",""38"",""384994""
""blur"",""39"",""389724""
""blur"",""41"",""399317""
""blur"",""46"",""423212""
""blur"",""58"",""493475""
""blur"",""61"",""522908""
""blur"",""66"",""547158""
","""event"",""trial"",""time""
""focus"",""36"",""372950""
""focus"",""36"",""375547""
""focus"",""38"",""382436""
""focus"",""39"",""388363""
""focus"",""41"",""396926""
""focus"",""45"",""415562""
""focus"",""47"",""429284""
""focus"",""58"",""503805""
""focus"",""63"",""531442""
""focus"",""75"",""591098""
","""event"",""trial"",""time""
""fullscreenenter"",""1"",""2600""
","""event"",""trial"",""time""
""fullscreenexit"",""36"",""358760""
","","","336.20000000298023","","","22","4231","3091","&#9789;","elianto","#f73b6a7A"," "," ","1","0","[1186.2999999970198]","1","0","4","","","","","","","",""
"pit-trial","92","672635","0.0-2.0-17.2-1.2","battery-v0.2","","""event"",""trial"",""time""
""fullscreenenter"",""1"",""2600""
""fullscreenexit"",""36"",""358760""
""blur"",""36"",""366704""
""focus"",""36"",""372950""
""blur"",""36"",""374630""
""focus"",""36"",""375547""
""blur"",""37"",""381015""
""focus"",""38"",""382436""
""blur"",""38"",""384994""
""focus"",""39"",""388363""
""blur"",""39"",""389724""
""focus"",""41"",""396926""
""blur"",""41"",""399317""
""focus"",""45"",""415562""
""blur"",""46"",""423212""
""focus"",""47"",""429284""
""blur"",""58"",""493475""
""focus"",""58"",""503805""
""blur"",""61"",""522908""
""focus"",""63"",""531442""
""blur"",""66"",""547158""
""focus"",""75"",""591098""
","""event"",""trial"",""time""
""blur"",""36"",""366704""
""blur"",""36"",""374630""
""blur"",""37"",""381015""
""blur"",""38"",""384994""
""blur"",""39"",""389724""
""blur"",""41"",""399317""
""blur"",""46"",""423212""
""blur"",""58"",""493475""
""blur"",""61"",""522908""
""blur"",""66"",""547158""
","""event"",""trial"",""time""
""focus"",""36"",""372950""
""focus"",""36"",""375547""
""focus"",""38"",""382436""
""focus"",""39"",""388363""
""focus"",""41"",""396926""
""focus"",""45"",""415562""
""focus"",""47"",""429284""
""focus"",""58"",""503805""
""focus"",""63"",""531442""
""focus"",""75"",""591098""
","""event"",""trial"",""time""
""fullscreenenter"",""1"",""2600""
","""event"",""trial"",""time""
""fullscreenexit"",""36"",""358760""
","","","563.3999999910593","","","22","4231","3091","&#9789;","elianto","#f73b6a7A"," "," ","1","0","[1414.4000000059605]","1","0","4","","","","","","","",""
"pit-trial","93","675931","0.0-2.0-17.2-2.2","battery-v0.2","","""event"",""trial"",""time""
""fullscreenenter"",""1"",""2600""
""fullscreenexit"",""36"",""358760""
""blur"",""36"",""366704""
""focus"",""36"",""372950""
""blur"",""36"",""374630""
""focus"",""36"",""375547""
""blur"",""37"",""381015""
""focus"",""38"",""382436""
""blur"",""38"",""384994""
""focus"",""39"",""388363""
""blur"",""39"",""389724""
""focus"",""41"",""396926""
""blur"",""41"",""399317""
""focus"",""45"",""415562""
""blur"",""46"",""423212""
""focus"",""47"",""429284""
""blur"",""58"",""493475""
""focus"",""58"",""503805""
""blur"",""61"",""522908""
""focus"",""63"",""531442""
""blur"",""66"",""547158""
""focus"",""75"",""591098""
","""event"",""trial"",""time""
""blur"",""36"",""366704""
""blur"",""36"",""374630""
""blur"",""37"",""381015""
""blur"",""38"",""384994""
""blur"",""39"",""389724""
""blur"",""41"",""399317""
""blur"",""46"",""423212""
""blur"",""58"",""493475""
""blur"",""61"",""522908""
""blur"",""66"",""547158""
","""event"",""trial"",""time""
""focus"",""36"",""372950""
""focus"",""36"",""375547""
""focus"",""38"",""382436""
""focus"",""39"",""388363""
""focus"",""41"",""396926""
