"trial_type","trial_index","time_elapsed","internal_node_id","task_version","subject_id","interactions","blur_events","focus_events","fullscreenenter_events","fullscreenexit_events","success","view_history","rt","responses","num_errors","age","subject","participantId","rune","rune_set","hex","correct","choice","accuracy","outcome","keys","total_keys","block","practice","value","sub","trial","stimulus","robot","valence","action","sham"
"pavlovia","0","15","0.0-0.0","battery-v0.2","","""event"",""trial"",""time""
""focus"",""1"",""3213""
""fullscreenenter"",""1"",""4643""
","
","""event"",""trial"",""time""
""focus"",""1"",""3213""
","""event"",""trial"",""time""
""fullscreenenter"",""1"",""4643""
","
","","","","","","","","","","","","","","","","","","","","","","","","","","",""
"fullscreen","1","5594","0.0-1.0","battery-v0.2","","""event"",""trial"",""time""
""focus"",""1"",""3213""
""fullscreenenter"",""1"",""4643""
","
","""event"",""trial"",""time""
""focus"",""1"",""3213""
","""event"",""trial"",""time""
""fullscreenenter"",""1"",""4643""
","
","true","","","","","","","","","","","","","","","","","","","","","","","","","",""
"pit-instructions","2","12569","0.0-2.0-0.0","battery-v0.2","","""event"",""trial"",""time""
""focus"",""1"",""3213""
""fullscreenenter"",""1"",""4643""
","
","""event"",""trial"",""time""
""focus"",""1"",""3213""
","""event"",""trial"",""time""
""fullscreenenter"",""1"",""4643""
","
","","[{""page_index"":0,""viewing_time"":6968.799999952316}]","6969.200000047684","","","","","","","","","","","","","","","","","","","","","","","",""
"pit-comprehension","3","15807","0.0-2.0-1.0-0.0","battery-v0.2","","""event"",""trial"",""time""
""focus"",""1"",""3213""
""fullscreenenter"",""1"",""4643""
","
","""event"",""trial"",""time""
""focus"",""1"",""3213""
","""event"",""trial"",""time""
""fullscreenenter"",""1"",""4643""
","
","","","3229.9000000953674","[""shark""]","0","16","7236","3595","","","","","","","","","","","","","","","","","","",""
"pit-instructions","4","17118","0.0-2.0-1.0-1.0","battery-v0.2","","""event"",""trial"",""time""
""focus"",""1"",""3213""
""fullscreenenter"",""1"",""4643""
","
","""event"",""trial"",""time""
""focus"",""1"",""3213""
","""event"",""trial"",""time""
""fullscreenenter"",""1"",""4643""
","
","","[{""page_index"":0,""viewing_time"":1292.8999998569489}]","1293.1999998092651","","","","","","","","","","","","","","","","","","","","","","","",""
"pit-comprehension","5","19226","0.0-2.0-2.0-0.0","battery-v0.2","","""event"",""trial"",""time""
""focus"",""1"",""3213""
""fullscreenenter"",""1"",""4643""
","
","""event"",""trial"",""time""
""focus"",""1"",""3213""
","""event"",""trial"",""time""
""fullscreenenter"",""1"",""4643""
","
","","","2100.399999856949","[""tiger""]","0","16","7236","3595","","","","","","","","","","","","","","","","","","",""
"pit-instructions","6","19992","0.0-2.0-2.0-1.0","battery-v0.2","","""event"",""trial"",""time""
""focus"",""1"",""3213""
""fullscreenenter"",""1"",""4643""
","
","""event"",""trial"",""time""
""focus"",""1"",""3213""
","""event"",""trial"",""time""
""fullscreenenter"",""1"",""4643""
","
","","[{""page_index"":0,""viewing_time"":755.2000000476837}]","755.5999999046326","","","","","","","","","","","","","","","","","","","","","","","",""
"pit-instructions","7","116359","0.0-2.0-3.0","battery-v0.2","","""event"",""trial"",""time""
""focus"",""1"",""3213""
""fullscreenenter"",""1"",""4643""
","
","""event"",""trial"",""time""
""focus"",""1"",""3213""
","""event"",""trial"",""time""
""fullscreenenter"",""1"",""4643""
","
","","[{""page_index"":0,""viewing_time"":10532.099999904633},{""page_index"":1,""viewing_time"":6370},{""page_index"":2,""viewing_time"":6391.700000047684},{""page_index"":3,""viewing_time"":5483.400000095367},{""page_index"":4,""viewing_time"":5060.700000047684},{""page_index"":5,""viewing_time"":5687.099999904633},{""page_index"":6,""viewing_time"":7334.799999952316},{""page_index"":7,""viewing_time"":7742.700000047684},{""page_index"":8,""viewing_time"":6245.799999952316},{""page_index"":9,""viewing_time"":7047.600000143051},{""page_index"":10,""viewing_time"":9412.299999952316},{""page_index"":11,""viewing_time"":7650.399999856949},{""page_index"":12,""viewing_time"":6115.300000190735},{""page_index"":13,""viewing_time"":5283.099999904633}]","96357.59999990463","","","","","","","","","","","","","","","","","","","","","","","",""
"pit-trial","8","119754","0.0-2.0-4.0-0.0","battery-v0.2","","""event"",""trial"",""time""
""focus"",""1"",""3213""
""fullscreenenter"",""1"",""4643""
","
","""event"",""trial"",""time""
""focus"",""1"",""3213""
","""event"",""trial"",""time""
""fullscreenenter"",""1"",""4643""
","
","","","522","","","16","7236","3595","&#9784;","elianto","#FFFFF080"," "," ","1","&#10004","[1378.1999998092651]","1","0","0","","","","","","","",""
"pit-trial","9","123321","0.0-2.0-4.1-0.1","battery-v0.2","","""event"",""trial"",""time""
""focus"",""1"",""3213""
""fullscreenenter"",""1"",""4643""
","
","""event"",""trial"",""time""
""focus"",""1"",""3213""
","""event"",""trial"",""time""
""fullscreenenter"",""1"",""4643""
","
","","","682.0999999046326","","","16","7236","3595","&#9784;","elianto","#FFFFF080"," "," ","1","&#10004","[1541.7999999523163]","1","0","0","","","","","","","",""
"pit-trial","10","126819","0.0-2.0-4.2-0.2","battery-v0.2","","""event"",""trial"",""time""
""focus"",""1"",""3213""
""fullscreenenter"",""1"",""4643""
","
","""event"",""trial"",""time""
""focus"",""1"",""3213""
","""event"",""trial"",""time""
""fullscreenenter"",""1"",""4643""
","
","","","618.5","","","16","7236","3595","&#9784;","elianto","#FFFFF080"," "," ","1","&#10004","[1480.1000001430511]","1","0","0","","","","","","","",""
"pit-trial","11","130103","0.0-2.0-4.3-0.3","battery-v0.2","","""event"",""trial"",""time""
""focus"",""1"",""3213""
""fullscreenenter"",""1"",""4643""
","
","""event"",""trial"",""time""
""focus"",""1"",""3213""
","""event"",""trial"",""time""
""fullscreenenter"",""1"",""4643""
","
","","","412.5","","","16","7236","3595","&#9784;","elianto","#FFFFF080"," "," ","1","&#10004","[1263.8999998569489]","1","0","0","","","","","","","",""
"pit-trial","12","134071","0.0-2.0-4.4-0.4","battery-v0.2","","""event"",""trial"",""time""
""focus"",""1"",""3213""
""fullscreenenter"",""1"",""4643""
","
","""event"",""trial"",""time""
""focus"",""1"",""3213""
","""event"",""trial"",""time""
""fullscreenenter"",""1"",""4643""
","
","","","1096.2999999523163","","","16","7236","3595","&#9784;","elianto","#FFFFF080"," "," ","1","&#10004","[1947.8999998569489]","1","0","0","","","","","","","",""
"pit-instructions","13","154170","0.0-2.0-5.0","battery-v0.2","","""event"",""trial"",""time""
""focus"",""1"",""3213""
""fullscreenenter"",""1"",""4643""
","
","""event"",""trial"",""time""
""focus"",""1"",""3213""
","""event"",""trial"",""time""
""fullscreenenter"",""1"",""4643""
","
","","[{""page_index"":0,""viewing_time"":5052.299999952316},{""page_index"":1,""viewing_time"":5034.700000047684},{""page_index"":2,""viewing_time"":4961.199999809265},{""page_index"":3,""viewing_time"":5043.300000190735}]","20091.799999952316","","","","","","","","","","","","","","","","","","","","","","","",""
"pit-trial","14","159051","0.0-2.0-6.0-0.0","battery-v0.2","","""event"",""trial"",""time""
""focus"",""1"",""3213""
""fullscreenenter"",""1"",""4643""
","
","""event"",""trial"",""time""
""focus"",""1"",""3213""
","""event"",""trial"",""time""
""fullscreenenter"",""1"",""4643""
","
","","","-1","","","16","7236","3595","&#9854;","elianto","#FFFFF080","-1","-1","1","&#10004","[]","0","0","1","","","","","","","",""
"pit-trial","15","163918","0.0-2.0-6.1-0.1","battery-v0.2","","""event"",""trial"",""time""
""focus"",""1"",""3213""
""fullscreenenter"",""1"",""4643""
","
","""event"",""trial"",""time""
""focus"",""1"",""3213""
","""event"",""trial"",""time""
""fullscreenenter"",""1"",""4643""
","
","","","-1","","","16","7236","3595","&#9854;","elianto","#FFFFF080","-1","-1","1","&#10004","[]","0","0","1","","","","","","","",""
"pit-trial","16","168801","0.0-2.0-6.2-0.2","battery-v0.2","","""event"",""trial"",""time""
""focus"",""1"",""3213""
""fullscreenenter"",""1"",""4643""
","
","""event"",""trial"",""time""
""focus"",""1"",""3213""
","""event"",""trial"",""time""
""fullscreenenter"",""1"",""4643""
","
","","","-1","","","16","7236","3595","&#9854;","elianto","#FFFFF080","-1","-1","1","&#10004","[]","0","0","1","","","","","","","",""
"pit-trial","17","173679","0.0-2.0-6.3-0.3","battery-v0.2","","""event"",""trial"",""time""
""focus"",""1"",""3213""
""fullscreenenter"",""1"",""4643""
","
","""event"",""trial"",""time""
""focus"",""1"",""3213""
","""event"",""trial"",""time""
""fullscreenenter"",""1"",""4643""
","
","","","-1","","","16","7236","3595","&#9854;","elianto","#FFFFF080","-1","-1","1","&#10004","[]","0","0","1","","","","","","","",""
"pit-trial","18","178560","0.0-2.0-6.4-0.4","battery-v0.2","","""event"",""trial"",""time""
""focus"",""1"",""3213""
""fullscreenenter"",""1"",""4643""
","
","""event"",""trial"",""time""
""focus"",""1"",""3213""
","""event"",""trial"",""time""
""fullscreenenter"",""1"",""4643""
","
","","","-1","","","16","7236","3595","&#9854;","elianto","#FFFFF080","-1","-1","1","&#10004","[]","0","0","1","","","","","","","",""
"pit-instructions","19","304375","0.0-2.0-7.0","battery-v0.2","","""event"",""trial"",""time""
""focus"",""1"",""3213""
""fullscreenenter"",""1"",""4643""
","
","""event"",""trial"",""time""
""focus"",""1"",""3213""
","""event"",""trial"",""time""
""fullscreenenter"",""1"",""4643""
","
","","[{""page_index"":0,""viewing_time"":6384.400000095367},{""page_index"":1,""viewing_time"":6451},{""page_index"":2,""viewing_time"":7473.700000047684},{""page_index"":3,""viewing_time"":7207.199999809265},{""page_index"":4,""viewing_time"":5860.800000190735},{""page_index"":5,""viewing_time"":8094},{""page_index"":6,""viewing_time"":4358},{""page_index"":7,""viewing_time"":7939.799999952316},{""page_index"":8,""viewing_time"":6208.899999856949},{""page_index"":9,""viewing_time"":5565},{""page_index"":10,""viewing_time"":6506.800000190735},{""page_index"":11,""viewing_time"":5690.799999952316},{""page_index"":12,""viewing_time"":6905.299999952316},{""page_index"":13,""viewing_time"":6281.099999904633},{""page_index"":14,""viewing_time"":9359.800000190735},{""page_index"":15,""viewing_time"":11744.699999809265},{""page_index"":16,""viewing_time"":6720.800000190735},{""page_index"":17,""viewing_time"":7053.099999904633}]","125805.5","","","","","","","","","","","","","","","","","","","","","","","",""
"pit-trial","20","307601","0.0-2.0-8.0-0.0","battery-v0.2","","""event"",""trial"",""time""
""focus"",""1"",""3213""
""fullscreenenter"",""1"",""4643""
","
","""event"",""trial"",""time""
""focus"",""1"",""3213""
","""event"",""trial"",""time""
""fullscreenenter"",""1"",""4643""
","
","","","352.59999990463257","","","16","7236","3595","&#9776;","elianto","#3366ff99"," "," ","1","+10","[1211]","1","0","1","","","","","","","",""
"pit-trial","21","310716","0.0-2.0-8.0-1.0","battery-v0.2","","""event"",""trial"",""time""
""focus"",""1"",""3213""
""fullscreenenter"",""1"",""4643""
","
","""event"",""trial"",""time""
""focus"",""1"",""3213""
","""event"",""trial"",""time""
""fullscreenenter"",""1"",""4643""
","
","","","245","","","16","7236","3595","&#9776;","elianto","#3366ff99"," "," ","1","+10","[1096.5999999046326]","1","0","1","","","","","","","",""
"pit-trial","22","313823","0.0-2.0-8.0-2.0","battery-v0.2","","""event"",""trial"",""time""
""focus"",""1"",""3213""
""fullscreenenter"",""1"",""4643""
","
","""event"",""trial"",""time""
""focus"",""1"",""3213""
","""event"",""trial"",""time""
""fullscreenenter"",""1"",""4643""
","
","","","235.5","","","16","7236","3595","&#9776;","elianto","#3366ff99"," "," ","1","+10","[1086.9000000953674]","1","0","1","","","","","","","",""
"pit-trial","23","316944","0.0-2.0-8.0-3.0","battery-v0.2","","""event"",""trial"",""time""
""focus"",""1"",""3213""
""fullscreenenter"",""1"",""4643""
","
","""event"",""trial"",""time""
""focus"",""1"",""3213""
","""event"",""trial"",""time""
""fullscreenenter"",""1"",""4643""
","
","","","238.10000014305115","","","16","7236","3595","&#9776;","elianto","#3366ff99"," "," ","1","0","[1099.5]","1","0","1","","","","","","","",""
"pit-trial","24","320040","0.0-2.0-8.0-4.0","battery-v0.2","","""event"",""trial"",""time""
""focus"",""1"",""3213""
""fullscreenenter"",""1"",""4643""
","
","""event"",""trial"",""time""
""focus"",""1"",""3213""
","""event"",""trial"",""time""
""fullscreenenter"",""1"",""4643""
","
","","","233.79999995231628","","","16","7236","3595","&#9776;","elianto","#3366ff99"," "," ","1","+10","[1089.4000000953674]","1","0","1","","","","","","","",""
"pit-trial","25","323174","0.0-2.0-8.1-0.1","battery-v0.2","","""event"",""trial"",""time""
""focus"",""1"",""3213""
""fullscreenenter"",""1"",""4643""
","
","""event"",""trial"",""time""
""focus"",""1"",""3213""
","""event"",""trial"",""time""
""fullscreenenter"",""1"",""4643""
","
","","","262.09999990463257","","","16","7236","3595","&#9776;","elianto","#3366ff99"," "," ","1","+10","[1118.5]","1","0","1","","","","","","","",""
"pit-trial","26","326309","0.0-2.0-8.1-1.1","battery-v0.2","","""event"",""trial"",""time""
""focus"",""1"",""3213""
""fullscreenenter"",""1"",""4643""
","
","""event"",""trial"",""time""
""focus"",""1"",""3213""
","""event"",""trial"",""time""
""fullscreenenter"",""1"",""4643""
","
","","","257.5","","","16","7236","3595","&#9776;","elianto","#3366ff99"," "," ","1","+10","[1114.2000000476837]","1","0","1","","","","","","","",""
"pit-trial","27","329385","0.0-2.0-8.1-2.1","battery-v0.2","","""event"",""trial"",""time""
""focus"",""1"",""3213""
""fullscreenenter"",""1"",""4643""
","
","""event"",""trial"",""time""
""focus"",""1"",""3213""
","""event"",""trial"",""time""
""fullscreenenter"",""1"",""4643""
","
","","","205.30000019073486","","","16","7236","3595","&#9776;","elianto","#3366ff99"," "," ","1","+10","[1060.2000000476837]","1","0","1","","","","","","","",""
"pit-trial","28","332556","0.0-2.0-8.1-3.1","battery-v0.2","","""event"",""trial"",""time""
""focus"",""1"",""3213""
""fullscreenenter"",""1"",""4643""
","
","""event"",""trial"",""time""
""focus"",""1"",""3213""
","""event"",""trial"",""time""
""fullscreenenter"",""1"",""4643""
","
","","","299.10000014305115","","","16","7236","3595","&#9776;","elianto","#3366ff99"," "," ","1","0","[1152.4000000953674]","1","0","1","","","","","","","",""
"pit-trial","29","335585","0.0-2.0-8.1-4.1","battery-v0.2","","""event"",""trial"",""time""
""focus"",""1"",""3213""
""fullscreenenter"",""1"",""4643""
","
","""event"",""trial"",""time""
""focus"",""1"",""3213""
","""event"",""trial"",""time""
""fullscreenenter"",""1"",""4643""
","
","","","166.70000004768372","","","16","7236","3595","&#9776;","elianto","#3366ff99"," "," ","1","+10","[1022.9000000953674]","1","0","1","","","","","","","",""
"pit-trial","30","338673","0.0-2.0-8.2-0.2","battery-v0.2","","""event"",""trial"",""time""
""focus"",""1"",""3213""
""fullscreenenter"",""1"",""4643""
","
","""event"",""trial"",""time""
""focus"",""1"",""3213""
","""event"",""trial"",""time""
""fullscreenenter"",""1"",""4643""
","
","","","228.40000009536743","","","16","7236","3595","&#9776;","elianto","#3366ff99"," "," ","1","+10","[1080.5]","1","0","1","","","","","","","",""
"pit-trial","31","341689","0.0-2.0-8.2-1.2","battery-v0.2","","""event"",""trial"",""time""
""focus"",""1"",""3213""
""fullscreenenter"",""1"",""4643""
","
","""event"",""trial"",""time""
""focus"",""1"",""3213""
","""event"",""trial"",""time""
""fullscreenenter"",""1"",""4643""
","
","","","155","","","16","7236","3595","&#9776;","elianto","#3366ff99"," "," ","1","+10","[1005.7999999523163]","1","0","1","","","","","","","",""
"pit-trial","32","344768","0.0-2.0-8.2-2.2","battery-v0.2","","""event"",""trial"",""time""
""focus"",""1"",""3213""
""fullscreenenter"",""1"",""4643""
","
","""event"",""trial"",""time""
""focus"",""1"",""3213""
","""event"",""trial"",""time""
""fullscreenenter"",""1"",""4643""
","
","","","221.5","","","16","7236","3595","&#9776;","elianto","#3366ff99"," "," ","1","+10","[1073.2999999523163]","1","0","1","","","","","","","",""
"pit-trial","33","347711","0.0-2.0-8.2-3.2","battery-v0.2","","""event"",""trial"",""time""
""focus"",""1"",""3213""
""fullscreenenter"",""1"",""4643""
","
","""event"",""trial"",""time""
""focus"",""1"",""3213""
","""event"",""trial"",""time""
""fullscreenenter"",""1"",""4643""
","
","","","70.40000009536743","","","16","7236","3595","&#9776;","elianto","#3366ff99"," "," ","1","0","[920.5,2448.7999999523163,2760.399999856949]","3","0","1","","","","","","","",""
"pit-trial","34","350873","0.0-2.0-8.2-4.2","battery-v0.2","","""event"",""trial"",""time""
""focus"",""1"",""3213""
""fullscreenenter"",""1"",""4643""
","
","""event"",""trial"",""time""
""focus"",""1"",""3213""
","""event"",""trial"",""time""
""fullscreenenter"",""1"",""4643""
","
","","","302.7000000476837","","","16","7236","3595","&#9776;","elianto","#3366ff99"," "," ","1","+10","[1153]","1","0","1","","","","","","","",""
"call-function","35","350881","0.0-2.0-9.0","battery-v0.2","","""event"",""trial"",""time""
""focus"",""1"",""3213""
""fullscreenenter"",""1"",""4643""
","
","""event"",""trial"",""time""
""focus"",""1"",""3213""
","""event"",""trial"",""time""
""fullscreenenter"",""1"",""4643""
","
","","","","","","","","","","","","","","","","","","","","","","","","","","",""
"pit-instructions","36","458571","0.0-2.0-10.0","battery-v0.2","","""event"",""trial"",""time""
""focus"",""1"",""3213""
""fullscreenenter"",""1"",""4643""
","
","""event"",""trial"",""time""
""focus"",""1"",""3213""
","""event"",""trial"",""time""
""fullscreenenter"",""1"",""4643""
","
","","[{""page_index"":0,""viewing_time"":74200.09999990463},{""page_index"":1,""viewing_time"":6533.299999952316},{""page_index"":2,""viewing_time"":9274.799999952316},{""page_index"":3,""viewing_time"":10660.800000190735},{""page_index"":4,""viewing_time"":7019.899999856949}]","107689.39999985695","","","","","","","","","","","","","","","","","","","","","","","",""
"pit-trial","37","463451","0.0-2.0-11.0-0.0","battery-v0.2","","""event"",""trial"",""time""
""focus"",""1"",""3213""
""fullscreenenter"",""1"",""4643""
","
","""event"",""trial"",""time""
""focus"",""1"",""3213""
","""event"",""trial"",""time""
""fullscreenenter"",""1"",""4643""
","
","","","-1","","","16","7236","3595","&#9761;","elianto","#3366ff99","-1","-1","1","+10","[]","0","0","2","","","","","","","",""
"pit-trial","38","468319","0.0-2.0-11.0-1.0","battery-v0.2","","""event"",""trial"",""time""
""focus"",""1"",""3213""
""fullscreenenter"",""1"",""4643""
","
","""event"",""trial"",""time""
""focus"",""1"",""3213""
","""event"",""trial"",""time""
""fullscreenenter"",""1"",""4643""
","
","","","-1","","","16","7236","3595","&#9761;","elianto","#3366ff99","-1","-1","1","+10","[]","0","0","2","","","","","","","",""
"pit-trial","39","473194","0.0-2.0-11.0-2.0","battery-v0.2","","""event"",""trial"",""time""
""focus"",""1"",""3213""
""fullscreenenter"",""1"",""4643""
","
","""event"",""trial"",""time""
""focus"",""1"",""3213""
","""event"",""trial"",""time""
""fullscreenenter"",""1"",""4643""
","
","","","-1","","","16","7236","3595","&#9761;","elianto","#3366ff99","-1","-1","1","+10","[]","0","0","2","","","","","","","",""
"pit-trial","40","478061","0.0-2.0-11.0-3.0","battery-v0.2","","""event"",""trial"",""time""
""focus"",""1"",""3213""
""fullscreenenter"",""1"",""4643""
","
","""event"",""trial"",""time""
""focus"",""1"",""3213""
","""event"",""trial"",""time""
""fullscreenenter"",""1"",""4643""
","
","","","-1","","","16","7236","3595","&#9761;","elianto","#3366ff99","-1","-1","1","0","[]","0","0","2","","","","","","","",""
"pit-trial","41","482936","0.0-2.0-11.0-4.0","battery-v0.2","","""event"",""trial"",""time""
""focus"",""1"",""3213""
""fullscreenenter"",""1"",""4643""
","
","""event"",""trial"",""time""
""focus"",""1"",""3213""
","""event"",""trial"",""time""
""fullscreenenter"",""1"",""4643""
","
","","","-1","","","16","7236","3595","&#9761;","elianto","#3366ff99","-1","-1","1","+10","[]","0","0","2","","","","","","","",""
"pit-trial","42","487817","0.0-2.0-11.1-0.1","battery-v0.2","","""event"",""trial"",""time""
""focus"",""1"",""3213""
""fullscreenenter"",""1"",""4643""
","
","""event"",""trial"",""time""
""focus"",""1"",""3213""
","""event"",""trial"",""time""
""fullscreenenter"",""1"",""4643""
","
","","","-1","","","16","7236","3595","&#9761;","elianto","#3366ff99","-1","-1","1","+10","[]","0","0","2","","","","","","","",""
"pit-trial","43","492675","0.0-2.0-11.1-1.1","battery-v0.2","","""event"",""trial"",""time""
""focus"",""1"",""3213""
""fullscreenenter"",""1"",""4643""
","
","""event"",""trial"",""time""
""focus"",""1"",""3213""
","""event"",""trial"",""time""
""fullscreenenter"",""1"",""4643""
","
","","","-1","","","16","7236","3595","&#9761;","elianto","#3366ff99","-1","-1","1","+10","[]","0","0","2","","","","","","","",""
"pit-trial","44","497535","0.0-2.0-11.1-2.1","battery-v0.2","","""event"",""trial"",""time""
""focus"",""1"",""3213""
""fullscreenenter"",""1"",""4643""
","
","""event"",""trial"",""time""
""focus"",""1"",""3213""
","""event"",""trial"",""time""
""fullscreenenter"",""1"",""4643""
","
","","","-1","","","16","7236","3595","&#9761;","elianto","#3366ff99","-1","-1","1","+10","[]","0","0","2","","","","","","","",""
"pit-trial","45","502394","0.0-2.0-11.1-3.1","battery-v0.2","","""event"",""trial"",""time""
""focus"",""1"",""3213""
""fullscreenenter"",""1"",""4643""
","
","""event"",""trial"",""time""
""focus"",""1"",""3213""
","""event"",""trial"",""time""
""fullscreenenter"",""1"",""4643""
","
","","","-1","","","16","7236","3595","&#9761;","elianto","#3366ff99","-1","-1","1","0","[]","0","0","2","","","","","","","",""
"pit-trial","46","507250","0.0-2.0-11.1-4.1","battery-v0.2","","""event"",""trial"",""time""
""focus"",""1"",""3213""
""fullscreenenter"",""1"",""4643""
","
","""event"",""trial"",""time""
""focus"",""1"",""3213""
","""event"",""trial"",""time""
""fullscreenenter"",""1"",""4643""
","
","","","-1","","","16","7236","3595","&#9761;","elianto","#3366ff99","-1","-1","1","+10","[]","0","0","2","","","","","","","",""
"pit-trial","47","512108","0.0-2.0-11.2-0.2","battery-v0.2","","""event"",""trial"",""time""
""focus"",""1"",""3213""
""fullscreenenter"",""1"",""4643""
","
","""event"",""trial"",""time""
""focus"",""1"",""3213""
","""event"",""trial"",""time""
""fullscreenenter"",""1"",""4643""
","
","","","-1","","","16","7236","3595","&#9761;","elianto","#3366ff99","-1","-1","1","+10","[]","0","0","2","","","","","","","",""
"pit-trial","48","516967","0.0-2.0-11.2-1.2","battery-v0.2","","""event"",""trial"",""time""
""focus"",""1"",""3213""
""fullscreenenter"",""1"",""4643""
","
","""event"",""trial"",""time""
""focus"",""1"",""3213""
","""event"",""trial"",""time""
""fullscreenenter"",""1"",""4643""
","
","","","-1","","","16","7236","3595","&#9761;","elianto","#3366ff99","-1","-1","1","+10","[]","0","0","2","","","","","","","",""
"pit-trial","49","521825","0.0-2.0-11.2-2.2","battery-v0.2","","""event"",""trial"",""time""
""focus"",""1"",""3213""
""fullscreenenter"",""1"",""4643""
","
","""event"",""trial"",""time""
""focus"",""1"",""3213""
","""event"",""trial"",""time""
""fullscreenenter"",""1"",""4643""
","
","","","-1","","","16","7236","3595","&#9761;","elianto","#3366ff99","-1","-1","1","+10","[]","0","0","2","","","","","","","",""
"pit-trial","50","526682","0.0-2.0-11.2-3.2","battery-v0.2","","""event"",""trial"",""time""
""focus"",""1"",""3213""
""fullscreenenter"",""1"",""4643""
","
","""event"",""trial"",""time""
""focus"",""1"",""3213""
","""event"",""trial"",""time""
""fullscreenenter"",""1"",""4643""
","
","","","-1","","","16","7236","3595","&#9761;","elianto","#3366ff99","-1","-1","1","0","[]","0","0","2","","","","","","","",""
"pit-trial","51","531539","0.0-2.0-11.2-4.2","battery-v0.2","","""event"",""trial"",""time""
""focus"",""1"",""3213""
""fullscreenenter"",""1"",""4643""
""fullscreenexit"",""52"",""535554""
","
","""event"",""trial"",""time""
""focus"",""1"",""3213""
","""event"",""trial"",""time""
""fullscreenenter"",""1"",""4643""
","""event"",""trial"",""time""
""fullscreenexit"",""52"",""535554""
","","","-1","","","16","7236","3595","&#9761;","elianto","#3366ff99","-1","-1","1","+10","[]","0","0","2","","","","","","","",""
"pit-trial","52","536398","0.0-2.0-11.3-0.3","battery-v0.2","","""event"",""trial"",""time""
""focus"",""1"",""3213""
""fullscreenenter"",""1"",""4643""
""fullscreenexit"",""52"",""535554""
""blur"",""53"",""537468""
","""event"",""trial"",""time""
""blur"",""53"",""537468""
","""event"",""trial"",""time""
""focus"",""1"",""3213""
","""event"",""trial"",""time""
""fullscreenenter"",""1"",""4643""
","""event"",""trial"",""time""
""fullscreenexit"",""52"",""535554""
","","","-1","","","16","7236","3595","&#9761;","elianto","#3366ff99","-1","-1","1","+10","[]","0","0","2","","","","","","","",""
"pit-trial","53","541257","0.0-2.0-11.3-1.3","battery-v0.2","","""event"",""trial"",""time""
""focus"",""1"",""3213""
""fullscreenenter"",""1"",""4643""
""fullscreenexit"",""52"",""535554""
""blur"",""53"",""537468""
""focus"",""54"",""541634""
","""event"",""trial"",""time""
""blur"",""53"",""537468""
","""event"",""trial"",""time""
""focus"",""1"",""3213""
""focus"",""54"",""541634""
","""event"",""trial"",""time""
""fullscreenenter"",""1"",""4643""
","""event"",""trial"",""time""
""fullscreenexit"",""52"",""535554""
","","","-1","","","16","7236","3595","&#9761;","elianto","#3366ff99","-1","-1","1","+10","[]","0","0","2","","","","","","","",""
"pit-trial","54","546114","0.0-2.0-11.3-2.3","battery-v0.2","","""event"",""trial"",""time""
""focus"",""1"",""3213""
""fullscreenenter"",""1"",""4643""
""fullscreenexit"",""52"",""535554""
""blur"",""53"",""537468""
""focus"",""54"",""541634""
","""event"",""trial"",""time""
""blur"",""53"",""537468""
","""event"",""trial"",""time""
""focus"",""1"",""3213""
""focus"",""54"",""541634""
","""event"",""trial"",""time""
""fullscreenenter"",""1"",""4643""
","""event"",""trial"",""time""
""fullscreenexit"",""52"",""535554""
","","","-1","","","16","7236","3595","&#9761;","elianto","#3366ff99","-1","-1","1","+10","[]","0","0","2","","","","","","","",""
"pit-trial","55","550971","0.0-2.0-11.3-3.3","battery-v0.2","","""event"",""trial"",""time""
""focus"",""1"",""3213""
""fullscreenenter"",""1"",""4643""
""fullscreenexit"",""52"",""535554""
""blur"",""53"",""537468""
""focus"",""54"",""541634""
","""event"",""trial"",""time""
""blur"",""53"",""537468""
","""event"",""trial"",""time""
""focus"",""1"",""3213""
""focus"",""54"",""541634""
","""event"",""trial"",""time""
""fullscreenenter"",""1"",""4643""
","""event"",""trial"",""time""
""fullscreenexit"",""52"",""535554""
","","","-1","","","16","7236","3595","&#9761;","elianto","#3366ff99","-1","-1","1","0","[]","0","0","2","","","","","","","",""
"pit-trial","56","555830","0.0-2.0-11.3-4.3","battery-v0.2","","""event"",""trial"",""time""
""focus"",""1"",""3213""
""fullscreenenter"",""1"",""4643""
""fullscreenexit"",""52"",""535554""
""blur"",""53"",""537468""
""focus"",""54"",""541634""
","""event"",""trial"",""time""
""blur"",""53"",""537468""
","""event"",""trial"",""time""
""focus"",""1"",""3213""
""focus"",""54"",""541634""
","""event"",""trial"",""time""
""fullscreenenter"",""1"",""4643""
","""event"",""trial"",""time""
""fullscreenexit"",""52"",""535554""
","","","-1","","","16","7236","3595","&#9761;","elianto","#3366ff99","-1","-1","1","+10","[]","0","0","2","","","","","","","",""
"call-function","57","555835","0.0-2.0-12.0","battery-v0.2","","""event"",""trial"",""time""
""focus"",""1"",""3213""
""fullscreenenter"",""1"",""4643""
""fullscreenexit"",""52"",""535554""
""blur"",""53"",""537468""
""focus"",""54"",""541634""
","""event"",""trial"",""time""
""blur"",""53"",""537468""
","""event"",""trial"",""time""
""focus"",""1"",""3213""
""focus"",""54"",""541634""
","""event"",""trial"",""time""
""fullscreenenter"",""1"",""4643""
","""event"",""trial"",""time""
""fullscreenexit"",""52"",""535554""
","","","","","","","","","","","","","","","","","","","","","","","","","","",""
"pit-instructions","58","585172","0.0-2.0-13.0","battery-v0.2","","""event"",""trial"",""time""
""focus"",""1"",""3213""
""fullscreenenter"",""1"",""4643""
""fullscreenexit"",""52"",""535554""
""blur"",""53"",""537468""
""focus"",""54"",""541634""
","""event"",""trial"",""time""
""blur"",""53"",""537468""
","""event"",""trial"",""time""
""focus"",""1"",""3213""
""focus"",""54"",""541634""
","""event"",""trial"",""time""
""fullscreenenter"",""1"",""4643""
","""event"",""trial"",""time""
""fullscreenexit"",""52"",""535554""
","","[{""page_index"":0,""viewing_time"":4554.5},{""page_index"":1,""viewing_time"":6546.900000095367},{""page_index"":2,""viewing_time"":3223.7999999523163},{""page_index"":3,""viewing_time"":10345.899999856949},{""page_index"":4,""viewing_time"":4664.400000095367}]","29335.799999952316","","","","","","","","","","","","","","","","","","","","","","","",""
"pit-trial","59","590044","0.0-2.0-14.0-0.0","battery-v0.2","","""event"",""trial"",""time""
""focus"",""1"",""3213""
""fullscreenenter"",""1"",""4643""
""fullscreenexit"",""52"",""535554""
""blur"",""53"",""537468""
""focus"",""54"",""541634""
","""event"",""trial"",""time""
""blur"",""53"",""537468""
","""event"",""trial"",""time""
""focus"",""1"",""3213""
""focus"",""54"",""541634""
","""event"",""trial"",""time""
""fullscreenenter"",""1"",""4643""
","""event"",""trial"",""time""
""fullscreenexit"",""52"",""535554""
","","","-1","","","16","7236","3595","&#9826;","elianto","#f73b6a7A","-1","-1","1","0","[]","0","0","3","","","","","","","",""
"pit-trial","60","594916","0.0-2.0-14.0-1.0","battery-v0.2","","""event"",""trial"",""time""
""focus"",""1"",""3213""
""fullscreenenter"",""1"",""4643""
""fullscreenexit"",""52"",""535554""
""blur"",""53"",""537468""
""focus"",""54"",""541634""
","""event"",""trial"",""time""
""blur"",""53"",""537468""
","""event"",""trial"",""time""
""focus"",""1"",""3213""
""focus"",""54"",""541634""
","""event"",""trial"",""time""
""fullscreenenter"",""1"",""4643""
","""event"",""trial"",""time""
""fullscreenexit"",""52"",""535554""
","","","-1","","","16","7236","3595","&#9826;","elianto","#f73b6a7A","-1","-1","1","0","[]","0","0","3","","","","","","","",""
"pit-trial","61","599787","0.0-2.0-14.0-2.0","battery-v0.2","","""event"",""trial"",""time""
""focus"",""1"",""3213""
""fullscreenenter"",""1"",""4643""
""fullscreenexit"",""52"",""535554""
""blur"",""53"",""537468""
""focus"",""54"",""541634""
","""event"",""trial"",""time""
""blur"",""53"",""537468""
","""event"",""trial"",""time""
""focus"",""1"",""3213""
""focus"",""54"",""541634""
","""event"",""trial"",""time""
""fullscreenenter"",""1"",""4643""
","""event"",""trial"",""time""
""fullscreenexit"",""52"",""535554""
","","","-1","","","16","7236","3595","&#9826;","elianto","#f73b6a7A","-1","-1","1","0","[]","0","0","3","","","","","","","",""
"pit-trial","62","604651","0.0-2.0-14.0-3.0","battery-v0.2","","""event"",""trial"",""time""
""focus"",""1"",""3213""
""fullscreenenter"",""1"",""4643""
""fullscreenexit"",""52"",""535554""
""blur"",""53"",""537468""
""focus"",""54"",""541634""
","""event"",""trial"",""time""
""blur"",""53"",""537468""
","""event"",""trial"",""time""
""focus"",""1"",""3213""
""focus"",""54"",""541634""
","""event"",""trial"",""time""
""fullscreenenter"",""1"",""4643""
","""event"",""trial"",""time""
""fullscreenexit"",""52"",""535554""
","","","-1","","","16","7236","3595","&#9826;","elianto","#f73b6a7A","-1","-1","1","-10","[]","0","0","3","","","","","","","",""
"pit-trial","63","609523","0.0-2.0-14.0-4.0","battery-v0.2","","""event"",""trial"",""time""
""focus"",""1"",""3213""
""fullscreenenter"",""1"",""4643""
""fullscreenexit"",""52"",""535554""
""blur"",""53"",""537468""
""focus"",""54"",""541634""
","""event"",""trial"",""time""
""blur"",""53"",""537468""
","""event"",""trial"",""time""
""focus"",""1"",""3213""
""focus"",""54"",""541634""
","""event"",""trial"",""time""
""fullscreenenter"",""1"",""4643""
","""event"",""trial"",""time""
""fullscreenexit"",""52"",""535554""
","","","-1","","","16","7236","3595","&#9826;","elianto","#f73b6a7A","-1","-1","1","0","[]","0","0","3","","","","","","","",""
"pit-trial","64","614393","0.0-2.0-14.1-0.1","battery-v0.2","","""event"",""trial"",""time""
""focus"",""1"",""3213""
""fullscreenenter"",""1"",""4643""
""fullscreenexit"",""52"",""535554""
""blur"",""53"",""537468""
""focus"",""54"",""541634""
","""event"",""trial"",""time""
""blur"",""53"",""537468""
","""event"",""trial"",""time""
""focus"",""1"",""3213""
""focus"",""54"",""541634""
","""event"",""trial"",""time""
""fullscreenenter"",""1"",""4643""
","""event"",""trial"",""time""
""fullscreenexit"",""52"",""535554""
","","","-1","","","16","7236","3595","&#9826;","elianto","#f73b6a7A","-1","-1","1","0","[]","0","0","3","","","","","","","",""
"pit-trial","65","619249","0.0-2.0-14.1-1.1","battery-v0.2","","""event"",""trial"",""time""
""focus"",""1"",""3213""
""fullscreenenter"",""1"",""4643""
""fullscreenexit"",""52"",""535554""
""blur"",""53"",""537468""
""focus"",""54"",""541634""
","""event"",""trial"",""time""
""blur"",""53"",""537468""
","""event"",""trial"",""time""
""focus"",""1"",""3213""
""focus"",""54"",""541634""
","""event"",""trial"",""time""
""fullscreenenter"",""1"",""4643""
","""event"",""trial"",""time""
""fullscreenexit"",""52"",""535554""
","","","-1","","","16","7236","3595","&#9826;","elianto","#f73b6a7A","-1","-1","1","0","[]","0","0","3","","","","","","","",""
"pit-trial","66","624107","0.0-2.0-14.1-2.1","battery-v0.2","","""event"",""trial"",""time""
""focus"",""1"",""3213""
""fullscreenenter"",""1"",""4643""
""fullscreenexit"",""52"",""535554""
""blur"",""53"",""537468""
""focus"",""54"",""541634""
","""event"",""trial"",""time""
""blur"",""53"",""537468""
","""event"",""trial"",""time""
""focus"",""1"",""3213""
""focus"",""54"",""541634""
","""event"",""trial"",""time""
""fullscreenenter"",""1"",""4643""
","""event"",""trial"",""time""
""fullscreenexit"",""52"",""535554""
","","","-1","","","16","7236","3595","&#9826;","elianto","#f73b6a7A","-1","-1","1","0","[]","0","0","3","","","","","","","",""
"pit-trial","67","628965","0.0-2.0-14.1-3.1","battery-v0.2","","""event"",""trial"",""time""
""focus"",""1"",""3213""
""fullscreenenter"",""1"",""4643""
""fullscreenexit"",""52"",""535554""
""blur"",""53"",""537468""
""focus"",""54"",""541634""
","""event"",""trial"",""time""
""blur"",""53"",""537468""
","""event"",""trial"",""time""
""focus"",""1"",""3213""
""focus"",""54"",""541634""
","""event"",""trial"",""time""
""fullscreenenter"",""1"",""4643""
","""event"",""trial"",""time""
""fullscreenexit"",""52"",""535554""
","","","-1","","","16","7236","3595","&#9826;","elianto","#f73b6a7A","-1","-1","1","-10","[]","0","0","3","","","","","","","",""
"pit-trial","68","633836","0.0-2.0-14.1-4.1","battery-v0.2","","""event"",""trial"",""time""
""focus"",""1"",""3213""
""fullscreenenter"",""1"",""4643""
""fullscreenexit"",""52"",""535554""
""blur"",""53"",""537468""
""focus"",""54"",""541634""
","""event"",""trial"",""time""
""blur"",""53"",""537468""
","""event"",""trial"",""time""
""focus"",""1"",""3213""
""focus"",""54"",""541634""
","""event"",""trial"",""time""
""fullscreenenter"",""1"",""4643""
","""event"",""trial"",""time""
""fullscreenexit"",""52"",""535554""
","","","-1","","","16","7236","3595","&#9826;","elianto","#f73b6a7A","-1","-1","1","0","[]","0","0","3","","","","","","","",""
"pit-trial","69","638696","0.0-2.0-14.2-0.2","battery-v0.2","","""event"",""trial"",""time""
""focus"",""1"",""3213""
""fullscreenenter"",""1"",""4643""
""fullscreenexit"",""52"",""535554""
""blur"",""53"",""537468""
""focus"",""54"",""541634""
","""event"",""trial"",""time""
""blur"",""53"",""537468""
","""event"",""trial"",""time""
""focus"",""1"",""3213""
""focus"",""54"",""541634""
","""event"",""trial"",""time""
""fullscreenenter"",""1"",""4643""
","""event"",""trial"",""time""
""fullscreenexit"",""52"",""535554""
","","","-1","","","16","7236","3595","&#9826;","elianto","#f73b6a7A","-1","-1","1","0","[]","0","0","3","","","","","","","",""
"pit-trial","70","643554","0.0-2.0-14.2-1.2","battery-v0.2","","""event"",""trial"",""time""
""focus"",""1"",""3213""
""fullscreenenter"",""1"",""4643""
""fullscreenexit"",""52"",""535554""
""blur"",""53"",""537468""
""focus"",""54"",""541634""
","""event"",""trial"",""time""
""blur"",""53"",""537468""
","""event"",""trial"",""time""
""focus"",""1"",""3213""
""focus"",""54"",""541634""
","""event"",""trial"",""time""
""fullscreenenter"",""1"",""4643""
","""event"",""trial"",""time""
""fullscreenexit"",""52"",""535554""
","","","-1","","","16","7236","3595","&#9826;","elianto","#f73b6a7A","-1","-1","1","0","[]","0","0","3","","","","","","","",""
"pit-trial","71","648411","0.0-2.0-14.2-2.2","battery-v0.2","","""event"",""trial"",""time""
""focus"",""1"",""3213""
""fullscreenenter"",""1"",""4643""
""fullscreenexit"",""52"",""535554""
""blur"",""53"",""537468""
""focus"",""54"",""541634""
","""event"",""trial"",""time""
""blur"",""53"",""537468""
","""event"",""trial"",""time""
""focus"",""1"",""3213""
""focus"",""54"",""541634""
","""event"",""trial"",""time""
""fullscreenenter"",""1"",""4643""
","""event"",""trial"",""time""
""fullscreenexit"",""52"",""535554""
","","","-1","","","16","7236","3595","&#9826;","elianto","#f73b6a7A","-1","-1","1","0","[]","0","0","3","","","","","","","",""
"pit-trial","72","653268","0.0-2.0-14.2-3.2","battery-v0.2","","""event"",""trial"",""time""
""focus"",""1"",""3213""
""fullscreenenter"",""1"",""4643""
""fullscreenexit"",""52"",""535554""
""blur"",""53"",""537468""
""focus"",""54"",""541634""
","""event"",""trial"",""time""
""blur"",""53"",""537468""
","""event"",""trial"",""time""
""focus"",""1"",""3213""
""focus"",""54"",""541634""
","""event"",""trial"",""time""
""fullscreenenter"",""1"",""4643""
","""event"",""trial"",""time""
""fullscreenexit"",""52"",""535554""
","","","-1","","","16","7236","3595","&#9826;","elianto","#f73b6a7A","-1","-1","1","-10","[]","0","0","3","","","","","","","",""
"pit-trial","73","658128","0.0-2.0-14.2-4.2","battery-v0.2","","""event"",""trial"",""time""
""focus"",""1"",""3213""
""fullscreenenter"",""1"",""4643""
""fullscreenexit"",""52"",""535554""
""blur"",""53"",""537468""
""focus"",""54"",""541634""
","""event"",""trial"",""time""
""blur"",""53"",""537468""
","""event"",""trial"",""time""
""focus"",""1"",""3213""
""focus"",""54"",""541634""
","""event"",""trial"",""time""
""fullscreenenter"",""1"",""4643""
","""event"",""trial"",""time""
""fullscreenexit"",""52"",""535554""
","","","-1","","","16","7236","3595","&#9826;","elianto","#f73b6a7A","-1","-1","1","0","[]","0","0","3","","","","","","","",""
"pit-trial","74","662986","0.0-2.0-14.3-0.3","battery-v0.2","","""event"",""trial"",""time""
""focus"",""1"",""3213""
""fullscreenenter"",""1"",""4643""
""fullscreenexit"",""52"",""535554""
""blur"",""53"",""537468""
""focus"",""54"",""541634""
","""event"",""trial"",""time""
""blur"",""53"",""537468""
","""event"",""trial"",""time""
""focus"",""1"",""3213""
""focus"",""54"",""541634""
","""event"",""trial"",""time""
""fullscreenenter"",""1"",""4643""
","""event"",""trial"",""time""
""fullscreenexit"",""52"",""535554""
","","","-1","","","16","7236","3595","&#9826;","elianto","#f73b6a7A","-1","-1","1","0","[]","0","0","3","","","","","","","",""
"pit-trial","75","667845","0.0-2.0-14.3-1.3","battery-v0.2","","""event"",""trial"",""time""
""focus"",""1"",""3213""
""fullscreenenter"",""1"",""4643""
""fullscreenexit"",""52"",""535554""
""blur"",""53"",""537468""
""focus"",""54"",""541634""
","""event"",""trial"",""time""
""blur"",""53"",""537468""
","""event"",""trial"",""time""
""focus"",""1"",""3213""
""focus"",""54"",""541634""
","""event"",""trial"",""time""
""fullscreenenter"",""1"",""4643""
","""event"",""trial"",""time""
""fullscreenexit"",""52"",""535554""
","","","-1","","","16","7236","3595","&#9826;","elianto","#f73b6a7A","-1","-1","1","0","[]","0","0","3","","","","","","","",""
"pit-trial","76","672703","0.0-2.0-14.3-2.3","battery-v0.2","","""event"",""trial"",""time""
""focus"",""1"",""3213""
""fullscreenenter"",""1"",""4643""
""fullscreenexit"",""52"",""535554""
""blur"",""53"",""537468""
""focus"",""54"",""541634""
","""event"",""trial"",""time""
""blur"",""53"",""537468""
","""event"",""trial"",""time""
""focus"",""1"",""3213""
""focus"",""54"",""541634""
","""event"",""trial"",""time""
""fullscreenenter"",""1"",""4643""
","""event"",""trial"",""time""
""fullscreenexit"",""52"",""535554""
","","","-1","","","16","7236","3595","&#9826;","elianto","#f73b6a7A","-1","-1","1","0","[]","0","0","3","","","","","","","",""
"pit-trial","77","677563","0.0-2.0-14.3-3.3","battery-v0.2","","""event"",""trial"",""time""
""focus"",""1"",""3213""
""fullscreenenter"",""1"",""4643""
""fullscreenexit"",""52"",""535554""
""blur"",""53"",""537468""
""focus"",""54"",""541634""
","""event"",""trial"",""time""
""blur"",""53"",""537468""
","""event"",""trial"",""time""
""focus"",""1"",""3213""
""focus"",""54"",""541634""
","""event"",""trial"",""time""
""fullscreenenter"",""1"",""4643""
","""event"",""trial"",""time""
""fullscreenexit"",""52"",""535554""
","","","-1","","","16","7236","3595","&#9826;","elianto","#f73b6a7A","-1","-1","1","-10","[]","0","0","3","","","","","","","",""
"pit-trial","78","682422","0.0-2.0-14.3-4.3","battery-v0.2","","""event"",""trial"",""time""
""focus"",""1"",""3213""
""fullscreenenter"",""1"",""4643""
""fullscreenexit"",""52"",""535554""
""blur"",""53"",""537468""
""focus"",""54"",""541634""
","""event"",""trial"",""time""
""blur"",""53"",""537468""
","""event"",""trial"",""time""
""focus"",""1"",""3213""
""focus"",""54"",""541634""
","""event"",""trial"",""time""
""fullscreenenter"",""1"",""4643""
","""event"",""trial"",""time""
""fullscreenexit"",""52"",""535554""
","","","-1","","","16","7236","3595","&#9826;","elianto","#f73b6a7A","-1","-1","1","0","[]","0","0","3","","","","","","","",""
"call-function","79","682427","0.0-2.0-15.0","battery-v0.2","","""event"",""trial"",""time""
""focus"",""1"",""3213""
""fullscreenenter"",""1"",""4643""
""fullscreenexit"",""52"",""535554""
""blur"",""53"",""537468""
""focus"",""54"",""541634""
""blur"",""80"",""691750""
""focus"",""80"",""694762""
""blur"",""80"",""695518""
""focus"",""80"",""696371""
""blur"",""80"",""697669""
""focus"",""80"",""700897""
""blur"",""80"",""703481""
""focus"",""80"",""705369""
","""event"",""trial"",""time""
""blur"",""53"",""537468""
""blur"",""80"",""691750""
""blur"",""80"",""695518""
""blur"",""80"",""697669""
""blur"",""80"",""703481""
","""event"",""trial"",""time""
""focus"",""1"",""3213""
""focus"",""54"",""541634""
""focus"",""80"",""694762""
""focus"",""80"",""696371""
""focus"",""80"",""700897""
""focus"",""80"",""705369""
","""event"",""trial"",""time""
""fullscreenenter"",""1"",""4643""
","""event"",""trial"",""time""
""fullscreenexit"",""52"",""535554""
","","","","","","","","","","","","","","","","","","","","","","","","","","",""
"pit-instructions","80","711803","0.0-2.0-16.0","battery-v0.2","","""event"",""trial"",""time""
""focus"",""1"",""3213""
""fullscreenenter"",""1"",""4643""
""fullscreenexit"",""52"",""535554""
""blur"",""53"",""537468""
""focus"",""54"",""541634""
""blur"",""80"",""691750""
""focus"",""80"",""694762""
""blur"",""80"",""695518""
""focus"",""80"",""696371""
""blur"",""80"",""697669""
""focus"",""80"",""700897""
""blur"",""80"",""703481""
""focus"",""80"",""705369""
","""event"",""trial"",""time""
""blur"",""53"",""537468""
""blur"",""80"",""691750""
""blur"",""80"",""695518""
""blur"",""80"",""697669""
""blur"",""80"",""703481""
","""event"",""trial"",""time""
""focus"",""1"",""3213""
""focus"",""54"",""541634""
""focus"",""80"",""694762""
""focus"",""80"",""696371""
""focus"",""80"",""700897""
""focus"",""80"",""705369""
","""event"",""trial"",""time""
""fullscreenenter"",""1"",""4643""
","""event"",""trial"",""time""
""fullscreenexit"",""52"",""535554""
","","[{""page_index"":0,""viewing_time"":6596.300000190735},{""page_index"":1,""viewing_time"":12970.5},{""page_index"":2,""viewing_time"":4944.5},{""page_index"":3,""viewing_time"":4863.899999856949}]","29375.60000014305","","","","","","","","","","","","","","","","","","","","","","","",""
"pit-trial","81","716685","0.0-2.0-17.0-0.0","battery-v0.2","","""event"",""trial"",""time""
""focus"",""1"",""3213""
""fullscreenenter"",""1"",""4643""
""fullscreenexit"",""52"",""535554""
""blur"",""53"",""537468""
""focus"",""54"",""541634""
""blur"",""80"",""691750""
""focus"",""80"",""694762""
""blur"",""80"",""695518""
""focus"",""80"",""696371""
""blur"",""80"",""697669""
""focus"",""80"",""700897""
""blur"",""80"",""703481""
""focus"",""80"",""705369""
","""event"",""trial"",""time""
""blur"",""53"",""537468""
""blur"",""80"",""691750""
""blur"",""80"",""695518""
""blur"",""80"",""697669""
""blur"",""80"",""703481""
","""event"",""trial"",""time""
""focus"",""1"",""3213""
""focus"",""54"",""541634""
""focus"",""80"",""694762""
""focus"",""80"",""696371""
""focus"",""80"",""700897""
""focus"",""80"",""705369""
","""event"",""trial"",""time""
""fullscreenenter"",""1"",""4643""
","""event"",""trial"",""time""
""fullscreenexit"",""52"",""535554""
","","","-1","","","16","7236","3595","&#9789;","elianto","#f73b6a7A"," ","-1","0","-10","[]","0","0","4","","","","","","","",""
"pit-trial","82","719752","0.0-2.0-17.0-1.0","battery-v0.2","","""event"",""trial"",""time""
""focus"",""1"",""3213""
""fullscreenenter"",""1"",""4643""
""fullscreenexit"",""52"",""535554""
""blur"",""53"",""537468""
""focus"",""54"",""541634""
""blur"",""80"",""691750""
""focus"",""80"",""694762""
""blur"",""80"",""695518""
""focus"",""80"",""696371""
""blur"",""80"",""697669""
""focus"",""80"",""700897""
""blur"",""80"",""703481""
""focus"",""80"",""705369""
","""event"",""trial"",""time""
""blur"",""53"",""537468""
""blur"",""80"",""691750""
""blur"",""80"",""695518""
""blur"",""80"",""697669""
""blur"",""80"",""703481""
","""event"",""trial"",""time""
""focus"",""1"",""3213""
""focus"",""54"",""541634""
""focus"",""80"",""694762""
""focus"",""80"",""696371""
""focus"",""80"",""700897""
""focus"",""80"",""705369""
","""event"",""trial"",""time""
""fullscreenenter"",""1"",""4643""
","""event"",""trial"",""time""
""fullscreenexit"",""52"",""535554""
","","","201.5","","","16","7236","3595","&#9789;","elianto","#f73b6a7A"," "," ","1","0","[1056.4000000953674]","1","0","4","","","","","","","",""
"pit-trial","83","722770","0.0-2.0-17.0-2.0","battery-v0.2","","""event"",""trial"",""time""
""focus"",""1"",""3213""
""fullscreenenter"",""1"",""4643""
""fullscreenexit"",""52"",""535554""
""blur"",""53"",""537468""
""focus"",""54"",""541634""
""blur"",""80"",""691750""
""focus"",""80"",""694762""
""blur"",""80"",""695518""
""focus"",""80"",""696371""
""blur"",""80"",""697669""
""focus"",""80"",""700897""
""blur"",""80"",""703481""
""focus"",""80"",""705369""
","""event"",""trial"",""time""
""blur"",""53"",""537468""
""blur"",""80"",""691750""
""blur"",""80"",""695518""
""blur"",""80"",""697669""
""blur"",""80"",""703481""
","""event"",""trial"",""time""
""focus"",""1"",""3213""
""focus"",""54"",""541634""
""focus"",""80"",""694762""
""focus"",""80"",""696371""
""focus"",""80"",""700897""
""focus"",""80"",""705369""
","""event"",""trial"",""time""
""fullscreenenter"",""1"",""4643""
","""event"",""trial"",""time""
""fullscreenexit"",""52"",""535554""
","","","145.79999995231628","","","16","7236","3595","&#9789;","elianto","#f73b6a7A"," "," ","1","0","[1005.7999999523163]","1","0","4","","","","","","","",""
"pit-trial","84","725796","0.0-2.0-17.0-3.0","battery-v0.2","","""event"",""trial"",""time""
""focus"",""1"",""3213""
""fullscreenenter"",""1"",""4643""
""fullscreenexit"",""52"",""535554""
""blur"",""53"",""537468""
""focus"",""54"",""541634""
""blur"",""80"",""691750""
""focus"",""80"",""694762""
""blur"",""80"",""695518""
""focus"",""80"",""696371""
""blur"",""80"",""697669""
""focus"",""80"",""700897""
""blur"",""80"",""703481""
""focus"",""80"",""705369""
","""event"",""trial"",""time""
""blur"",""53"",""537468""
""blur"",""80"",""691750""
""blur"",""80"",""695518""
""blur"",""80"",""697669""
""blur"",""80"",""703481""
","""event"",""trial"",""time""
""focus"",""1"",""3213""
""focus"",""54"",""541634""
""focus"",""80"",""694762""
""focus"",""80"",""696371""
""focus"",""80"",""700897""
""focus"",""80"",""705369""
","""event"",""trial"",""time""
""fullscreenenter"",""1"",""4643""
","""event"",""trial"",""time""
""fullscreenexit"",""52"",""535554""
","","","157.70000004768372","","","16","7236","3595","&#9789;","elianto","#f73b6a7A"," "," ","1","-10","[1011.2000000476837]","1","0","4","","","","","","","",""
"pit-trial","85","728819","0.0-2.0-17.0-4.0","battery-v0.2","","""event"",""trial"",""time""
""focus"",""1"",""3213""
""fullscreenenter"",""1"",""4643""
""fullscreenexit"",""52"",""535554""
""blur"",""53"",""537468""
""focus"",""54"",""541634""
""blur"",""80"",""691750""
""focus"",""80"",""694762""
""blur"",""80"",""695518""
""focus"",""80"",""696371""
""blur"",""80"",""697669""
""focus"",""80"",""700897""
""blur"",""80"",""703481""
""focus"",""80"",""705369""
","""event"",""trial"",""time""
""blur"",""53"",""537468""
""blur"",""80"",""691750""
""blur"",""80"",""695518""
""blur"",""80"",""697669""
""blur"",""80"",""703481""
","""event"",""trial"",""time""
""focus"",""1"",""3213""
""focus"",""54"",""541634""
""focus"",""80"",""694762""
""focus"",""80"",""696371""
""focus"",""80"",""700897""
""focus"",""80"",""705369""
","""event"",""trial"",""time""
""fullscreenenter"",""1"",""4643""
","""event"",""trial"",""time""
""fullscreenexit"",""52"",""535554""
","","","157.70000004768372","","","16","7236","3595","&#9789;","elianto","#f73b6a7A"," "," ","1","0","[1008.8999998569489]","1","0","4","","","","","","","",""
"pit-trial","86","731895","0.0-2.0-17.1-0.1","battery-v0.2","","""event"",""trial"",""time""
""focus"",""1"",""3213""
""fullscreenenter"",""1"",""4643""
""fullscreenexit"",""52"",""535554""
""blur"",""53"",""537468""
""focus"",""54"",""541634""
""blur"",""80"",""691750""
""focus"",""80"",""694762""
""blur"",""80"",""695518""
""focus"",""80"",""696371""
""blur"",""80"",""697669""
""focus"",""80"",""700897""
""blur"",""80"",""703481""
""focus"",""80"",""705369""
","""event"",""trial"",""time""
""blur"",""53"",""537468""
""blur"",""80"",""691750""
""blur"",""80"",""695518""
""blur"",""80"",""697669""
""blur"",""80"",""703481""
","""event"",""trial"",""time""
""focus"",""1"",""3213""
""focus"",""54"",""541634""
""focus"",""80"",""694762""
""focus"",""80"",""696371""
""focus"",""80"",""700897""
""focus"",""80"",""705369""
","""event"",""trial"",""time""
""fullscreenenter"",""1"",""4643""
","""event"",""trial"",""time""
""fullscreenexit"",""52"",""535554""
","","","207.5","","","16","7236","3595","&#9789;","elianto","#f73b6a7A"," "," ","1","0","[1065.2999999523163]","1","0","4","","","","","","","",""
"pit-trial","87","734986","0.0-2.0-17.1-1.1","battery-v0.2","","""event"",""trial"",""time""
""focus"",""1"",""3213""
""fullscreenenter"",""1"",""4643""
""fullscreenexit"",""52"",""535554""
""blur"",""53"",""537468""
""focus"",""54"",""541634""
""blur"",""80"",""691750""
""focus"",""80"",""694762""
""blur"",""80"",""695518""
""focus"",""80"",""696371""
""blur"",""80"",""697669""
""focus"",""80"",""700897""
""blur"",""80"",""703481""
""focus"",""80"",""705369""
","""event"",""trial"",""time""
""blur"",""53"",""537468""
""blur"",""80"",""691750""
""blur"",""80"",""695518""
""blur"",""80"",""697669""
""blur"",""80"",""703481""
","""event"",""trial"",""time""
""focus"",""1"",""3213""
""focus"",""54"",""541634""
""focus"",""80"",""694762""
""focus"",""80"",""696371""
""focus"",""80"",""700897""
""focus"",""80"",""705369""
","""event"",""trial"",""time""
""fullscreenenter"",""1"",""4643""
","""event"",""trial"",""time""
""fullscreenexit"",""52"",""535554""
","","","214.20000004768372","","","16","7236","3595","&#9789;","elianto","#f73b6a7A"," "," ","1","0","[1067.7000000476837]","1","0","4","","","","","","","",""
"pit-trial","88","737965","0.0-2.0-17.1-2.1","battery-v0.2","","""event"",""trial"",""time""
""focus"",""1"",""3213""
""fullscreenenter"",""1"",""4643""
""fullscreenexit"",""52"",""535554""
""blur"",""53"",""537468""
""focus"",""54"",""541634""
""blur"",""80"",""691750""
""focus"",""80"",""694762""
""blur"",""80"",""695518""
""focus"",""80"",""696371""
""blur"",""80"",""697669""
""focus"",""80"",""700897""
""blur"",""80"",""703481""
""focus"",""80"",""705369""
","""event"",""trial"",""time""
""blur"",""53"",""537468""
""blur"",""80"",""691750""
""blur"",""80"",""695518""
""blur"",""80"",""697669""
""blur"",""80"",""703481""
","""event"",""trial"",""time""
""focus"",""1"",""3213""
""focus"",""54"",""541634""
""focus"",""80"",""694762""
""focus"",""80"",""696371""
""focus"",""80"",""700897""
""focus"",""80"",""705369""
","""event"",""trial"",""time""
""fullscreenenter"",""1"",""4643""
","""event"",""trial"",""time""
""fullscreenexit"",""52"",""535554""
","","","108.5","","","16","7236","3595","&#9789;","elianto","#f73b6a7A"," "," ","1","0","[474.7999999523163,779.7999999523163,962.5999999046326,1138.5,1306.5]","5","0","4","","","","","","","",""
"pit-trial","89","740976","0.0-2.0-17.1-3.1","battery-v0.2","","""event"",""trial"",""time""
""focus"",""1"",""3213""
""fullscreenenter"",""1"",""4643""
""fullscreenexit"",""52"",""535554""
""blur"",""53"",""537468""
""focus"",""54"",""541634""
""blur"",""80"",""691750""
""focus"",""80"",""694762""
""blur"",""80"",""695518""
""focus"",""80"",""696371""
""blur"",""80"",""697669""
""focus"",""80"",""700897""
""blur"",""80"",""703481""
""focus"",""80"",""705369""
","""event"",""trial"",""time""
""blur"",""53"",""537468""
""blur"",""80"",""691750""
""blur"",""80"",""695518""
""blur"",""80"",""697669""
""blur"",""80"",""703481""
","""event"",""trial"",""time""
""focus"",""1"",""3213""
""focus"",""54"",""541634""
""focus"",""80"",""694762""
""focus"",""80"",""696371""
""focus"",""80"",""700897""
""focus"",""80"",""705369""
","""event"",""trial"",""time""
""fullscreenenter"",""1"",""4643""
","""event"",""trial"",""time""
""fullscreenexit"",""52"",""535554""
","","","148.79999995231628","","","16","7236","3595","&#9789;","elianto","#f73b6a7A"," "," ","1","-10","[1000.9000000953674]","1","0","4","","","","","","","",""
"pit-trial","90","744059","0.0-2.0-17.1-4.1","battery-v0.2","","""event"",""trial"",""time""
""focus"",""1"",""3213""
""fullscreenenter"",""1"",""4643""
""fullscreenexit"",""52"",""535554""
""blur"",""53"",""537468""
""focus"",""54"",""541634""
""blur"",""80"",""691750""
""focus"",""80"",""694762""
""blur"",""80"",""695518""
""focus"",""80"",""696371""
""blur"",""80"",""697669""
""focus"",""80"",""700897""
""blur"",""80"",""703481""
""focus"",""80"",""705369""
","""event"",""trial"",""time""
""blur"",""53"",""537468""
""blur"",""80"",""691750""
""blur"",""80"",""695518""
""blur"",""80"",""697669""
""blur"",""80"",""703481""
","""event"",""trial"",""time""
""focus"",""1"",""3213""
""focus"",""54"",""541634""
""focus"",""80"",""694762""
""focus"",""80"",""696371""
""focus"",""80"",""700897""
""focus"",""80"",""705369""
","""event"",""trial"",""time""
""fullscreenenter"",""1"",""4643""
","""event"",""trial"",""time""
""fullscreenexit"",""52"",""535554""
","","","225","","","16","7236","3595","&#9789;","elianto","#f73b6a7A"," "," ","1","0","[1076.6999998092651]","1","0","4","","","","","","","",""
"pit-trial","91","747379","0.0-2.0-17.2-0.2","battery-v0.2","","""event"",""trial"",""time""
""focus"",""1"",""3213""
""fullscreenenter"",""1"",""4643""
""fullscreenexit"",""52"",""535554""
""blur"",""53"",""537468""
""focus"",""54"",""541634""
""blur"",""80"",""691750""
""focus"",""80"",""694762""
""blur"",""80"",""695518""
""focus"",""80"",""696371""
""blur"",""80"",""697669""
""focus"",""80"",""700897""
""blur"",""80"",""703481""
""focus"",""80"",""705369""
","""event"",""trial"",""time""
""blur"",""53"",""537468""
""blur"",""80"",""691750""
""blur"",""80"",""695518""
""blur"",""80"",""697669""
""blur"",""80"",""703481""
","""event"",""trial"",""time""
""focus"",""1"",""3213""
""focus"",""54"",""541634""
""focus"",""80"",""694762""
""focus"",""80"",""696371""
""focus"",""80"",""700897""
""focus"",""80"",""705369""
","""event"",""trial"",""time""
""fullscreenenter"",""1"",""4643""
","""event"",""trial"",""time""
""fullscreenexit"",""52"",""535554""
","","","463.40000009536743","","","16","7236","3595","&#9789;","elianto","#f73b6a7A"," "," ","1","0","[1313.6000001430511]","1","0","4","","","","","","","",""
"pit-trial","92","750483","0.0-2.0-17.2-1.2","battery-v0.2","","""event"",""trial"",""time""
""focus"",""1"",""3213""
""fullscreenenter"",""1"",""4643""
""fullscreenexit"",""52"",""535554""
""blur"",""53"",""537468""
""focus"",""54"",""541634""
""blur"",""80"",""691750""
""focus"",""80"",""694762""
""blur"",""80"",""695518""
""focus"",""80"",""696371""
""blur"",""80"",""697669""
""focus"",""80"",""700897""
""blur"",""80"",""703481""
""focus"",""80"",""705369""
","""event"",""trial"",""time""
""blur"",""53"",""537468""
""blur"",""80"",""691750""
""blur"",""80"",""695518""
""blur"",""80"",""697669""
""blur"",""80"",""703481""
","""event"",""trial"",""time""
""focus"",""1"",""3213""
""focus"",""54"",""541634""
""focus"",""80"",""694762""
""focus"",""80"",""696371""
""focus"",""80"",""700897""
""focus"",""80"",""705369""
","""event"",""trial"",""time""
""fullscreenenter"",""1"",""4643""
","""event"",""trial"",""time""
""fullscreenexit"",""52"",""535554""
","","","247","","","16","7236","3595","&#9789;","elianto","#f73b6a7A"," "," ","1","0","[1098.2000000476837]","1","0","4","","","","","","","",""
"pit-trial","93","753508","0.0-2.0-17.2-2.2","battery-v0.2","","""event"",""trial"",""time""
""focus"",""1"",""3213""
""fullscreenenter"",""1"",""4643""
""fullscreenexit"",""52"",""535554""
""blur"",""53"",""537468""
""focus"",""54"",""541634""
""blur"",""80"",""691750""
""focus"",""80"",""694762""
""blur"",""80"",""695518""
""focus"",""80"",""696371""
""blur"",""80"",""697669""
""focus"",""80"",""700897""
""blur"",""80"",""703481""
""focus"",""80"",""705369""
","""event"",""trial"",""time""
""blur"",""53"",""537468""
""blur"",""80"",""691750""
""blur"",""80"",""695518""
""blur"",""80"",""697669""
""blur"",""80"",""703481""
","""event"",""trial"",""time""
""focus"",""1"",""3213""
""focus"",""54"",""541634""
""focus"",""80"",""694762""
""focus"",""80"",""696371""
""focus"",""80"",""700897""
""focus"",""80"",""705369""
","""event"",""trial"",""time""
""fullscreenenter"",""1"",""4643""
","""event"",""trial"",""time""
""fullscreenexit"",""52"",""535554""
","","","168.10000014305115","","","16","7236","3595","&#9789;","elianto","#f73b6a7A"," "," ","1","0","[1018.2999999523163]","1","0","4","","","","","","","",""
"pit-trial","94","756555","0.0-2.0-17.2-3.2","battery-v0.2","","""event"",""trial"",""time""
""focus"",""1"",""3213""
""fullscreenenter"",""1"",""4643""
""fullscreenexit"",""52"",""535554""
""blur"",""53"",""537468""
""focus"",""54"",""541634""
""blur"",""80"",""691750""
""focus"",""80"",""694762""
""blur"",""80"",""695518""
""focus"",""80"",""696371""
""blur"",""80"",""697669""
""focus"",""80"",""700897""
""blur"",""80"",""703481""
""focus"",""80"",""705369""
","""event"",""trial"",""time""
""blur"",""53"",""537468""
""blur"",""80"",""691750""
""blur"",""80"",""695518""
""blur"",""80"",""697669""
""blur"",""80"",""703481""
","""event"",""trial"",""time""
""focus"",""1"",""3213""
""focus"",""54"",""541634""
""focus"",""80"",""694762""
""focus"",""80"",""696371""
""focus"",""80"",""700897""
""focus"",""80"",""705369""
","""event"",""trial"",""time""
""fullscreenenter"",""1"",""4643""
","""event"",""trial"",""time""
""fullscreenexit"",""52"",""535554""
","","","189.19999980926514","","","16","7236","3595","&#9789;","elianto","#f73b6a7A"," "," ","1","-10","[1040.1999998092651]","1","0","4","","","","","","","",""
"pit-trial","95","761331","0.0-2.0-17.2-4.2","battery-v0.2","","""event"",""trial"",""time""
""focus"",""1"",""3213""
""fullscreenenter"",""1"",""4643""
""fullscreenexit"",""52"",""535554""
""blur"",""53"",""537468""
""focus"",""54"",""541634""
""blur"",""80"",""691750""
""focus"",""80"",""694762""
""blur"",""80"",""695518""
""focus"",""80"",""696371""
""blur"",""80"",""697669""
""focus"",""80"",""700897""
""blur"",""80"",""703481""
""focus"",""80"",""705369""
","""event"",""trial"",""time""
""blur"",""53"",""537468""
""blur"",""80"",""691750""
""blur"",""80"",""695518""
""blur"",""80"",""697669""
""blur"",""80"",""703481""
","""event"",""trial"",""time""
""focus"",""1"",""3213""
""focus"",""54"",""541634""
""focus"",""80"",""694762""
""focus"",""80"",""696371""
""focus"",""80"",""700897""
""focus"",""80"",""705369""
","""event"",""trial"",""time""
""fullscreenenter"",""1"",""4643""
","""event"",""trial"",""time""
""fullscreenexit"",""52"",""535554""
","","","1919.4000000953674","","","16","7236","3595","&#9789;","elianto","#f73b6a7A"," "," ","1","0","[2770.2000000476837]","1","0","4","","","","","","","",""
"pit-trial","96","764395","0.0-2.0-17.3-0.3","battery-v0.2","","""event"",""trial"",""time""
""focus"",""1"",""3213""
""fullscreenenter"",""1"",""4643""
""fullscreenexit"",""52"",""535554""
""blur"",""53"",""537468""
""focus"",""54"",""541634""
""blur"",""80"",""691750""
""focus"",""80"",""694762""
""blur"",""80"",""695518""
""focus"",""80"",""696371""
""blur"",""80"",""697669""
""focus"",""80"",""700897""
""blur"",""80"",""703481""
""focus"",""80"",""705369""
","""event"",""trial"",""time""
""blur"",""53"",""537468""
""blur"",""80"",""691750""
""blur"",""80"",""695518""
""blur"",""80"",""697669""
""blur"",""80"",""703481""
","""event"",""trial"",""time""
""focus"",""1"",""3213""
""focus"",""54"",""541634""
""focus"",""80"",""694762""
""focus"",""80"",""696371""
""focus"",""80"",""700897""
""focus"",""80"",""705369""
","""event"",""trial"",""time""
""fullscreenenter"",""1"",""4643""
","""event"",""trial"",""time""
""fullscreenexit"",""52"",""535554""
","","","204.79999995231628","","","16","7236","3595","&#9789;","elianto","#f73b6a7A"," "," ","1","0","[1055.5999999046326]","1","0","4","","","","","","","",""
"pit-trial","97","767491","0.0-2.0-17.3-1.3","battery-v0.2","","""event"",""trial"",""time""
""focus"",""1"",""3213""
""fullscreenenter"",""1"",""4643""
""fullscreenexit"",""52"",""535554""
""blur"",""53"",""537468""
""focus"",""54"",""541634""
""blur"",""80"",""691750""
""focus"",""80"",""694762""
""blur"",""80"",""695518""
""focus"",""80"",""696371""
""blur"",""80"",""697669""
""focus"",""80"",""700897""
""blur"",""80"",""703481""
""focus"",""80"",""705369""
","""event"",""trial"",""time""
""blur"",""53"",""537468""
""blur"",""80"",""691750""
""blur"",""80"",""695518""
""blur"",""80"",""697669""
""blur"",""80"",""703481""
","""event"",""trial"",""time""
""focus"",""1"",""3213""
""focus"",""54"",""541634""
""focus"",""80"",""694762""
""focus"",""80"",""696371""
""focus"",""80"",""700897""
""focus"",""80"",""705369""
","""event"",""trial"",""time""
""fullscreenenter"",""1"",""4643""
","""event"",""trial"",""time""
""fullscreenexit"",""52"",""535554""
","","","236.79999995231628","","","16","7236","3595","&#9789;","elianto","#f73b6a7A"," "," ","1","0","[1089.0999999046326]","1","0","4","","","","","","","",""
"pit-trial","98","770731","0.0-2.0-17.3-2.3","battery-v0.2","","""event"",""trial"",""time""
""focus"",""1"",""3213""
""fullscreenenter"",""1"",""4643""
""fullscreenexit"",""52"",""535554""
""blur"",""53"",""537468""
""focus"",""54"",""541634""
""blur"",""80"",""691750""
""focus"",""80"",""694762""
""blur"",""80"",""695518""
""focus"",""80"",""696371""
""blur"",""80"",""697669""
""focus"",""80"",""700897""
""blur"",""80"",""703481""
""focus"",""80"",""705369""
","""event"",""trial"",""time""
""blur"",""53"",""537468""
""blur"",""80"",""691750""
""blur"",""80"",""695518""
""blur"",""80"",""697669""
""blur"",""80"",""703481""
","""event"",""trial"",""time""
""focus"",""1"",""3213""
""focus"",""54"",""541634""
""focus"",""80"",""694762""
""focus"",""80"",""696371""
""focus"",""80"",""700897""
""focus"",""80"",""705369""
","""event"",""trial"",""time""
""fullscreenenter"",""1"",""4643""
","""event"",""trial"",""time""
""fullscreenexit"",""52"",""535554""
","","","382.2000000476837","","","16","7236","3595","&#9789;","elianto","#f73b6a7A"," "," ","1","0","[1233.5]","1","0","4","","","","","","","",""
"pit-trial","99","773899","0.0-2.0-17.3-3.3","battery-v0.2","","""event"",""trial"",""time""
""focus"",""1"",""3213""
""fullscreenenter"",""1"",""4643""
""fullscreenexit"",""52"",""535554""
""blur"",""53"",""537468""
""focus"",""54"",""541634""
""blur"",""80"",""691750""
""focus"",""80"",""694762""
""blur"",""80"",""695518""
""focus"",""80"",""696371""
""blur"",""80"",""697669""
""focus"",""80"",""700897""
""blur"",""80"",""703481""
""focus"",""80"",""705369""
","""event"",""trial"",""time""
""blur"",""53"",""537468""
""blur"",""80"",""691750""
""blur"",""80"",""695518""
""blur"",""80"",""697669""
""blur"",""80"",""703481""
","""event"",""trial"",""time""
""focus"",""1"",""3213""
""focus"",""54"",""541634""
""focus"",""80"",""694762""
""focus"",""80"",""696371""
""focus"",""80"",""700897""
""focus"",""80"",""705369""
","""event"",""trial"",""time""
""fullscreenenter"",""1"",""4643""
","""event"",""trial"",""time""
""fullscreenexit"",""52"",""535554""
","","","309.90000009536743","","","16","7236","3595","&#9789;","elianto","#f73b6a7A"," "," ","1","-10","[1161]","1","0","4","","","","","","","",""
"pit-trial","100","776931","0.0-2.0-17.3-4.3","battery-v0.2","","""event"",""trial"",""time""
""focus"",""1"",""3213""
""fullscreenenter"",""1"",""4643""
""fullscreenexit"",""52"",""535554""
""blur"",""53"",""537468""
""focus"",""54"",""541634""
""blur"",""80"",""691750""
""focus"",""80"",""694762""
""blur"",""80"",""695518""
""focus"",""80"",""696371""
""blur"",""80"",""697669""
""focus"",""80"",""700897""
""blur"",""80"",""703481""
""focus"",""80"",""705369""
","""event"",""trial"",""time""
""blur"",""53"",""537468""
""blur"",""80"",""691750""
""blur"",""80"",""695518""
""blur"",""80"",""697669""
""blur"",""80"",""703481""
","""event"",""trial"",""time""
""focus"",""1"",""3213""
""focus"",""54"",""541634""
""focus"",""80"",""694762""
""focus"",""80"",""696371""
""focus"",""80"",""700897""
""focus"",""80"",""705369""
","""event"",""trial"",""time""
""fullscreenenter"",""1"",""4643""
","""event"",""trial"",""time""
""fullscreenexit"",""52"",""535554""
","","","170.59999990463257","","","16","7236","3595","&#9789;","elianto","#f73b6a7A"," "," ","1","0","[1022.7000000476837]","1","0","4","","","","","","","",""
"call-function","101","776938","0.0-2.0-18.0","battery-v0.2","","""event"",""trial"",""time""
""focus"",""1"",""3213""
""fullscreenenter"",""1"",""4643""
""fullscreenexit"",""52"",""535554""
""blur"",""53"",""537468""
""focus"",""54"",""541634""
""blur"",""80"",""691750""
""focus"",""80"",""694762""
""blur"",""80"",""695518""
""focus"",""80"",""696371""
""blur"",""80"",""697669""
""focus"",""80"",""700897""
""blur"",""80"",""703481""
""focus"",""80"",""705369""
","""event"",""trial"",""time""
""blur"",""53"",""537468""
""blur"",""80"",""691750""
""blur"",""80"",""695518""
""blur"",""80"",""697669""
""blur"",""80"",""703481""
","""event"",""trial"",""time""
""focus"",""1"",""3213""
""focus"",""54"",""541634""
""focus"",""80"",""694762""
""focus"",""80"",""696371""
""focus"",""80"",""700897""
""focus"",""80"",""705369""
","""event"",""trial"",""time""
""fullscreenenter"",""1"",""4643""
","""event"",""trial"",""time""
""fullscreenexit"",""52"",""535554""
","","","","","","","","","","","","","","","","","","","","","","","","","","",""
"pit-instructions","102","839287","0.0-2.0-19.0","battery-v0.2","","""event"",""trial"",""time""
""focus"",""1"",""3213""
""fullscreenenter"",""1"",""4643""
""fullscreenexit"",""52"",""535554""
""blur"",""53"",""537468""
""focus"",""54"",""541634""
""blur"",""80"",""691750""
""focus"",""80"",""694762""
""blur"",""80"",""695518""
""focus"",""80"",""696371""
""blur"",""80"",""697669""
""focus"",""80"",""700897""
""blur"",""80"",""703481""
""focus"",""80"",""705369""
","""event"",""trial"",""time""
""blur"",""53"",""537468""
""blur"",""80"",""691750""
""blur"",""80"",""695518""
""blur"",""80"",""697669""
""blur"",""80"",""703481""
","""event"",""trial"",""time""
""focus"",""1"",""3213""
""focus"",""54"",""541634""
""focus"",""80"",""694762""
""focus"",""80"",""696371""
""focus"",""80"",""700897""
""focus"",""80"",""705369""
","""event"",""trial"",""time""
""fullscreenenter"",""1"",""4643""
","""event"",""trial"",""time""
""fullscreenexit"",""52"",""535554""
","","[{""page_index"":0,""viewing_time"":6690.799999952316},{""page_index"":1,""viewing_time"":6102.100000143051},{""page_index"":2,""viewing_time"":9070.099999904633},{""page_index"":3,""viewing_time"":9927.299999952316},{""page_index"":4,""viewing_time"":6731},{""page_index"":5,""viewing_time"":9447.100000143051},{""page_index"":6,""viewing_time"":7145.699999809265},{""page_index"":7,""viewing_time"":4096.100000143051},{""page_index"":8,""viewing_time"":3137.7999999523163}]","62348.299999952316","","","","","","","","","","","","","","","","","","","","","","","",""
"pit-comprehension","103","843461","0.0-2.0-20.0-0.0","battery-v0.2","","""event"",""trial"",""time""
""focus"",""1"",""3213""
""fullscreenenter"",""1"",""4643""
""fullscreenexit"",""52"",""535554""
""blur"",""53"",""537468""
""focus"",""54"",""541634""
""blur"",""80"",""691750""
""focus"",""80"",""694762""
""blur"",""80"",""695518""
""focus"",""80"",""696371""
""blur"",""80"",""697669""
""focus"",""80"",""700897""
""blur"",""80"",""703481""
""focus"",""80"",""705369""
","""event"",""trial"",""time""
""blur"",""53"",""537468""
""blur"",""80"",""691750""
""blur"",""80"",""695518""
""blur"",""80"",""697669""
""blur"",""80"",""703481""
","""event"",""trial"",""time""
""focus"",""1"",""3213""
""focus"",""54"",""541634""
""focus"",""80"",""694762""
""focus"",""80"",""696371""
""focus"",""80"",""700897""
""focus"",""80"",""705369""
","""event"",""trial"",""time""
""fullscreenenter"",""1"",""4643""
","""event"",""trial"",""time""
""fullscreenexit"",""52"",""535554""
","","","4165.599999904633","[""SPACE""]","0","16","7236","3595","","","","","","","","","","","","","","","","","","",""
"pit-instructions","104","845701","0.0-2.0-20.0-1.0","battery-v0.2","","""event"",""trial"",""time""
""focus"",""1"",""3213""
""fullscreenenter"",""1"",""4643""
""fullscreenexit"",""52"",""535554""
""blur"",""53"",""537468""
""focus"",""54"",""541634""
""blur"",""80"",""691750""
""focus"",""80"",""694762""
""blur"",""80"",""695518""
""focus"",""80"",""696371""
""blur"",""80"",""697669""
""focus"",""80"",""700897""
""blur"",""80"",""703481""
""focus"",""80"",""705369""
","""event"",""trial"",""time""
""blur"",""53"",""537468""
""blur"",""80"",""691750""
""blur"",""80"",""695518""
""blur"",""80"",""697669""
""blur"",""80"",""703481""
","""event"",""trial"",""time""
""focus"",""1"",""3213""
""focus"",""54"",""541634""
""focus"",""80"",""694762""
""focus"",""80"",""696371""
""focus"",""80"",""700897""
""focus"",""80"",""705369""
","""event"",""trial"",""time""
""fullscreenenter"",""1"",""4643""
","""event"",""trial"",""time""
""fullscreenexit"",""52"",""535554""
","","[{""page_index"":0,""viewing_time"":2162.7000000476837}]","2163.0999999046326","","","","","","","","","","","","","","","","","","","","","","","",""
"pit-comprehension","105","850505","0.0-2.0-21.0-0.0","battery-v0.2","","""event"",""trial"",""time""
""focus"",""1"",""3213""
""fullscreenenter"",""1"",""4643""
""fullscreenexit"",""52"",""535554""
""blur"",""53"",""537468""
""focus"",""54"",""541634""
""blur"",""80"",""691750""
""focus"",""80"",""694762""
""blur"",""80"",""695518""
""focus"",""80"",""696371""
""blur"",""80"",""697669""
""focus"",""80"",""700897""
""blur"",""80"",""703481""
""focus"",""80"",""705369""
","""event"",""trial"",""time""
""blur"",""53"",""537468""
""blur"",""80"",""691750""
""blur"",""80"",""695518""
""blur"",""80"",""697669""
""blur"",""80"",""703481""
","""event"",""trial"",""time""
""focus"",""1"",""3213""
""focus"",""54"",""541634""
""focus"",""80"",""694762""
""focus"",""80"",""696371""
""focus"",""80"",""700897""
""focus"",""80"",""705369""
","""event"",""trial"",""time""
""fullscreenenter"",""1"",""4643""
","""event"",""trial"",""time""
""fullscreenexit"",""52"",""535554""
","","","4794.799999952316","[""10""]","0","16","7236","3595","","","","","","","","","","","","","","","","","","",""
"pit-instructions","106","852085","0.0-2.0-21.0-1.0","battery-v0.2","","""event"",""trial"",""time""
""focus"",""1"",""3213""
""fullscreenenter"",""1"",""4643""
""fullscreenexit"",""52"",""535554""
""blur"",""53"",""537468""
""focus"",""54"",""541634""
""blur"",""80"",""691750""
""focus"",""80"",""694762""
""blur"",""80"",""695518""
""focus"",""80"",""696371""
""blur"",""80"",""697669""
""focus"",""80"",""700897""
""blur"",""80"",""703481""
""focus"",""80"",""705369""
","""event"",""trial"",""time""
""blur"",""53"",""537468""
""blur"",""80"",""691750""
""blur"",""80"",""695518""
""blur"",""80"",""697669""
""blur"",""80"",""703481""
","""event"",""trial"",""time""
""focus"",""1"",""3213""
""focus"",""54"",""541634""
""focus"",""80"",""694762""
""focus"",""80"",""696371""
""focus"",""80"",""700897""
""focus"",""80"",""705369""
","""event"",""trial"",""time""
""fullscreenenter"",""1"",""4643""
","""event"",""trial"",""time""
""fullscreenexit"",""52"",""535554""
","","[{""page_index"":0,""viewing_time"":1505}]","1505.2999999523163","","","","","","","","","","","","","","","","","","","","","","","",""
"pit-comprehension","107","858257","0.0-2.0-22.0-0.0","battery-v0.2","","""event"",""trial"",""time""
""focus"",""1"",""3213""
""fullscreenenter"",""1"",""4643""
""fullscreenexit"",""52"",""535554""
""blur"",""53"",""537468""
""focus"",""54"",""541634""
""blur"",""80"",""691750""
""focus"",""80"",""694762""
""blur"",""80"",""695518""
""focus"",""80"",""696371""
""blur"",""80"",""697669""
""focus"",""80"",""700897""
""blur"",""80"",""703481""
""focus"",""80"",""705369""
","""event"",""trial"",""time""
""blur"",""53"",""537468""
""blur"",""80"",""691750""
""blur"",""80"",""695518""
""blur"",""80"",""697669""
""blur"",""80"",""703481""
","""event"",""trial"",""time""
""focus"",""1"",""3213""
""focus"",""54"",""541634""
""focus"",""80"",""694762""
""focus"",""80"",""696371""
""focus"",""80"",""700897""
""focus"",""80"",""705369""
","""event"",""trial"",""time""
""fullscreenenter"",""1"",""4643""
","""event"",""trial"",""time""
""fullscreenexit"",""52"",""535554""
","","","6163.5","[""0""]","0","16","7236","3595","","","","","","","","","","","","","","","","","","",""
"pit-instructions","108","859575","0.0-2.0-22.0-1.0","battery-v0.2","","""event"",""trial"",""time""
""focus"",""1"",""3213""
""fullscreenenter"",""1"",""4643""
""fullscreenexit"",""52"",""535554""
""blur"",""53"",""537468""
""focus"",""54"",""541634""
""blur"",""80"",""691750""
""focus"",""80"",""694762""
""blur"",""80"",""695518""
""focus"",""80"",""696371""
""blur"",""80"",""697669""
""focus"",""80"",""700897""
""blur"",""80"",""703481""
""focus"",""80"",""705369""
","""event"",""trial"",""time""
""blur"",""53"",""537468""
""blur"",""80"",""691750""
""blur"",""80"",""695518""
""blur"",""80"",""697669""
""blur"",""80"",""703481""
","""event"",""trial"",""time""
""focus"",""1"",""3213""
""focus"",""54"",""541634""
""focus"",""80"",""694762""
""focus"",""80"",""696371""
""focus"",""80"",""700897""
""focus"",""80"",""705369""
","""event"",""trial"",""time""
""fullscreenenter"",""1"",""4643""
","""event"",""trial"",""time""
""fullscreenexit"",""52"",""535554""
","","[{""page_index"":0,""viewing_time"":1245.0999999046326}]","1245.4000000953674","","","","","","","","","","","","","","","","","","","","","","","",""
"pit-comprehension","109","868032","0.0-2.0-23.0-0.0","battery-v0.2","","""event"",""trial"",""time""
""focus"",""1"",""3213""
""fullscreenenter"",""1"",""4643""
""fullscreenexit"",""52"",""535554""
""blur"",""53"",""537468""
""focus"",""54"",""541634""
""blur"",""80"",""691750""
""focus"",""80"",""694762""
""blur"",""80"",""695518""
""focus"",""80"",""696371""
""blur"",""80"",""697669""
""focus"",""80"",""700897""
""blur"",""80"",""703481""
""focus"",""80"",""705369""
","""event"",""trial"",""time""
""blur"",""53"",""537468""
""blur"",""80"",""691750""
""blur"",""80"",""695518""
""blur"",""80"",""697669""
""blur"",""80"",""703481""
","""event"",""trial"",""time""
""focus"",""1"",""3213""
""focus"",""54"",""541634""
""focus"",""80"",""694762""
""focus"",""80"",""696371""
""focus"",""80"",""700897""
""focus"",""80"",""705369""
","""event"",""trial"",""time""
""fullscreenenter"",""1"",""4643""
","""event"",""trial"",""time""
""fullscreenexit"",""52"",""535554""
","","","8449.100000143051","[""True""]","0","16","7236","3595","","","","","","","","","","","","","","","","","","",""
"pit-instructions","110","870238","0.0-2.0-23.0-1.0","battery-v0.2","","""event"",""trial"",""time""
""focus"",""1"",""3213""
""fullscreenenter"",""1"",""4643""
""fullscreenexit"",""52"",""535554""
""blur"",""53"",""537468""
""focus"",""54"",""541634""
""blur"",""80"",""691750""
""focus"",""80"",""694762""
""blur"",""80"",""695518""
""focus"",""80"",""696371""
""blur"",""80"",""697669""
""focus"",""80"",""700897""
""blur"",""80"",""703481""
""focus"",""80"",""705369""
","""event"",""trial"",""time""
""blur"",""53"",""537468""
""blur"",""80"",""691750""
""blur"",""80"",""695518""
""blur"",""80"",""697669""
""blur"",""80"",""703481""
","""event"",""trial"",""time""
""focus"",""1"",""3213""
""focus"",""54"",""541634""
""focus"",""80"",""694762""
""focus"",""80"",""696371""
""focus"",""80"",""700897""
""focus"",""80"",""705369""
","""event"",""trial"",""time""
""fullscreenenter"",""1"",""4643""
","""event"",""trial"",""time""
""fullscreenexit"",""52"",""535554""
","","[{""page_index"":0,""viewing_time"":2131.699999809265}]","2132","","","","","","","","","","","","","","","","","","","","","","","",""
"pit-comprehension","111","877446","0.0-2.0-24.0-0.0","battery-v0.2","","""event"",""trial"",""time""
""focus"",""1"",""3213""
""fullscreenenter"",""1"",""4643""
""fullscreenexit"",""52"",""535554""
""blur"",""53"",""537468""
""focus"",""54"",""541634""
""blur"",""80"",""691750""
""focus"",""80"",""694762""
""blur"",""80"",""695518""
""focus"",""80"",""696371""
""blur"",""80"",""697669""
""focus"",""80"",""700897""
""blur"",""80"",""703481""
""focus"",""80"",""705369""
","""event"",""trial"",""time""
""blur"",""53"",""537468""
""blur"",""80"",""691750""
""blur"",""80"",""695518""
""blur"",""80"",""697669""
""blur"",""80"",""703481""
","""event"",""trial"",""time""
""focus"",""1"",""3213""
""focus"",""54"",""541634""
""focus"",""80"",""694762""
""focus"",""80"",""696371""
""focus"",""80"",""700897""
""focus"",""80"",""705369""
","""event"",""trial"",""time""
""fullscreenenter"",""1"",""4643""
","""event"",""trial"",""time""
""fullscreenexit"",""52"",""535554""
","","","7199.299999952316","[""True""]","0","16","7236","3595","","","","","","","","","","","","","","","","","","",""
"pit-instructions","112","879308","0.0-2.0-24.0-1.0","battery-v0.2","","""event"",""trial"",""time""
""focus"",""1"",""3213""
""fullscreenenter"",""1"",""4643""
""fullscreenexit"",""52"",""535554""
""blur"",""53"",""537468""
""focus"",""54"",""541634""
""blur"",""80"",""691750""
""focus"",""80"",""694762""
""blur"",""80"",""695518""
""focus"",""80"",""696371""
""blur"",""80"",""697669""
""focus"",""80"",""700897""
""blur"",""80"",""703481""
""focus"",""80"",""705369""
","""event"",""trial"",""time""
""blur"",""53"",""537468""
""blur"",""80"",""691750""
""blur"",""80"",""695518""
""blur"",""80"",""697669""
""blur"",""80"",""703481""
","""event"",""trial"",""time""
""focus"",""1"",""3213""
""focus"",""54"",""541634""
""focus"",""80"",""694762""
""focus"",""80"",""696371""
""focus"",""80"",""700897""
""focus"",""80"",""705369""
","""event"",""trial"",""time""
""fullscreenenter"",""1"",""4643""
","""event"",""trial"",""time""
""fullscreenexit"",""52"",""535554""
","","[{""page_index"":0,""viewing_time"":1777.4000000953674}]","1777.7999999523163","","","","","","","","","","","","","","","","","","","","","","","",""
"pit-comprehension","113","886129","0.0-2.0-25.0-0.0","battery-v0.2","","""event"",""trial"",""time""
""focus"",""1"",""3213""
""fullscreenenter"",""1"",""4643""
""fullscreenexit"",""52"",""535554""
""blur"",""53"",""537468""
""focus"",""54"",""541634""
""blur"",""80"",""691750""
""focus"",""80"",""694762""
""blur"",""80"",""695518""
""focus"",""80"",""696371""
""blur"",""80"",""697669""
""focus"",""80"",""700897""
""blur"",""80"",""703481""
""focus"",""80"",""705369""
","""event"",""trial"",""time""
""blur"",""53"",""537468""
""blur"",""80"",""691750""
""blur"",""80"",""695518""
""blur"",""80"",""697669""
""blur"",""80"",""703481""
","""event"",""trial"",""time""
""focus"",""1"",""3213""
""focus"",""54"",""541634""
""focus"",""80"",""694762""
""focus"",""80"",""696371""
""focus"",""80"",""700897""
""focus"",""80"",""705369""
","""event"",""trial"",""time""
""fullscreenenter"",""1"",""4643""
","""event"",""trial"",""time""
""fullscreenexit"",""52"",""535554""
","","","6812.799999952316","[""True""]","0","16","7236","3595","","","","","","","","","","","","","","","","","","",""
"pit-instructions","114","887778","0.0-2.0-25.0-1.0","battery-v0.2","","""event"",""trial"",""time""
""focus"",""1"",""3213""
""fullscreenenter"",""1"",""4643""
""fullscreenexit"",""52"",""535554""
""blur"",""53"",""537468""
""focus"",""54"",""541634""
""blur"",""80"",""691750""
""focus"",""80"",""694762""
""blur"",""80"",""695518""
""focus"",""80"",""696371""
""blur"",""80"",""697669""
""focus"",""80"",""700897""
""blur"",""80"",""703481""
""focus"",""80"",""705369""
","""event"",""trial"",""time""
""blur"",""53"",""537468""
""blur"",""80"",""691750""
""blur"",""80"",""695518""
""blur"",""80"",""697669""
""blur"",""80"",""703481""
","""event"",""trial"",""time""
""focus"",""1"",""3213""
""focus"",""54"",""541634""
""focus"",""80"",""694762""
""focus"",""80"",""696371""
""focus"",""80"",""700897""
""focus"",""80"",""705369""
","""event"",""trial"",""time""
""fullscreenenter"",""1"",""4643""
","""event"",""trial"",""time""
""fullscreenexit"",""52"",""535554""
","","[{""page_index"":0,""viewing_time"":1570.2000000476837}]","1570.5","","","","","","","","","","","","","","","","","","","","","","","",""
"pit-comprehension","115","893126","0.0-2.0-26.0-0.0","battery-v0.2","","""event"",""trial"",""time""
""focus"",""1"",""3213""
""fullscreenenter"",""1"",""4643""
""fullscreenexit"",""52"",""535554""
""blur"",""53"",""537468""
""focus"",""54"",""541634""
""blur"",""80"",""691750""
""focus"",""80"",""694762""
""blur"",""80"",""695518""
""focus"",""80"",""696371""
""blur"",""80"",""697669""
""focus"",""80"",""700897""
""blur"",""80"",""703481""
""focus"",""80"",""705369""
","""event"",""trial"",""time""
""blur"",""53"",""537468""
""blur"",""80"",""691750""
""blur"",""80"",""695518""
""blur"",""80"",""697669""
""blur"",""80"",""703481""
","""event"",""trial"",""time""
""focus"",""1"",""3213""
""focus"",""54"",""541634""
""focus"",""80"",""694762""
""focus"",""80"",""696371""
""focus"",""80"",""700897""
""focus"",""80"",""705369""
","""event"",""trial"",""time""
""fullscreenenter"",""1"",""4643""
","""event"",""trial"",""time""
""fullscreenexit"",""52"",""535554""
","","","5340.400000095367","[""False""]","0","16","7236","3595","","","","","","","","","","","","","","","","","","",""
"pit-instructions","116","894882","0.0-2.0-26.0-1.0","battery-v0.2","","""event"",""trial"",""time""
""focus"",""1"",""3213""
""fullscreenenter"",""1"",""4643""
""fullscreenexit"",""52"",""535554""
""blur"",""53"",""537468""
""focus"",""54"",""541634""
""blur"",""80"",""691750""
""focus"",""80"",""694762""
""blur"",""80"",""695518""
""focus"",""80"",""696371""
""blur"",""80"",""697669""
""focus"",""80"",""700897""
""blur"",""80"",""703481""
""focus"",""80"",""705369""
","""event"",""trial"",""time""
""blur"",""53"",""537468""
""blur"",""80"",""691750""
""blur"",""80"",""695518""
""blur"",""80"",""697669""
""blur"",""80"",""703481""
","""event"",""trial"",""time""
""focus"",""1"",""3213""
""focus"",""54"",""541634""
""focus"",""80"",""694762""
""focus"",""80"",""696371""
""focus"",""80"",""700897""
""focus"",""80"",""705369""
","""event"",""trial"",""time""
""fullscreenenter"",""1"",""4643""
","""event"",""trial"",""time""
""fullscreenexit"",""52"",""535554""
","","[{""page_index"":0,""viewing_time"":1666.6999998092651}]","1667","","","","","","","","","","","","","","","","","","","","","","","",""
"pit-instructions","117","912162","0.0-3.0","battery-v0.2","","""event"",""trial"",""time""
""focus"",""1"",""3213""
""fullscreenenter"",""1"",""4643""
""fullscreenexit"",""52"",""535554""
""blur"",""53"",""537468""
""focus"",""54"",""541634""
""blur"",""80"",""691750""
""focus"",""80"",""694762""
""blur"",""80"",""695518""
""focus"",""80"",""696371""
""blur"",""80"",""697669""
""focus"",""80"",""700897""
""blur"",""80"",""703481""
""focus"",""80"",""705369""
","""event"",""trial"",""time""
""blur"",""53"",""537468""
""blur"",""80"",""691750""
""blur"",""80"",""695518""
""blur"",""80"",""697669""
""blur"",""80"",""703481""
","""event"",""trial"",""time""
""focus"",""1"",""3213""
""focus"",""54"",""541634""
""focus"",""80"",""694762""
""focus"",""80"",""696371""
""focus"",""80"",""700897""
""focus"",""80"",""705369""
","""event"",""trial"",""time""
""fullscreenenter"",""1"",""4643""
","""event"",""trial"",""time""
""fullscreenexit"",""52"",""535554""
","","[{""page_index"":0,""viewing_time"":3669.2999999523163},{""page_index"":1,""viewing_time"":6194.700000047684},{""page_index"":2,""viewing_time"":7409}]","17273.200000047684","","","","","","","","","","","","","","","","","","","","","","","",""
"pit-trial","118","915556","0.0-4.0","battery-v0.2","","""event"",""trial"",""time""
""focus"",""1"",""3213""
""fullscreenenter"",""1"",""4643""
""fullscreenexit"",""52"",""535554""
""blur"",""53"",""537468""
""focus"",""54"",""541634""
""blur"",""80"",""691750""
""focus"",""80"",""694762""
""blur"",""80"",""695518""
""focus"",""80"",""696371""
""blur"",""80"",""697669""
""focus"",""80"",""700897""
""blur"",""80"",""703481""
""focus"",""80"",""705369""
","""event"",""trial"",""time""
""blur"",""53"",""537468""
""blur"",""80"",""691750""
""blur"",""80"",""695518""
""blur"",""80"",""697669""
""blur"",""80"",""703481""
","""event"",""trial"",""time""
""focus"",""1"",""3213""
""focus"",""54"",""541634""
""focus"",""80"",""694762""
""focus"",""80"",""696371""
""focus"",""80"",""700897""
""focus"",""80"",""705369""
","""event"",""trial"",""time""
""fullscreenenter"",""1"",""4643""
","""event"",""trial"",""time""
""fullscreenexit"",""52"",""535554""
","","","515.1999998092651","","","16","7236","3595","&#9733;","elianto","#3366ff99","-1"," ","0","0","[1372.3999998569489]","1","1","","","7236","1","2","2","win","no-go","0"
"pit-trial","119","919074","0.0-5.0","battery-v0.2","","""event"",""trial"",""time""
""focus"",""1"",""3213""
""fullscreenenter"",""1"",""4643""
""fullscreenexit"",""52"",""535554""
""blur"",""53"",""537468""
""focus"",""54"",""541634""
""blur"",""80"",""691750""
""focus"",""80"",""694762""
""blur"",""80"",""695518""
""focus"",""80"",""696371""
""blur"",""80"",""697669""
""focus"",""80"",""700897""
""blur"",""80"",""703481""
""focus"",""80"",""705369""
","""event"",""trial"",""time""
""blur"",""53"",""537468""
""blur"",""80"",""691750""
""blur"",""80"",""695518""
""blur"",""80"",""697669""
""blur"",""80"",""703481""
","""event"",""trial"",""time""
""focus"",""1"",""3213""
""focus"",""54"",""541634""
""focus"",""80"",""694762""
""focus"",""80"",""696371""
""focus"",""80"",""700897""
""focus"",""80"",""705369""
","""event"",""trial"",""time""
""fullscreenenter"",""1"",""4643""
","""event"",""trial"",""time""
""fullscreenexit"",""52"",""535554""
","","","657.1999998092651","","","16","7236","3595","&#9730;","elianto","#3366ff99"," "," ","1","+10","[1510.6999998092651]","1","1","","","7236","2","1","1","win","go","0"
"pit-trial","120","923082","0.0-6.0","battery-v0.2","","""event"",""trial"",""time""
""focus"",""1"",""3213""
""fullscreenenter"",""1"",""4643""
""fullscreenexit"",""52"",""535554""
""blur"",""53"",""537468""
""focus"",""54"",""541634""
""blur"",""80"",""691750""
""focus"",""80"",""694762""
""blur"",""80"",""695518""
""focus"",""80"",""696371""
""blur"",""80"",""697669""
""focus"",""80"",""700897""
""blur"",""80"",""703481""
""focus"",""80"",""705369""
","""event"",""trial"",""time""
""blur"",""53"",""537468""
""blur"",""80"",""691750""
""blur"",""80"",""695518""
""blur"",""80"",""697669""
""blur"",""80"",""703481""
","""event"",""trial"",""time""
""focus"",""1"",""3213""
""focus"",""54"",""541634""
""focus"",""80"",""694762""
""focus"",""80"",""696371""
""focus"",""80"",""700897""
""focus"",""80"",""705369""
","""event"",""trial"",""time""
""fullscreenenter"",""1"",""4643""
","""event"",""trial"",""time""
""fullscreenexit"",""52"",""535554""
","","","1141.7999999523163","","","16","7236","3595","&#9752;","elianto","#f73b6a7A"," "," ","1","0","[1992.2000000476837]","1","1","","","7236","3","3","3","lose","go","0"
"pit-trial","121","926367","0.0-7.0","battery-v0.2","","""event"",""trial"",""time""
""focus"",""1"",""3213""
""fullscreenenter"",""1"",""4643""
""fullscreenexit"",""52"",""535554""
""blur"",""53"",""537468""
""focus"",""54"",""541634""
""blur"",""80"",""691750""
""focus"",""80"",""694762""
""blur"",""80"",""695518""
""focus"",""80"",""696371""
""blur"",""80"",""697669""
""focus"",""80"",""700897""
""blur"",""80"",""703481""
""focus"",""80"",""705369""
","""event"",""trial"",""time""
""blur"",""53"",""537468""
""blur"",""80"",""691750""
""blur"",""80"",""695518""
""blur"",""80"",""697669""
""blur"",""80"",""703481""
","""event"",""trial"",""time""
""focus"",""1"",""3213""
""focus"",""54"",""541634""
""focus"",""80"",""694762""
""focus"",""80"",""696371""
""focus"",""80"",""700897""
""focus"",""80"",""705369""
","""event"",""trial"",""time""
""fullscreenenter"",""1"",""4643""
","""event"",""trial"",""time""
""fullscreenexit"",""52"",""535554""
","","","411.90000009536743","","","16","7236","3595","&#9728;","elianto","#f73b6a7A","-1"," ","0","-10","[1272.7000000476837]","1","1","","","7236","4","0","4","lose","no-go","0"
"pit-trial","122","930534","0.0-8.0","battery-v0.2","","""event"",""trial"",""time""
""focus"",""1"",""3213""
""fullscreenenter"",""1"",""4643""
""fullscreenexit"",""52"",""535554""
""blur"",""53"",""537468""
""focus"",""54"",""541634""
""blur"",""80"",""691750""
""focus"",""80"",""694762""
""blur"",""80"",""695518""
""focus"",""80"",""696371""
""blur"",""80"",""697669""
""focus"",""80"",""700897""
""blur"",""80"",""703481""
""focus"",""80"",""705369""
","""event"",""trial"",""time""
""blur"",""53"",""537468""
""blur"",""80"",""691750""
""blur"",""80"",""695518""
""blur"",""80"",""697669""
""blur"",""80"",""703481""
","""event"",""trial"",""time""
""focus"",""1"",""3213""
""focus"",""54"",""541634""
""focus"",""80"",""694762""
""focus"",""80"",""696371""
""focus"",""80"",""700897""
""focus"",""80"",""705369""
","""event"",""trial"",""time""
""fullscreenenter"",""1"",""4643""
","""event"",""trial"",""time""
""fullscreenexit"",""52"",""535554""
","","","1293","","","16","7236","3595","&#9752;","elianto","#f73b6a7A"," "," ","1","0","[2145.699999809265]","1","1","","","7236","5","3","3","lose","go","0"
"pit-trial","123","934598","0.0-9.0","battery-v0.2","","""event"",""trial"",""time""
""focus"",""1"",""3213""
""fullscreenenter"",""1"",""4643""
""fullscreenexit"",""52"",""535554""
""blur"",""53"",""537468""
""focus"",""54"",""541634""
""blur"",""80"",""691750""
""focus"",""80"",""694762""
""blur"",""80"",""695518""
""focus"",""80"",""696371""
""blur"",""80"",""697669""
""focus"",""80"",""700897""
""blur"",""80"",""703481""
""focus"",""80"",""705369""
","""event"",""trial"",""time""
""blur"",""53"",""537468""
""blur"",""80"",""691750""
""blur"",""80"",""695518""
""blur"",""80"",""697669""
""blur"",""80"",""703481""
","""event"",""trial"",""time""
""focus"",""1"",""3213""
""focus"",""54"",""541634""
""focus"",""80"",""694762""
""focus"",""80"",""696371""
""focus"",""80"",""700897""
""focus"",""80"",""705369""
","""event"",""trial"",""time""
""fullscreenenter"",""1"",""4643""
","""event"",""trial"",""time""
""fullscreenexit"",""52"",""535554""
","","","1186.0999999046326","","","16","7236","3595","&#9730;","elianto","#3366ff99"," "," ","1","+10","[2043]","1","1","","","7236","6","1","1","win","go","0"
"pit-trial","124","939474","0.0-10.0","battery-v0.2","","""event"",""trial"",""time""
""focus"",""1"",""3213""
""fullscreenenter"",""1"",""4643""
""fullscreenexit"",""52"",""535554""
""blur"",""53"",""537468""
""focus"",""54"",""541634""
""blur"",""80"",""691750""
""focus"",""80"",""694762""
""blur"",""80"",""695518""
""focus"",""80"",""696371""
""blur"",""80"",""697669""
""focus"",""80"",""700897""
""blur"",""80"",""703481""
""focus"",""80"",""705369""
","""event"",""trial"",""time""
""blur"",""53"",""537468""
""blur"",""80"",""691750""
""blur"",""80"",""695518""
""blur"",""80"",""697669""
""blur"",""80"",""703481""
","""event"",""trial"",""time""
""focus"",""1"",""3213""
""focus"",""54"",""541634""
""focus"",""80"",""694762""
""focus"",""80"",""696371""
""focus"",""80"",""700897""
""focus"",""80"",""705369""
","""event"",""trial"",""time""
""fullscreenenter"",""1"",""4643""
","""event"",""trial"",""time""
""fullscreenexit"",""52"",""535554""
","","","-1","","","16","7236","3595","&#9728;","elianto","#f73b6a7A","-1","-1","1","0","[]","0","1","","","7236","7","0","4","lose","no-go","0"
"pit-trial","125","944344","0.0-11.0","battery-v0.2","","""event"",""trial"",""time""
""focus"",""1"",""3213""
""fullscreenenter"",""1"",""4643""
""fullscreenexit"",""52"",""535554""
""blur"",""53"",""537468""
""focus"",""54"",""541634""
""blur"",""80"",""691750""
""focus"",""80"",""694762""
""blur"",""80"",""695518""
""focus"",""80"",""696371""
""blur"",""80"",""697669""
""focus"",""80"",""700897""
""blur"",""80"",""703481""
""focus"",""80"",""705369""
","""event"",""trial"",""time""
""blur"",""53"",""537468""
""blur"",""80"",""691750""
""blur"",""80"",""695518""
""blur"",""80"",""697669""
""blur"",""80"",""703481""
","""event"",""trial"",""time""
""focus"",""1"",""3213""
""focus"",""54"",""541634""
""focus"",""80"",""694762""
""focus"",""80"",""696371""
""focus"",""80"",""700897""
""focus"",""80"",""705369""
","""event"",""trial"",""time""
""fullscreenenter"",""1"",""4643""
","""event"",""trial"",""time""
""fullscreenexit"",""52"",""535554""
","","","-1","","","16","7236","3595","&#9733;","elianto","#3366ff99","-1","-1","1","+10","[]","0","1","","","7236","8","2","2","win","no-go","0"
"pit-trial","126","947945","0.0-12.0","battery-v0.2","","""event"",""trial"",""time""
""focus"",""1"",""3213""
""fullscreenenter"",""1"",""4643""
""fullscreenexit"",""52"",""535554""
""blur"",""53"",""537468""
""focus"",""54"",""541634""
""blur"",""80"",""691750""
""focus"",""80"",""694762""
""blur"",""80"",""695518""
""focus"",""80"",""696371""
""blur"",""80"",""697669""
""focus"",""80"",""700897""
""blur"",""80"",""703481""
""focus"",""80"",""705369""
","""event"",""trial"",""time""
""blur"",""53"",""537468""
""blur"",""80"",""691750""
""blur"",""80"",""695518""
""blur"",""80"",""697669""
""blur"",""80"",""703481""
","""event"",""trial"",""time""
""focus"",""1"",""3213""
""focus"",""54"",""541634""
""focus"",""80"",""694762""
""focus"",""80"",""696371""
""focus"",""80"",""700897""
""focus"",""80"",""705369""
","""event"",""trial"",""time""
""fullscreenenter"",""1"",""4643""
","""event"",""trial"",""time""
""fullscreenexit"",""52"",""535554""
","","","742.5","","","16","7236","3595","&#9730;","elianto","#3366ff99"," "," ","1","+10","[1594.7000000476837]","1","1","","","7236","9","1","1","win","go","0"
"pit-trial","127","952804","0.0-13.0","battery-v0.2","","""event"",""trial"",""time""
""focus"",""1"",""3213""
""fullscreenenter"",""1"",""4643""
""fullscreenexit"",""52"",""535554""
""blur"",""53"",""537468""
""focus"",""54"",""541634""
""blur"",""80"",""691750""
""focus"",""80"",""694762""
""blur"",""80"",""695518""
""focus"",""80"",""696371""
""blur"",""80"",""697669""
""focus"",""80"",""700897""
""blur"",""80"",""703481""
""focus"",""80"",""705369""
","""event"",""trial"",""time""
""blur"",""53"",""537468""
""blur"",""80"",""691750""
""blur"",""80"",""695518""
""blur"",""80"",""697669""
""blur"",""80"",""703481""
","""event"",""trial"",""time""
""focus"",""1"",""3213""
""focus"",""54"",""541634""
""focus"",""80"",""694762""
""focus"",""80"",""696371""
""focus"",""80"",""700897""
""focus"",""80"",""705369""
","""event"",""trial"",""time""
