"trial_type","trial_index","time_elapsed","internal_node_id","task_version","subject_id","interactions","blur_events","focus_events","fullscreenenter_events","fullscreenexit_events","success","view_history","rt","responses","num_errors","age","subject","participantId","rune","rune_set","hex","correct","choice","accuracy","outcome","keys","total_keys","block","practice","value","sub","trial","stimulus","robot","valence","action","sham"
"pavlovia","0","31","0.0-0.0","battery-v0.2","","""event"",""trial"",""time""
""fullscreenenter"",""1"",""2510""
","
","
","""event"",""trial"",""time""
""fullscreenenter"",""1"",""2510""
","
","","","","","","","","","","","","","","","","","","","","","","","","","","",""
"fullscreen","1","3497","0.0-1.0","battery-v0.2","","""event"",""trial"",""time""
""fullscreenenter"",""1"",""2510""
","
","
","""event"",""trial"",""time""
""fullscreenenter"",""1"",""2510""
","
","true","","","","","","","","","","","","","","","","","","","","","","","","","",""
"pit-instructions","2","8780","0.0-2.0-0.0","battery-v0.2","","""event"",""trial"",""time""
""fullscreenenter"",""1"",""2510""
","
","
","""event"",""trial"",""time""
""fullscreenenter"",""1"",""2510""
","
","","[{""page_index"":0,""viewing_time"":5261.300000000047}]","5264.200000000012","","","","","","","","","","","","","","","","","","","","","","","",""
"pit-comprehension","3","14322","0.0-2.0-1.0-0.0","battery-v0.2","","""event"",""trial"",""time""
""fullscreenenter"",""1"",""2510""
","
","
","""event"",""trial"",""time""
""fullscreenenter"",""1"",""2510""
","
","","","5523.900000000023","[""shark""]","0","15","3568","1984","","","","","","","","","","","","","","","","","","",""
"pit-instructions","4","23711","0.0-2.0-1.0-1.0","battery-v0.2","","""event"",""trial"",""time""
""fullscreenenter"",""1"",""2510""
","
","
","""event"",""trial"",""time""
""fullscreenenter"",""1"",""2510""
","
","","[{""page_index"":0,""viewing_time"":9359.100000000035}]","9360.300000000047","","","","","","","","","","","","","","","","","","","","","","","",""
"pit-comprehension","5","29158","0.0-2.0-2.0-0.0","battery-v0.2","","""event"",""trial"",""time""
""fullscreenenter"",""1"",""2510""
","
","
","""event"",""trial"",""time""
""fullscreenenter"",""1"",""2510""
","
","","","5429.200000000012","[""tiger""]","0","15","3568","1984","","","","","","","","","","","","","","","","","","",""
"pit-instructions","6","30482","0.0-2.0-2.0-1.0","battery-v0.2","","""event"",""trial"",""time""
""fullscreenenter"",""1"",""2510""
","
","
","""event"",""trial"",""time""
""fullscreenenter"",""1"",""2510""
","
","","[{""page_index"":0,""viewing_time"":1310.600000000035}]","1312","","","","","","","","","","","","","","","","","","","","","","","",""
"pit-instructions","7","131970","0.0-2.0-3.0","battery-v0.2","","""event"",""trial"",""time""
""fullscreenenter"",""1"",""2510""
","
","
","""event"",""trial"",""time""
""fullscreenenter"",""1"",""2510""
","
","","[{""page_index"":0,""viewing_time"":8340.700000000012},{""page_index"":1,""viewing_time"":6240.799999999988},{""page_index"":2,""viewing_time"":6266.200000000012},{""page_index"":3,""viewing_time"":8002.700000000012},{""page_index"":4,""viewing_time"":5759.5},{""page_index"":5,""viewing_time"":5790.799999999988},{""page_index"":6,""viewing_time"":8944.599999999977},{""page_index"":7,""viewing_time"":6806.100000000035},{""page_index"":8,""viewing_time"":6345.200000000012},{""page_index"":9,""viewing_time"":10257.5},{""page_index"":10,""viewing_time"":10226.199999999953},{""page_index"":11,""viewing_time"":6612.400000000023},{""page_index"":12,""viewing_time"":7268.200000000012},{""page_index"":13,""viewing_time"":4605.899999999965}]","101468.10000000003","","","","","","","","","","","","","","","","","","","","","","","",""
"pit-trial","8","135841","0.0-2.0-4.0-0.0","battery-v0.2","","""event"",""trial"",""time""
""fullscreenenter"",""1"",""2510""
","
","
","""event"",""trial"",""time""
""fullscreenenter"",""1"",""2510""
","
","","","1010.1000000000349","","","15","3568","1984","&#9784;","elianto","#FFFFF080"," "," ","1","&#10004","[1862.0999999999767]","1","0","0","","","","","","","",""
"pit-trial","9","139568","0.0-2.0-4.1-0.1","battery-v0.2","","""event"",""trial"",""time""
""fullscreenenter"",""1"",""2510""
","
","
","""event"",""trial"",""time""
""fullscreenenter"",""1"",""2510""
","
","","","863.9000000000233","","","15","3568","1984","&#9784;","elianto","#FFFFF080"," "," ","1","&#10004","[1715.7999999999884]","1","0","0","","","","","","","",""
"pit-trial","10","143295","0.0-2.0-4.2-0.2","battery-v0.2","","""event"",""trial"",""time""
""fullscreenenter"",""1"",""2510""
","
","
","""event"",""trial"",""time""
""fullscreenenter"",""1"",""2510""
","
","","","864.9000000000233","","","15","3568","1984","&#9784;","elianto","#FFFFF080"," "," ","1","&#10004","[1718.8000000000466]","1","0","0","","","","","","","",""
"pit-trial","11","146975","0.0-2.0-4.3-0.3","battery-v0.2","","""event"",""trial"",""time""
""fullscreenenter"",""1"",""2510""
","
","
","""event"",""trial"",""time""
""fullscreenenter"",""1"",""2510""
","
","","","817.7999999999884","","","15","3568","1984","&#9784;","elianto","#FFFFF080"," "," ","1","&#10004","[1671.5]","1","0","0","","","","","","","",""
"pit-trial","12","150343","0.0-2.0-4.4-0.4","battery-v0.2","","""event"",""trial"",""time""
""fullscreenenter"",""1"",""2510""
","
","
","""event"",""trial"",""time""
""fullscreenenter"",""1"",""2510""
","
","","","509.70000000001164","","","15","3568","1984","&#9784;","elianto","#FFFFF080"," "," ","1","&#10004","[1362]","1","0","0","","","","","","","",""
"pit-instructions","13","171545","0.0-2.0-5.0","battery-v0.2","","""event"",""trial"",""time""
""fullscreenenter"",""1"",""2510""
","
","
","""event"",""trial"",""time""
""fullscreenenter"",""1"",""2510""
","
","","[{""page_index"":0,""viewing_time"":4761.900000000023},{""page_index"":1,""viewing_time"":5419.399999999965},{""page_index"":2,""viewing_time"":5132},{""page_index"":3,""viewing_time"":5881.400000000023}]","21195.79999999999","","","","","","","","","","","","","","","","","","","","","","","",""
"pit-trial","14","176403","0.0-2.0-6.0-0.0","battery-v0.2","","""event"",""trial"",""time""
""fullscreenenter"",""1"",""2510""
","
","
","""event"",""trial"",""time""
""fullscreenenter"",""1"",""2510""
","
","","","-1","","","15","3568","1984","&#9854;","elianto","#FFFFF080","-1","-1","1","&#10004","[]","0","0","1","","","","","","","",""
"pit-trial","15","181262","0.0-2.0-6.1-0.1","battery-v0.2","","""event"",""trial"",""time""
""fullscreenenter"",""1"",""2510""
","
","
","""event"",""trial"",""time""
""fullscreenenter"",""1"",""2510""
","
","","","-1","","","15","3568","1984","&#9854;","elianto","#FFFFF080","-1","-1","1","&#10004","[]","0","0","1","","","","","","","",""
"pit-trial","16","186120","0.0-2.0-6.2-0.2","battery-v0.2","","""event"",""trial"",""time""
""fullscreenenter"",""1"",""2510""
","
","
","""event"",""trial"",""time""
""fullscreenenter"",""1"",""2510""
","
","","","-1","","","15","3568","1984","&#9854;","elianto","#FFFFF080","-1","-1","1","&#10004","[]","0","0","1","","","","","","","",""
"pit-trial","17","190980","0.0-2.0-6.3-0.3","battery-v0.2","","""event"",""trial"",""time""
""fullscreenenter"",""1"",""2510""
","
","
","""event"",""trial"",""time""
""fullscreenenter"",""1"",""2510""
","
","","","-1","","","15","3568","1984","&#9854;","elianto","#FFFFF080","-1","-1","1","&#10004","[]","0","0","1","","","","","","","",""
"pit-trial","18","195838","0.0-2.0-6.4-0.4","battery-v0.2","","""event"",""trial"",""time""
""fullscreenenter"",""1"",""2510""
","
","
","""event"",""trial"",""time""
""fullscreenenter"",""1"",""2510""
","
","","","-1","","","15","3568","1984","&#9854;","elianto","#FFFFF080","-1","-1","1","&#10004","[]","0","0","1","","","","","","","",""
"pit-instructions","19","325777","0.0-2.0-7.0","battery-v0.2","","""event"",""trial"",""time""
""fullscreenenter"",""1"",""2510""
","
","
","""event"",""trial"",""time""
""fullscreenenter"",""1"",""2510""
","
","","[{""page_index"":0,""viewing_time"":7074},{""page_index"":1,""viewing_time"":6890.700000000012},{""page_index"":2,""viewing_time"":5402.5},{""page_index"":3,""viewing_time"":6327.399999999965},{""page_index"":4,""viewing_time"":5439.900000000023},{""page_index"":5,""viewing_time"":5637.5},{""page_index"":6,""viewing_time"":6365.900000000023},{""page_index"":7,""viewing_time"":7532.299999999988},{""page_index"":8,""viewing_time"":6818.899999999965},{""page_index"":9,""viewing_time"":6314.800000000047},{""page_index"":10,""viewing_time"":11754.5},{""page_index"":11,""viewing_time"":4559.79999999993},{""page_index"":12,""viewing_time"":9606.900000000023},{""page_index"":13,""viewing_time"":10142.800000000047},{""page_index"":14,""viewing_time"":8285.79999999993},{""page_index"":15,""viewing_time"":6201.5},{""page_index"":16,""viewing_time"":7984.800000000047},{""page_index"":17,""viewing_time"":7591.599999999977}]","129932.80000000005","","","","","","","","","","","","","","","","","","","","","","","",""
"pit-trial","20","329768","0.0-2.0-8.0-0.0","battery-v0.2","","""event"",""trial"",""time""
""fullscreenenter"",""1"",""2510""
","
","
","""event"",""trial"",""time""
""fullscreenenter"",""1"",""2510""
","
","","","1129.3000000000466","","","15","3568","1984","&#9776;","elianto","#3366ff99"," "," ","1","+10","[1984.5]","1","0","1","","","","","","","",""
"pit-trial","21","333348","0.0-2.0-8.0-1.0","battery-v0.2","","""event"",""trial"",""time""
""fullscreenenter"",""1"",""2510""
","
","
","""event"",""trial"",""time""
""fullscreenenter"",""1"",""2510""
","
","","","723.3000000000466","","","15","3568","1984","&#9776;","elianto","#3366ff99"," "," ","1","+10","[1573.6999999999534]","1","0","1","","","","","","","",""
"pit-trial","22","336750","0.0-2.0-8.0-2.0","battery-v0.2","","""event"",""trial"",""time""
""fullscreenenter"",""1"",""2510""
","
","
","""event"",""trial"",""time""
""fullscreenenter"",""1"",""2510""
","
","","","540.6999999999534","","","15","3568","1984","&#9776;","elianto","#3366ff99"," "," ","1","+10","[1395.5999999999767]","1","0","1","","","","","","","",""
"pit-trial","23","340083","0.0-2.0-8.0-3.0","battery-v0.2","","""event"",""trial"",""time""
""fullscreenenter"",""1"",""2510""
","
","
","""event"",""trial"",""time""
""fullscreenenter"",""1"",""2510""
","
","","","477.30000000004657","","","15","3568","1984","&#9776;","elianto","#3366ff99"," "," ","1","0","[1327.4000000000233]","1","0","1","","","","","","","",""
"pit-trial","24","343389","0.0-2.0-8.0-4.0","battery-v0.2","","""event"",""trial"",""time""
""fullscreenenter"",""1"",""2510""
","
","
","""event"",""trial"",""time""
""fullscreenenter"",""1"",""2510""
","
","","","450","","","15","3568","1984","&#9776;","elianto","#3366ff99"," "," ","1","+10","[1300.4000000000233]","1","0","1","","","","","","","",""
"pit-trial","25","346889","0.0-2.0-8.1-0.1","battery-v0.2","","""event"",""trial"",""time""
""fullscreenenter"",""1"",""2510""
","
","
","""event"",""trial"",""time""
""fullscreenenter"",""1"",""2510""
","
","","","642.2000000000698","","","15","3568","1984","&#9776;","elianto","#3366ff99"," "," ","1","+10","[1492.8000000000466]","1","0","1","","","","","","","",""
"pit-trial","26","350204","0.0-2.0-8.1-1.1","battery-v0.2","","""event"",""trial"",""time""
""fullscreenenter"",""1"",""2510""
","
","
","""event"",""trial"",""time""
""fullscreenenter"",""1"",""2510""
","
","","","458.9000000000233","","","15","3568","1984","&#9776;","elianto","#3366ff99"," "," ","1","+10","[1309.4000000000233]","1","0","1","","","","","","","",""
"pit-trial","27","353433","0.0-2.0-8.1-2.1","battery-v0.2","","""event"",""trial"",""time""
""fullscreenenter"",""1"",""2510""
","
","
","""event"",""trial"",""time""
""fullscreenenter"",""1"",""2510""
","
","","","369.5999999999767","","","15","3568","1984","&#9776;","elianto","#3366ff99"," "," ","1","+10","[1225.0999999999767]","1","0","1","","","","","","","",""
"pit-trial","28","356682","0.0-2.0-8.1-3.1","battery-v0.2","","""event"",""trial"",""time""
""fullscreenenter"",""1"",""2510""
","
","
","""event"",""trial"",""time""
""fullscreenenter"",""1"",""2510""
","
","","","394","","","15","3568","1984","&#9776;","elianto","#3366ff99"," "," ","1","0","[1244.4000000000233]","1","0","1","","","","","","","",""
"pit-trial","29","359753","0.0-2.0-8.1-4.1","battery-v0.2","","""event"",""trial"",""time""
""fullscreenenter"",""1"",""2510""
","
","
","""event"",""trial"",""time""
""fullscreenenter"",""1"",""2510""
","
","","","215.29999999993015","","","15","3568","1984","&#9776;","elianto","#3366ff99"," "," ","1","+10","[1065.6999999999534]","1","0","1","","","","","","","",""
"pit-trial","30","362728","0.0-2.0-8.2-0.2","battery-v0.2","","""event"",""trial"",""time""
""fullscreenenter"",""1"",""2510""
","
","
","""event"",""trial"",""time""
""fullscreenenter"",""1"",""2510""
","
","","","117.09999999997672","","","15","3568","1984","&#9776;","elianto","#3366ff99"," "," ","1","+10","[967.9000000000233]","1","0","1","","","","","","","",""
"pit-trial","31","365749","0.0-2.0-8.2-1.2","battery-v0.2","","""event"",""trial"",""time""
""fullscreenenter"",""1"",""2510""
","
","
","""event"",""trial"",""time""
""fullscreenenter"",""1"",""2510""
","
","","","159.69999999995343","","","15","3568","1984","&#9776;","elianto","#3366ff99"," "," ","1","+10","[1014.6999999999534]","1","0","1","","","","","","","",""
"pit-trial","32","368800","0.0-2.0-8.2-2.2","battery-v0.2","","""event"",""trial"",""time""
""fullscreenenter"",""1"",""2510""
","
","
","""event"",""trial"",""time""
""fullscreenenter"",""1"",""2510""
","
","","","195.09999999997672","","","15","3568","1984","&#9776;","elianto","#3366ff99"," "," ","1","+10","[1045.3000000000466]","1","0","1","","","","","","","",""
"pit-trial","33","371795","0.0-2.0-8.2-3.2","battery-v0.2","","""event"",""trial"",""time""
""fullscreenenter"",""1"",""2510""
","
","
","""event"",""trial"",""time""
""fullscreenenter"",""1"",""2510""
","
","","","134.29999999993015","","","15","3568","1984","&#9776;","elianto","#3366ff99"," "," ","1","0","[988.9000000000233]","1","0","1","","","","","","","",""
"pit-trial","34","374713","0.0-2.0-8.2-4.2","battery-v0.2","","""event"",""trial"",""time""
""fullscreenenter"",""1"",""2510""
","
","
","""event"",""trial"",""time""
""fullscreenenter"",""1"",""2510""
","
","","","57.300000000046566","","","15","3568","1984","&#9776;","elianto","#3366ff99"," "," ","1","+10","[912.6999999999534]","1","0","1","","","","","","","",""
"call-function","35","374720","0.0-2.0-9.0","battery-v0.2","","""event"",""trial"",""time""
""fullscreenenter"",""1"",""2510""
","
","
","""event"",""trial"",""time""
""fullscreenenter"",""1"",""2510""
","
","","","","","","","","","","","","","","","","","","","","","","","","","","",""
"pit-instructions","36","414386","0.0-2.0-10.0","battery-v0.2","","""event"",""trial"",""time""
""fullscreenenter"",""1"",""2510""
","
","
","""event"",""trial"",""time""
""fullscreenenter"",""1"",""2510""
","
","","[{""page_index"":0,""viewing_time"":6135.199999999953},{""page_index"":1,""viewing_time"":6933.70000000007},{""page_index"":2,""viewing_time"":9265.699999999953},{""page_index"":3,""viewing_time"":9556.400000000023},{""page_index"":4,""viewing_time"":7770.300000000047}]","39662.59999999998","","","","","","","","","","","","","","","","","","","","","","","",""
"pit-trial","37","418228","0.0-2.0-11.0-0.0","battery-v0.2","","""event"",""trial"",""time""
""fullscreenenter"",""1"",""2510""
","
","
","""event"",""trial"",""time""
""fullscreenenter"",""1"",""2510""
","
","","","982.2999999999302","","","15","3568","1984","&#9761;","elianto","#3366ff99","-1"," ","0","0","[1834.5999999999767]","1","0","2","","","","","","","",""
"pit-trial","38","423086","0.0-2.0-11.0-1.0","battery-v0.2","","""event"",""trial"",""time""
""fullscreenenter"",""1"",""2510""
","
","
","""event"",""trial"",""time""
""fullscreenenter"",""1"",""2510""
","
","","","-1","","","15","3568","1984","&#9761;","elianto","#3366ff99","-1","-1","1","+10","[]","0","0","2","","","","","","","",""
"pit-trial","39","427944","0.0-2.0-11.0-2.0","battery-v0.2","","""event"",""trial"",""time""
""fullscreenenter"",""1"",""2510""
","
","
","""event"",""trial"",""time""
""fullscreenenter"",""1"",""2510""
","
","","","-1","","","15","3568","1984","&#9761;","elianto","#3366ff99","-1","-1","1","+10","[]","0","0","2","","","","","","","",""
"pit-trial","40","432801","0.0-2.0-11.0-3.0","battery-v0.2","","""event"",""trial"",""time""
""fullscreenenter"",""1"",""2510""
","
","
","""event"",""trial"",""time""
""fullscreenenter"",""1"",""2510""
","
","","","-1","","","15","3568","1984","&#9761;","elianto","#3366ff99","-1","-1","1","0","[]","0","0","2","","","","","","","",""
"pit-trial","41","437659","0.0-2.0-11.0-4.0","battery-v0.2","","""event"",""trial"",""time""
""fullscreenenter"",""1"",""2510""
","
","
","""event"",""trial"",""time""
""fullscreenenter"",""1"",""2510""
","
","","","-1","","","15","3568","1984","&#9761;","elianto","#3366ff99","-1","-1","1","+10","[]","0","0","2","","","","","","","",""
"pit-trial","42","442519","0.0-2.0-11.1-0.1","battery-v0.2","","""event"",""trial"",""time""
""fullscreenenter"",""1"",""2510""
","
","
","""event"",""trial"",""time""
""fullscreenenter"",""1"",""2510""
","
","","","-1","","","15","3568","1984","&#9761;","elianto","#3366ff99","-1","-1","1","+10","[]","0","0","2","","","","","","","",""
"pit-trial","43","447377","0.0-2.0-11.1-1.1","battery-v0.2","","""event"",""trial"",""time""
""fullscreenenter"",""1"",""2510""
","
","
","""event"",""trial"",""time""
""fullscreenenter"",""1"",""2510""
","
","","","-1","","","15","3568","1984","&#9761;","elianto","#3366ff99","-1","-1","1","+10","[]","0","0","2","","","","","","","",""
"pit-trial","44","450956","0.0-2.0-11.1-2.1","battery-v0.2","","""event"",""trial"",""time""
""fullscreenenter"",""1"",""2510""
","
","
","""event"",""trial"",""time""
""fullscreenenter"",""1"",""2510""
","
","","","720.9000000000233","","","15","3568","1984","&#9761;","elianto","#3366ff99","-1"," ","0","0","[1572.1000000000931]","1","0","2","","","","","","","",""
"pit-trial","45","455813","0.0-2.0-11.1-3.1","battery-v0.2","","""event"",""trial"",""time""
""fullscreenenter"",""1"",""2510""
","
","
","""event"",""trial"",""time""
""fullscreenenter"",""1"",""2510""
","
","","","-1","","","15","3568","1984","&#9761;","elianto","#3366ff99","-1","-1","1","0","[]","0","0","2","","","","","","","",""
"pit-trial","46","460672","0.0-2.0-11.1-4.1","battery-v0.2","","""event"",""trial"",""time""
""fullscreenenter"",""1"",""2510""
","
","
","""event"",""trial"",""time""
""fullscreenenter"",""1"",""2510""
","
","","","-1","","","15","3568","1984","&#9761;","elianto","#3366ff99","-1","-1","1","+10","[]","0","0","2","","","","","","","",""
"pit-trial","47","465531","0.0-2.0-11.2-0.2","battery-v0.2","","""event"",""trial"",""time""
""fullscreenenter"",""1"",""2510""
","
","
","""event"",""trial"",""time""
""fullscreenenter"",""1"",""2510""
","
","","","-1","","","15","3568","1984","&#9761;","elianto","#3366ff99","-1","-1","1","+10","[]","0","0","2","","","","","","","",""
"pit-trial","48","470388","0.0-2.0-11.2-1.2","battery-v0.2","","""event"",""trial"",""time""
""fullscreenenter"",""1"",""2510""
","
","
","""event"",""trial"",""time""
""fullscreenenter"",""1"",""2510""
","
","","","-1","","","15","3568","1984","&#9761;","elianto","#3366ff99","-1","-1","1","+10","[]","0","0","2","","","","","","","",""
"pit-trial","49","475247","0.0-2.0-11.2-2.2","battery-v0.2","","""event"",""trial"",""time""
""fullscreenenter"",""1"",""2510""
","
","
","""event"",""trial"",""time""
""fullscreenenter"",""1"",""2510""
","
","","","-1","","","15","3568","1984","&#9761;","elianto","#3366ff99","-1","-1","1","+10","[]","0","0","2","","","","","","","",""
"pit-trial","50","478440","0.0-2.0-11.2-3.2","battery-v0.2","","""event"",""trial"",""time""
""fullscreenenter"",""1"",""2510""
","
","
","""event"",""trial"",""time""
""fullscreenenter"",""1"",""2510""
","
","","","336.29999999993015","","","15","3568","1984","&#9761;","elianto","#3366ff99","-1"," ","0","+10","[1186.5]","1","0","2","","","","","","","",""
"pit-trial","51","483298","0.0-2.0-11.2-4.2","battery-v0.2","","""event"",""trial"",""time""
""fullscreenenter"",""1"",""2510""
","
","
","""event"",""trial"",""time""
""fullscreenenter"",""1"",""2510""
","
","","","-1","","","15","3568","1984","&#9761;","elianto","#3366ff99","-1","-1","1","+10","[]","0","0","2","","","","","","","",""
"pit-trial","52","488158","0.0-2.0-11.3-0.3","battery-v0.2","","""event"",""trial"",""time""
""fullscreenenter"",""1"",""2510""
","
","
","""event"",""trial"",""time""
""fullscreenenter"",""1"",""2510""
","
","","","-1","","","15","3568","1984","&#9761;","elianto","#3366ff99","-1","-1","1","+10","[]","0","0","2","","","","","","","",""
"pit-trial","53","493016","0.0-2.0-11.3-1.3","battery-v0.2","","""event"",""trial"",""time""
""fullscreenenter"",""1"",""2510""
","
","
","""event"",""trial"",""time""
""fullscreenenter"",""1"",""2510""
","
","","","-1","","","15","3568","1984","&#9761;","elianto","#3366ff99","-1","-1","1","+10","[]","0","0","2","","","","","","","",""
"pit-trial","54","497874","0.0-2.0-11.3-2.3","battery-v0.2","","""event"",""trial"",""time""
""fullscreenenter"",""1"",""2510""
","
","
","""event"",""trial"",""time""
""fullscreenenter"",""1"",""2510""
","
","","","-1","","","15","3568","1984","&#9761;","elianto","#3366ff99","-1","-1","1","+10","[]","0","0","2","","","","","","","",""
"pit-trial","55","501270","0.0-2.0-11.3-3.3","battery-v0.2","","""event"",""trial"",""time""
""fullscreenenter"",""1"",""2510""
","
","
","""event"",""trial"",""time""
""fullscreenenter"",""1"",""2510""
","
","","","538.6999999999534","","","15","3568","1984","&#9761;","elianto","#3366ff99","-1"," ","0","+10","[1389.0999999999767]","1","0","2","","","","","","","",""
"pit-trial","56","506127","0.0-2.0-11.3-4.3","battery-v0.2","","""event"",""trial"",""time""
""fullscreenenter"",""1"",""2510""
","
","
","""event"",""trial"",""time""
""fullscreenenter"",""1"",""2510""
","
","","","-1","","","15","3568","1984","&#9761;","elianto","#3366ff99","-1","-1","1","+10","[]","0","0","2","","","","","","","",""
"call-function","57","506133","0.0-2.0-12.0","battery-v0.2","","""event"",""trial"",""time""
""fullscreenenter"",""1"",""2510""
","
","
","""event"",""trial"",""time""
""fullscreenenter"",""1"",""2510""
","
","","","","","","","","","","","","","","","","","","","","","","","","","","",""
"pit-instructions","58","551148","0.0-2.0-13.0","battery-v0.2","","""event"",""trial"",""time""
""fullscreenenter"",""1"",""2510""
","
","
","""event"",""trial"",""time""
""fullscreenenter"",""1"",""2510""
","
","","[{""page_index"":0,""viewing_time"":7641.300000000047},{""page_index"":1,""viewing_time"":9509},{""page_index"":2,""viewing_time"":8054.800000000047},{""page_index"":3,""viewing_time"":12079},{""page_index"":4,""viewing_time"":7726.699999999953}]","45012.20000000007","","","","","","","","","","","","","","","","","","","","","","","",""
"pit-trial","59","555453","0.0-2.0-14.0-0.0","battery-v0.2","","""event"",""trial"",""time""
""fullscreenenter"",""1"",""2510""
","
","
","""event"",""trial"",""time""
""fullscreenenter"",""1"",""2510""
","
","","","1442.0999999999767","","","15","3568","1984","&#9826;","elianto","#f73b6a7A","-1"," ","0","-10","[2298]","1","0","3","","","","","","","",""
"pit-trial","60","560311","0.0-2.0-14.0-1.0","battery-v0.2","","""event"",""trial"",""time""
""fullscreenenter"",""1"",""2510""
","
","
","""event"",""trial"",""time""
""fullscreenenter"",""1"",""2510""
","
","","","-1","","","15","3568","1984","&#9826;","elianto","#f73b6a7A","-1","-1","1","0","[]","0","0","3","","","","","","","",""
"pit-trial","61","565168","0.0-2.0-14.0-2.0","battery-v0.2","","""event"",""trial"",""time""
""fullscreenenter"",""1"",""2510""
","
","
","""event"",""trial"",""time""
""fullscreenenter"",""1"",""2510""
","
","","","-1","","","15","3568","1984","&#9826;","elianto","#f73b6a7A","-1","-1","1","0","[]","0","0","3","","","","","","","",""
"pit-trial","62","570025","0.0-2.0-14.0-3.0","battery-v0.2","","""event"",""trial"",""time""
""fullscreenenter"",""1"",""2510""
","
","
","""event"",""trial"",""time""
""fullscreenenter"",""1"",""2510""
","
","","","-1","","","15","3568","1984","&#9826;","elianto","#f73b6a7A","-1","-1","1","-10","[]","0","0","3","","","","","","","",""
"pit-trial","63","574883","0.0-2.0-14.0-4.0","battery-v0.2","","""event"",""trial"",""time""
""fullscreenenter"",""1"",""2510""
","
","
","""event"",""trial"",""time""
""fullscreenenter"",""1"",""2510""
","
","","","-1","","","15","3568","1984","&#9826;","elianto","#f73b6a7A","-1","-1","1","0","[]","0","0","3","","","","","","","",""
"pit-trial","64","579743","0.0-2.0-14.1-0.1","battery-v0.2","","""event"",""trial"",""time""
""fullscreenenter"",""1"",""2510""
","
","
","""event"",""trial"",""time""
""fullscreenenter"",""1"",""2510""
","
","","","-1","","","15","3568","1984","&#9826;","elianto","#f73b6a7A","-1","-1","1","0","[]","0","0","3","","","","","","","",""
"pit-trial","65","584601","0.0-2.0-14.1-1.1","battery-v0.2","","""event"",""trial"",""time""
""fullscreenenter"",""1"",""2510""
","
","
","""event"",""trial"",""time""
""fullscreenenter"",""1"",""2510""
","
","","","-1","","","15","3568","1984","&#9826;","elianto","#f73b6a7A","-1","-1","1","0","[]","0","0","3","","","","","","","",""
"pit-trial","66","589458","0.0-2.0-14.1-2.1","battery-v0.2","","""event"",""trial"",""time""
""fullscreenenter"",""1"",""2510""
","
","
","""event"",""trial"",""time""
""fullscreenenter"",""1"",""2510""
","
","","","-1","","","15","3568","1984","&#9826;","elianto","#f73b6a7A","-1","-1","1","0","[]","0","0","3","","","","","","","",""
"pit-trial","67","592646","0.0-2.0-14.1-3.1","battery-v0.2","","""event"",""trial"",""time""
""fullscreenenter"",""1"",""2510""
","
","
","""event"",""trial"",""time""
""fullscreenenter"",""1"",""2510""
","
","","","330.69999999995343","","","15","3568","1984","&#9826;","elianto","#f73b6a7A","-1"," ","0","0","[1181.1999999999534]","1","0","3","","","","","","","",""
"pit-trial","68","597503","0.0-2.0-14.1-4.1","battery-v0.2","","""event"",""trial"",""time""
""fullscreenenter"",""1"",""2510""
","
","
","""event"",""trial"",""time""
""fullscreenenter"",""1"",""2510""
","
","","","-1","","","15","3568","1984","&#9826;","elianto","#f73b6a7A","-1","-1","1","0","[]","0","0","3","","","","","","","",""
"pit-trial","69","602362","0.0-2.0-14.2-0.2","battery-v0.2","","""event"",""trial"",""time""
""fullscreenenter"",""1"",""2510""
","
","
","""event"",""trial"",""time""
""fullscreenenter"",""1"",""2510""
","
","","","-1","","","15","3568","1984","&#9826;","elianto","#f73b6a7A","-1","-1","1","0","[]","0","0","3","","","","","","","",""
"pit-trial","70","607220","0.0-2.0-14.2-1.2","battery-v0.2","","""event"",""trial"",""time""
""fullscreenenter"",""1"",""2510""
","
","
","""event"",""trial"",""time""
""fullscreenenter"",""1"",""2510""
","
","","","-1","","","15","3568","1984","&#9826;","elianto","#f73b6a7A","-1","-1","1","0","[]","0","0","3","","","","","","","",""
"pit-trial","71","612078","0.0-2.0-14.2-2.2","battery-v0.2","","""event"",""trial"",""time""
""fullscreenenter"",""1"",""2510""
","
","
","""event"",""trial"",""time""
""fullscreenenter"",""1"",""2510""
","
","","","-1","","","15","3568","1984","&#9826;","elianto","#f73b6a7A","-1","-1","1","0","[]","0","0","3","","","","","","","",""
"pit-trial","72","616937","0.0-2.0-14.2-3.2","battery-v0.2","","""event"",""trial"",""time""
""fullscreenenter"",""1"",""2510""
","
","
","""event"",""trial"",""time""
""fullscreenenter"",""1"",""2510""
","
","","","-1","","","15","3568","1984","&#9826;","elianto","#f73b6a7A","-1","-1","1","-10","[]","0","0","3","","","","","","","",""
"pit-trial","73","621794","0.0-2.0-14.2-4.2","battery-v0.2","","""event"",""trial"",""time""
""fullscreenenter"",""1"",""2510""
","
","
","""event"",""trial"",""time""
""fullscreenenter"",""1"",""2510""
","
","","","-1","","","15","3568","1984","&#9826;","elianto","#f73b6a7A","-1","-1","1","0","[]","0","0","3","","","","","","","",""
"pit-trial","74","626652","0.0-2.0-14.3-0.3","battery-v0.2","","""event"",""trial"",""time""
""fullscreenenter"",""1"",""2510""
","
","
","""event"",""trial"",""time""
""fullscreenenter"",""1"",""2510""
","
","","","-1","","","15","3568","1984","&#9826;","elianto","#f73b6a7A","-1","-1","1","0","[]","0","0","3","","","","","","","",""
"pit-trial","75","631510","0.0-2.0-14.3-1.3","battery-v0.2","","""event"",""trial"",""time""
""fullscreenenter"",""1"",""2510""
","
","
","""event"",""trial"",""time""
""fullscreenenter"",""1"",""2510""
","
","","","-1","","","15","3568","1984","&#9826;","elianto","#f73b6a7A","-1","-1","1","0","[]","0","0","3","","","","","","","",""
"pit-trial","76","636368","0.0-2.0-14.3-2.3","battery-v0.2","","""event"",""trial"",""time""
""fullscreenenter"",""1"",""2510""
","
","
","""event"",""trial"",""time""
""fullscreenenter"",""1"",""2510""
","
","","","-1","","","15","3568","1984","&#9826;","elianto","#f73b6a7A","-1","-1","1","0","[]","0","0","3","","","","","","","",""
"pit-trial","77","641226","0.0-2.0-14.3-3.3","battery-v0.2","","""event"",""trial"",""time""
""fullscreenenter"",""1"",""2510""
","
","
","""event"",""trial"",""time""
""fullscreenenter"",""1"",""2510""
","
","","","-1","","","15","3568","1984","&#9826;","elianto","#f73b6a7A","-1","-1","1","-10","[]","0","0","3","","","","","","","",""
"pit-trial","78","646084","0.0-2.0-14.3-4.3","battery-v0.2","","""event"",""trial"",""time""
""fullscreenenter"",""1"",""2510""
","
","
","""event"",""trial"",""time""
""fullscreenenter"",""1"",""2510""
","
","","","-1","","","15","3568","1984","&#9826;","elianto","#f73b6a7A","-1","-1","1","0","[]","0","0","3","","","","","","","",""
"call-function","79","646089","0.0-2.0-15.0","battery-v0.2","","""event"",""trial"",""time""
""fullscreenenter"",""1"",""2510""
","
","
","""event"",""trial"",""time""
""fullscreenenter"",""1"",""2510""
","
","","","","","","","","","","","","","","","","","","","","","","","","","","",""
"pit-instructions","80","690601","0.0-2.0-16.0","battery-v0.2","","""event"",""trial"",""time""
""fullscreenenter"",""1"",""2510""
","
","
","""event"",""trial"",""time""
""fullscreenenter"",""1"",""2510""
","
","","[{""page_index"":0,""viewing_time"":7680.600000000093},{""page_index"":1,""viewing_time"":8674.5},{""page_index"":2,""viewing_time"":8578.5},{""page_index"":3,""viewing_time"":19574.29999999993}]","44509.20000000007","","","","","","","","","","","","","","","","","","","","","","","",""
"pit-trial","81","695053","0.0-2.0-17.0-0.0","battery-v0.2","","""event"",""trial"",""time""
""fullscreenenter"",""1"",""2510""
","
","
","""event"",""trial"",""time""
""fullscreenenter"",""1"",""2510""
","
","","","1592.6000000000931","","","15","3568","1984","&#9789;","elianto","#f73b6a7A"," "," ","1","0","[2443.0999999999767]","1","0","4","","","","","","","",""
"pit-trial","82","698254","0.0-2.0-17.0-1.0","battery-v0.2","","""event"",""trial"",""time""
""fullscreenenter"",""1"",""2510""
","
","
","""event"",""trial"",""time""
""fullscreenenter"",""1"",""2510""
","
","","","338.79999999993015","","","15","3568","1984","&#9789;","elianto","#f73b6a7A"," "," ","1","0","[1193.5]","1","0","4","","","","","","","",""
"pit-trial","83","701591","0.0-2.0-17.0-2.0","battery-v0.2","","""event"",""trial"",""time""
""fullscreenenter"",""1"",""2510""
","
","
","""event"",""trial"",""time""
""fullscreenenter"",""1"",""2510""
","
","","","480.20000000006985","","","15","3568","1984","&#9789;","elianto","#f73b6a7A"," "," ","1","0","[1330.3999999999069]","1","0","4","","","","","","","",""
"pit-trial","84","705523","0.0-2.0-17.0-3.0","battery-v0.2","","""event"",""trial"",""time""
""fullscreenenter"",""1"",""2510""
","
","
","""event"",""trial"",""time""
""fullscreenenter"",""1"",""2510""
","
","","","1068.3000000000466","","","15","3568","1984","&#9789;","elianto","#f73b6a7A"," "," ","1","-10","[1925.2999999999302]","1","0","4","","","","","","","",""
"pit-trial","85","708797","0.0-2.0-17.0-4.0","battery-v0.2","","""event"",""trial"",""time""
""fullscreenenter"",""1"",""2510""
","
","
","""event"",""trial"",""time""
""fullscreenenter"",""1"",""2510""
","
","","","416.4000000000233","","","15","3568","1984","&#9789;","elianto","#f73b6a7A"," "," ","1","0","[1267.4000000000233]","1","0","4","","","","","","","",""
"pit-trial","86","712033","0.0-2.0-17.1-0.1","battery-v0.2","","""event"",""trial"",""time""
""fullscreenenter"",""1"",""2510""
","
","
","""event"",""trial"",""time""
""fullscreenenter"",""1"",""2510""
","
","","","375.39999999990687","","","15","3568","1984","&#9789;","elianto","#f73b6a7A"," "," ","1","0","[1226.0999999999767]","1","0","4","","","","","","","",""
"pit-trial","87","715254","0.0-2.0-17.1-1.1","battery-v0.2","","""event"",""trial"",""time""
""fullscreenenter"",""1"",""2510""
","
","
","""event"",""trial"",""time""
""fullscreenenter"",""1"",""2510""
","
","","","364.0999999999767","","","15","3568","1984","&#9789;","elianto","#f73b6a7A"," "," ","1","0","[1214.2999999999302]","1","0","4","","","","","","","",""
"pit-trial","88","718471","0.0-2.0-17.1-2.1","battery-v0.2","","""event"",""trial"",""time""
""fullscreenenter"",""1"",""2510""
","
","
","""event"",""trial"",""time""
""fullscreenenter"",""1"",""2510""
","
","","","359.29999999993015","","","15","3568","1984","&#9789;","elianto","#f73b6a7A"," "," ","1","0","[1210.5]","1","0","4","","","","","","","",""
"pit-trial","89","723328","0.0-2.0-17.1-3.1","battery-v0.2","","""event"",""trial"",""time""
""fullscreenenter"",""1"",""2510""
","
","
","""event"",""trial"",""time""
""fullscreenenter"",""1"",""2510""
","
","","","-1","","","15","3568","1984","&#9789;","elianto","#f73b6a7A"," ","-1","0","0","[]","0","0","4","","","","","","","",""
"pit-trial","90","726555","0.0-2.0-17.1-4.1","battery-v0.2","","""event"",""trial"",""time""
""fullscreenenter"",""1"",""2510""
","
","
","""event"",""trial"",""time""
""fullscreenenter"",""1"",""2510""
","
","","","369.69999999995343","","","15","3568","1984","&#9789;","elianto","#f73b6a7A"," "," ","1","0","[1220]","1","0","4","","","","","","","",""
"pit-trial","91","729720","0.0-2.0-17.2-0.2","battery-v0.2","","""event"",""trial"",""time""
""fullscreenenter"",""1"",""2510""
","
","
","""event"",""trial"",""time""
""fullscreenenter"",""1"",""2510""
","
","","","305.4000000000233","","","15","3568","1984","&#9789;","elianto","#f73b6a7A"," "," ","1","0","[1156.2000000000698]","1","0","4","","","","","","","",""
"pit-trial","92","732981","0.0-2.0-17.2-1.2","battery-v0.2","","""event"",""trial"",""time""
""fullscreenenter"",""1"",""2510""
","
","
","""event"",""trial"",""time""
""fullscreenenter"",""1"",""2510""
","
","","","403.29999999993015","","","15","3568","1984","&#9789;","elianto","#f73b6a7A"," "," ","1","0","[1253.6999999999534]","1","0","4","","","","","","","",""
"pit-trial","93","736341","0.0-2.0-17.2-2.2","battery-v0.2","","""event"",""trial"",""time""
""fullscreenenter"",""1"",""2510""
","
","
","""event"",""trial"",""time""
""fullscreenenter"",""1"",""2510""
","
","","","502.79999999993015","","","15","3568","1984","&#9789;","elianto","#f73b6a7A"," "," ","1","0","[1353.4000000000233,3336.0999999999767]","2","0","4","","","","","","","",""
"pit-trial","94","739778","0.0-2.0-17.2-3.2","battery-v0.2","","""event"",""trial"",""time""
""fullscreenenter"",""1"",""2510""
","
","
","""event"",""trial"",""time""
""fullscreenenter"",""1"",""2510""
","
","","","578.9000000000233","","","15","3568","1984","&#9789;","elianto","#f73b6a7A"," "," ","1","-10","[1429.5]","1","0","4","","","","","","","",""
"pit-trial","95","743000","0.0-2.0-17.2-4.2","battery-v0.2","","""event"",""trial"",""time""
""fullscreenenter"",""1"",""2510""
","
","
","""event"",""trial"",""time""
""fullscreenenter"",""1"",""2510""
","
","","","364.30000000004657","","","15","3568","1984","&#9789;","elianto","#f73b6a7A"," "," ","1","0","[1214.6999999999534]","1","0","4","","","","","","","",""
"pit-trial","96","746096","0.0-2.0-17.3-0.3","battery-v0.2","","""event"",""trial"",""time""
""fullscreenenter"",""1"",""2510""
","
","
","""event"",""trial"",""time""
""fullscreenenter"",""1"",""2510""
","
","","","234.40000000002328","","","15","3568","1984","&#9789;","elianto","#f73b6a7A"," "," ","1","0","[1087,2731.0999999999767]","2","0","4","","","","","","","",""
"pit-trial","97","749457","0.0-2.0-17.3-1.3","battery-v0.2","","""event"",""trial"",""time""
""fullscreenenter"",""1"",""2510""
","
","
","""event"",""trial"",""time""
""fullscreenenter"",""1"",""2510""
","
","","","501.4000000000233","","","15","3568","1984","&#9789;","elianto","#f73b6a7A"," "," ","1","0","[1354.8000000000466]","1","0","4","","","","","","","",""
"pit-trial","98","754315","0.0-2.0-17.3-2.3","battery-v0.2","","""event"",""trial"",""time""
""fullscreenenter"",""1"",""2510""
","
","
","""event"",""trial"",""time""
""fullscreenenter"",""1"",""2510""
","
","","","-1","","","15","3568","1984","&#9789;","elianto","#f73b6a7A"," ","-1","0","-10","[]","0","0","4","","","","","","","",""
"pit-trial","99","757878","0.0-2.0-17.3-3.3","battery-v0.2","","""event"",""trial"",""time""
""fullscreenenter"",""1"",""2510""
","
","
","""event"",""trial"",""time""
""fullscreenenter"",""1"",""2510""
","
","","","704.5","","","15","3568","1984","&#9789;","elianto","#f73b6a7A"," "," ","1","-10","[1556.6000000000931]","1","0","4","","","","","","","",""
"pit-trial","100","761403","0.0-2.0-17.3-4.3","battery-v0.2","","""event"",""trial"",""time""
""fullscreenenter"",""1"",""2510""
","
","
","""event"",""trial"",""time""
""fullscreenenter"",""1"",""2510""
","
","","","666.9000000000233","","","15","3568","1984","&#9789;","elianto","#f73b6a7A"," "," ","1","0","[1517.0999999999767]","1","0","4","","","","","","","",""
"call-function","101","761409","0.0-2.0-18.0","battery-v0.2","","""event"",""trial"",""time""
""fullscreenenter"",""1"",""2510""
","
","
","""event"",""trial"",""time""
""fullscreenenter"",""1"",""2510""
","
","","","","","","","","","","","","","","","","","","","","","","","","","","",""
"pit-instructions","102","886979","0.0-2.0-19.0","battery-v0.2","","""event"",""trial"",""time""
""fullscreenenter"",""1"",""2510""
","
","
","""event"",""trial"",""time""
""fullscreenenter"",""1"",""2510""
","
","","[{""page_index"":0,""viewing_time"":6901.199999999953},{""page_index"":1,""viewing_time"":7436.400000000023},{""page_index"":2,""viewing_time"":31836.79999999993},{""page_index"":3,""viewing_time"":9843.300000000047},{""page_index"":4,""viewing_time"":13111.600000000093},{""page_index"":5,""viewing_time"":3132.5999999998603},{""page_index"":4,""viewing_time"":3417},{""page_index"":3,""viewing_time"":4866},{""page_index"":4,""viewing_time"":6090.600000000093},{""page_index"":5,""viewing_time"":9987.5},{""page_index"":6,""viewing_time"":16121.899999999907},{""page_index"":7,""viewing_time"":8208},{""page_index"":8,""viewing_time"":4612.800000000047}]","125567.3999999999","","","","","","","","","","","","","","","","","","","","","","","",""
"pit-comprehension","103","893660","0.0-2.0-20.0-0.0","battery-v0.2","","""event"",""trial"",""time""
""fullscreenenter"",""1"",""2510""
","
","
","""event"",""trial"",""time""
""fullscreenenter"",""1"",""2510""
","
","","","6666.5","[""SPACE""]","0","15","3568","1984","","","","","","","","","","","","","","","","","","",""
"pit-instructions","104","898532","0.0-2.0-20.0-1.0","battery-v0.2","","""event"",""trial"",""time""
""fullscreenenter"",""1"",""2510""
","
","
","""event"",""trial"",""time""
""fullscreenenter"",""1"",""2510""
","
","","[{""page_index"":0,""viewing_time"":4738.90000000014}]","4740.300000000047","","","","","","","","","","","","","","","","","","","","","","","",""
"pit-comprehension","105","909077","0.0-2.0-21.0-0.0","battery-v0.2","","""event"",""trial"",""time""
""fullscreenenter"",""1"",""2510""
","
","
","""event"",""trial"",""time""
""fullscreenenter"",""1"",""2510""
","
","","","10526.200000000186","[""10""]","0","15","3568","1984","","","","","","","","","","","","","","","","","","",""
"pit-instructions","106","913446","0.0-2.0-21.0-1.0","battery-v0.2","","""event"",""trial"",""time""
""fullscreenenter"",""1"",""2510""
","
","
","""event"",""trial"",""time""
""fullscreenenter"",""1"",""2510""
","
","","[{""page_index"":0,""viewing_time"":4265}]","4266.600000000093","","","","","","","","","","","","","","","","","","","","","","","",""
"pit-comprehension","107","924480","0.0-2.0-22.0-0.0","battery-v0.2","","""event"",""trial"",""time""
""fullscreenenter"",""1"",""2510""
","
","
","""event"",""trial"",""time""
""fullscreenenter"",""1"",""2510""
","
","","","11016.399999999907","[""0""]","0","15","3568","1984","","","","","","","","","","","","","","","","","","",""
"pit-instructions","108","927259","0.0-2.0-22.0-1.0","battery-v0.2","","""event"",""trial"",""time""
""fullscreenenter"",""1"",""2510""
","
","
","""event"",""trial"",""time""
""fullscreenenter"",""1"",""2510""
","
","","[{""page_index"":0,""viewing_time"":2668.9000000001397}]","2670.100000000093","","","","","","","","","","","","","","","","","","","","","","","",""
"pit-comprehension","109","940447","0.0-2.0-23.0-0.0","battery-v0.2","","""event"",""trial"",""time""
""fullscreenenter"",""1"",""2510""
","
","
","""event"",""trial"",""time""
""fullscreenenter"",""1"",""2510""
","
","","","13167.300000000047","[""True""]","0","15","3568","1984","","","","","","","","","","","","","","","","","","",""
"pit-instructions","110","946642","0.0-2.0-23.0-1.0","battery-v0.2","","""event"",""trial"",""time""
""fullscreenenter"",""1"",""2510""
","
","
","""event"",""trial"",""time""
""fullscreenenter"",""1"",""2510""
","
","","[{""page_index"":0,""viewing_time"":6088}]","6089.399999999907","","","","","","","","","","","","","","","","","","","","","","","",""
"pit-comprehension","111","955726","0.0-2.0-24.0-0.0","battery-v0.2","","""event"",""trial"",""time""
""fullscreenenter"",""1"",""2510""
","
","
","""event"",""trial"",""time""
""fullscreenenter"",""1"",""2510""
","
","","","9069.199999999953","[""True""]","0","15","3568","1984","","","","","","","","","","","","","","","","","","",""
"pit-instructions","112","958141","0.0-2.0-24.0-1.0","battery-v0.2","","""event"",""trial"",""time""
""fullscreenenter"",""1"",""2510""
","
","
","""event"",""trial"",""time""
""fullscreenenter"",""1"",""2510""
","
","","[{""page_index"":0,""viewing_time"":2307.2000000001863}]","2308.7000000001863","","","","","","","","","","","","","","","","","","","","","","","",""
"pit-comprehension","113","966079","0.0-2.0-25.0-0.0","battery-v0.2","","""event"",""trial"",""time""
""fullscreenenter"",""1"",""2510""
","
","
","""event"",""trial"",""time""
""fullscreenenter"",""1"",""2510""
","
","","","7923.40000000014","[""True""]","0","15","3568","1984","","","","","","","","","","","","","","","","","","",""
"pit-instructions","114","970636","0.0-2.0-25.0-1.0","battery-v0.2","","""event"",""trial"",""time""
""fullscreenenter"",""1"",""2510""
","
","
","""event"",""trial"",""time""
""fullscreenenter"",""1"",""2510""
","
","","[{""page_index"":0,""viewing_time"":4446.100000000093}]","4447.699999999953","","","","","","","","","","","","","","","","","","","","","","","",""
"pit-comprehension","115","978824","0.0-2.0-26.0-0.0","battery-v0.2","","""event"",""trial"",""time""
""fullscreenenter"",""1"",""2510""
","
","
","""event"",""trial"",""time""
""fullscreenenter"",""1"",""2510""
","
","","","8168","[""False""]","0","15","3568","1984","","","","","","","","","","","","","","","","","","",""
"pit-instructions","116","981695","0.0-2.0-26.0-1.0","battery-v0.2","","""event"",""trial"",""time""
""fullscreenenter"",""1"",""2510""
","
","
","""event"",""trial"",""time""
""fullscreenenter"",""1"",""2510""
","
","","[{""page_index"":0,""viewing_time"":2750}]","2751.3000000000466","","","","","","","","","","","","","","","","","","","","","","","",""
"pit-instructions","117","1013803","0.0-3.0","battery-v0.2","","""event"",""trial"",""time""
""fullscreenenter"",""1"",""2510""
","
","
","""event"",""trial"",""time""
""fullscreenenter"",""1"",""2510""
","
","","[{""page_index"":0,""viewing_time"":4464.200000000186},{""page_index"":1,""viewing_time"":12005.199999999953},{""page_index"":2,""viewing_time"":15628.800000000047}]","32099.5","","","","","","","","","","","","","","","","","","","","","","","",""
"pit-trial","118","1017733","0.0-4.0","battery-v0.2","","""event"",""trial"",""time""
""fullscreenenter"",""1"",""2510""
","
","
","""event"",""trial"",""time""
""fullscreenenter"",""1"",""2510""
","
","","","1066.3999999999069","","","15","3568","1984","&#9730;","elianto","#3366ff99"," "," ","1","+10","[1917.0999999998603]","1","1","","","3568","1","1","1","win","go","0"
"pit-trial","119","1022592","0.0-5.0","battery-v0.2","","""event"",""trial"",""time""
""fullscreenenter"",""1"",""2510""
","
","
","""event"",""trial"",""time""
""fullscreenenter"",""1"",""2510""
","
","","","-1","","","15","3568","1984","&#9728;","elianto","#f73b6a7A","-1","-1","1","-10","[]","0","1","","","3568","2","0","4","lose","no-go","1"
"pit-trial","120","1027450","0.0-6.0","battery-v0.2","","""event"",""trial"",""time""
""fullscreenenter"",""1"",""2510""
","
","
","""event"",""trial"",""time""
""fullscreenenter"",""1"",""2510""
","
","","","-1","","","15","3568","1984","&#9752;","elianto","#f73b6a7A"," ","-1","0","-10","[]","0","1","","","3568","3","3","3","lose","go","0"
"pit-trial","121","1032309","0.0-7.0","battery-v0.2","","""event"",""trial"",""time""
""fullscreenenter"",""1"",""2510""
","
","
","""event"",""trial"",""time""
""fullscreenenter"",""1"",""2510""
","
","","","-1","","","15","3568","1984","&#9733;","elianto","#3366ff99","-1","-1","1","+10","[]","0","1","","","3568","4","2","2","win","no-go","0"
"pit-trial","122","1037168","0.0-8.0","battery-v0.2","","""event"",""trial"",""time""
""fullscreenenter"",""1"",""2510""
","
","
","""event"",""trial"",""time""
""fullscreenenter"",""1"",""2510""
","
","","","-1","","","15","3568","1984","&#9733;","elianto","#3366ff99","-1","-1","1","+10","[]","0","1","","","3568","5","2","2","win","no-go","0"
"pit-trial","123","1041229","0.0-9.0","battery-v0.2","","""event"",""trial"",""time""
""fullscreenenter"",""1"",""2510""
","
","
","""event"",""trial"",""time""
""fullscreenenter"",""1"",""2510""
","
","","","1203.0999999998603","","","15","3568","1984","&#9752;","elianto","#f73b6a7A"," "," ","1","0","[2052.6999999999534]","1","1","","","3568","6","3","3","lose","go","0"
"pit-trial","124","1045451","0.0-10.0","battery-v0.2","","""event"",""trial"",""time""
""fullscreenenter"",""1"",""2510""
","
","
","""event"",""trial"",""time""
""fullscreenenter"",""1"",""2510""
","
","","","1363.4000000001397","","","15","3568","1984","&#9730;","elianto","#3366ff99"," "," ","1","+10","[2214]","1","1","","","3568","7","1","1","win","go","0"
"pit-trial","125","1050311","0.0-11.0","battery-v0.2","","""event"",""trial"",""time""
""fullscreenenter"",""1"",""2510""
","
","
","""event"",""trial"",""time""
""fullscreenenter"",""1"",""2510""
","
","","","-1","","","15","3568","1984","&#9728;","elianto","#f73b6a7A","-1","-1","1","0","[]","0","1","","","3568","8","0","4","lose","no-go","0"
"pit-trial","126","1054431","0.0-12.0","battery-v0.2","","""event"",""trial"",""time""
""fullscreenenter"",""1"",""2510""
","
","
","""event"",""trial"",""time""
""fullscreenenter"",""1"",""2510""
","
","","","1261.2999999998137","","","15","3568","1984","&#9733;","elianto","#3366ff99","-1"," ","0","0","[2111.1999999997206]","1","1","","","3568","9","2","2","win","no-go","0"
"pit-trial","127","1059291","0.0-13.0","battery-v0.2","","""event"",""trial"",""time""
""fullscreenenter"",""1"",""2510""
","
","
","""event"",""trial"",""time""
""fullscreenenter"",""1"",""2510""
","
","","","-1","","","15","3568","1984","&#9728;","elianto","#f73b6a7A","-1","-1","1","0","[]","0","1","","","3568","10","0","4","lose","no-go","0"
"pit-trial","128","1063026","0.0-14.0","battery-v0.2","","""event"",""trial"",""time""
""fullscreenenter"",""1"",""2510""
","
","
","""event"",""trial"",""time""
""fullscreenenter"",""1"",""2510""
","
","","","874.8999999999069","","","15","3568","1984","&#9730;","elianto","#3366ff99"," "," ","1","+10","[1725.2000000001863]","1","1","","","3568","11","1","1","win","go","0"
"pit-trial","129","1066861","0.0-15.0","battery-v0.2","","""event"",""trial"",""time""
""fullscreenenter"",""1"",""2510""
","
","
","""event"",""trial"",""time""
""fullscreenenter"",""1"",""2510""
","
","","","974.5999999996275","","","15","3568","1984","&#9752;","elianto","#f73b6a7A"," "," ","1","0","[1824.6999999997206]","1","1","","","3568","12","3","3","lose","go","0"
"pit-trial","130","1070580","0.0-16.0","battery-v0.2","","""event"",""trial"",""time""
""fullscreenenter"",""1"",""2510""
","
","
","""event"",""trial"",""time""
""fullscreenenter"",""1"",""2510""
","
","","","854.0999999996275","","","15","3568","1984","&#9730;","elianto","#3366ff99"," "," ","1","+10","[1709.6000000000931]","1","1","","","3568","13","1","1","win","go","0"
"pit-trial","131","1074410","0.0-17.0","battery-v0.2","","""event"",""trial"",""time""
""fullscreenenter"",""1"",""2510""
","
","
","""event"",""trial"",""time""
""fullscreenenter"",""1"",""2510""
","
","","","964.0999999996275","","","15","3568","1984","&#9752;","elianto","#f73b6a7A"," "," ","1","0","[1821]","1","1","","","3568","14","3","3","lose","go","0"
"pit-trial","132","1079270","0.0-18.0","battery-v0.2","","""event"",""trial"",""time""
""fullscreenenter"",""1"",""2510""
","
","
","""event"",""trial"",""time""
""fullscreenenter"",""1"",""2510""
","
","","","-1","","","15","3568","1984","&#9728;","elianto","#f73b6a7A","-1","-1","1","0","[]","0","1","","","3568","15","0","4","lose","no-go","0"
"pit-trial","133","1084130","0.0-19.0","battery-v0.2","","""event"",""trial"",""time""
""fullscreenenter"",""1"",""2510""
","
","
","""event"",""trial"",""time""
""fullscreenenter"",""1"",""2510""
","
","","","-1","","","15","3568","1984","&#9733;","elianto","#3366ff99","-1","-1","1","+10","[]","0","1","","","3568","16","2","2","win","no-go","0"
"pit-trial","134","1087815","0.0-20.0","battery-v0.2","","""event"",""trial"",""time""
""fullscreenenter"",""1"",""2510""
","
","
","""event"",""trial"",""time""
""fullscreenenter"",""1"",""2510""
","
","","","825.2000000001863","","","15","3568","1984","&#9730;","elianto","#3366ff99"," "," ","1","+10","[1675.3999999999069]","1","1","","","3568","17","1","1","win","go","0"
"pit-trial","135","1092676","0.0-21.0","battery-v0.2","","""event"",""trial"",""time""
""fullscreenenter"",""1"",""2510""
","
","
","""event"",""trial"",""time""
""fullscreenenter"",""1"",""2510""
","
","","","-1","","","15","3568","1984","&#9733;","elianto","#3366ff99","-1","-1","1","+10","[]","0","1","","","3568","18","2","2","win","no-go","0"
"pit-trial","136","1097537","0.0-22.0","battery-v0.2","","""event"",""trial"",""time""
""fullscreenenter"",""1"",""2510""
","
","
","""event"",""trial"",""time""
""fullscreenenter"",""1"",""2510""
","
","","","-1","","","15","3568","1984","&#9728;","elianto","#f73b6a7A","-1","-1","1","0","[]","0","1","","","3568","19","0","4","lose","no-go","0"
"pit-trial","137","1101328","0.0-23.0","battery-v0.2","","""event"",""trial"",""time""
""fullscreenenter"",""1"",""2510""
","
","
","""event"",""trial"",""time""
""fullscreenenter"",""1"",""2510""
","
","","","929.6999999997206","","","15","3568","1984","&#9752;","elianto","#f73b6a7A"," "," ","1","-10","[1779.3000000002794]","1","1","","","3568","20","3","3","lose","go","1"
"pit-instructions","138","1118811","0.0-24.0","battery-v0.2","","""event"",""trial"",""time""
""fullscreenenter"",""1"",""2510""
","
","
","""event"",""trial"",""time""
""fullscreenenter"",""1"",""2510""
","
","","[{""page_index"":0,""viewing_time"":7936.300000000279},{""page_index"":1,""viewing_time"":9538.100000000093}]","17476.400000000373","","","","","","","","","","","","","","","","","","","","","","","",""
"pit-trial","139","1123678","0.0-25.0","battery-v0.2","","""event"",""trial"",""time""
""fullscreenenter"",""1"",""2510""
","
","
","""event"",""trial"",""time""
""fullscreenenter"",""1"",""2510""
","
","","","-1","","","15","3568","1984","r","elianto","#3366ff99"," ","-1","0","0","[]","0","2","","","3568","21","1","1","win","go","0"
"pit-trial","140","1128537","0.0-26.0","battery-v0.2","","""event"",""trial"",""time""
""fullscreenenter"",""1"",""2510""
","
","
","""event"",""trial"",""time""
""fullscreenenter"",""1"",""2510""
","
","","","-1","","","15","3568","1984","h","elianto","#f73b6a7A"," ","-1","0","-10","[]","0","2","","","3568","22","3","3","lose","go","0"
"pit-trial","141","1133395","0.0-27.0","battery-v0.2","","""event"",""trial"",""time""
""fullscreenenter"",""1"",""2510""
","
","
","""event"",""trial"",""time""
""fullscreenenter"",""1"",""2510""
","
","","","-1","","","15","3568","1984","y","elianto","#f73b6a7A","-1","-1","1","0","[]","0","2","","","3568","23","2","4","lose","no-go","0"
"pit-trial","142","1138254","0.0-28.0","battery-v0.2","","""event"",""trial"",""time""
""fullscreenenter"",""1"",""2510""
","
","
","""event"",""trial"",""time""
""fullscreenenter"",""1"",""2510""
","
","","","-1","","","15","3568","1984","m","elianto","#f73b6a7A","-1","-1","1","0","[]","0","2","","","3568","24","0","4","lose","no-go","0"
"pit-trial","143","1143112","0.0-29.0","battery-v0.2","","""event"",""trial"",""time""
""fullscreenenter"",""1"",""2510""
","
","
","""event"",""trial"",""time""
""fullscreenenter"",""1"",""2510""
","
","","","-1","","","15","3568","1984","m","elianto","#f73b6a7A","-1","-1","1","0","[]","0","2","","","3568","25","0","4","lose","no-go","0"
"pit-trial","144","1147970","0.0-30.0","battery-v0.2","","""event"",""trial"",""time""
""fullscreenenter"",""1"",""2510""
","
","
","""event"",""trial"",""time""
""fullscreenenter"",""1"",""2510""
","
","","","-1","","","15","3568","1984","y","elianto","#f73b6a7A","-1","-1","1","-10","[]","0","2","","","3568","26","2","4","lose","no-go","1"
"pit-trial","145","1151827","0.0-31.0","battery-v0.2","","""event"",""trial"",""time""
""fullscreenenter"",""1"",""2510""
","
","
","""event"",""trial"",""time""
""fullscreenenter"",""1"",""2510""
","
","","","997.2000000001863","","","15","3568","1984","r","elianto","#3366ff99"," "," ","1","+10","[1848.3000000002794]","1","2","","","3568","27","1","1","win","go","0"
"pit-trial","146","1155799","0.0-32.0","battery-v0.2","","""event"",""trial"",""time""
""fullscreenenter"",""1"",""2510""
","
","
","""event"",""trial"",""time""
""fullscreenenter"",""1"",""2510""
","
","","","1112.8999999999069","","","15","3568","1984","h","elianto","#f73b6a7A"," "," ","1","-10","[1963.2999999998137]","1","2","","","3568","28","3","3","lose","go","1"
"pit-trial","147","1160421","0.0-33.0","battery-v0.2","","""event"",""trial"",""time""
""fullscreenenter"",""1"",""2510""
","
","
","""event"",""trial"",""time""
""fullscreenenter"",""1"",""2510""
","
","","","1762.8000000002794","","","15","3568","1984","y","elianto","#f73b6a7A","-1"," ","0","-10","[2614]","1","2","","","3568","29","2","4","lose","no-go","0"
"pit-trial","148","1165280","0.0-34.0","battery-v0.2","","""event"",""trial"",""time""
""fullscreenenter"",""1"",""2510""
","
","
","""event"",""trial"",""time""
""fullscreenenter"",""1"",""2510""
","
","","","-1","","","15","3568","1984","m","elianto","#f73b6a7A","-1","-1","1","0","[]","0","2","","","3568","30","0","4","lose","no-go","0"
"pit-trial","149","1169113","0.0-35.0","battery-v0.2","","""event"",""trial"",""time""
""fullscreenenter"",""1"",""2510""
","
","
","""event"",""trial"",""time""
""fullscreenenter"",""1"",""2510""
","
","","","974.7000000001863","","","15","3568","1984","r","elianto","#3366ff99"," "," ","1","+10","[1825.7999999998137]","1","2","","","3568","31","1","1","win","go","0"
"pit-trial","150","1172860","0.0-36.0","battery-v0.2","","""event"",""trial"",""time""
""fullscreenenter"",""1"",""2510""
","
","
","""event"",""trial"",""time""
""fullscreenenter"",""1"",""2510""
","
","","","888.5","","","15","3568","1984","h","elianto","#f73b6a7A"," "," ","1","0","[1739.1999999997206]","1","2","","","3568","32","3","3","lose","go","0"
"pit-trial","151","1176792","0.0-37.0","battery-v0.2","","""event"",""trial"",""time""
""fullscreenenter"",""1"",""2510""
","
","
","""event"",""trial"",""time""
""fullscreenenter"",""1"",""2510""
","
","","","1065.2000000001863","","","15","3568","1984","r","elianto","#3366ff99"," "," ","1","+10","[1922.6000000000931]","1","2","","","3568","33","1","1","win","go","0"
"pit-trial","152","1181651","0.0-38.0","battery-v0.2","","""event"",""trial"",""time""
""fullscreenenter"",""1"",""2510""
","
","
","""event"",""trial"",""time""
""fullscreenenter"",""1"",""2510""
","
","","","-1","","","15","3568","1984","y","elianto","#f73b6a7A","-1","-1","1","0","[]","0","2","","","3568","34","2","4","lose","no-go","0"
"pit-trial","153","1185822","0.0-39.0","battery-v0.2","","""event"",""trial"",""time""
""fullscreenenter"",""1"",""2510""
","
","
","""event"",""trial"",""time""
""fullscreenenter"",""1"",""2510""
","
","","","1312.1000000000931","","","15","3568","1984","h","elianto","#f73b6a7A"," "," ","1","0","[2162.2999999998137]","1","2","","","3568","35","3","3","lose","go","0"
"pit-trial","154","1190683","0.0-40.0","battery-v0.2","","""event"",""trial"",""time""
""fullscreenenter"",""1"",""2510""
","
","
","""event"",""trial"",""time""
""fullscreenenter"",""1"",""2510""
","
","","","-1","","","15","3568","1984","m","elianto","#f73b6a7A","-1","-1","1","0","[]","0","2","","","3568","36","0","4","lose","no-go","0"
"pit-trial","155","1195543","0.0-41.0","battery-v0.2","","""event"",""trial"",""time""
""fullscreenenter"",""1"",""2510""
","
","
","""event"",""trial"",""time""
""fullscreenenter"",""1"",""2510""
","
","","","-1","","","15","3568","1984","m","elianto","#f73b6a7A","-1","-1","1","0","[]","0","2","","","3568","37","0","4","lose","no-go","0"
"pit-trial","156","1199274","0.0-42.0","battery-v0.2","","""event"",""trial"",""time""
""fullscreenenter"",""1"",""2510""
","
","
","""event"",""trial"",""time""
""fullscreenenter"",""1"",""2510""
","
","","","870.6000000000931","","","15","3568","1984","r","elianto","#3366ff99"," "," ","1","+10","[1720.7999999998137]","1","2","","","3568","38","1","1","win","go","0"
"pit-trial","157","1204135","0.0-43.0","battery-v0.2","","""event"",""trial"",""time""
""fullscreenenter"",""1"",""2510""
","
","
","""event"",""trial"",""time""
""fullscreenenter"",""1"",""2510""
","
","","","-1","","","15","3568","1984","y","elianto","#f73b6a7A","-1","-1","1","0","[]","0","2","","","3568","39","2","4","lose","no-go","0"
"pit-trial","158","1208192","0.0-44.0","battery-v0.2","","""event"",""trial"",""time""
""fullscreenenter"",""1"",""2510""
","
","
","""event"",""trial"",""time""
""fullscreenenter"",""1"",""2510""
","
","","","1196.5","","","15","3568","1984","h","elianto","#f73b6a7A"," "," ","1","0","[2047.1000000000931]","1","2","","","3568","40","3","3","lose","go","0"
"pit-trial","159","1213054","0.0-45.0","battery-v0.2","","""event"",""trial"",""time""
""fullscreenenter"",""1"",""2510""
","
","
","""event"",""trial"",""time""
""fullscreenenter"",""1"",""2510""
","
","","","-1","","","15","3568","1984","y","elianto","#f73b6a7A","-1","-1","1","0","[]","0","2","","","3568","41","2","4","lose","no-go","0"
"pit-trial","160","1217560","0.0-46.0","battery-v0.2","","""event"",""trial"",""time""
""fullscreenenter"",""1"",""2510""
","
","
","""event"",""trial"",""time""
""fullscreenenter"",""1"",""2510""
","
","","","1640","","","15","3568","1984","h","elianto","#f73b6a7A"," "," ","1","-10","[2495.100000000093]","1","2","","","3568","42","3","3","lose","go","1"
"pit-trial","161","1221100","0.0-47.0","battery-v0.2","","""event"",""trial"",""time""
""fullscreenenter"",""1"",""2510""
","
","
","""event"",""trial"",""time""
""fullscreenenter"",""1"",""2510""
","
","","","678.8999999999069","","","15","3568","1984","r","elianto","#3366ff99"," "," ","1","+10","[1529.1000000000931]","1","2","","","3568","43","1","1","win","go","0"
"pit-trial","162","1225962","0.0-48.0","battery-v0.2","","""event"",""trial"",""time""
""fullscreenenter"",""1"",""2510""
","
","
","""event"",""trial"",""time""
""fullscreenenter"",""1"",""2510""
","
","","","-1","","","15","3568","1984","m","elianto","#f73b6a7A","-1","-1","1","0","[]","0","2","","","3568","44","0","4","lose","no-go","0"
"pit-trial","163","1230822","0.0-49.0","battery-v0.2","","""event"",""trial"",""time""
""fullscreenenter"",""1"",""2510""
","
","
","""event"",""trial"",""time""
""fullscreenenter"",""1"",""2510""
","
","","","-1","","","15","3568","1984","m","elianto","#f73b6a7A","-1","-1","1","-10","[]","0","2","","","3568","45","0","4","lose","no-go","1"
"pit-trial","164","1235684","0.0-50.0","battery-v0.2","","""event"",""trial"",""time""
""fullscreenenter"",""1"",""2510""
","
","
","""event"",""trial"",""time""
""fullscreenenter"",""1"",""2510""
","
","","","-1","","","15","3568","1984","z","elianto","#3366ff99","-1","-1","1","+10","[]","0","2","","","3568","46","4","2","win","no-go","0"
"pit-trial","165","1240208","0.0-51.0","battery-v0.2","","""event"",""trial"",""time""
""fullscreenenter"",""1"",""2510""
","
","
","""event"",""trial"",""time""
""fullscreenenter"",""1"",""2510""
","
","","","1661.8999999999069","","","15","3568","1984","h","elianto","#f73b6a7A"," "," ","1","0","[2512.5]","1","2","","","3568","47","3","3","lose","go","0"
"pit-trial","166","1245069","0.0-52.0","battery-v0.2","","""event"",""trial"",""time""
""fullscreenenter"",""1"",""2510""
","
","
","""event"",""trial"",""time""
""fullscreenenter"",""1"",""2510""
","
","","","-1","","","15","3568","1984","y","elianto","#f73b6a7A","-1","-1","1","0","[]","0","2","","","3568","48","2","4","lose","no-go","0"
"pit-trial","167","1249929","0.0-53.0","battery-v0.2","","""event"",""trial"",""time""
""fullscreenenter"",""1"",""2510""
","
","
","""event"",""trial"",""time""
""fullscreenenter"",""1"",""2510""
","
","","","-1","","","15","3568","1984","m","elianto","#f73b6a7A","-1","-1","1","0","[]","0","2","","","3568","49","0","4","lose","no-go","0"
"pit-trial","168","1254788","0.0-54.0","battery-v0.2","","""event"",""trial"",""time""
""fullscreenenter"",""1"",""2510""
","
","
","""event"",""trial"",""time""
""fullscreenenter"",""1"",""2510""
","
","","","-1","","","15","3568","1984","h","elianto","#f73b6a7A"," ","-1","0","0","[]","0","2","","","3568","50","3","3","lose","go","1"
"pit-trial","169","1258478","0.0-55.0","battery-v0.2","","""event"",""trial"",""time""
""fullscreenenter"",""1"",""2510""
","
","
","""event"",""trial"",""time""
""fullscreenenter"",""1"",""2510""
","
","","","830.6000000000931","","","15","3568","1984","r","elianto","#3366ff99"," "," ","1","+10","[1681.2000000001863]","1","2","","","3568","51","1","1","win","go","0"
"pit-trial","170","1263033","0.0-56.0","battery-v0.2","","""event"",""trial"",""time""
""fullscreenenter"",""1"",""2510""
","
","
","""event"",""trial"",""time""
""fullscreenenter"",""1"",""2510""
","
","","","1696.8999999999069","","","15","3568","1984","z","elianto","#3366ff99","-1"," ","0","+10","[2547.2000000001863]","1","2","","","3568","52","4","2","win","no-go","1"
"pit-trial","171","1267890","0.0-57.0","battery-v0.2","","""event"",""trial"",""time""
""fullscreenenter"",""1"",""2510""
","
","
","""event"",""trial"",""time""
""fullscreenenter"",""1"",""2510""
","
","","","-1","","","15","3568","1984","y","elianto","#f73b6a7A","-1","-1","1","-10","[]","0","2","","","3568","53","2","4","lose","no-go","1"
"pit-trial","172","1271915","0.0-58.0","battery-v0.2","","""event"",""trial"",""time""
""fullscreenenter"",""1"",""2510""
","
","
","""event"",""trial"",""time""
""fullscreenenter"",""1"",""2510""
","
","","","1163.1999999997206","","","15","3568","1984","z","elianto","#3366ff99","-1"," ","0","+10","[2016.0999999996275]","1","2","","","3568","54","4","2","win","no-go","1"
"pit-trial","173","1276774","0.0-59.0","battery-v0.2","","""event"",""trial"",""time""
""fullscreenenter"",""1"",""2510""
","
","
","""event"",""trial"",""time""
""fullscreenenter"",""1"",""2510""
","
","","","-1","","","15","3568","1984","m","elianto","#f73b6a7A","-1","-1","1","0","[]","0","2","","","3568","55","0","4","lose","no-go","0"
"pit-trial","174","1280356","0.0-60.0","battery-v0.2","","""event"",""trial"",""time""
""fullscreenenter"",""1"",""2510""
","
","
","""event"",""trial"",""time""
""fullscreenenter"",""1"",""2510""
","
","","","721","","","15","3568","1984","r","elianto","#3366ff99"," "," ","1","0","[1573.7000000001863]","1","2","","","3568","56","1","1","win","go","1"
"pit-trial","175","1283911","0.0-61.0","battery-v0.2","","""event"",""trial"",""time""
""fullscreenenter"",""1"",""2510""
","
","
","""event"",""trial"",""time""
""fullscreenenter"",""1"",""2510""
","
","","","696.1000000000931","","","15","3568","1984","z","elianto","#3366ff99","-1"," ","0","0","[1546.0999999996275]","1","2","","","3568","57","4","2","win","no-go","0"
"pit-trial","176","1288771","0.0-62.0","battery-v0.2","","""event"",""trial"",""time""
""fullscreenenter"",""1"",""2510""
","
","
","""event"",""trial"",""time""
""fullscreenenter"",""1"",""2510""
","
","","","-1","","","15","3568","1984","m","elianto","#f73b6a7A","-1","-1","1","0","[]","0","2","","","3568","58","0","4","lose","no-go","0"
"pit-trial","177","1293631","0.0-63.0","battery-v0.2","","""event"",""trial"",""time""
""fullscreenenter"",""1"",""2510""
","
","
","""event"",""trial"",""time""
""fullscreenenter"",""1"",""2510""
","
","","","-1","","","15","3568","1984","h","elianto","#f73b6a7A"," ","-1","0","-10","[]","0","2","","","3568","59","3","3","lose","go","0"
"pit-trial","178","1297077","0.0-64.0","battery-v0.2","","""event"",""trial"",""time""
""fullscreenenter"",""1"",""2510""
","
","
","""event"",""trial"",""time""
""fullscreenenter"",""1"",""2510""
","
","","","588.2999999998137","","","15","3568","1984","r","elianto","#3366ff99"," "," ","1","+10","[1438.4000000003725]","1","2","","","3568","60","1","1","win","go","0"
"pit-trial","179","1301936","0.0-65.0","battery-v0.2","","""event"",""trial"",""time""
""fullscreenenter"",""1"",""2510""
","
","
","""event"",""trial"",""time""
""fullscreenenter"",""1"",""2510""
","
","","","-1","","","15","3568","1984","y","elianto","#f73b6a7A","-1","-1","1","0","[]","0","2","","","3568","61","2","4","lose","no-go","0"
"pit-trial","180","1305634","0.0-66.0","battery-v0.2","","""event"",""trial"",""time""
""fullscreenenter"",""1"",""2510""
","
","
","""event"",""trial"",""time""
""fullscreenenter"",""1"",""2510""
","
","","","840.1000000000931","","","15","3568","1984","h","elianto","#f73b6a7A"," "," ","1","0","[1690.6000000000931]","1","2","","","3568","62","3","3","lose","go","0"
"pit-trial","181","1309302","0.0-67.0","battery-v0.2","","""event"",""trial"",""time""
""fullscreenenter"",""1"",""2510""
","
","
","""event"",""trial"",""time""
""fullscreenenter"",""1"",""2510""
","
","","","803.2999999998137","","","15","3568","1984","z","elianto","#3366ff99","-1"," ","0","0","[1659.4000000003725]","1","2","","","3568","63","4","2","win","no-go","0"
"pit-trial","182","1312894","0.0-68.0","battery-v0.2","","""event"",""trial"",""time""
""fullscreenenter"",""1"",""2510""
","
","
","""event"",""trial"",""time""
""fullscreenenter"",""1"",""2510""
","
","","","730.3999999999069","","","15","3568","1984","r","elianto","#3366ff99"," "," ","1","0","[1581.8999999999069]","1","2","","","3568","64","1","1","win","go","1"
"pit-trial","183","1316509","0.0-69.0","battery-v0.2","","""event"",""trial"",""time""
""fullscreenenter"",""1"",""2510""
","
","
","""event"",""trial"",""time""
""fullscreenenter"",""1"",""2510""
","
","","","755.6999999997206","","","15","3568","1984","z","elianto","#3366ff99","-1"," ","0","0","[1606.2000000001863]","1","2","","","3568","65","4","2","win","no-go","0"
"pit-trial","184","1320352","0.0-70.0","battery-v0.2","","""event"",""trial"",""time""
""fullscreenenter"",""1"",""2510""
","
","
","""event"",""trial"",""time""
""fullscreenenter"",""1"",""2510""
","
","","","983","","","15","3568","1984","r","elianto","#3366ff99"," "," ","1","+10","[1833.6000000000931]","1","2","","","3568","66","1","1","win","go","0"
"pit-trial","185","1324005","0.0-71.0","battery-v0.2","","""event"",""trial"",""time""
""fullscreenenter"",""1"",""2510""
","
","
","""event"",""trial"",""time""
""fullscreenenter"",""1"",""2510""
","
","","","793.5","","","15","3568","1984","h","elianto","#f73b6a7A"," "," ","1","0","[1643.7999999998137]","1","2","","","3568","67","3","3","lose","go","0"
"pit-trial","186","1328865","0.0-72.0","battery-v0.2","","""event"",""trial"",""time""
""fullscreenenter"",""1"",""2510""
","
","
","""event"",""trial"",""time""
""fullscreenenter"",""1"",""2510""
","
","","","-1","","","15","3568","1984","y","elianto","#f73b6a7A","-1","-1","1","-10","[]","0","2","","","3568","68","2","4","lose","no-go","1"
"pit-trial","187","1333577","0.0-73.0","battery-v0.2","","""event"",""trial"",""time""
""fullscreenenter"",""1"",""2510""
","
","
","""event"",""trial"",""time""
""fullscreenenter"",""1"",""2510""
","
","","","1852.2000000001863","","","15","3568","1984","c","elianto","#3366ff99"," "," ","1","+10","[2702.3000000002794]","1","2","","","3568","69","5","1","win","go","0"
"pit-trial","188","1337137","0.0-74.0","battery-v0.2","","""event"",""trial"",""time""
""fullscreenenter"",""1"",""2510""
","
","
","""event"",""trial"",""time""
""fullscreenenter"",""1"",""2510""
","
","","","699.3999999999069","","","15","3568","1984","r","elianto","#3366ff99"," "," ","1","+10","[1550]","1","2","","","3568","70","1","1","win","go","0"
"pit-trial","189","1340699","0.0-75.0","battery-v0.2","","""event"",""trial"",""time""
""fullscreenenter"",""1"",""2510""
","
","
","""event"",""trial"",""time""
""fullscreenenter"",""1"",""2510""
","
","","","700.6000000000931","","","15","3568","1984","z","elianto","#3366ff99","-1"," ","0","0","[1551.1999999997206]","1","2","","","3568","71","4","2","win","no-go","0"
"pit-trial","190","1344462","0.0-76.0","battery-v0.2","","""event"",""trial"",""time""
""fullscreenenter"",""1"",""2510""
","
","
","""event"",""trial"",""time""
""fullscreenenter"",""1"",""2510""
","
","","","900.1999999997206","","","15","3568","1984","h","elianto","#f73b6a7A"," "," ","1","0","[1751.1000000000931]","1","2","","","3568","72","3","3","lose","go","0"
"pit-trial","191","1348305","0.0-77.0","battery-v0.2","","""event"",""trial"",""time""
""fullscreenenter"",""1"",""2510""
","
","
","""event"",""trial"",""time""
""fullscreenenter"",""1"",""2510""
","
","","","981.7999999998137","","","15","3568","1984","c","elianto","#3366ff99"," "," ","1","+10","[1832.4000000003725]","1","2","","","3568","73","5","1","win","go","0"
"pit-trial","192","1353168","0.0-78.0","battery-v0.2","","""event"",""trial"",""time""
""fullscreenenter"",""1"",""2510""
","
","
","""event"",""trial"",""time""
""fullscreenenter"",""1"",""2510""
","
","","","-1","","","15","3568","1984","h","elianto","#f73b6a7A"," ","-1","0","-10","[]","0","2","","","3568","74","3","3","lose","go","0"
"pit-trial","193","1357022","0.0-79.0","battery-v0.2","","""event"",""trial"",""time""
""fullscreenenter"",""1"",""2510""
","
","
","""event"",""trial"",""time""
""fullscreenenter"",""1"",""2510""
","
","","","991.2000000001863","","","15","3568","1984","z","elianto","#3366ff99","-1"," ","0","0","[1842.2999999998137]","1","2","","","3568","75","4","2","win","no-go","0"
"pit-trial","194","1360890","0.0-80.0","battery-v0.2","","""event"",""trial"",""time""
""fullscreenenter"",""1"",""2510""
","
","
","""event"",""trial"",""time""
""fullscreenenter"",""1"",""2510""
","
","","","999.1000000000931","","","15","3568","1984","r","elianto","#3366ff99"," "," ","1","+10","[1857]","1","2","","","3568","76","1","1","win","go","0"
"pit-trial","195","1364935","0.0-81.0","battery-v0.2","","""event"",""trial"",""time""
""fullscreenenter"",""1"",""2510""
","
","
","""event"",""trial"",""time""
""fullscreenenter"",""1"",""2510""
","
","","","1184.8000000002794","","","15","3568","1984","h","elianto","#f73b6a7A"," "," ","1","0","[2035.5]","1","2","","","3568","77","3","3","lose","go","0"
"pit-trial","196","1369794","0.0-82.0","battery-v0.2","","""event"",""trial"",""time""
""fullscreenenter"",""1"",""2510""
","
","
","""event"",""trial"",""time""
""fullscreenenter"",""1"",""2510""
","
","","","-1","","","15","3568","1984","z","elianto","#3366ff99","-1","-1","1","+10","[]","0","2","","","3568","78","4","2","win","no-go","0"
"pit-trial","197","1374503","0.0-83.0","battery-v0.2","","""event"",""trial"",""time""
""fullscreenenter"",""1"",""2510""
","
","
","""event"",""trial"",""time""
""fullscreenenter"",""1"",""2510""
","
","","","1850.7000000001863","","","15","3568","1984","c","elianto","#3366ff99"," "," ","1","+10","[2701.3000000002794]","1","2","","","3568","79","5","1","win","go","0"
"pit-trial","198","1379361","0.0-84.0","battery-v0.2","","""event"",""trial"",""time""
""fullscreenenter"",""1"",""2510""
","
","
","""event"",""trial"",""time""
""fullscreenenter"",""1"",""2510""
","
","","","-1","","","15","3568","1984","b","elianto","#f73b6a7A","-1","-1","1","0","[]","0","2","","","3568","80","6","4","lose","no-go","0"
"pit-trial","199","1384220","0.0-85.0","battery-v0.2","","""event"",""trial"",""time""
""fullscreenenter"",""1"",""2510""
","
","
","""event"",""trial"",""time""
""fullscreenenter"",""1"",""2510""
","
","","","-1","","","15","3568","1984","b","elianto","#f73b6a7A","-1","-1","1","0","[]","0","2","","","3568","81","6","4","lose","no-go","0"
"pit-trial","200","1389078","0.0-86.0","battery-v0.2","","""event"",""trial"",""time""
""fullscreenenter"",""1"",""2510""
","
","
","""event"",""trial"",""time""
""fullscreenenter"",""1"",""2510""
","
","","","-1","","","15","3568","1984","t","elianto","#f73b6a7A"," ","-1","0","-10","[]","0","2","","","3568","82","7","3","lose","go","0"
"pit-trial","201","1393938","0.0-87.0","battery-v0.2","","""event"",""trial"",""time""
""fullscreenenter"",""1"",""2510""
","
","
","""event"",""trial"",""time""
""fullscreenenter"",""1"",""2510""
","
","","","-1","","","15","3568","1984","z","elianto","#3366ff99","-1","-1","1","+10","[]","0","2","","","3568","83","4","2","win","no-go","0"
"pit-trial","202","1397892","0.0-88.0","battery-v0.2","","""event"",""trial"",""time""
""fullscreenenter"",""1"",""2510""
","
","
","""event"",""trial"",""time""
""fullscreenenter"",""1"",""2510""
","
","","","1094.8999999999069","","","15","3568","1984","c","elianto","#3366ff99"," "," ","1","+10","[1945.2999999998137]","1","2","","","3568","84","5","1","win","go","0"
"pit-trial","203","1402751","0.0-89.0","battery-v0.2","","""event"",""trial"",""time""
""fullscreenenter"",""1"",""2510""
","
","
","""event"",""trial"",""time""
""fullscreenenter"",""1"",""2510""
","
","","","-1","","","15","3568","1984","b","elianto","#f73b6a7A","-1","-1","1","0","[]","0","2","","","3568","85","6","4","lose","no-go","0"
"pit-trial","204","1407609","0.0-90.0","battery-v0.2","","""event"",""trial"",""time""
""fullscreenenter"",""1"",""2510""
","
","
","""event"",""trial"",""time""
""fullscreenenter"",""1"",""2510""
","
","","","-1","","","15","3568","1984","z","elianto","#3366ff99","-1","-1","1","+10","[]","0","2","","","3568","86","4","2","win","no-go","0"
"pit-trial","205","1411227","0.0-91.0","battery-v0.2","","""event"",""trial"",""time""
""fullscreenenter"",""1"",""2510""
","
","
","""event"",""trial"",""time""
""fullscreenenter"",""1"",""2510""
","
","","","758.3999999999069","","","15","3568","1984","t","elianto","#f73b6a7A"," "," ","1","-10","[1609]","1","2","","","3568","87","7","3","lose","go","1"
"pit-trial","206","1415420","0.0-92.0","battery-v0.2","","""event"",""trial"",""time""
""fullscreenenter"",""1"",""2510""
","
","
","""event"",""trial"",""time""
""fullscreenenter"",""1"",""2510""
","
","","","1332.1999999997206","","","15","3568","1984","c","elianto","#3366ff99"," "," ","1","+10","[2184.600000000093]","1","2","","","3568","88","5","1","win","go","0"
"pit-trial","207","1419486","0.0-93.0","battery-v0.2","","""event"",""trial"",""time""
""fullscreenenter"",""1"",""2510""
","
","
","""event"",""trial"",""time""
""fullscreenenter"",""1"",""2510""
","
","","","1207.1000000000931","","","15","3568","1984","c","elianto","#3366ff99"," "," ","1","+10","[2057.399999999907]","1","2","","","3568","89","5","1","win","go","0"
"pit-trial","208","1424345","0.0-94.0","battery-v0.2","","""event"",""trial"",""time""
""fullscreenenter"",""1"",""2510""
","
","
","""event"",""trial"",""time""
""fullscreenenter"",""1"",""2510""
","
","","","-1","","","15","3568","1984","b","elianto","#f73b6a7A","-1","-1","1","-10","[]","0","2","","","3568","90","6","4","lose","no-go","1"
"pit-trial","209","1428249","0.0-95.0","battery-v0.2","","""event"",""trial"",""time""
""fullscreenenter"",""1"",""2510""
","
","
","""event"",""trial"",""time""
""fullscreenenter"",""1"",""2510""
","
","","","1043.8999999999069","","","15","3568","1984","t","elianto","#f73b6a7A"," "," ","1","0","[1894.2999999998137]","1","2","","","3568","91","7","3","lose","go","0"
"pit-trial","210","1432331","0.0-96.0","battery-v0.2","","""event"",""trial"",""time""
""fullscreenenter"",""1"",""2510""
","
","
","""event"",""trial"",""time""
""fullscreenenter"",""1"",""2510""
","
","","","1221.8999999999069","","","15","3568","1984","z","elianto","#3366ff99","-1"," ","0","+10","[2072.1999999997206]","1","2","","","3568","92","4","2","win","no-go","1"
"pit-trial","211","1437193","0.0-97.0","battery-v0.2","","""event"",""trial"",""time""
""fullscreenenter"",""1"",""2510""
","
","
","""event"",""trial"",""time""
""fullscreenenter"",""1"",""2510""
","
","","","-1","","","15","3568","1984","b","elianto","#f73b6a7A","-1","-1","1","-10","[]","0","2","","","3568","93","6","4","lose","no-go","1"
"pit-trial","212","1441520","0.0-98.0","battery-v0.2","","""event"",""trial"",""time""
""fullscreenenter"",""1"",""2510""
","
","
","""event"",""trial"",""time""
""fullscreenenter"",""1"",""2510""
","
","","","1461.3999999999069","","","15","3568","1984","t","elianto","#f73b6a7A"," "," ","1","0","[2317.9000000003725]","1","2","","","3568","94","7","3","lose","go","0"
"pit-trial","213","1445638","0.0-99.0","battery-v0.2","","""event"",""trial"",""time""
""fullscreenenter"",""1"",""2510""
","
","
","""event"",""trial"",""time""
""fullscreenenter"",""1"",""2510""
","
","","","1258.7000000001863","","","15","3568","1984","c","elianto","#3366ff99"," "," ","1","0","[2109.100000000093]","1","2","","","3568","95","5","1","win","go","1"
"pit-trial","214","1450499","0.0-100.0","battery-v0.2","","""event"",""trial"",""time""
""fullscreenenter"",""1"",""2510""
","
","
","""event"",""trial"",""time""
""fullscreenenter"",""1"",""2510""
","
","","","-1","","","15","3568","1984","f","elianto","#3366ff99","-1","-1","1","+10","[]","0","2","","","3568","96","8","2","win","no-go","0"
"pit-trial","215","1455359","0.0-101.0","battery-v0.2","","""event"",""trial"",""time""
""fullscreenenter"",""1"",""2510""
","
","
","""event"",""trial"",""time""
""fullscreenenter"",""1"",""2510""
","
","","","-1","","","15","3568","1984","b","elianto","#f73b6a7A","-1","-1","1","-10","[]","0","2","","","3568","97","6","4","lose","no-go","1"
"pit-trial","216","1460219","0.0-102.0","battery-v0.2","","""event"",""trial"",""time""
""fullscreenenter"",""1"",""2510""
","
","
","""event"",""trial"",""time""
""fullscreenenter"",""1"",""2510""
","
","","","-1","","","15","3568","1984","t","elianto","#f73b6a7A"," ","-1","0","-10","[]","0","2","","","3568","98","7","3","lose","go","0"
"pit-trial","217","1464034","0.0-103.0","battery-v0.2","","""event"",""trial"",""time""
""fullscreenenter"",""1"",""2510""
","
","
","""event"",""trial"",""time""
""fullscreenenter"",""1"",""2510""
","
","","","950.2999999998137","","","15","3568","1984","c","elianto","#3366ff99"," "," ","1","0","[1805.1999999997206]","1","2","","","3568","99","5","1","win","go","1"
"pit-trial","218","1468894","0.0-104.0","battery-v0.2","","""event"",""trial"",""time""
""fullscreenenter"",""1"",""2510""
","
","
","""event"",""trial"",""time""
""fullscreenenter"",""1"",""2510""
","
","","","-1","","","15","3568","1984","f","elianto","#3366ff99","-1","-1","1","0","[]","0","2","","","3568","100","8","2","win","no-go","1"
"pit-trial","219","1473455","0.0-105.0","battery-v0.2","","""event"",""trial"",""time""
""fullscreenenter"",""1"",""2510""
","
","
","""event"",""trial"",""time""
""fullscreenenter"",""1"",""2510""
","
","","","1698.5999999996275","","","15","3568","1984","n","elianto","#3366ff99","-1"," ","0","0","[2548.7000000001863]","1","2","","","3568","101","9","2","win","no-go","0"
"pit-trial","220","1478148","0.0-106.0","battery-v0.2","","""event"",""trial"",""time""
""fullscreenenter"",""1"",""2510""
","
","
","""event"",""trial"",""time""
""fullscreenenter"",""1"",""2510""
","
","","","1832.6000000000931","","","15","3568","1984","c","elianto","#3366ff99"," "," ","1","+10","[2682.899999999907]","1","2","","","3568","102","5","1","win","go","0"
"pit-trial","221","1482655","0.0-107.0","battery-v0.2","","""event"",""trial"",""time""
""fullscreenenter"",""1"",""2510""
","
","
","""event"",""trial"",""time""
""fullscreenenter"",""1"",""2510""
","
","","","1646.3999999999069","","","15","3568","1984","b","elianto","#f73b6a7A","-1"," ","0","0","[2496.6999999997206]","1","2","","","3568","103","6","4","lose","no-go","1"
"pit-trial","222","1487517","0.0-108.0","battery-v0.2","","""event"",""trial"",""time""
""fullscreenenter"",""1"",""2510""
","
","
","""event"",""trial"",""time""
""fullscreenenter"",""1"",""2510""
","
","","","-1","","","15","3568","1984","f","elianto","#3366ff99","-1","-1","1","+10","[]","0","2","","","3568","104","8","2","win","no-go","0"
"pit-trial","223","1492376","0.0-109.0","battery-v0.2","","""event"",""trial"",""time""
""fullscreenenter"",""1"",""2510""
","
","
","""event"",""trial"",""time""
""fullscreenenter"",""1"",""2510""
","
","","","-1","","","15","3568","1984","b","elianto","#f73b6a7A","-1","-1","1","0","[]","0","2","","","3568","105","6","4","lose","no-go","0"
"pit-trial","224","1497235","0.0-110.0","battery-v0.2","","""event"",""trial"",""time""
""fullscreenenter"",""1"",""2510""
","
","
","""event"",""trial"",""time""
""fullscreenenter"",""1"",""2510""
","
","","","-1","","","15","3568","1984","n","elianto","#3366ff99","-1","-1","1","+10","[]","0","2","","","3568","106","9","2","win","no-go","0"
"pit-trial","225","1501847","0.0-111.0","battery-v0.2","","""event"",""trial"",""time""
""fullscreenenter"",""1"",""2510""
","
","
","""event"",""trial"",""time""
""fullscreenenter"",""1"",""2510""
","
","","","1748.5","","","15","3568","1984","c","elianto","#3366ff99"," "," ","1","+10","[2603.2000000001863]","1","2","","","3568","107","5","1","win","go","0"
"pit-trial","226","1506706","0.0-112.0","battery-v0.2","","""event"",""trial"",""time""
""fullscreenenter"",""1"",""2510""
","
","
","""event"",""trial"",""time""
""fullscreenenter"",""1"",""2510""
","
","","","-1","","","15","3568","1984","f","elianto","#3366ff99","-1","-1","1","+10","[]","0","2","","","3568","108","8","2","win","no-go","0"
"pit-trial","227","1511565","0.0-113.0","battery-v0.2","","""event"",""trial"",""time""
""fullscreenenter"",""1"",""2510""
","
","
","""event"",""trial"",""time""
""fullscreenenter"",""1"",""2510""
","
","","","-1","","","15","3568","1984","f","elianto","#3366ff99","-1","-1","1","+10","[]","0","2","","","3568","109","8","2","win","no-go","0"
"pit-trial","228","1515436","0.0-114.0","battery-v0.2","","""event"",""trial"",""time""
""fullscreenenter"",""1"",""2510""
","
","
","""event"",""trial"",""time""
""fullscreenenter"",""1"",""2510""
","
","","","1013.3000000002794","","","15","3568","1984","c","elianto","#3366ff99"," "," ","1","+10","[1863.3999999999069]","1","2","","","3568","110","5","1","win","go","0"
"pit-trial","229","1520296","0.0-115.0","battery-v0.2","","""event"",""trial"",""time""
""fullscreenenter"",""1"",""2510""
","
","
","""event"",""trial"",""time""
""fullscreenenter"",""1"",""2510""
","
","","","-1","","","15","3568","1984","b","elianto","#f73b6a7A","-1","-1","1","-10","[]","0","2","","","3568","111","6","4","lose","no-go","1"
"pit-trial","230","1525155","0.0-116.0","battery-v0.2","","""event"",""trial"",""time""
""fullscreenenter"",""1"",""2510""
","
","
","""event"",""trial"",""time""
""fullscreenenter"",""1"",""2510""
","
","","","-1","","","15","3568","1984","n","elianto","#3366ff99","-1","-1","1","0","[]","0","2","","","3568","112","9","2","win","no-go","1"
"pit-trial","231","1530015","0.0-117.0","battery-v0.2","","""event"",""trial"",""time""
""fullscreenenter"",""1"",""2510""
","
","
","""event"",""trial"",""time""
""fullscreenenter"",""1"",""2510""
","
","","","-1","","","15","3568","1984","f","elianto","#3366ff99","-1","-1","1","+10","[]","0","2","","","3568","113","8","2","win","no-go","0"
"pit-trial","232","1534874","0.0-118.0","battery-v0.2","","""event"",""trial"",""time""
""fullscreenenter"",""1"",""2510""
","
","
","""event"",""trial"",""time""
""fullscreenenter"",""1"",""2510""
","
","","","-1","","","15","3568","1984","t","elianto","#f73b6a7A"," ","-1","0","-10","[]","0","2","","","3568","114","7","3","lose","go","0"
"pit-trial","233","1539153","0.0-119.0","battery-v0.2","","""event"",""trial"",""time""
""fullscreenenter"",""1"",""2510""
","
","
","""event"",""trial"",""time""
""fullscreenenter"",""1"",""2510""
","
","","","1420.7999999998137","","","15","3568","1984","n","elianto","#3366ff99","-1"," ","0","+10","[2271]","1","2","","","3568","115","9","2","win","no-go","1"
"pit-trial","234","1543039","0.0-120.0","battery-v0.2","","""event"",""trial"",""time""
""fullscreenenter"",""1"",""2510""
","
","
","""event"",""trial"",""time""
""fullscreenenter"",""1"",""2510""
","
","","","1026.7000000001863","","","15","3568","1984","c","elianto","#3366ff99"," "," ","1","+10","[1877.0999999996275]","1","2","","","3568","116","5","1","win","go","0"
"pit-trial","235","1547902","0.0-121.0","battery-v0.2","","""event"",""trial"",""time""
""fullscreenenter"",""1"",""2510""
","
","
","""event"",""trial"",""time""
""fullscreenenter"",""1"",""2510""
","
","","","-1","","","15","3568","1984","b","elianto","#f73b6a7A","-1","-1","1","0","[]","0","2","","","3568","117","6","4","lose","no-go","0"
"pit-trial","236","1551607","0.0-122.0","battery-v0.2","","""event"",""trial"",""time""
""fullscreenenter"",""1"",""2510""
","
","
","""event"",""trial"",""time""
""fullscreenenter"",""1"",""2510""
","
","","","844.8999999999069","","","15","3568","1984","c","elianto","#3366ff99"," "," ","1","+10","[1695.3000000002794]","1","2","","","3568","118","5","1","win","go","0"
"pit-trial","237","1555549","0.0-123.0","battery-v0.2","","""event"",""trial"",""time""
""fullscreenenter"",""1"",""2510""
","
","
","""event"",""trial"",""time""
""fullscreenenter"",""1"",""2510""
","
","","","1083.6000000000931","","","15","3568","1984","f","elianto","#3366ff99","-1"," ","0","0","[1933.8000000002794]","1","2","","","3568","119","8","2","win","no-go","0"
"pit-trial","238","1559625","0.0-124.0","battery-v0.2","","""event"",""trial"",""time""
""fullscreenenter"",""1"",""2510""
","
","
","""event"",""trial"",""time""
""fullscreenenter"",""1"",""2510""
","
","","","1217","","","15","3568","1984","n","elianto","#3366ff99","-1"," ","0","0","[2067.2999999998137]","1","2","","","3568","120","9","2","win","no-go","0"
"pit-trial","239","1563669","0.0-125.0","battery-v0.2","","""event"",""trial"",""time""
""fullscreenenter"",""1"",""2510""
","
","
","""event"",""trial"",""time""
""fullscreenenter"",""1"",""2510""
","
","","","1183.6000000000931","","","15","3568","1984","n","elianto","#3366ff99","-1"," ","0","0","[2034.8999999999069]","1","2","","","3568","121","9","2","win","no-go","0"
"pit-trial","240","1568529","0.0-126.0","battery-v0.2","","""event"",""trial"",""time""
""fullscreenenter"",""1"",""2510""
","
","
","""event"",""trial"",""time""
""fullscreenenter"",""1"",""2510""
","
","","","-1","","","15","3568","1984","t","elianto","#f73b6a7A"," ","-1","0","0","[]","0","2","","","3568","122","7","3","lose","go","1"
"pit-trial","241","1573390","0.0-127.0","battery-v0.2","","""event"",""trial"",""time""
""fullscreenenter"",""1"",""2510""
","
","
","""event"",""trial"",""time""
""fullscreenenter"",""1"",""2510""
","
","","","-1","","","15","3568","1984","f","elianto","#3366ff99","-1","-1","1","+10","[]","0","2","","","3568","123","8","2","win","no-go","0"
"pit-trial","242","1577437","0.0-128.0","battery-v0.2","","""event"",""trial"",""time""
""fullscreenenter"",""1"",""2510""
","
","
","""event"",""trial"",""time""
""fullscreenenter"",""1"",""2510""
","
","","","1187.6000000000931","","","15","3568","1984","c","elianto","#3366ff99"," "," ","1","0","[2038.5]","1","2","","","3568","124","5","1","win","go","1"
"pit-trial","243","1582297","0.0-129.0","battery-v0.2","","""event"",""trial"",""time""
""fullscreenenter"",""1"",""2510""
","
","
","""event"",""trial"",""time""
""fullscreenenter"",""1"",""2510""
","
","","","-1","","","15","3568","1984","b","elianto","#f73b6a7A","-1","-1","1","-10","[]","0","2","","","3568","125","6","4","lose","no-go","1"
"pit-trial","244","1587158","0.0-130.0","battery-v0.2","","""event"",""trial"",""time""
""fullscreenenter"",""1"",""2510""
","
","
","""event"",""trial"",""time""
""fullscreenenter"",""1"",""2510""
","
","","","-1","","","15","3568","1984","t","elianto","#f73b6a7A"," ","-1","0","-10","[]","0","2","","","3568","126","7","3","lose","go","0"
"pit-trial","245","1592020","0.0-131.0","battery-v0.2","","""event"",""trial"",""time""
""fullscreenenter"",""1"",""2510""
","
","
","""event"",""trial"",""time""
""fullscreenenter"",""1"",""2510""
","
","","","-1","","","15","3568","1984","f","elianto","#3366ff99","-1","-1","1","+10","[]","0","2","","","3568","127","8","2","win","no-go","0"
"pit-trial","246","1596118","0.0-132.0","battery-v0.2","","""event"",""trial"",""time""
""fullscreenenter"",""1"",""2510""
","
","
","""event"",""trial"",""time""
""fullscreenenter"",""1"",""2510""
","
","","","1237.2999999998137","","","15","3568","1984","n","elianto","#3366ff99","-1"," ","0","0","[2087.899999999907]","1","2","","","3568","128","9","2","win","no-go","0"
"pit-trial","247","1600979","0.0-133.0","battery-v0.2","","""event"",""trial"",""time""
""fullscreenenter"",""1"",""2510""
","
","
","""event"",""trial"",""time""
""fullscreenenter"",""1"",""2510""
","
","","","-1","","","15","3568","1984","n","elianto","#3366ff99","-1","-1","1","+10","[]","0","2","","","3568","129","9","2","win","no-go","0"
"pit-trial","248","1605840","0.0-134.0","battery-v0.2","","""event"",""trial"",""time""
""fullscreenenter"",""1"",""2510""
","
","
","""event"",""trial"",""time""
""fullscreenenter"",""1"",""2510""
","
","","","-1","","","15","3568","1984","f","elianto","#3366ff99","-1","-1","1","+10","[]","0","2","","","3568","130","8","2","win","no-go","0"
"pit-trial","249","1610708","0.0-135.0","battery-v0.2","","""event"",""trial"",""time""
""fullscreenenter"",""1"",""2510""
","
","
","""event"",""trial"",""time""
""fullscreenenter"",""1"",""2510""
","
","","","-1","","","15","3568","1984","b","elianto","#f73b6a7A","-1","-1","1","-10","[]","0","2","","","3568","131","6","4","lose","no-go","1"
"pit-trial","250","1615569","0.0-136.0","battery-v0.2","","""event"",""trial"",""time""
""fullscreenenter"",""1"",""2510""
","
","
","""event"",""trial"",""time""
""fullscreenenter"",""1"",""2510""
","
","","","-1","","","15","3568","1984","t","elianto","#f73b6a7A"," ","-1","0","-10","[]","0","2","","","3568","132","7","3","lose","go","0"
"pit-trial","251","1620427","0.0-137.0","battery-v0.2","","""event"",""trial"",""time""
""fullscreenenter"",""1"",""2510""
","
","
","""event"",""trial"",""time""
""fullscreenenter"",""1"",""2510""
","
","","","-1","","","15","3568","1984","f","elianto","#3366ff99","-1","-1","1","+10","[]","0","2","","","3568","133","8","2","win","no-go","0"
"pit-trial","252","1625286","0.0-138.0","battery-v0.2","","""event"",""trial"",""time""
""fullscreenenter"",""1"",""2510""
","
","
","""event"",""trial"",""time""
""fullscreenenter"",""1"",""2510""
","
","","","-1","","","15","3568","1984","n","elianto","#3366ff99","-1","-1","1","+10","[]","0","2","","","3568","134","9","2","win","no-go","0"
"pit-trial","253","1630144","0.0-139.0","battery-v0.2","","""event"",""trial"",""time""
""fullscreenenter"",""1"",""2510""
","
","
","""event"",""trial"",""time""
""fullscreenenter"",""1"",""2510""
","
","","","-1","","","15","3568","1984","b","elianto","#f73b6a7A","-1","-1","1","0","[]","0","2","","","3568","135","6","4","lose","no-go","0"
"pit-trial","254","1635004","0.0-140.0","battery-v0.2","","""event"",""trial"",""time""
""fullscreenenter"",""1"",""2510""
","
","
","""event"",""trial"",""time""
""fullscreenenter"",""1"",""2510""
","
","","","-1","","","15","3568","1984","t","elianto","#f73b6a7A"," ","-1","0","-10","[]","0","2","","","3568","136","7","3","lose","go","0"
"pit-trial","255","1639863","0.0-141.0","battery-v0.2","","""event"",""trial"",""time""
""fullscreenenter"",""1"",""2510""
","
","
","""event"",""trial"",""time""
""fullscreenenter"",""1"",""2510""
","
","","","-1","","","15","3568","1984","t","elianto","#f73b6a7A"," ","-1","0","0","[]","0","2","","","3568","137","7","3","lose","go","1"
"pit-trial","256","1644723","0.0-142.0","battery-v0.2","","""event"",""trial"",""time""
""fullscreenenter"",""1"",""2510""
","
","
","""event"",""trial"",""time""
""fullscreenenter"",""1"",""2510""
","
","","","-1","","","15","3568","1984","f","elianto","#3366ff99","-1","-1","1","+10","[]","0","2","","","3568","138","8","2","win","no-go","0"
"pit-trial","257","1649584","0.0-143.0","battery-v0.2","","""event"",""trial"",""time""
""fullscreenenter"",""1"",""2510""
","
","
","""event"",""trial"",""time""
""fullscreenenter"",""1"",""2510""
","
","","","-1","","","15","3568","1984","n","elianto","#3366ff99","-1","-1","1","+10","[]","0","2","","","3568","139","9","2","win","no-go","0"
"pit-trial","258","1654444","0.0-144.0","battery-v0.2","","""event"",""trial"",""time""
""fullscreenenter"",""1"",""2510""
","
","
","""event"",""trial"",""time""
""fullscreenenter"",""1"",""2510""
","
","","","-1","","","15","3568","1984","b","elianto","#f73b6a7A","-1","-1","1","0","[]","0","2","","","3568","140","6","4","lose","no-go","0"
"pit-instructions","259","1673759","0.0-145.0","battery-v0.2","","""event"",""trial"",""time""
""fullscreenenter"",""1"",""2510""
","
","
","""event"",""trial"",""time""
""fullscreenenter"",""1"",""2510""
","
","","[{""page_index"":0,""viewing_time"":9963.399999999907},{""page_index"":1,""viewing_time"":9344.100000000093}]","19308.80000000028","","","","","","","","","","","","","","","","","","","","","","","",""
"pit-trial","260","1678622","0.0-146.0","battery-v0.2","","""event"",""trial"",""time""
""fullscreenenter"",""1"",""2510""
","
","
","""event"",""trial"",""time""
""fullscreenenter"",""1"",""2510""
","
","","","-1","","","15","3568","1984","g","elianto","#f73b6a7A","-1","-1","1","0","[]","0","3","","","3568","141","3","4","lose","no-go","0"
"pit-trial","261","1683482","0.0-147.0","battery-v0.2","","""event"",""trial"",""time""
""fullscreenenter"",""1"",""2510""
","
","
","""event"",""trial"",""time""
""fullscreenenter"",""1"",""2510""
","
","","","-1","","","15","3568","1984","l","elianto","#3366ff99","-1","-1","1","0","[]","0","3","","","3568","142","1","2","win","no-go","1"
"pit-trial","262","1688341","0.0-148.0","battery-v0.2","","""event"",""trial"",""time""
""fullscreenenter"",""1"",""2510""
","
","
","""event"",""trial"",""time""
""fullscreenenter"",""1"",""2510""
","
","","","-1","","","15","3568","1984","a","elianto","#f73b6a7A"," ","-1","0","0","[]","0","3","","","3568","143","2","3","lose","go","1"
"pit-trial","263","1692623","0.0-149.0","battery-v0.2","","""event"",""trial"",""time""
""fullscreenenter"",""1"",""2510""
","
","
","""event"",""trial"",""time""
""fullscreenenter"",""1"",""2510""
","
","","","1421.2999999998137","","","15","3568","1984","u","elianto","#f73b6a7A"," "," ","1","0","[2271.8000000002794]","1","3","","","3568","144","0","3","lose","go","0"
"pit-trial","264","1697483","0.0-150.0","battery-v0.2","","""event"",""trial"",""time""
""fullscreenenter"",""1"",""2510""
","
","
","""event"",""trial"",""time""
""fullscreenenter"",""1"",""2510""
","
","","","-1","","","15","3568","1984","u","elianto","#f73b6a7A"," ","-1","0","-10","[3029.5]","1","3","","","3568","145","0","3","lose","go","0"
"pit-trial","265","1702343","0.0-151.0","battery-v0.2","","""event"",""trial"",""time""
""fullscreenenter"",""1"",""2510""
","
","
","""event"",""trial"",""time""
""fullscreenenter"",""1"",""2510""
","
","","","-1","","","15","3568","1984","g","elianto","#f73b6a7A","-1","-1","1","0","[]","0","3","","","3568","146","3","4","lose","no-go","0"
"pit-trial","266","1707203","0.0-152.0","battery-v0.2","","""event"",""trial"",""time""
""fullscreenenter"",""1"",""2510""
","
","
","""event"",""trial"",""time""
""fullscreenenter"",""1"",""2510""
","
","","","-1","","","15","3568","1984","a","elianto","#f73b6a7A"," ","-1","0","-10","[]","0","3","","","3568","147","2","3","lose","go","0"
"pit-trial","267","1712063","0.0-153.0","battery-v0.2","","""event"",""trial"",""time""
""fullscreenenter"",""1"",""2510""
","
","
","""event"",""trial"",""time""
""fullscreenenter"",""1"",""2510""
","
","","","-1","","","15","3568","1984","l","elianto","#3366ff99","-1","-1","1","+10","[]","0","3","","","3568","148","1","2","win","no-go","0"
