"trial_type","trial_index","time_elapsed","internal_node_id","task_version","subject_id","interactions","blur_events","focus_events","fullscreenenter_events","fullscreenexit_events","success","view_history","rt","responses","num_errors","age","subject","participantId","rune","rune_set","hex","correct","choice","accuracy","outcome","keys","total_keys","block","practice","value","sub","trial","stimulus","robot","valence","action","sham"
"pavlovia","0","18","0.0-0.0","battery-v0.2","","""event"",""trial"",""time""
""blur"",""1"",""20950""
""focus"",""1"",""23130""
""fullscreenenter"",""1"",""38109""
","""event"",""trial"",""time""
""blur"",""1"",""20950""
","""event"",""trial"",""time""
""focus"",""1"",""23130""
","""event"",""trial"",""time""
""fullscreenenter"",""1"",""38109""
","
","","","","","","","","","","","","","","","","","","","","","","","","","","",""
"fullscreen","1","39096","0.0-1.0","battery-v0.2","","""event"",""trial"",""time""
""blur"",""1"",""20950""
""focus"",""1"",""23130""
""fullscreenenter"",""1"",""38109""
","""event"",""trial"",""time""
""blur"",""1"",""20950""
","""event"",""trial"",""time""
""focus"",""1"",""23130""
","""event"",""trial"",""time""
""fullscreenenter"",""1"",""38109""
","
","true","","","","","","","","","","","","","","","","","","","","","","","","","",""
"pit-instructions","2","46009","0.0-2.0-0.0","battery-v0.2","","""event"",""trial"",""time""
""blur"",""1"",""20950""
""focus"",""1"",""23130""
""fullscreenenter"",""1"",""38109""
","""event"",""trial"",""time""
""blur"",""1"",""20950""
","""event"",""trial"",""time""
""focus"",""1"",""23130""
","""event"",""trial"",""time""
""fullscreenenter"",""1"",""38109""
","
","","[{""page_index"":0,""viewing_time"":6908.5}]","6909.099999997765","","","","","","","","","","","","","","","","","","","","","","","",""
"pit-comprehension","3","50746","0.0-2.0-1.0-0.0","battery-v0.2","","""event"",""trial"",""time""
""blur"",""1"",""20950""
""focus"",""1"",""23130""
""fullscreenenter"",""1"",""38109""
","""event"",""trial"",""time""
""blur"",""1"",""20950""
","""event"",""trial"",""time""
""focus"",""1"",""23130""
","""event"",""trial"",""time""
""fullscreenenter"",""1"",""38109""
","
","","","4732.10000000149","[""shark""]","0","13","15930","6262","","","","","","","","","","","","","","","","","","",""
"pit-instructions","4","52185","0.0-2.0-1.0-1.0","battery-v0.2","","""event"",""trial"",""time""
""blur"",""1"",""20950""
""focus"",""1"",""23130""
""fullscreenenter"",""1"",""38109""
","""event"",""trial"",""time""
""blur"",""1"",""20950""
","""event"",""trial"",""time""
""focus"",""1"",""23130""
","""event"",""trial"",""time""
""fullscreenenter"",""1"",""38109""
","
","","[{""page_index"":0,""viewing_time"":1425.5}]","1425.8999999985099","","","","","","","","","","","","","","","","","","","","","","","",""
"pit-comprehension","5","56436","0.0-2.0-2.0-0.0","battery-v0.2","","""event"",""trial"",""time""
""blur"",""1"",""20950""
""focus"",""1"",""23130""
""fullscreenenter"",""1"",""38109""
","""event"",""trial"",""time""
""blur"",""1"",""20950""
","""event"",""trial"",""time""
""focus"",""1"",""23130""
","""event"",""trial"",""time""
""fullscreenenter"",""1"",""38109""
","
","","","4247.89999999851","[""tiger""]","0","13","15930","6262","","","","","","","","","","","","","","","","","","",""
"pit-instructions","6","58071","0.0-2.0-2.0-1.0","battery-v0.2","","""event"",""trial"",""time""
""blur"",""1"",""20950""
""focus"",""1"",""23130""
""fullscreenenter"",""1"",""38109""
","""event"",""trial"",""time""
""blur"",""1"",""20950""
","""event"",""trial"",""time""
""focus"",""1"",""23130""
","""event"",""trial"",""time""
""fullscreenenter"",""1"",""38109""
","
","","[{""page_index"":0,""viewing_time"":1631.7999999970198}]","1632","","","","","","","","","","","","","","","","","","","","","","","",""
"pit-instructions","7","168128","0.0-2.0-3.0","battery-v0.2","","""event"",""trial"",""time""
""blur"",""1"",""20950""
""focus"",""1"",""23130""
""fullscreenenter"",""1"",""38109""
","""event"",""trial"",""time""
""blur"",""1"",""20950""
","""event"",""trial"",""time""
""focus"",""1"",""23130""
","""event"",""trial"",""time""
""fullscreenenter"",""1"",""38109""
","
","","[{""page_index"":0,""viewing_time"":8749.39999999851},{""page_index"":1,""viewing_time"":6635.800000000745},{""page_index"":2,""viewing_time"":9946.5},{""page_index"":3,""viewing_time"":6281.60000000149},{""page_index"":4,""viewing_time"":9190.29999999702},{""page_index"":5,""viewing_time"":8832},{""page_index"":6,""viewing_time"":7572.300000000745},{""page_index"":7,""viewing_time"":7411.900000002235},{""page_index"":8,""viewing_time"":7035.599999997765},{""page_index"":9,""viewing_time"":14025.800000000745},{""page_index"":10,""viewing_time"":7058},{""page_index"":11,""viewing_time"":4543.60000000149},{""page_index"":12,""viewing_time"":6910.699999999255},{""page_index"":13,""viewing_time"":5860.599999997765}]","110054.5","","","","","","","","","","","","","","","","","","","","","","","",""
"pit-trial","8","172059","0.0-2.0-4.0-0.0","battery-v0.2","","""event"",""trial"",""time""
""blur"",""1"",""20950""
""focus"",""1"",""23130""
""fullscreenenter"",""1"",""38109""
","""event"",""trial"",""time""
""blur"",""1"",""20950""
","""event"",""trial"",""time""
""focus"",""1"",""23130""
","""event"",""trial"",""time""
""fullscreenenter"",""1"",""38109""
","
","","","1076","","","13","15930","6262","&#9784;","elianto","#FFFFF080"," "," ","1","&#10004","[1927]","1","0","0","","","","","","","",""
"pit-trial","9","175728","0.0-2.0-4.1-0.1","battery-v0.2","","""event"",""trial"",""time""
""blur"",""1"",""20950""
""focus"",""1"",""23130""
""fullscreenenter"",""1"",""38109""
","""event"",""trial"",""time""
""blur"",""1"",""20950""
","""event"",""trial"",""time""
""focus"",""1"",""23130""
","""event"",""trial"",""time""
""fullscreenenter"",""1"",""38109""
","
","","","811.9000000022352","","","13","15930","6262","&#9784;","elianto","#FFFFF080"," "," ","1","&#10004","[1663.7000000029802]","1","0","0","","","","","","","",""
"pit-trial","10","179164","0.0-2.0-4.2-0.2","battery-v0.2","","""event"",""trial"",""time""
""blur"",""1"",""20950""
""focus"",""1"",""23130""
""fullscreenenter"",""1"",""38109""
","""event"",""trial"",""time""
""blur"",""1"",""20950""
","""event"",""trial"",""time""
""focus"",""1"",""23130""
","""event"",""trial"",""time""
""fullscreenenter"",""1"",""38109""
","
","","","580.8000000007451","","","13","15930","6262","&#9784;","elianto","#FFFFF080"," "," ","1","&#10004","[1431.800000000745]","1","0","0","","","","","","","",""
"pit-trial","11","182310","0.0-2.0-4.3-0.3","battery-v0.2","","""event"",""trial"",""time""
""blur"",""1"",""20950""
""focus"",""1"",""23130""
""fullscreenenter"",""1"",""38109""
","""event"",""trial"",""time""
""blur"",""1"",""20950""
","""event"",""trial"",""time""
""focus"",""1"",""23130""
","""event"",""trial"",""time""
""fullscreenenter"",""1"",""38109""
","
","","","290.30000000074506","","","13","15930","6262","&#9784;","elianto","#FFFFF080"," "," ","1","&#10004","[1140.4000000022352]","1","0","0","","","","","","","",""
"pit-trial","12","185700","0.0-2.0-4.4-0.4","battery-v0.2","","""event"",""trial"",""time""
""blur"",""1"",""20950""
""focus"",""1"",""23130""
""fullscreenenter"",""1"",""38109""
","""event"",""trial"",""time""
""blur"",""1"",""20950""
","""event"",""trial"",""time""
""focus"",""1"",""23130""
","""event"",""trial"",""time""
""fullscreenenter"",""1"",""38109""
","
","","","534.5999999977648","","","13","15930","6262","&#9784;","elianto","#FFFFF080"," "," ","1","&#10004","[1385.5]","1","0","0","","","","","","","",""
"pit-instructions","13","209785","0.0-2.0-5.0","battery-v0.2","","""event"",""trial"",""time""
""blur"",""1"",""20950""
""focus"",""1"",""23130""
""fullscreenenter"",""1"",""38109""
","""event"",""trial"",""time""
""blur"",""1"",""20950""
","""event"",""trial"",""time""
""focus"",""1"",""23130""
","""event"",""trial"",""time""
""fullscreenenter"",""1"",""38109""
","
","","[{""page_index"":0,""viewing_time"":5504.800000000745},{""page_index"":1,""viewing_time"":6439.39999999851},{""page_index"":2,""viewing_time"":4403.300000000745},{""page_index"":3,""viewing_time"":7734.699999999255}]","24082.60000000149","","","","","","","","","","","","","","","","","","","","","","","",""
"pit-trial","14","214641","0.0-2.0-6.0-0.0","battery-v0.2","","""event"",""trial"",""time""
""blur"",""1"",""20950""
""focus"",""1"",""23130""
""fullscreenenter"",""1"",""38109""
","""event"",""trial"",""time""
""blur"",""1"",""20950""
","""event"",""trial"",""time""
""focus"",""1"",""23130""
","""event"",""trial"",""time""
""fullscreenenter"",""1"",""38109""
","
","","","-1","","","13","15930","6262","&#9854;","elianto","#FFFFF080","-1","-1","1","&#10004","[]","0","0","1","","","","","","","",""
"pit-trial","15","218268","0.0-2.0-6.1-0.1","battery-v0.2","","""event"",""trial"",""time""
""blur"",""1"",""20950""
""focus"",""1"",""23130""
""fullscreenenter"",""1"",""38109""
","""event"",""trial"",""time""
""blur"",""1"",""20950""
","""event"",""trial"",""time""
""focus"",""1"",""23130""
","""event"",""trial"",""time""
""fullscreenenter"",""1"",""38109""
","
","","","767.7000000029802","","","13","15930","6262","&#9854;","elianto","#FFFFF080","-1"," ","0","&#10060","[1622.3999999985099]","1","0","1","","","","","","","",""
"pit-trial","16","223123","0.0-2.0-6.2-0.2","battery-v0.2","","""event"",""trial"",""time""
""blur"",""1"",""20950""
""focus"",""1"",""23130""
""fullscreenenter"",""1"",""38109""
","""event"",""trial"",""time""
""blur"",""1"",""20950""
","""event"",""trial"",""time""
""focus"",""1"",""23130""
","""event"",""trial"",""time""
""fullscreenenter"",""1"",""38109""
","
","","","-1","","","13","15930","6262","&#9854;","elianto","#FFFFF080","-1","-1","1","&#10004","[]","0","0","1","","","","","","","",""
"pit-trial","17","227978","0.0-2.0-6.3-0.3","battery-v0.2","","""event"",""trial"",""time""
""blur"",""1"",""20950""
""focus"",""1"",""23130""
""fullscreenenter"",""1"",""38109""
","""event"",""trial"",""time""
""blur"",""1"",""20950""
","""event"",""trial"",""time""
""focus"",""1"",""23130""
","""event"",""trial"",""time""
""fullscreenenter"",""1"",""38109""
","
","","","-1","","","13","15930","6262","&#9854;","elianto","#FFFFF080","-1","-1","1","&#10004","[]","0","0","1","","","","","","","",""
"pit-trial","18","232833","0.0-2.0-6.4-0.4","battery-v0.2","","""event"",""trial"",""time""
""blur"",""1"",""20950""
""focus"",""1"",""23130""
""fullscreenenter"",""1"",""38109""
","""event"",""trial"",""time""
""blur"",""1"",""20950""
","""event"",""trial"",""time""
""focus"",""1"",""23130""
","""event"",""trial"",""time""
""fullscreenenter"",""1"",""38109""
","
","","","-1","","","13","15930","6262","&#9854;","elianto","#FFFFF080","-1","-1","1","&#10004","[]","0","0","1","","","","","","","",""
"pit-instructions","19","385654","0.0-2.0-7.0","battery-v0.2","","""event"",""trial"",""time""
""blur"",""1"",""20950""
""focus"",""1"",""23130""
""fullscreenenter"",""1"",""38109""
","""event"",""trial"",""time""
""blur"",""1"",""20950""
","""event"",""trial"",""time""
""focus"",""1"",""23130""
","""event"",""trial"",""time""
""fullscreenenter"",""1"",""38109""
","
","","[{""page_index"":0,""viewing_time"":5764.599999997765},{""page_index"":1,""viewing_time"":6343},{""page_index"":2,""viewing_time"":7116.60000000149},{""page_index"":3,""viewing_time"":10126.89999999851},{""page_index"":4,""viewing_time"":9902},{""page_index"":5,""viewing_time"":8334.300000000745},{""page_index"":6,""viewing_time"":8351.199999999255},{""page_index"":7,""viewing_time"":10882.800000000745},{""page_index"":8,""viewing_time"":7265.39999999851},{""page_index"":9,""viewing_time"":9035.400000002235},{""page_index"":10,""viewing_time"":7261.199999999255},{""page_index"":11,""viewing_time"":4824.60000000149},{""page_index"":12,""viewing_time"":15438.199999999255},{""page_index"":13,""viewing_time"":9283.5},{""page_index"":14,""viewing_time"":9553.099999997765},{""page_index"":15,""viewing_time"":8767},{""page_index"":16,""viewing_time"":8496.5},{""page_index"":17,""viewing_time"":6072}]","152818.69999999925","","","","","","","","","","","","","","","","","","","","","","","",""
"pit-trial","20","389981","0.0-2.0-8.0-0.0","battery-v0.2","","""event"",""trial"",""time""
""blur"",""1"",""20950""
""focus"",""1"",""23130""
""fullscreenenter"",""1"",""38109""
","""event"",""trial"",""time""
""blur"",""1"",""20950""
","""event"",""trial"",""time""
""focus"",""1"",""23130""
","""event"",""trial"",""time""
""fullscreenenter"",""1"",""38109""
","
","","","1472.1000000014901","","","13","15930","6262","&#9776;","elianto","#3366ff99"," "," ","1","+10","[2323.699999999255]","1","0","1","","","","","","","",""
"pit-trial","21","393278","0.0-2.0-8.0-1.0","battery-v0.2","","""event"",""trial"",""time""
""blur"",""1"",""20950""
""focus"",""1"",""23130""
""fullscreenenter"",""1"",""38109""
","""event"",""trial"",""time""
""blur"",""1"",""20950""
","""event"",""trial"",""time""
""focus"",""1"",""23130""
","""event"",""trial"",""time""
""fullscreenenter"",""1"",""38109""
","
","","","440.29999999701977","","","13","15930","6262","&#9776;","elianto","#3366ff99"," "," ","1","+10","[1292.699999999255]","1","0","1","","","","","","","",""
"pit-trial","22","396444","0.0-2.0-8.0-2.0","battery-v0.2","","""event"",""trial"",""time""
""blur"",""1"",""20950""
""focus"",""1"",""23130""
""fullscreenenter"",""1"",""38109""
","""event"",""trial"",""time""
""blur"",""1"",""20950""
","""event"",""trial"",""time""
""focus"",""1"",""23130""
","""event"",""trial"",""time""
""fullscreenenter"",""1"",""38109""
","
","","","311.80000000074506","","","13","15930","6262","&#9776;","elianto","#3366ff99"," "," ","1","+10","[1162.1000000014901]","1","0","1","","","","","","","",""
"pit-trial","23","399457","0.0-2.0-8.0-3.0","battery-v0.2","","""event"",""trial"",""time""
""blur"",""1"",""20950""
""focus"",""1"",""23130""
""fullscreenenter"",""1"",""38109""
","""event"",""trial"",""time""
""blur"",""1"",""20950""
","""event"",""trial"",""time""
""focus"",""1"",""23130""
","""event"",""trial"",""time""
""fullscreenenter"",""1"",""38109""
","
","","","158.39999999850988","","","13","15930","6262","&#9776;","elianto","#3366ff99"," "," ","1","0","[1010.8000000007451]","1","0","1","","","","","","","",""
"pit-trial","24","402593","0.0-2.0-8.0-4.0","battery-v0.2","","""event"",""trial"",""time""
""blur"",""1"",""20950""
""focus"",""1"",""23130""
""fullscreenenter"",""1"",""38109""
","""event"",""trial"",""time""
""blur"",""1"",""20950""
","""event"",""trial"",""time""
""focus"",""1"",""23130""
","""event"",""trial"",""time""
""fullscreenenter"",""1"",""38109""
","
","","","282","","","13","15930","6262","&#9776;","elianto","#3366ff99"," "," ","1","+10","[1133.0999999977648]","1","0","1","","","","","","","",""
"pit-trial","25","406038","0.0-2.0-8.1-0.1","battery-v0.2","","""event"",""trial"",""time""
""blur"",""1"",""20950""
""focus"",""1"",""23130""
""fullscreenenter"",""1"",""38109""
","""event"",""trial"",""time""
""blur"",""1"",""20950""
","""event"",""trial"",""time""
""focus"",""1"",""23130""
","""event"",""trial"",""time""
""fullscreenenter"",""1"",""38109""
","
","","","589.8999999985099","","","13","15930","6262","&#9776;","elianto","#3366ff99"," "," ","1","+10","[1440.5]","1","0","1","","","","","","","",""
"pit-trial","26","409106","0.0-2.0-8.1-1.1","battery-v0.2","","""event"",""trial"",""time""
""blur"",""1"",""20950""
""focus"",""1"",""23130""
""fullscreenenter"",""1"",""38109""
","""event"",""trial"",""time""
""blur"",""1"",""20950""
","""event"",""trial"",""time""
""focus"",""1"",""23130""
","""event"",""trial"",""time""
""fullscreenenter"",""1"",""38109""
","
","","","211.80000000074506","","","13","15930","6262","&#9776;","elianto","#3366ff99"," "," ","1","+10","[1065.199999999255]","1","0","1","","","","","","","",""
"pit-trial","27","412413","0.0-2.0-8.1-2.1","battery-v0.2","","""event"",""trial"",""time""
""blur"",""1"",""20950""
""focus"",""1"",""23130""
""fullscreenenter"",""1"",""38109""
","""event"",""trial"",""time""
""blur"",""1"",""20950""
","""event"",""trial"",""time""
""focus"",""1"",""23130""
","""event"",""trial"",""time""
""fullscreenenter"",""1"",""38109""
","
","","","453.30000000074506","","","13","15930","6262","&#9776;","elianto","#3366ff99"," "," ","1","+10","[1303.9000000022352]","1","0","1","","","","","","","",""
"pit-trial","28","415291","0.0-2.0-8.1-3.1","battery-v0.2","","""event"",""trial"",""time""
""blur"",""1"",""20950""
""focus"",""1"",""23130""
""fullscreenenter"",""1"",""38109""
","""event"",""trial"",""time""
""blur"",""1"",""20950""
","""event"",""trial"",""time""
""focus"",""1"",""23130""
","""event"",""trial"",""time""
""fullscreenenter"",""1"",""38109""
","
","","","24.299999997019768","","","13","15930","6262","&#9776;","elianto","#3366ff99"," "," ","1","0","[874.7999999970198,1862.2999999970198,2297,2653.89999999851]","4","0","1","","","","","","","",""
"pit-trial","29","418630","0.0-2.0-8.1-4.1","battery-v0.2","","""event"",""trial"",""time""
""blur"",""1"",""20950""
""focus"",""1"",""23130""
""fullscreenenter"",""1"",""38109""
","""event"",""trial"",""time""
""blur"",""1"",""20950""
","""event"",""trial"",""time""
""focus"",""1"",""23130""
","""event"",""trial"",""time""
""fullscreenenter"",""1"",""38109""
","
","","","485.69999999925494","","","13","15930","6262","&#9776;","elianto","#3366ff99"," "," ","1","+10","[193.40000000223517,761.8000000007451,1336.5,2895.400000002235]","4","0","1","","","","","","","",""
"pit-trial","30","421721","0.0-2.0-8.2-0.2","battery-v0.2","","""event"",""trial"",""time""
""blur"",""1"",""20950""
""focus"",""1"",""23130""
""fullscreenenter"",""1"",""38109""
","""event"",""trial"",""time""
""blur"",""1"",""20950""
","""event"",""trial"",""time""
""focus"",""1"",""23130""
","""event"",""trial"",""time""
""fullscreenenter"",""1"",""38109""
","
","","","237","","","13","15930","6262","&#9776;","elianto","#3366ff99"," "," ","1","+10","[468.5,1088,2829.300000000745]","3","0","1","","","","","","","",""
"pit-trial","31","424576","0.0-2.0-8.2-1.2","battery-v0.2","","""event"",""trial"",""time""
""blur"",""1"",""20950""
""focus"",""1"",""23130""
""fullscreenenter"",""1"",""38109""
","""event"",""trial"",""time""
""blur"",""1"",""20950""
","""event"",""trial"",""time""
""focus"",""1"",""23130""
","""event"",""trial"",""time""
""fullscreenenter"",""1"",""38109""
","
","","","0.30000000074505806","","","13","15930","6262","&#9776;","elianto","#3366ff99"," "," ","1","+10","[336.9000000022352,850.6000000014901]","2","0","1","","","","","","","",""
"pit-trial","32","427465","0.0-2.0-8.2-2.2","battery-v0.2","","""event"",""trial"",""time""
""blur"",""1"",""20950""
""focus"",""1"",""23130""
""fullscreenenter"",""1"",""38109""
","""event"",""trial"",""time""
""blur"",""1"",""20950""
","""event"",""trial"",""time""
""focus"",""1"",""23130""
","""event"",""trial"",""time""
""fullscreenenter"",""1"",""38109""
","
","","","34.399999998509884","","","13","15930","6262","&#9776;","elianto","#3366ff99"," "," ","1","+10","[410.30000000074506,884.8999999985099]","2","0","1","","","","","","","",""
"pit-trial","33","430355","0.0-2.0-8.2-3.2","battery-v0.2","","""event"",""trial"",""time""
""blur"",""1"",""20950""
""focus"",""1"",""23130""
""fullscreenenter"",""1"",""38109""
","""event"",""trial"",""time""
""blur"",""1"",""20950""
","""event"",""trial"",""time""
""focus"",""1"",""23130""
","""event"",""trial"",""time""
""fullscreenenter"",""1"",""38109""
","
","","","36.600000001490116","","","13","15930","6262","&#9776;","elianto","#3366ff99"," "," ","1","0","[888.3000000007451]","1","0","1","","","","","","","",""
"pit-trial","34","433224","0.0-2.0-8.2-4.2","battery-v0.2","","""event"",""trial"",""time""
""blur"",""1"",""20950""
""focus"",""1"",""23130""
""fullscreenenter"",""1"",""38109""
","""event"",""trial"",""time""
""blur"",""1"",""20950""
","""event"",""trial"",""time""
""focus"",""1"",""23130""
","""event"",""trial"",""time""
""fullscreenenter"",""1"",""38109""
","
","","","15.099999997764826","","","13","15930","6262","&#9776;","elianto","#3366ff99"," "," ","1","+10","[866.5999999977648]","1","0","1","","","","","","","",""
"call-function","35","433226","0.0-2.0-9.0","battery-v0.2","","""event"",""trial"",""time""
""blur"",""1"",""20950""
""focus"",""1"",""23130""
""fullscreenenter"",""1"",""38109""
","""event"",""trial"",""time""
""blur"",""1"",""20950""
","""event"",""trial"",""time""
""focus"",""1"",""23130""
","""event"",""trial"",""time""
""fullscreenenter"",""1"",""38109""
","
","","","","","","","","","","","","","","","","","","","","","","","","","","",""
"pit-instructions","36","488360","0.0-2.0-10.0","battery-v0.2","","""event"",""trial"",""time""
""blur"",""1"",""20950""
""focus"",""1"",""23130""
""fullscreenenter"",""1"",""38109""
","""event"",""trial"",""time""
""blur"",""1"",""20950""
","""event"",""trial"",""time""
""focus"",""1"",""23130""
","""event"",""trial"",""time""
""fullscreenenter"",""1"",""38109""
","
","","[{""page_index"":0,""viewing_time"":9738.099999997765},{""page_index"":1,""viewing_time"":11157.5},{""page_index"":2,""viewing_time"":14538.699999999255},{""page_index"":3,""viewing_time"":8929.5},{""page_index"":4,""viewing_time"":10768.5}]","55132.699999999255","","","","","","","","","","","","","","","","","","","","","","","",""
"pit-trial","37","493214","0.0-2.0-11.0-0.0","battery-v0.2","","""event"",""trial"",""time""
""blur"",""1"",""20950""
""focus"",""1"",""23130""
""fullscreenenter"",""1"",""38109""
","""event"",""trial"",""time""
""blur"",""1"",""20950""
","""event"",""trial"",""time""
""focus"",""1"",""23130""
","""event"",""trial"",""time""
""fullscreenenter"",""1"",""38109""
","
","","","-1","","","13","15930","6262","&#9761;","elianto","#3366ff99","-1","-1","1","+10","[]","0","0","2","","","","","","","",""
"pit-trial","38","498070","0.0-2.0-11.0-1.0","battery-v0.2","","""event"",""trial"",""time""
""blur"",""1"",""20950""
""focus"",""1"",""23130""
""fullscreenenter"",""1"",""38109""
","""event"",""trial"",""time""
""blur"",""1"",""20950""
","""event"",""trial"",""time""
""focus"",""1"",""23130""
","""event"",""trial"",""time""
""fullscreenenter"",""1"",""38109""
","
","","","-1","","","13","15930","6262","&#9761;","elianto","#3366ff99","-1","-1","1","+10","[]","0","0","2","","","","","","","",""
"pit-trial","39","502923","0.0-2.0-11.0-2.0","battery-v0.2","","""event"",""trial"",""time""
""blur"",""1"",""20950""
""focus"",""1"",""23130""
""fullscreenenter"",""1"",""38109""
","""event"",""trial"",""time""
""blur"",""1"",""20950""
","""event"",""trial"",""time""
""focus"",""1"",""23130""
","""event"",""trial"",""time""
""fullscreenenter"",""1"",""38109""
","
","","","-1","","","13","15930","6262","&#9761;","elianto","#3366ff99","-1","-1","1","+10","[]","0","0","2","","","","","","","",""
"pit-trial","40","507778","0.0-2.0-11.0-3.0","battery-v0.2","","""event"",""trial"",""time""
""blur"",""1"",""20950""
""focus"",""1"",""23130""
""fullscreenenter"",""1"",""38109""
","""event"",""trial"",""time""
""blur"",""1"",""20950""
","""event"",""trial"",""time""
""focus"",""1"",""23130""
","""event"",""trial"",""time""
""fullscreenenter"",""1"",""38109""
","
","","","-1","","","13","15930","6262","&#9761;","elianto","#3366ff99","-1","-1","1","0","[]","0","0","2","","","","","","","",""
"pit-trial","41","511518","0.0-2.0-11.0-4.0","battery-v0.2","","""event"",""trial"",""time""
""blur"",""1"",""20950""
""focus"",""1"",""23130""
""fullscreenenter"",""1"",""38109""
","""event"",""trial"",""time""
""blur"",""1"",""20950""
","""event"",""trial"",""time""
""focus"",""1"",""23130""
","""event"",""trial"",""time""
""fullscreenenter"",""1"",""38109""
","
","","","885.5","","","13","15930","6262","&#9761;","elianto","#3366ff99","-1"," ","0","0","[1736.6000000014901]","1","0","2","","","","","","","",""
"pit-trial","42","516373","0.0-2.0-11.1-0.1","battery-v0.2","","""event"",""trial"",""time""
""blur"",""1"",""20950""
""focus"",""1"",""23130""
""fullscreenenter"",""1"",""38109""
","""event"",""trial"",""time""
""blur"",""1"",""20950""
","""event"",""trial"",""time""
""focus"",""1"",""23130""
","""event"",""trial"",""time""
""fullscreenenter"",""1"",""38109""
","
","","","-1","","","13","15930","6262","&#9761;","elianto","#3366ff99","-1","-1","1","+10","[]","0","0","2","","","","","","","",""
"pit-trial","43","521227","0.0-2.0-11.1-1.1","battery-v0.2","","""event"",""trial"",""time""
""blur"",""1"",""20950""
""focus"",""1"",""23130""
""fullscreenenter"",""1"",""38109""
","""event"",""trial"",""time""
""blur"",""1"",""20950""
","""event"",""trial"",""time""
""focus"",""1"",""23130""
","""event"",""trial"",""time""
""fullscreenenter"",""1"",""38109""
","
","","","-1","","","13","15930","6262","&#9761;","elianto","#3366ff99","-1","-1","1","+10","[]","0","0","2","","","","","","","",""
"pit-trial","44","526082","0.0-2.0-11.1-2.1","battery-v0.2","","""event"",""trial"",""time""
""blur"",""1"",""20950""
""focus"",""1"",""23130""
""fullscreenenter"",""1"",""38109""
","""event"",""trial"",""time""
""blur"",""1"",""20950""
","""event"",""trial"",""time""
""focus"",""1"",""23130""
","""event"",""trial"",""time""
""fullscreenenter"",""1"",""38109""
","
","","","-1","","","13","15930","6262","&#9761;","elianto","#3366ff99","-1","-1","1","+10","[]","0","0","2","","","","","","","",""
"pit-trial","45","530936","0.0-2.0-11.1-3.1","battery-v0.2","","""event"",""trial"",""time""
""blur"",""1"",""20950""
""focus"",""1"",""23130""
""fullscreenenter"",""1"",""38109""
","""event"",""trial"",""time""
""blur"",""1"",""20950""
","""event"",""trial"",""time""
""focus"",""1"",""23130""
","""event"",""trial"",""time""
""fullscreenenter"",""1"",""38109""
","
","","","-1","","","13","15930","6262","&#9761;","elianto","#3366ff99","-1","-1","1","0","[]","0","0","2","","","","","","","",""
"pit-trial","46","535792","0.0-2.0-11.1-4.1","battery-v0.2","","""event"",""trial"",""time""
""blur"",""1"",""20950""
""focus"",""1"",""23130""
""fullscreenenter"",""1"",""38109""
","""event"",""trial"",""time""
""blur"",""1"",""20950""
","""event"",""trial"",""time""
""focus"",""1"",""23130""
","""event"",""trial"",""time""
""fullscreenenter"",""1"",""38109""
","
","","","-1","","","13","15930","6262","&#9761;","elianto","#3366ff99","-1","-1","1","+10","[]","0","0","2","","","","","","","",""
"pit-trial","47","540647","0.0-2.0-11.2-0.2","battery-v0.2","","""event"",""trial"",""time""
""blur"",""1"",""20950""
""focus"",""1"",""23130""
""fullscreenenter"",""1"",""38109""
","""event"",""trial"",""time""
""blur"",""1"",""20950""
","""event"",""trial"",""time""
""focus"",""1"",""23130""
","""event"",""trial"",""time""
""fullscreenenter"",""1"",""38109""
","
","","","-1","","","13","15930","6262","&#9761;","elianto","#3366ff99","-1","-1","1","+10","[]","0","0","2","","","","","","","",""
"pit-trial","48","545502","0.0-2.0-11.2-1.2","battery-v0.2","","""event"",""trial"",""time""
""blur"",""1"",""20950""
""focus"",""1"",""23130""
""fullscreenenter"",""1"",""38109""
","""event"",""trial"",""time""
""blur"",""1"",""20950""
","""event"",""trial"",""time""
""focus"",""1"",""23130""
","""event"",""trial"",""time""
""fullscreenenter"",""1"",""38109""
","
","","","-1","","","13","15930","6262","&#9761;","elianto","#3366ff99","-1","-1","1","+10","[]","0","0","2","","","","","","","",""
"pit-trial","49","550357","0.0-2.0-11.2-2.2","battery-v0.2","","""event"",""trial"",""time""
""blur"",""1"",""20950""
""focus"",""1"",""23130""
""fullscreenenter"",""1"",""38109""
","""event"",""trial"",""time""
""blur"",""1"",""20950""
","""event"",""trial"",""time""
""focus"",""1"",""23130""
","""event"",""trial"",""time""
""fullscreenenter"",""1"",""38109""
","
","","","-1","","","13","15930","6262","&#9761;","elianto","#3366ff99","-1","-1","1","+10","[]","0","0","2","","","","","","","",""
"pit-trial","50","555214","0.0-2.0-11.2-3.2","battery-v0.2","","""event"",""trial"",""time""
""blur"",""1"",""20950""
""focus"",""1"",""23130""
""fullscreenenter"",""1"",""38109""
","""event"",""trial"",""time""
""blur"",""1"",""20950""
","""event"",""trial"",""time""
""focus"",""1"",""23130""
","""event"",""trial"",""time""
""fullscreenenter"",""1"",""38109""
","
","","","-1","","","13","15930","6262","&#9761;","elianto","#3366ff99","-1","-1","1","0","[]","0","0","2","","","","","","","",""
"pit-trial","51","560068","0.0-2.0-11.2-4.2","battery-v0.2","","""event"",""trial"",""time""
""blur"",""1"",""20950""
""focus"",""1"",""23130""
""fullscreenenter"",""1"",""38109""
","""event"",""trial"",""time""
""blur"",""1"",""20950""
","""event"",""trial"",""time""
""focus"",""1"",""23130""
","""event"",""trial"",""time""
""fullscreenenter"",""1"",""38109""
","
","","","-1","","","13","15930","6262","&#9761;","elianto","#3366ff99","-1","-1","1","+10","[]","0","0","2","","","","","","","",""
"pit-trial","52","564922","0.0-2.0-11.3-0.3","battery-v0.2","","""event"",""trial"",""time""
""blur"",""1"",""20950""
""focus"",""1"",""23130""
""fullscreenenter"",""1"",""38109""
","""event"",""trial"",""time""
""blur"",""1"",""20950""
","""event"",""trial"",""time""
""focus"",""1"",""23130""
","""event"",""trial"",""time""
""fullscreenenter"",""1"",""38109""
","
","","","-1","","","13","15930","6262","&#9761;","elianto","#3366ff99","-1","-1","1","+10","[]","0","0","2","","","","","","","",""
"pit-trial","53","569777","0.0-2.0-11.3-1.3","battery-v0.2","","""event"",""trial"",""time""
""blur"",""1"",""20950""
""focus"",""1"",""23130""
""fullscreenenter"",""1"",""38109""
","""event"",""trial"",""time""
""blur"",""1"",""20950""
","""event"",""trial"",""time""
""focus"",""1"",""23130""
","""event"",""trial"",""time""
""fullscreenenter"",""1"",""38109""
","
","","","-1","","","13","15930","6262","&#9761;","elianto","#3366ff99","-1","-1","1","+10","[]","0","0","2","","","","","","","",""
"pit-trial","54","574631","0.0-2.0-11.3-2.3","battery-v0.2","","""event"",""trial"",""time""
""blur"",""1"",""20950""
""focus"",""1"",""23130""
""fullscreenenter"",""1"",""38109""
","""event"",""trial"",""time""
""blur"",""1"",""20950""
","""event"",""trial"",""time""
""focus"",""1"",""23130""
","""event"",""trial"",""time""
""fullscreenenter"",""1"",""38109""
","
","","","-1","","","13","15930","6262","&#9761;","elianto","#3366ff99","-1","-1","1","+10","[]","0","0","2","","","","","","","",""
"pit-trial","55","579485","0.0-2.0-11.3-3.3","battery-v0.2","","""event"",""trial"",""time""
""blur"",""1"",""20950""
""focus"",""1"",""23130""
""fullscreenenter"",""1"",""38109""
","""event"",""trial"",""time""
""blur"",""1"",""20950""
","""event"",""trial"",""time""
""focus"",""1"",""23130""
","""event"",""trial"",""time""
""fullscreenenter"",""1"",""38109""
","
","","","-1","","","13","15930","6262","&#9761;","elianto","#3366ff99","-1","-1","1","0","[]","0","0","2","","","","","","","",""
"pit-trial","56","584339","0.0-2.0-11.3-4.3","battery-v0.2","","""event"",""trial"",""time""
""blur"",""1"",""20950""
""focus"",""1"",""23130""
""fullscreenenter"",""1"",""38109""
","""event"",""trial"",""time""
""blur"",""1"",""20950""
","""event"",""trial"",""time""
""focus"",""1"",""23130""
","""event"",""trial"",""time""
""fullscreenenter"",""1"",""38109""
","
","","","-1","","","13","15930","6262","&#9761;","elianto","#3366ff99","-1","-1","1","+10","[]","0","0","2","","","","","","","",""
"call-function","57","584341","0.0-2.0-12.0","battery-v0.2","","""event"",""trial"",""time""
""blur"",""1"",""20950""
""focus"",""1"",""23130""
""fullscreenenter"",""1"",""38109""
","""event"",""trial"",""time""
""blur"",""1"",""20950""
","""event"",""trial"",""time""
""focus"",""1"",""23130""
","""event"",""trial"",""time""
""fullscreenenter"",""1"",""38109""
","
","","","","","","","","","","","","","","","","","","","","","","","","","","",""
"pit-instructions","58","647419","0.0-2.0-13.0","battery-v0.2","","""event"",""trial"",""time""
""blur"",""1"",""20950""
""focus"",""1"",""23130""
""fullscreenenter"",""1"",""38109""
","""event"",""trial"",""time""
""blur"",""1"",""20950""
","""event"",""trial"",""time""
""focus"",""1"",""23130""
","""event"",""trial"",""time""
""fullscreenenter"",""1"",""38109""
","
","","[{""page_index"":0,""viewing_time"":11497.400000002235},{""page_index"":1,""viewing_time"":11762.800000000745},{""page_index"":2,""viewing_time"":3263.699999999255},{""page_index"":3,""viewing_time"":3691.599999997765},{""page_index"":2,""viewing_time"":3788.10000000149},{""page_index"":3,""viewing_time"":10186.300000000745},{""page_index"":4,""viewing_time"":18888}]","63078.20000000298","","","","","","","","","","","","","","","","","","","","","","","",""
"pit-trial","59","652273","0.0-2.0-14.0-0.0","battery-v0.2","","""event"",""trial"",""time""
""blur"",""1"",""20950""
""focus"",""1"",""23130""
""fullscreenenter"",""1"",""38109""
","""event"",""trial"",""time""
""blur"",""1"",""20950""
","""event"",""trial"",""time""
""focus"",""1"",""23130""
","""event"",""trial"",""time""
""fullscreenenter"",""1"",""38109""
","
","","","-1","","","13","15930","6262","&#9826;","elianto","#f73b6a7A","-1","-1","1","0","[]","0","0","3","","","","","","","",""
"pit-trial","60","655285","0.0-2.0-14.0-1.0","battery-v0.2","","""event"",""trial"",""time""
""blur"",""1"",""20950""
""focus"",""1"",""23130""
""fullscreenenter"",""1"",""38109""
","""event"",""trial"",""time""
""blur"",""1"",""20950""
","""event"",""trial"",""time""
""focus"",""1"",""23130""
","""event"",""trial"",""time""
""fullscreenenter"",""1"",""38109""
","
","","","158","","","13","15930","6262","&#9826;","elianto","#f73b6a7A","-1"," ","0","-10","[1008.2000000029802]","1","0","3","","","","","","","",""
"pit-trial","61","660139","0.0-2.0-14.0-2.0","battery-v0.2","","""event"",""trial"",""time""
""blur"",""1"",""20950""
""focus"",""1"",""23130""
""fullscreenenter"",""1"",""38109""
","""event"",""trial"",""time""
""blur"",""1"",""20950""
","""event"",""trial"",""time""
""focus"",""1"",""23130""
","""event"",""trial"",""time""
""fullscreenenter"",""1"",""38109""
","
","","","-1","","","13","15930","6262","&#9826;","elianto","#f73b6a7A","-1","-1","1","0","[]","0","0","3","","","","","","","",""
"pit-trial","62","664994","0.0-2.0-14.0-3.0","battery-v0.2","","""event"",""trial"",""time""
""blur"",""1"",""20950""
""focus"",""1"",""23130""
""fullscreenenter"",""1"",""38109""
","""event"",""trial"",""time""
""blur"",""1"",""20950""
","""event"",""trial"",""time""
""focus"",""1"",""23130""
","""event"",""trial"",""time""
""fullscreenenter"",""1"",""38109""
","
","","","-1","","","13","15930","6262","&#9826;","elianto","#f73b6a7A","-1","-1","1","-10","[]","0","0","3","","","","","","","",""
"pit-trial","63","669851","0.0-2.0-14.0-4.0","battery-v0.2","","""event"",""trial"",""time""
""blur"",""1"",""20950""
""focus"",""1"",""23130""
""fullscreenenter"",""1"",""38109""
","""event"",""trial"",""time""
""blur"",""1"",""20950""
","""event"",""trial"",""time""
""focus"",""1"",""23130""
","""event"",""trial"",""time""
""fullscreenenter"",""1"",""38109""
","
","","","-1","","","13","15930","6262","&#9826;","elianto","#f73b6a7A","-1","-1","1","0","[]","0","0","3","","","","","","","",""
"pit-trial","64","674707","0.0-2.0-14.1-0.1","battery-v0.2","","""event"",""trial"",""time""
""blur"",""1"",""20950""
""focus"",""1"",""23130""
""fullscreenenter"",""1"",""38109""
","""event"",""trial"",""time""
""blur"",""1"",""20950""
","""event"",""trial"",""time""
""focus"",""1"",""23130""
","""event"",""trial"",""time""
""fullscreenenter"",""1"",""38109""
","
","","","-1","","","13","15930","6262","&#9826;","elianto","#f73b6a7A","-1","-1","1","0","[]","0","0","3","","","","","","","",""
"pit-trial","65","679561","0.0-2.0-14.1-1.1","battery-v0.2","","""event"",""trial"",""time""
""blur"",""1"",""20950""
""focus"",""1"",""23130""
""fullscreenenter"",""1"",""38109""
","""event"",""trial"",""time""
""blur"",""1"",""20950""
","""event"",""trial"",""time""
""focus"",""1"",""23130""
","""event"",""trial"",""time""
""fullscreenenter"",""1"",""38109""
","
","","","-1","","","13","15930","6262","&#9826;","elianto","#f73b6a7A","-1","-1","1","0","[]","0","0","3","","","","","","","",""
"pit-trial","66","684417","0.0-2.0-14.1-2.1","battery-v0.2","","""event"",""trial"",""time""
""blur"",""1"",""20950""
""focus"",""1"",""23130""
""fullscreenenter"",""1"",""38109""
","""event"",""trial"",""time""
""blur"",""1"",""20950""
","""event"",""trial"",""time""
""focus"",""1"",""23130""
","""event"",""trial"",""time""
""fullscreenenter"",""1"",""38109""
","
","","","-1","","","13","15930","6262","&#9826;","elianto","#f73b6a7A","-1","-1","1","0","[]","0","0","3","","","","","","","",""
"pit-trial","67","689270","0.0-2.0-14.1-3.1","battery-v0.2","","""event"",""trial"",""time""
""blur"",""1"",""20950""
""focus"",""1"",""23130""
""fullscreenenter"",""1"",""38109""
","""event"",""trial"",""time""
""blur"",""1"",""20950""
","""event"",""trial"",""time""
""focus"",""1"",""23130""
","""event"",""trial"",""time""
""fullscreenenter"",""1"",""38109""
","
","","","-1","","","13","15930","6262","&#9826;","elianto","#f73b6a7A","-1","-1","1","-10","[]","0","0","3","","","","","","","",""
"pit-trial","68","694125","0.0-2.0-14.1-4.1","battery-v0.2","","""event"",""trial"",""time""
""blur"",""1"",""20950""
""focus"",""1"",""23130""
""fullscreenenter"",""1"",""38109""
","""event"",""trial"",""time""
""blur"",""1"",""20950""
","""event"",""trial"",""time""
""focus"",""1"",""23130""
","""event"",""trial"",""time""
""fullscreenenter"",""1"",""38109""
","
","","","-1","","","13","15930","6262","&#9826;","elianto","#f73b6a7A","-1","-1","1","0","[]","0","0","3","","","","","","","",""
"pit-trial","69","698980","0.0-2.0-14.2-0.2","battery-v0.2","","""event"",""trial"",""time""
""blur"",""1"",""20950""
""focus"",""1"",""23130""
""fullscreenenter"",""1"",""38109""
","""event"",""trial"",""time""
""blur"",""1"",""20950""
","""event"",""trial"",""time""
""focus"",""1"",""23130""
","""event"",""trial"",""time""
""fullscreenenter"",""1"",""38109""
","
","","","-1","","","13","15930","6262","&#9826;","elianto","#f73b6a7A","-1","-1","1","0","[]","0","0","3","","","","","","","",""
"pit-trial","70","703835","0.0-2.0-14.2-1.2","battery-v0.2","","""event"",""trial"",""time""
""blur"",""1"",""20950""
""focus"",""1"",""23130""
""fullscreenenter"",""1"",""38109""
","""event"",""trial"",""time""
""blur"",""1"",""20950""
","""event"",""trial"",""time""
""focus"",""1"",""23130""
","""event"",""trial"",""time""
""fullscreenenter"",""1"",""38109""
","
","","","-1","","","13","15930","6262","&#9826;","elianto","#f73b6a7A","-1","-1","1","0","[]","0","0","3","","","","","","","",""
"pit-trial","71","708689","0.0-2.0-14.2-2.2","battery-v0.2","","""event"",""trial"",""time""
""blur"",""1"",""20950""
""focus"",""1"",""23130""
""fullscreenenter"",""1"",""38109""
","""event"",""trial"",""time""
""blur"",""1"",""20950""
","""event"",""trial"",""time""
""focus"",""1"",""23130""
","""event"",""trial"",""time""
""fullscreenenter"",""1"",""38109""
","
","","","-1","","","13","15930","6262","&#9826;","elianto","#f73b6a7A","-1","-1","1","0","[]","0","0","3","","","","","","","",""
"pit-trial","72","713545","0.0-2.0-14.2-3.2","battery-v0.2","","""event"",""trial"",""time""
""blur"",""1"",""20950""
""focus"",""1"",""23130""
""fullscreenenter"",""1"",""38109""
","""event"",""trial"",""time""
""blur"",""1"",""20950""
","""event"",""trial"",""time""
""focus"",""1"",""23130""
","""event"",""trial"",""time""
""fullscreenenter"",""1"",""38109""
","
","","","-1","","","13","15930","6262","&#9826;","elianto","#f73b6a7A","-1","-1","1","-10","[]","0","0","3","","","","","","","",""
"pit-trial","73","718400","0.0-2.0-14.2-4.2","battery-v0.2","","""event"",""trial"",""time""
""blur"",""1"",""20950""
""focus"",""1"",""23130""
""fullscreenenter"",""1"",""38109""
","""event"",""trial"",""time""
""blur"",""1"",""20950""
","""event"",""trial"",""time""
""focus"",""1"",""23130""
","""event"",""trial"",""time""
""fullscreenenter"",""1"",""38109""
","
","","","-1","","","13","15930","6262","&#9826;","elianto","#f73b6a7A","-1","-1","1","0","[]","0","0","3","","","","","","","",""
"pit-trial","74","723256","0.0-2.0-14.3-0.3","battery-v0.2","","""event"",""trial"",""time""
""blur"",""1"",""20950""
""focus"",""1"",""23130""
""fullscreenenter"",""1"",""38109""
","""event"",""trial"",""time""
""blur"",""1"",""20950""
","""event"",""trial"",""time""
""focus"",""1"",""23130""
","""event"",""trial"",""time""
""fullscreenenter"",""1"",""38109""
","
","","","-1","","","13","15930","6262","&#9826;","elianto","#f73b6a7A","-1","-1","1","0","[]","0","0","3","","","","","","","",""
"pit-trial","75","728111","0.0-2.0-14.3-1.3","battery-v0.2","","""event"",""trial"",""time""
""blur"",""1"",""20950""
""focus"",""1"",""23130""
""fullscreenenter"",""1"",""38109""
","""event"",""trial"",""time""
""blur"",""1"",""20950""
","""event"",""trial"",""time""
""focus"",""1"",""23130""
","""event"",""trial"",""time""
""fullscreenenter"",""1"",""38109""
","
","","","-1","","","13","15930","6262","&#9826;","elianto","#f73b6a7A","-1","-1","1","0","[]","0","0","3","","","","","","","",""
"pit-trial","76","732965","0.0-2.0-14.3-2.3","battery-v0.2","","""event"",""trial"",""time""
""blur"",""1"",""20950""
""focus"",""1"",""23130""
""fullscreenenter"",""1"",""38109""
","""event"",""trial"",""time""
""blur"",""1"",""20950""
","""event"",""trial"",""time""
""focus"",""1"",""23130""
","""event"",""trial"",""time""
""fullscreenenter"",""1"",""38109""
","
","","","-1","","","13","15930","6262","&#9826;","elianto","#f73b6a7A","-1","-1","1","0","[]","0","0","3","","","","","","","",""
"pit-trial","77","737820","0.0-2.0-14.3-3.3","battery-v0.2","","""event"",""trial"",""time""
""blur"",""1"",""20950""
""focus"",""1"",""23130""
""fullscreenenter"",""1"",""38109""
","""event"",""trial"",""time""
""blur"",""1"",""20950""
","""event"",""trial"",""time""
""focus"",""1"",""23130""
","""event"",""trial"",""time""
""fullscreenenter"",""1"",""38109""
","
","","","-1","","","13","15930","6262","&#9826;","elianto","#f73b6a7A","-1","-1","1","-10","[]","0","0","3","","","","","","","",""
"pit-trial","78","742675","0.0-2.0-14.3-4.3","battery-v0.2","","""event"",""trial"",""time""
""blur"",""1"",""20950""
""focus"",""1"",""23130""
""fullscreenenter"",""1"",""38109""
","""event"",""trial"",""time""
""blur"",""1"",""20950""
","""event"",""trial"",""time""
""focus"",""1"",""23130""
","""event"",""trial"",""time""
""fullscreenenter"",""1"",""38109""
","
","","","-1","","","13","15930","6262","&#9826;","elianto","#f73b6a7A","-1","-1","1","0","[]","0","0","3","","","","","","","",""
"call-function","79","742677","0.0-2.0-15.0","battery-v0.2","","""event"",""trial"",""time""
""blur"",""1"",""20950""
""focus"",""1"",""23130""
""fullscreenenter"",""1"",""38109""
","""event"",""trial"",""time""
""blur"",""1"",""20950""
","""event"",""trial"",""time""
""focus"",""1"",""23130""
","""event"",""trial"",""time""
""fullscreenenter"",""1"",""38109""
","
","","","","","","","","","","","","","","","","","","","","","","","","","","",""
"pit-instructions","80","773730","0.0-2.0-16.0","battery-v0.2","","""event"",""trial"",""time""
""blur"",""1"",""20950""
""focus"",""1"",""23130""
""fullscreenenter"",""1"",""38109""
","""event"",""trial"",""time""
""blur"",""1"",""20950""
","""event"",""trial"",""time""
""focus"",""1"",""23130""
","""event"",""trial"",""time""
""fullscreenenter"",""1"",""38109""
","
","","[{""page_index"":0,""viewing_time"":8200.800000000745},{""page_index"":1,""viewing_time"":12457.89999999851},{""page_index"":2,""viewing_time"":5083.60000000149},{""page_index"":3,""viewing_time"":5309.300000000745}]","31051.800000000745","","","","","","","","","","","","","","","","","","","","","","","",""
"pit-trial","81","778583","0.0-2.0-17.0-0.0","battery-v0.2","","""event"",""trial"",""time""
""blur"",""1"",""20950""
""focus"",""1"",""23130""
""fullscreenenter"",""1"",""38109""
","""event"",""trial"",""time""
""blur"",""1"",""20950""
","""event"",""trial"",""time""
""focus"",""1"",""23130""
","""event"",""trial"",""time""
""fullscreenenter"",""1"",""38109""
","
","","","-1","","","13","15930","6262","&#9789;","elianto","#f73b6a7A"," ","-1","0","-10","[]","0","0","4","","","","","","","",""
"pit-trial","82","783439","0.0-2.0-17.0-1.0","battery-v0.2","","""event"",""trial"",""time""
""blur"",""1"",""20950""
""focus"",""1"",""23130""
""fullscreenenter"",""1"",""38109""
","""event"",""trial"",""time""
""blur"",""1"",""20950""
","""event"",""trial"",""time""
""focus"",""1"",""23130""
","""event"",""trial"",""time""
""fullscreenenter"",""1"",""38109""
","
","","","-1","","","13","15930","6262","&#9789;","elianto","#f73b6a7A"," ","-1","0","-10","[2929.199999999255,3427.800000000745,3708.5,4022.39999999851]","4","0","4","","","","","","","",""
"pit-trial","83","786551","0.0-2.0-17.0-2.0","battery-v0.2","","""event"",""trial"",""time""
""blur"",""1"",""20950""
""focus"",""1"",""23130""
""fullscreenenter"",""1"",""38109""
","""event"",""trial"",""time""
""blur"",""1"",""20950""
","""event"",""trial"",""time""
""focus"",""1"",""23130""
","""event"",""trial"",""time""
""fullscreenenter"",""1"",""38109""
","
","","","251.20000000298023","","","13","15930","6262","&#9789;","elianto","#f73b6a7A"," "," ","1","0","[207,655,1109,2077.7999999970198,2619.39999999851]","5","0","4","","","","","","","",""
"pit-trial","84","789881","0.0-2.0-17.0-3.0","battery-v0.2","","""event"",""trial"",""time""
""blur"",""1"",""20950""
""focus"",""1"",""23130""
""fullscreenenter"",""1"",""38109""
","""event"",""trial"",""time""
""blur"",""1"",""20950""
","""event"",""trial"",""time""
""focus"",""1"",""23130""
","""event"",""trial"",""time""
""fullscreenenter"",""1"",""38109""
","
","","","475.6000000014901","","","13","15930","6262","&#9789;","elianto","#f73b6a7A"," "," ","1","-10","[212.39999999850988,757.1999999992549,1327,1898.0999999977648,2422.099999997765,2896.099999997765]","6","0","4","","","","","","","",""
"pit-trial","85","792873","0.0-2.0-17.0-4.0","battery-v0.2","","""event"",""trial"",""time""
""blur"",""1"",""20950""
""focus"",""1"",""23130""
""fullscreenenter"",""1"",""38109""
","""event"",""trial"",""time""
""blur"",""1"",""20950""
","""event"",""trial"",""time""
""focus"",""1"",""23130""
","""event"",""trial"",""time""
""fullscreenenter"",""1"",""38109""
","
","","","137.5","","","13","15930","6262","&#9789;","elianto","#f73b6a7A"," "," ","1","0","[114.80000000074506,520.8000000007451,987.6000000014901,1564.8999999985099,2013.699999999255,2476.800000000745]","6","0","4","","","","","","","",""
"pit-trial","86","796192","0.0-2.0-17.1-0.1","battery-v0.2","","""event"",""trial"",""time""
""blur"",""1"",""20950""
""focus"",""1"",""23130""
""fullscreenenter"",""1"",""38109""
","""event"",""trial"",""time""
""blur"",""1"",""20950""
","""event"",""trial"",""time""
""focus"",""1"",""23130""
","""event"",""trial"",""time""
""fullscreenenter"",""1"",""38109""
","
","","","462.5999999977648","","","13","15930","6262","&#9789;","elianto","#f73b6a7A"," "," ","1","0","[251.80000000074506,848.6999999992549,1314.3999999985099,1955.699999999255,2425.300000000745,2893.199999999255]","6","0","4","","","","","","","",""
"pit-trial","87","799229","0.0-2.0-17.1-1.1","battery-v0.2","","""event"",""trial"",""time""
""blur"",""1"",""20950""
""focus"",""1"",""23130""
""fullscreenenter"",""1"",""38109""
","""event"",""trial"",""time""
""blur"",""1"",""20950""
","""event"",""trial"",""time""
""focus"",""1"",""23130""
","""event"",""trial"",""time""
""fullscreenenter"",""1"",""38109""
","
","","","182.30000000074506","","","13","15930","6262","&#9789;","elianto","#f73b6a7A"," "," ","1","0","[196,621.1999999992549,1033.5999999977648,1426.3999999985099,1811.3999999985099,2170.099999997765,2497,2810.300000000745]","8","0","4","","","","","","","",""
"pit-trial","88","802258","0.0-2.0-17.1-2.1","battery-v0.2","","""event"",""trial"",""time""
""blur"",""1"",""20950""
""focus"",""1"",""23130""
""fullscreenenter"",""1"",""38109""
","""event"",""trial"",""time""
""blur"",""1"",""20950""
","""event"",""trial"",""time""
""focus"",""1"",""23130""
","""event"",""trial"",""time""
""fullscreenenter"",""1"",""38109""
","
","","","175.80000000074506","","","13","15930","6262","&#9789;","elianto","#f73b6a7A"," "," ","1","0","[265.80000000074506,575.5999999977648,1026.8999999985099,1267.699999999255,1507.199999999255,1746,2012.5999999977648,2253.39999999851,2598.599999997765]","9","0","4","","","","","","","",""
"pit-trial","89","805627","0.0-2.0-17.1-3.1","battery-v0.2","","""event"",""trial"",""time""
""blur"",""1"",""20950""
""focus"",""1"",""23130""
""fullscreenenter"",""1"",""38109""
","""event"",""trial"",""time""
""blur"",""1"",""20950""
","""event"",""trial"",""time""
""focus"",""1"",""23130""
","""event"",""trial"",""time""
""fullscreenenter"",""1"",""38109""
","
","","","512.6000000014901","","","13","15930","6262","&#9789;","elianto","#f73b6a7A"," "," ","1","-10","[1364.1000000014901]","1","0","4","","","","","","","",""
"pit-trial","90","809273","0.0-2.0-17.1-4.1","battery-v0.2","","""event"",""trial"",""time""
""blur"",""1"",""20950""
""focus"",""1"",""23130""
""fullscreenenter"",""1"",""38109""
","""event"",""trial"",""time""
""blur"",""1"",""20950""
","""event"",""trial"",""time""
""focus"",""1"",""23130""
","""event"",""trial"",""time""
""fullscreenenter"",""1"",""38109""
","
","","","791.3999999985099","","","13","15930","6262","&#9789;","elianto","#f73b6a7A"," "," ","1","0","[1642.6000000014901,2252.60000000149,2693]","3","0","4","","","","","","","",""
"pit-trial","91","814127","0.0-2.0-17.2-0.2","battery-v0.2","","""event"",""trial"",""time""
""blur"",""1"",""20950""
""focus"",""1"",""23130""
""fullscreenenter"",""1"",""38109""
","""event"",""trial"",""time""
""blur"",""1"",""20950""
","""event"",""trial"",""time""
""focus"",""1"",""23130""
","""event"",""trial"",""time""
""fullscreenenter"",""1"",""38109""
","
","","","-1","","","13","15930","6262","&#9789;","elianto","#f73b6a7A"," ","-1","0","-10","[3692.599999997765]","1","0","4","","","","","","","",""
"pit-trial","92","818981","0.0-2.0-17.2-1.2","battery-v0.2","","""event"",""trial"",""time""
""blur"",""1"",""20950""
""focus"",""1"",""23130""
""fullscreenenter"",""1"",""38109""
","""event"",""trial"",""time""
""blur"",""1"",""20950""
","""event"",""trial"",""time""
""focus"",""1"",""23130""
","""event"",""trial"",""time""
""fullscreenenter"",""1"",""38109""
","
","","","-1","","","13","15930","6262","&#9789;","elianto","#f73b6a7A"," ","-1","0","-10","[4125.89999999851,4734]","2","0","4","","","","","","","",""
"pit-trial","93","822040","0.0-2.0-17.2-2.2","battery-v0.2","","""event"",""trial"",""time""
""blur"",""1"",""20950""
""focus"",""1"",""23130""
""fullscreenenter"",""1"",""38109""
","""event"",""trial"",""time""
""blur"",""1"",""20950""
","""event"",""trial"",""time""
""focus"",""1"",""23130""
","""event"",""trial"",""time""
""fullscreenenter"",""1"",""38109""
","
","","","204.5","","","13","15930","6262","&#9789;","elianto","#f73b6a7A"," "," ","1","0","[397.1000000014901,1056.1000000014901,1524.800000000745,1873.4000000022352,2224.5]","5","0","4","","","","","","","",""
"pit-trial","94","826462","0.0-2.0-17.2-3.2","battery-v0.2","","""event"",""trial"",""time""
""blur"",""1"",""20950""
""focus"",""1"",""23130""
""fullscreenenter"",""1"",""38109""
","""event"",""trial"",""time""
""blur"",""1"",""20950""
","""event"",""trial"",""time""
""focus"",""1"",""23130""
","""event"",""trial"",""time""
""fullscreenenter"",""1"",""38109""
","
","","","1566.300000000745","","","13","15930","6262","&#9789;","elianto","#f73b6a7A"," "," ","1","-10","[2418.5]","1","0","4","","","","","","","",""
"pit-trial","95","829461","0.0-2.0-17.2-4.2","battery-v0.2","","""event"",""trial"",""time""
""blur"",""1"",""20950""
""focus"",""1"",""23130""
""fullscreenenter"",""1"",""38109""
","""event"",""trial"",""time""
""blur"",""1"",""20950""
","""event"",""trial"",""time""
""focus"",""1"",""23130""
","""event"",""trial"",""time""
""fullscreenenter"",""1"",""38109""
","
","","","144.89999999850988","","","13","15930","6262","&#9789;","elianto","#f73b6a7A"," "," ","1","0","[996.3999999985099]","1","0","4","","","","","","","",""
"pit-trial","96","832783","0.0-2.0-17.3-0.3","battery-v0.2","","""event"",""trial"",""time""
""blur"",""1"",""20950""
""focus"",""1"",""23130""
""fullscreenenter"",""1"",""38109""
","""event"",""trial"",""time""
""blur"",""1"",""20950""
","""event"",""trial"",""time""
""focus"",""1"",""23130""
","""event"",""trial"",""time""
""fullscreenenter"",""1"",""38109""
","
","","","466.80000000074506","","","13","15930","6262","&#9789;","elianto","#f73b6a7A"," "," ","1","0","[1317.699999999255]","1","0","4","","","","","","","",""
"pit-trial","97","835717","0.0-2.0-17.3-1.3","battery-v0.2","","""event"",""trial"",""time""
""blur"",""1"",""20950""
""focus"",""1"",""23130""
""fullscreenenter"",""1"",""38109""
","""event"",""trial"",""time""
""blur"",""1"",""20950""
","""event"",""trial"",""time""
""focus"",""1"",""23130""
","""event"",""trial"",""time""
""fullscreenenter"",""1"",""38109""
","
","","","80.40000000223517","","","13","15930","6262","&#9789;","elianto","#f73b6a7A"," "," ","1","0","[931.3000000007451]","1","0","4","","","","","","","",""
"pit-trial","98","838933","0.0-2.0-17.3-2.3","battery-v0.2","","""event"",""trial"",""time""
""blur"",""1"",""20950""
""focus"",""1"",""23130""
""fullscreenenter"",""1"",""38109""
","""event"",""trial"",""time""
""blur"",""1"",""20950""
","""event"",""trial"",""time""
""focus"",""1"",""23130""
","""event"",""trial"",""time""
""fullscreenenter"",""1"",""38109""
","
","","","362.6000000014901","","","13","15930","6262","&#9789;","elianto","#f73b6a7A"," "," ","1","0","[118,614.2999999970198,1213.3999999985099,1868.5999999977648,2603.599999997765,3062.099999997765]","6","0","4","","","","","","","",""
"pit-trial","99","841810","0.0-2.0-17.3-3.3","battery-v0.2","","""event"",""trial"",""time""
""blur"",""1"",""20950""
""focus"",""1"",""23130""
""fullscreenenter"",""1"",""38109""
","""event"",""trial"",""time""
""blur"",""1"",""20950""
","""event"",""trial"",""time""
""focus"",""1"",""23130""
","""event"",""trial"",""time""
""fullscreenenter"",""1"",""38109""
","
","","","22.699999999254942","","","13","15930","6262","&#9789;","elianto","#f73b6a7A"," "," ","1","-10","[231.89999999850988,483.5999999977648,873.3999999985099,1212]","4","0","4","","","","","","","",""
"pit-trial","100","844834","0.0-2.0-17.3-4.3","battery-v0.2","","""event"",""trial"",""time""
""blur"",""1"",""20950""
""focus"",""1"",""23130""
""fullscreenenter"",""1"",""38109""
","""event"",""trial"",""time""
""blur"",""1"",""20950""
","""event"",""trial"",""time""
""focus"",""1"",""23130""
","""event"",""trial"",""time""
""fullscreenenter"",""1"",""38109""
","
","","","168.30000000074506","","","13","15930","6262","&#9789;","elianto","#f73b6a7A"," "," ","1","0","[1019.3000000007451]","1","0","4","","","","","","","",""
"call-function","101","844836","0.0-2.0-18.0","battery-v0.2","","""event"",""trial"",""time""
""blur"",""1"",""20950""
""focus"",""1"",""23130""
""fullscreenenter"",""1"",""38109""
","""event"",""trial"",""time""
""blur"",""1"",""20950""
","""event"",""trial"",""time""
""focus"",""1"",""23130""
","""event"",""trial"",""time""
""fullscreenenter"",""1"",""38109""
","
","","","","","","","","","","","","","","","","","","","","","","","","","","",""
"pit-instructions","102","924757","0.0-2.0-19.0","battery-v0.2","","""event"",""trial"",""time""
""blur"",""1"",""20950""
""focus"",""1"",""23130""
""fullscreenenter"",""1"",""38109""
","""event"",""trial"",""time""
""blur"",""1"",""20950""
","""event"",""trial"",""time""
""focus"",""1"",""23130""
","""event"",""trial"",""time""
""fullscreenenter"",""1"",""38109""
","
","","[{""page_index"":0,""viewing_time"":8480.400000002235},{""page_index"":1,""viewing_time"":4258.800000000745},{""page_index"":2,""viewing_time"":15059.79999999702},{""page_index"":3,""viewing_time"":4108.70000000298},{""page_index"":4,""viewing_time"":4154.199999999255},{""page_index"":3,""viewing_time"":7068.89999999851},{""page_index"":4,""viewing_time"":8283.699999999255},{""page_index"":5,""viewing_time"":8430.5},{""page_index"":6,""viewing_time"":5542.5},{""page_index"":7,""viewing_time"":9677.60000000149},{""page_index"":8,""viewing_time"":4854.5}]","79920","","","","","","","","","","","","","","","","","","","","","","","",""
"pit-comprehension","103","933361","0.0-2.0-20.0-0.0","battery-v0.2","","""event"",""trial"",""time""
""blur"",""1"",""20950""
""focus"",""1"",""23130""
""fullscreenenter"",""1"",""38109""
","""event"",""trial"",""time""
""blur"",""1"",""20950""
","""event"",""trial"",""time""
""focus"",""1"",""23130""
","""event"",""trial"",""time""
""fullscreenenter"",""1"",""38109""
","
","","","8600.199999999255","[""SPACE""]","0","13","15930","6262","","","","","","","","","","","","","","","","","","",""
"pit-instructions","104","935982","0.0-2.0-20.0-1.0","battery-v0.2","","""event"",""trial"",""time""
""blur"",""1"",""20950""
""focus"",""1"",""23130""
""fullscreenenter"",""1"",""38109""
","""event"",""trial"",""time""
""blur"",""1"",""20950""
","""event"",""trial"",""time""
""focus"",""1"",""23130""
","""event"",""trial"",""time""
""fullscreenenter"",""1"",""38109""
","
","","[{""page_index"":0,""viewing_time"":2592.599999997765}]","2592.89999999851","","","","","","","","","","","","","","","","","","","","","","","",""
"pit-comprehension","105","943296","0.0-2.0-21.0-0.0","battery-v0.2","","""event"",""trial"",""time""
""blur"",""1"",""20950""
""focus"",""1"",""23130""
""fullscreenenter"",""1"",""38109""
","""event"",""trial"",""time""
""blur"",""1"",""20950""
","""event"",""trial"",""time""
""focus"",""1"",""23130""
","""event"",""trial"",""time""
""fullscreenenter"",""1"",""38109""
","
","","","7310","[""10""]","0","13","15930","6262","","","","","","","","","","","","","","","","","","",""
"pit-instructions","106","945056","0.0-2.0-21.0-1.0","battery-v0.2","","""event"",""trial"",""time""
""blur"",""1"",""20950""
""focus"",""1"",""23130""
""fullscreenenter"",""1"",""38109""
","""event"",""trial"",""time""
""blur"",""1"",""20950""
","""event"",""trial"",""time""
""focus"",""1"",""23130""
","""event"",""trial"",""time""
""fullscreenenter"",""1"",""38109""
","
","","[{""page_index"":0,""viewing_time"":1727.6000000014901}]","1728.4000000022352","","","","","","","","","","","","","","","","","","","","","","","",""
"pit-comprehension","107","955712","0.0-2.0-22.0-0.0","battery-v0.2","","""event"",""trial"",""time""
""blur"",""1"",""20950""
""focus"",""1"",""23130""
""fullscreenenter"",""1"",""38109""
","""event"",""trial"",""time""
""blur"",""1"",""20950""
","""event"",""trial"",""time""
""focus"",""1"",""23130""
","""event"",""trial"",""time""
""fullscreenenter"",""1"",""38109""
","
","","","10652.300000000745","[""0""]","0","13","15930","6262","","","","","","","","","","","","","","","","","","",""
"pit-instructions","108","957527","0.0-2.0-22.0-1.0","battery-v0.2","","""event"",""trial"",""time""
""blur"",""1"",""20950""
""focus"",""1"",""23130""
""fullscreenenter"",""1"",""38109""
","""event"",""trial"",""time""
""blur"",""1"",""20950""
","""event"",""trial"",""time""
""focus"",""1"",""23130""
","""event"",""trial"",""time""
""fullscreenenter"",""1"",""38109""
","
","","[{""page_index"":0,""viewing_time"":1785.800000000745}]","1786.0999999977648","","","","","","","","","","","","","","","","","","","","","","","",""
"pit-comprehension","109","968602","0.0-2.0-23.0-0.0","battery-v0.2","","""event"",""trial"",""time""
""blur"",""1"",""20950""
""focus"",""1"",""23130""
""fullscreenenter"",""1"",""38109""
","""event"",""trial"",""time""
""blur"",""1"",""20950""
","""event"",""trial"",""time""
""focus"",""1"",""23130""
","""event"",""trial"",""time""
""fullscreenenter"",""1"",""38109""
","
","","","11072","[""True""]","0","13","15930","6262","","","","","","","","","","","","","","","","","","",""
"pit-instructions","110","970193","0.0-2.0-23.0-1.0","battery-v0.2","","""event"",""trial"",""time""
""blur"",""1"",""20950""
""focus"",""1"",""23130""
""fullscreenenter"",""1"",""38109""
","""event"",""trial"",""time""
""blur"",""1"",""20950""
","""event"",""trial"",""time""
""focus"",""1"",""23130""
","""event"",""trial"",""time""
""fullscreenenter"",""1"",""38109""
","
","","[{""page_index"":0,""viewing_time"":1562.2999999970198}]","1562.7999999970198","","","","","","","","","","","","","","","","","","","","","","","",""
"pit-comprehension","111","978280","0.0-2.0-24.0-0.0","battery-v0.2","","""event"",""trial"",""time""
""blur"",""1"",""20950""
""focus"",""1"",""23130""
""fullscreenenter"",""1"",""38109""
","""event"",""trial"",""time""
""blur"",""1"",""20950""
","""event"",""trial"",""time""
""focus"",""1"",""23130""
","""event"",""trial"",""time""
""fullscreenenter"",""1"",""38109""
","
","","","8084.400000002235","[""True""]","0","13","15930","6262","","","","","","","","","","","","","","","","","","",""
"pit-instructions","112","979906","0.0-2.0-24.0-1.0","battery-v0.2","","""event"",""trial"",""time""
""blur"",""1"",""20950""
""focus"",""1"",""23130""
""fullscreenenter"",""1"",""38109""
","""event"",""trial"",""time""
""blur"",""1"",""20950""
","""event"",""trial"",""time""
""focus"",""1"",""23130""
","""event"",""trial"",""time""
""fullscreenenter"",""1"",""38109""
","
","","[{""page_index"":0,""viewing_time"":1594.8999999985099}]","1595.199999999255","","","","","","","","","","","","","","","","","","","","","","","",""
"pit-comprehension","113","986391","0.0-2.0-25.0-0.0","battery-v0.2","","""event"",""trial"",""time""
""blur"",""1"",""20950""
""focus"",""1"",""23130""
""fullscreenenter"",""1"",""38109""
","""event"",""trial"",""time""
""blur"",""1"",""20950""
","""event"",""trial"",""time""
""focus"",""1"",""23130""
","""event"",""trial"",""time""
""fullscreenenter"",""1"",""38109""
","
","","","6482.5","[""True""]","0","13","15930","6262","","","","","","","","","","","","","","","","","","",""
"pit-instructions","114","987800","0.0-2.0-25.0-1.0","battery-v0.2","","""event"",""trial"",""time""
""blur"",""1"",""20950""
""focus"",""1"",""23130""
""fullscreenenter"",""1"",""38109""
","""event"",""trial"",""time""
""blur"",""1"",""20950""
","""event"",""trial"",""time""
""focus"",""1"",""23130""
","""event"",""trial"",""time""
""fullscreenenter"",""1"",""38109""
","
","","[{""page_index"":0,""viewing_time"":1378.300000000745}]","1378.5999999977648","","","","","","","","","","","","","","","","","","","","","","","",""
"pit-comprehension","115","996383","0.0-2.0-26.0-0.0","battery-v0.2","","""event"",""trial"",""time""
""blur"",""1"",""20950""
""focus"",""1"",""23130""
""fullscreenenter"",""1"",""38109""
","""event"",""trial"",""time""
""blur"",""1"",""20950""
","""event"",""trial"",""time""
""focus"",""1"",""23130""
","""event"",""trial"",""time""
""fullscreenenter"",""1"",""38109""
","
","","","8580.800000000745","[""False""]","0","13","15930","6262","","","","","","","","","","","","","","","","","","",""
"pit-instructions","116","997780","0.0-2.0-26.0-1.0","battery-v0.2","","""event"",""trial"",""time""
""blur"",""1"",""20950""
""focus"",""1"",""23130""
""fullscreenenter"",""1"",""38109""
","""event"",""trial"",""time""
""blur"",""1"",""20950""
","""event"",""trial"",""time""
""focus"",""1"",""23130""
","""event"",""trial"",""time""
""fullscreenenter"",""1"",""38109""
","
","","[{""page_index"":0,""viewing_time"":1362.3999999985099}]","1362.800000000745","","","","","","","","","","","","","","","","","","","","","","","",""
"pit-instructions","117","1021495","0.0-3.0","battery-v0.2","","""event"",""trial"",""time""
""blur"",""1"",""20950""
""focus"",""1"",""23130""
""fullscreenenter"",""1"",""38109""
","""event"",""trial"",""time""
""blur"",""1"",""20950""
","""event"",""trial"",""time""
""focus"",""1"",""23130""
","""event"",""trial"",""time""
""fullscreenenter"",""1"",""38109""
","
","","[{""page_index"":0,""viewing_time"":7444.10000000149},{""page_index"":1,""viewing_time"":7374},{""page_index"":2,""viewing_time"":8894.5}]","23712.800000000745","","","","","","","","","","","","","","","","","","","","","","","",""
"pit-trial","118","1025679","0.0-4.0","battery-v0.2","","""event"",""trial"",""time""
""blur"",""1"",""20950""
""focus"",""1"",""23130""
""fullscreenenter"",""1"",""38109""
","""event"",""trial"",""time""
""blur"",""1"",""20950""
","""event"",""trial"",""time""
""focus"",""1"",""23130""
","""event"",""trial"",""time""
""fullscreenenter"",""1"",""38109""
","
","","","1326.7999999970198","","","13","15930","6262","&#9733;","elianto","#3366ff99","-1"," ","0","+10","[2178]","1","1","","","15930","1","2","2","win","no-go","1"
"pit-trial","119","1030535","0.0-5.0","battery-v0.2","","""event"",""trial"",""time""
""blur"",""1"",""20950""
""focus"",""1"",""23130""
""fullscreenenter"",""1"",""38109""
","""event"",""trial"",""time""
""blur"",""1"",""20950""
","""event"",""trial"",""time""
""focus"",""1"",""23130""
","""event"",""trial"",""time""
""fullscreenenter"",""1"",""38109""
","
","","","-1","","","13","15930","6262","&#9752;","elianto","#f73b6a7A"," ","-1","0","-10","[]","0","1","","","15930","2","3","3","lose","go","0"
"pit-trial","120","1034007","0.0-6.0","battery-v0.2","","""event"",""trial"",""time""
""blur"",""1"",""20950""
""focus"",""1"",""23130""
""fullscreenenter"",""1"",""38109""
","""event"",""trial"",""time""
""blur"",""1"",""20950""
","""event"",""trial"",""time""
""focus"",""1"",""23130""
","""event"",""trial"",""time""
""fullscreenenter"",""1"",""38109""
","
","","","617.3000000007451","","","13","15930","6262","&#9728;","elianto","#f73b6a7A","-1"," ","0","-10","[1468]","1","1","","","15930","3","0","4","lose","no-go","0"
"pit-trial","121","1037566","0.0-7.0","battery-v0.2","","""event"",""trial"",""time""
""blur"",""1"",""20950""
""focus"",""1"",""23130""
""fullscreenenter"",""1"",""38109""
","""event"",""trial"",""time""
""blur"",""1"",""20950""
","""event"",""trial"",""time""
""focus"",""1"",""23130""
","""event"",""trial"",""time""
""fullscreenenter"",""1"",""38109""
","
","","","703.7000000029802","","","13","15930","6262","&#9730;","elianto","#3366ff99"," "," ","1","+10","[1555.7000000029802]","1","1","","","15930","4","1","1","win","go","0"
"pit-trial","122","1041370","0.0-8.0","battery-v0.2","","""event"",""trial"",""time""
""blur"",""1"",""20950""
""focus"",""1"",""23130""
""fullscreenenter"",""1"",""38109""
","""event"",""trial"",""time""
""blur"",""1"",""20950""
","""event"",""trial"",""time""
""focus"",""1"",""23130""
","""event"",""trial"",""time""
""fullscreenenter"",""1"",""38109""
","
","","","947.5","","","13","15930","6262","&#9728;","elianto","#f73b6a7A","-1"," ","0","0","[1799.699999999255]","1","1","","","15930","5","0","4","lose","no-go","1"
"pit-trial","123","1046037","0.0-9.0","battery-v0.2","","""event"",""trial"",""time""
""blur"",""1"",""20950""
""focus"",""1"",""23130""
""fullscreenenter"",""1"",""38109""
","""event"",""trial"",""time""
""blur"",""1"",""20950""
","""event"",""trial"",""time""
""focus"",""1"",""23130""
","""event"",""trial"",""time""
""fullscreenenter"",""1"",""38109""
","
","","","1813.6000000014901","","","13","15930","6262","&#9752;","elianto","#f73b6a7A"," "," ","1","0","[2663.800000000745]","1","1","","","15930","6","3","3","lose","go","0"
"pit-trial","124","1049619","0.0-10.0","battery-v0.2","","""event"",""trial"",""time""
""blur"",""1"",""20950""
""focus"",""1"",""23130""
""fullscreenenter"",""1"",""38109""
","""event"",""trial"",""time""
""blur"",""1"",""20950""
","""event"",""trial"",""time""
""focus"",""1"",""23130""
","""event"",""trial"",""time""
""fullscreenenter"",""1"",""38109""
","
","","","727.3000000007451","","","13","15930","6262","&#9730;","elianto","#3366ff99"," "," ","1","0","[1577.699999999255]","1","1","","","15930","7","1","1","win","go","1"
"pit-trial","125","1053123","0.0-11.0","battery-v0.2","","""event"",""trial"",""time""
""blur"",""1"",""20950""
""focus"",""1"",""23130""
""fullscreenenter"",""1"",""38109""
","""event"",""trial"",""time""
""blur"",""1"",""20950""
","""event"",""trial"",""time""
""focus"",""1"",""23130""
","""event"",""trial"",""time""
""fullscreenenter"",""1"",""38109""
","
","","","649.5","","","13","15930","6262","&#9733;","elianto","#3366ff99","-1"," ","0","0","[1500.199999999255]","1","1","","","15930","8","2","2","win","no-go","0"
"pit-trial","126","1057100","0.0-12.0","battery-v0.2","","""event"",""trial"",""time""
""blur"",""1"",""20950""
""focus"",""1"",""23130""
""fullscreenenter"",""1"",""38109""
","""event"",""trial"",""time""
""blur"",""1"",""20950""
","""event"",""trial"",""time""
""focus"",""1"",""23130""
","""event"",""trial"",""time""
""fullscreenenter"",""1"",""38109""
","
","","","1122.5","","","13","15930","6262","&#9752;","elianto","#f73b6a7A"," "," ","1","0","[1973.199999999255]","1","1","","","15930","9","3","3","lose","go","0"
"pit-trial","127","1061954","0.0-13.0","battery-v0.2","","""event"",""trial"",""time""
""blur"",""1"",""20950""
""focus"",""1"",""23130""
""fullscreenenter"",""1"",""38109""
","""event"",""trial"",""time""
""blur"",""1"",""20950""
","""event"",""trial"",""time""
""focus"",""1"",""23130""
","""event"",""trial"",""time""
""fullscreenenter"",""1"",""38109""
","
","","","-1","","","13","15930","6262","&#9728;","elianto","#f73b6a7A","-1","-1","1","-10","[]","0","1","","","15930","10","0","4","lose","no-go","1"
"pit-trial","128","1065473","0.0-14.0","battery-v0.2","","""event"",""trial"",""time""
""blur"",""1"",""20950""
""focus"",""1"",""23130""
""fullscreenenter"",""1"",""38109""
","""event"",""trial"",""time""
""blur"",""1"",""20950""
","""event"",""trial"",""time""
""focus"",""1"",""23130""
","""event"",""trial"",""time""
""fullscreenenter"",""1"",""38109""
","
","","","664.3999999985099","","","13","15930","6262","&#9733;","elianto","#3366ff99","-1"," ","0","0","[37.400000002235174,448.6000000014901,1514.699999999255,2344.5,3271.60000000149]","5","1","","","15930","11","2","2","win","no-go","0"
"pit-trial","129","1070327","0.0-15.0","battery-v0.2","","""event"",""trial"",""time""
""blur"",""1"",""20950""
""focus"",""1"",""23130""
""fullscreenenter"",""1"",""38109""
","""event"",""trial"",""time""
""blur"",""1"",""20950""
","""event"",""trial"",""time""
""focus"",""1"",""23130""
","""event"",""trial"",""time""
""fullscreenenter"",""1"",""38109""
","
","","","-1","","","13","15930","6262","&#9730;","elianto","#3366ff99"," ","-1","0","0","[487.5999999977648]","1","1","","","15930","12","1","1","win","go","0"
"pit-trial","130","1075181","0.0-16.0","battery-v0.2","","""event"",""trial"",""time""
""blur"",""1"",""20950""
""focus"",""1"",""23130""
""fullscreenenter"",""1"",""38109""
","""event"",""trial"",""time""
""blur"",""1"",""20950""
","""event"",""trial"",""time""
""focus"",""1"",""23130""
","""event"",""trial"",""time""
""fullscreenenter"",""1"",""38109""
","
","","","-1","","","13","15930","6262","&#9730;","elianto","#3366ff99"," ","-1","0","0","[]","0","1","","","15930","13","1","1","win","go","0"
"pit-trial","131","1078503","0.0-17.0","battery-v0.2","","""event"",""trial"",""time""
""blur"",""1"",""20950""
""focus"",""1"",""23130""
""fullscreenenter"",""1"",""38109""
","""event"",""trial"",""time""
""blur"",""1"",""20950""
","""event"",""trial"",""time""
""focus"",""1"",""23130""
","""event"",""trial"",""time""
""fullscreenenter"",""1"",""38109""
","
","","","467.80000000074506","","","13","15930","6262","&#9733;","elianto","#3366ff99","-1"," ","0","0","[1318.5]","1","1","","","15930","14","2","2","win","no-go","0"
"pit-trial","132","1083354","0.0-18.0","battery-v0.2","","""event"",""trial"",""time""
""blur"",""1"",""20950""
""focus"",""1"",""23130""
""fullscreenenter"",""1"",""38109""
","""event"",""trial"",""time""
""blur"",""1"",""20950""
","""event"",""trial"",""time""
""focus"",""1"",""23130""
","""event"",""trial"",""time""
""fullscreenenter"",""1"",""38109""
","
","","","1996.6000000014901","","","13","15930","6262","&#9728;","elianto","#f73b6a7A","-1"," ","0","-10","[2847.800000000745,4136.39999999851,4394.699999999255]","3","1","","","15930","15","0","4","lose","no-go","0"
"pit-trial","133","1086954","0.0-19.0","battery-v0.2","","""event"",""trial"",""time""
""blur"",""1"",""20950""
""focus"",""1"",""23130""
""fullscreenenter"",""1"",""38109""
","""event"",""trial"",""time""
""blur"",""1"",""20950""
","""event"",""trial"",""time""
""focus"",""1"",""23130""
","""event"",""trial"",""time""
""fullscreenenter"",""1"",""38109""
","
","","","748.3999999985099","","","13","15930","6262","&#9752;","elianto","#f73b6a7A"," "," ","1","-10","[1598.5,2352.300000000745]","2","1","","","15930","16","3","3","lose","go","1"
"pit-trial","134","1090184","0.0-20.0","battery-v0.2","","""event"",""trial"",""time""
""blur"",""1"",""20950""
""focus"",""1"",""23130""
""fullscreenenter"",""1"",""38109""
","""event"",""trial"",""time""
""blur"",""1"",""20950""
","""event"",""trial"",""time""
""focus"",""1"",""23130""
","""event"",""trial"",""time""
""fullscreenenter"",""1"",""38109""
","
","","","374.19999999925494","","","13","15930","6262","&#9728;","elianto","#f73b6a7A","-1"," ","0","-10","[1225.6000000014901,2098.400000002235,3099]","3","1","","","15930","17","0","4","lose","no-go","0"
"pit-trial","135","1093826","0.0-21.0","battery-v0.2","","""event"",""trial"",""time""
""blur"",""1"",""20950""
""focus"",""1"",""23130""
""fullscreenenter"",""1"",""38109""
","""event"",""trial"",""time""
""blur"",""1"",""20950""
","""event"",""trial"",""time""
""focus"",""1"",""23130""
","""event"",""trial"",""time""
""fullscreenenter"",""1"",""38109""
","
","","","788.3000000007451","","","13","15930","6262","&#9733;","elianto","#3366ff99","-1"," ","0","+10","[488.5,1639.8999999985099,2327.5,2811.5,3101.300000000745,3444.800000000745]","6","1","","","15930","18","2","2","win","no-go","1"
"pit-trial","136","1097147","0.0-22.0","battery-v0.2","","""event"",""trial"",""time""
""blur"",""1"",""20950""
""focus"",""1"",""23130""
""fullscreenenter"",""1"",""38109""
","""event"",""trial"",""time""
""blur"",""1"",""20950""
","""event"",""trial"",""time""
""focus"",""1"",""23130""
","""event"",""trial"",""time""
""fullscreenenter"",""1"",""38109""
","
","","","466.30000000074506","","","13","15930","6262","&#9730;","elianto","#3366ff99"," "," ","1","0","[1317,2022.3999999985099,2442.39999999851,2961.39999999851]","4","1","","","15930","19","1","1","win","go","1"
"pit-trial","137","1100694","0.0-23.0","battery-v0.2","","""event"",""trial"",""time""
""blur"",""1"",""20950""
""focus"",""1"",""23130""
""fullscreenenter"",""1"",""38109""
","""event"",""trial"",""time""
""blur"",""1"",""20950""
","""event"",""trial"",""time""
""focus"",""1"",""23130""
","""event"",""trial"",""time""
""fullscreenenter"",""1"",""38109""
","
","","","692.7999999970198","","","13","15930","6262","&#9752;","elianto","#f73b6a7A"," "," ","1","0","[1542.5999999977648,2078.699999999255,2656.099999997765]","3","1","","","15930","20","3","3","lose","go","0"
"pit-instructions","138","1207258","0.0-24.0","battery-v0.2","","""event"",""trial"",""time""
""blur"",""1"",""20950""
""focus"",""1"",""23130""
""fullscreenenter"",""1"",""38109""
","""event"",""trial"",""time""
""blur"",""1"",""20950""
","""event"",""trial"",""time""
""focus"",""1"",""23130""
","""event"",""trial"",""time""
""fullscreenenter"",""1"",""38109""
","
","","[{""page_index"":0,""viewing_time"":6956.599999997765},{""page_index"":1,""viewing_time"":99606.40000000224}]","106563.30000000075","","","","","","","","","","","","","","","","","","","","","","","",""
"pit-trial","139","1212114","0.0-25.0","battery-v0.2","","""event"",""trial"",""time""
""blur"",""1"",""20950""
""focus"",""1"",""23130""
""fullscreenenter"",""1"",""38109""
","""event"",""trial"",""time""
""blur"",""1"",""20950""
","""event"",""trial"",""time""
""focus"",""1"",""23130""
","""event"",""trial"",""time""
""fullscreenenter"",""1"",""38109""
","
","","","-1","","","13","15930","6262","w","elianto","#f73b6a7A","-1","-1","1","0","[]","0","2","","","15930","21","3","4","lose","no-go","0"
"pit-trial","140","1216969","0.0-26.0","battery-v0.2","","""event"",""trial"",""time""
""blur"",""1"",""20950""
""focus"",""1"",""23130""
""fullscreenenter"",""1"",""38109""
","""event"",""trial"",""time""
""blur"",""1"",""20950""
","""event"",""trial"",""time""
""focus"",""1"",""23130""
","""event"",""trial"",""time""
""fullscreenenter"",""1"",""38109""
","
","","","-1","","","13","15930","6262","d","elianto","#3366ff99","-1","-1","1","+10","[2992.60000000149]","1","2","","","15930","22","1","2","win","no-go","0"
"pit-trial","141","1221823","0.0-27.0","battery-v0.2","","""event"",""trial"",""time""
""blur"",""1"",""20950""
""focus"",""1"",""23130""
""fullscreenenter"",""1"",""38109""
","""event"",""trial"",""time""
""blur"",""1"",""20950""
","""event"",""trial"",""time""
""focus"",""1"",""23130""
","""event"",""trial"",""time""
""fullscreenenter"",""1"",""38109""
","
","","","-1","","","13","15930","6262","e","elianto","#f73b6a7A"," ","-1","0","-10","[]","0","2","","","15930","23","2","3","lose","go","0"
"pit-trial","142","1225642","0.0-28.0","battery-v0.2","","""event"",""trial"",""time""
""blur"",""1"",""20950""
""focus"",""1"",""23130""
""fullscreenenter"",""1"",""38109""
","""event"",""trial"",""time""
""blur"",""1"",""20950""
","""event"",""trial"",""time""
""focus"",""1"",""23130""
","""event"",""trial"",""time""
""fullscreenenter"",""1"",""38109""
","
","","","965.2000000029802","","","13","15930","6262","j","elianto","#f73b6a7A"," "," ","1","-10","[1815.5]","1","2","","","15930","24","0","3","lose","go","1"
"pit-trial","143","1229527","0.0-29.0","battery-v0.2","","""event"",""trial"",""time""
""blur"",""1"",""20950""
""focus"",""1"",""23130""
""fullscreenenter"",""1"",""38109""
","""event"",""trial"",""time""
""blur"",""1"",""20950""
","""event"",""trial"",""time""
""focus"",""1"",""23130""
","""event"",""trial"",""time""
""fullscreenenter"",""1"",""38109""
","
","","","1031.699999999255","","","13","15930","6262","j","elianto","#f73b6a7A"," "," ","1","0","[1882.9000000022352,3236.900000002235]","2","2","","","15930","25","0","3","lose","go","0"
"pit-trial","144","1232991","0.0-30.0","battery-v0.2","","""event"",""trial"",""time""
""blur"",""1"",""20950""
""focus"",""1"",""23130""
""fullscreenenter"",""1"",""38109""
","""event"",""trial"",""time""
""blur"",""1"",""20950""
","""event"",""trial"",""time""
""focus"",""1"",""23130""
","""event"",""trial"",""time""
""fullscreenenter"",""1"",""38109""
","
","","","608.8000000007451","","","13","15930","6262","d","elianto","#3366ff99","-1"," ","0","+10","[1461.8999999985099]","1","2","","","15930","26","1","2","win","no-go","1"
"pit-trial","145","1237846","0.0-31.0","battery-v0.2","","""event"",""trial"",""time""
""blur"",""1"",""20950""
""focus"",""1"",""23130""
""fullscreenenter"",""1"",""38109""
","""event"",""trial"",""time""
""blur"",""1"",""20950""
","""event"",""trial"",""time""
""focus"",""1"",""23130""
","""event"",""trial"",""time""
""fullscreenenter"",""1"",""38109""
","
","","","-1","","","13","15930","6262","w","elianto","#f73b6a7A","-1","-1","1","0","[]","0","2","","","15930","27","3","4","lose","no-go","0"
"pit-trial","146","1241695","0.0-32.0","battery-v0.2","","""event"",""trial"",""time""
""blur"",""1"",""20950""
""focus"",""1"",""23130""
""fullscreenenter"",""1"",""38109""
","""event"",""trial"",""time""
""blur"",""1"",""20950""
","""event"",""trial"",""time""
""focus"",""1"",""23130""
","""event"",""trial"",""time""
""fullscreenenter"",""1"",""38109""
","
","","","992.8999999985099","","","13","15930","6262","e","elianto","#f73b6a7A"," "," ","1","0","[1844.8999999985099]","1","2","","","15930","28","2","3","lose","go","0"
"pit-trial","147","1246226","0.0-33.0","battery-v0.2","","""event"",""trial"",""time""
""blur"",""1"",""20950""
""focus"",""1"",""23130""
""fullscreenenter"",""1"",""38109""
","""event"",""trial"",""time""
""blur"",""1"",""20950""
","""event"",""trial"",""time""
""focus"",""1"",""23130""
","""event"",""trial"",""time""
""fullscreenenter"",""1"",""38109""
","
","","","1675.1000000014901","","","13","15930","6262","j","elianto","#f73b6a7A"," "," ","1","0","[2527.400000002235]","1","2","","","15930","29","0","3","lose","go","0"
"pit-trial","148","1249836","0.0-34.0","battery-v0.2","","""event"",""trial"",""time""
""blur"",""1"",""20950""
""focus"",""1"",""23130""
""fullscreenenter"",""1"",""38109""
","""event"",""trial"",""time""
""blur"",""1"",""20950""
","""event"",""trial"",""time""
""focus"",""1"",""23130""
","""event"",""trial"",""time""
""fullscreenenter"",""1"",""38109""
","
","","","755.3999999985099","","","13","15930","6262","d","elianto","#3366ff99","-1"," ","0","0","[1606.3999999985099]","1","2","","","15930","30","1","2","win","no-go","0"
"pit-trial","149","1253586","0.0-35.0","battery-v0.2","","""event"",""trial"",""time""
""blur"",""1"",""20950""
""focus"",""1"",""23130""
""fullscreenenter"",""1"",""38109""
","""event"",""trial"",""time""
""blur"",""1"",""20950""
","""event"",""trial"",""time""
""focus"",""1"",""23130""
","""event"",""trial"",""time""
""fullscreenenter"",""1"",""38109""
","
","","","897.6000000014901","","","13","15930","6262","e","elianto","#f73b6a7A"," "," ","1","-10","[1747.800000000745]","1","2","","","15930","31","2","3","lose","go","1"
"pit-trial","150","1257285","0.0-36.0","battery-v0.2","","""event"",""trial"",""time""
""blur"",""1"",""20950""
""focus"",""1"",""23130""
""fullscreenenter"",""1"",""38109""
","""event"",""trial"",""time""
""blur"",""1"",""20950""
","""event"",""trial"",""time""
""focus"",""1"",""23130""
","""event"",""trial"",""time""
""fullscreenenter"",""1"",""38109""
","
","","","845.1999999992549","","","13","15930","6262","w","elianto","#f73b6a7A","-1"," ","0","-10","[1696.800000000745]","1","2","","","15930","32","3","4","lose","no-go","0"
"pit-trial","151","1260784","0.0-37.0","battery-v0.2","","""event"",""trial"",""time""
""blur"",""1"",""20950""
""focus"",""1"",""23130""
""fullscreenenter"",""1"",""38109""
","""event"",""trial"",""time""
""blur"",""1"",""20950""
","""event"",""trial"",""time""
""focus"",""1"",""23130""
","""event"",""trial"",""time""
""fullscreenenter"",""1"",""38109""
","
","","","645.1999999992549","","","13","15930","6262","w","elianto","#f73b6a7A","-1"," ","0","-10","[1495.699999999255]","1","2","","","15930","33","3","4","lose","no-go","0"
"pit-trial","152","1264219","0.0-38.0","battery-v0.2","","""event"",""trial"",""time""
""blur"",""1"",""20950""
""focus"",""1"",""23130""
""fullscreenenter"",""1"",""38109""
","""event"",""trial"",""time""
""blur"",""1"",""20950""
","""event"",""trial"",""time""
""focus"",""1"",""23130""
","""event"",""trial"",""time""
""fullscreenenter"",""1"",""38109""
","
","","","579.6000000014901","","","13","15930","6262","j","elianto","#f73b6a7A"," "," ","1","0","[1430.699999999255]","1","2","","","15930","34","0","3","lose","go","0"
"pit-trial","153","1267636","0.0-39.0","battery-v0.2","","""event"",""trial"",""time""
""blur"",""1"",""20950""
""focus"",""1"",""23130""
""fullscreenenter"",""1"",""38109""
","""event"",""trial"",""time""
""blur"",""1"",""20950""
","""event"",""trial"",""time""
""focus"",""1"",""23130""
","""event"",""trial"",""time""
""fullscreenenter"",""1"",""38109""
","
","","","564.6000000014901","","","13","15930","6262","d","elianto","#3366ff99","-1"," ","0","+10","[1415.800000000745]","1","2","","","15930","35","1","2","win","no-go","1"
"pit-trial","154","1271234","0.0-40.0","battery-v0.2","","""event"",""trial"",""time""
""blur"",""1"",""20950""
""focus"",""1"",""23130""
""fullscreenenter"",""1"",""38109""
","""event"",""trial"",""time""
""blur"",""1"",""20950""
","""event"",""trial"",""time""
""focus"",""1"",""23130""
","""event"",""trial"",""time""
""fullscreenenter"",""1"",""38109""
","
","","","743.3000000007451","","","13","15930","6262","e","elianto","#f73b6a7A"," "," ","1","0","[1594.0999999977648]","1","2","","","15930","36","2","3","lose","go","0"
"pit-trial","155","1275225","0.0-41.0","battery-v0.2","","""event"",""trial"",""time""
""blur"",""1"",""20950""
""focus"",""1"",""23130""
""fullscreenenter"",""1"",""38109""
","""event"",""trial"",""time""
""blur"",""1"",""20950""
","""event"",""trial"",""time""
""focus"",""1"",""23130""
","""event"",""trial"",""time""
""fullscreenenter"",""1"",""38109""
","
","","","1136","","","13","15930","6262","e","elianto","#f73b6a7A"," "," ","1","0","[1987.3999999985099,3580.800000000745]","2","2","","","15930","37","2","3","lose","go","0"
"pit-trial","156","1279687","0.0-42.0","battery-v0.2","","""event"",""trial"",""time""
""blur"",""1"",""20950""
""focus"",""1"",""23130""
""fullscreenenter"",""1"",""38109""
","""event"",""trial"",""time""
""blur"",""1"",""20950""
","""event"",""trial"",""time""
""focus"",""1"",""23130""
","""event"",""trial"",""time""
""fullscreenenter"",""1"",""38109""
","
","","","1609","","","13","15930","6262","j","elianto","#f73b6a7A"," "," ","1","0","[378.29999999701977,2459.599999997765,3774.599999997765]","3","2","","","15930","38","0","3","lose","go","0"
"pit-trial","157","1284205","0.0-43.0","battery-v0.2","","""event"",""trial"",""time""
""blur"",""1"",""20950""
""focus"",""1"",""23130""
""fullscreenenter"",""1"",""38109""
","""event"",""trial"",""time""
""blur"",""1"",""20950""
","""event"",""trial"",""time""
""focus"",""1"",""23130""
","""event"",""trial"",""time""
""fullscreenenter"",""1"",""38109""
","
","","","1663.7000000029802","","","13","15930","6262","d","elianto","#3366ff99","-1"," ","0","0","[2514.10000000149,3464,4029.699999999255]","3","2","","","15930","39","1","2","win","no-go","0"
"pit-trial","158","1288348","0.0-44.0","battery-v0.2","","""event"",""trial"",""time""
""blur"",""1"",""20950""
""focus"",""1"",""23130""
""fullscreenenter"",""1"",""38109""
","""event"",""trial"",""time""
""blur"",""1"",""20950""
","""event"",""trial"",""time""
""focus"",""1"",""23130""
","""event"",""trial"",""time""
""fullscreenenter"",""1"",""38109""
","
","","","1288","","","13","15930","6262","w","elianto","#f73b6a7A","-1"," ","0","0","[2138.7000000029802,3335.10000000149,3835.900000002235]","3","2","","","15930","40","3","4","lose","no-go","1"
"pit-trial","159","1292168","0.0-45.0","battery-v0.2","","""event"",""trial"",""time""
""blur"",""1"",""20950""
""focus"",""1"",""23130""
""fullscreenenter"",""1"",""38109""
","""event"",""trial"",""time""
""blur"",""1"",""20950""
","""event"",""trial"",""time""
""focus"",""1"",""23130""
","""event"",""trial"",""time""
""fullscreenenter"",""1"",""38109""
","
","","","965.3999999985099","","","13","15930","6262","j","elianto","#f73b6a7A"," "," ","1","0","[1816.5999999977648,2729.699999999255]","2","2","","","15930","41","0","3","lose","go","0"
"pit-trial","160","1295907","0.0-46.0","battery-v0.2","","""event"",""trial"",""time""
""blur"",""1"",""20950""
""focus"",""1"",""23130""
""fullscreenenter"",""1"",""38109""
","""event"",""trial"",""time""
""blur"",""1"",""20950""
","""event"",""trial"",""time""
""focus"",""1"",""23130""
","""event"",""trial"",""time""
""fullscreenenter"",""1"",""38109""
","
","","","885.9000000022352","","","13","15930","6262","e","elianto","#f73b6a7A"," "," ","1","-10","[1736.5]","1","2","","","15930","42","2","3","lose","go","1"
"pit-trial","161","1299586","0.0-47.0","battery-v0.2","","""event"",""trial"",""time""
""blur"",""1"",""20950""
""focus"",""1"",""23130""
""fullscreenenter"",""1"",""38109""
","""event"",""trial"",""time""
""blur"",""1"",""20950""
","""event"",""trial"",""time""
""focus"",""1"",""23130""
","""event"",""trial"",""time""
""fullscreenenter"",""1"",""38109""
","
","","","824.3999999985099","","","13","15930","6262","w","elianto","#f73b6a7A","-1"," ","0","-10","[2,1675.2999999970198,2517.89999999851,3017.699999999255]","4","2","","","15930","43","3","4","lose","no-go","0"
"pit-trial","162","1303113","0.0-48.0","battery-v0.2","","""event"",""trial"",""time""
""blur"",""1"",""20950""
""focus"",""1"",""23130""
""fullscreenenter"",""1"",""38109""
","""event"",""trial"",""time""
""blur"",""1"",""20950""
","""event"",""trial"",""time""
""focus"",""1"",""23130""
","""event"",""trial"",""time""
""fullscreenenter"",""1"",""38109""
","
","","","671.1000000014901","","","13","15930","6262","d","elianto","#3366ff99","-1"," ","0","0","[32.79999999701977,666.8999999985099,1522.7999999970198,2865.199999999255]","4","2","","","15930","44","1","2","win","no-go","0"
"pit-trial","163","1306543","0.0-49.0","battery-v0.2","","""event"",""trial"",""time""
""blur"",""1"",""20950""
""focus"",""1"",""23130""
""fullscreenenter"",""1"",""38109""
","""event"",""trial"",""time""
""blur"",""1"",""20950""
","""event"",""trial"",""time""
""focus"",""1"",""23130""
","""event"",""trial"",""time""
""fullscreenenter"",""1"",""38109""
","
","","","575.4000000022352","","","13","15930","6262","j","elianto","#f73b6a7A"," "," ","1","-10","[1426.5]","1","2","","","15930","45","0","3","lose","go","1"
"pit-trial","164","1309871","0.0-50.0","battery-v0.2","","""event"",""trial"",""time""
""blur"",""1"",""20950""
""focus"",""1"",""23130""
""fullscreenenter"",""1"",""38109""
","""event"",""trial"",""time""
""blur"",""1"",""20950""
","""event"",""trial"",""time""
""focus"",""1"",""23130""
","""event"",""trial"",""time""
""fullscreenenter"",""1"",""38109""
","
","","","472.9000000022352","","","13","15930","6262","d","elianto","#3366ff99","-1"," ","0","0","[1324.199999999255]","1","2","","","15930","46","1","2","win","no-go","0"
"pit-trial","165","1314724","0.0-51.0","battery-v0.2","","""event"",""trial"",""time""
""blur"",""1"",""20950""
""focus"",""1"",""23130""
""fullscreenenter"",""1"",""38109""
","""event"",""trial"",""time""
""blur"",""1"",""20950""
","""event"",""trial"",""time""
""focus"",""1"",""23130""
","""event"",""trial"",""time""
""fullscreenenter"",""1"",""38109""
","
","","","-1","","","13","15930","6262","w","elianto","#f73b6a7A","-1","-1","1","-10","[]","0","2","","","15930","47","3","4","lose","no-go","1"
"pit-trial","166","1319053","0.0-52.0","battery-v0.2","","""event"",""trial"",""time""
""blur"",""1"",""20950""
""focus"",""1"",""23130""
""fullscreenenter"",""1"",""38109""
","""event"",""trial"",""time""
""blur"",""1"",""20950""
","""event"",""trial"",""time""
""focus"",""1"",""23130""
","""event"",""trial"",""time""
""fullscreenenter"",""1"",""38109""
","
","","","1473.199999999255","","","13","15930","6262","e","elianto","#f73b6a7A"," "," ","1","-10","[2325.099999997765]","1","2","","","15930","48","2","3","lose","go","1"
"pit-trial","167","1323416","0.0-53.0","battery-v0.2","","""event"",""trial"",""time""
""blur"",""1"",""20950""
""focus"",""1"",""23130""
""fullscreenenter"",""1"",""38109""
","""event"",""trial"",""time""
""blur"",""1"",""20950""
","""event"",""trial"",""time""
""focus"",""1"",""23130""
","""event"",""trial"",""time""
""fullscreenenter"",""1"",""38109""
","
","","","1508.8999999985099","","","13","15930","6262","d","elianto","#3366ff99","-1"," ","0","0","[2359.199999999255]","1","2","","","15930","49","1","2","win","no-go","0"
"pit-trial","168","1326780","0.0-54.0","battery-v0.2","","""event"",""trial"",""time""
""blur"",""1"",""20950""
""focus"",""1"",""23130""
""fullscreenenter"",""1"",""38109""
","""event"",""trial"",""time""
""blur"",""1"",""20950""
","""event"",""trial"",""time""
""focus"",""1"",""23130""
","""event"",""trial"",""time""
""fullscreenenter"",""1"",""38109""
","
","","","509.30000000074506","","","13","15930","6262","e","elianto","#f73b6a7A"," "," ","1","0","[1360.1000000014901]","1","2","","","15930","50","2","3","lose","go","0"
"pit-trial","169","1330156","0.0-55.0","battery-v0.2","","""event"",""trial"",""time""
""blur"",""1"",""20950""
""focus"",""1"",""23130""
""fullscreenenter"",""1"",""38109""
","""event"",""trial"",""time""
""blur"",""1"",""20950""
","""event"",""trial"",""time""
""focus"",""1"",""23130""
","""event"",""trial"",""time""
""fullscreenenter"",""1"",""38109""
","
","","","522","","","13","15930","6262","w","elianto","#f73b6a7A","-1"," ","0","-10","[1374.199999999255]","1","2","","","15930","51","3","4","lose","no-go","0"
"pit-trial","170","1333517","0.0-56.0","battery-v0.2","","""event"",""trial"",""time""
""blur"",""1"",""20950""
""focus"",""1"",""23130""
""fullscreenenter"",""1"",""38109""
","""event"",""trial"",""time""
""blur"",""1"",""20950""
","""event"",""trial"",""time""
""focus"",""1"",""23130""
","""event"",""trial"",""time""
""fullscreenenter"",""1"",""38109""
","
","","","501.69999999925494","","","13","15930","6262","j","elianto","#f73b6a7A"," "," ","1","0","[1357]","1","2","","","15930","52","0","3","lose","go","0"
"pit-trial","171","1336554","0.0-57.0","battery-v0.2","","""event"",""trial"",""time""
""blur"",""1"",""20950""
""focus"",""1"",""23130""
""fullscreenenter"",""1"",""38109""
","""event"",""trial"",""time""
""blur"",""1"",""20950""
","""event"",""trial"",""time""
""focus"",""1"",""23130""
","""event"",""trial"",""time""
""fullscreenenter"",""1"",""38109""
","
","","","183.80000000074506","","","13","15930","6262","w","elianto","#f73b6a7A","-1"," ","0","-10","[1034.1000000014901]","1","2","","","15930","53","3","4","lose","no-go","0"
"pit-trial","172","1339677","0.0-58.0","battery-v0.2","","""event"",""trial"",""time""
""blur"",""1"",""20950""
""focus"",""1"",""23130""
""fullscreenenter"",""1"",""38109""
","""event"",""trial"",""time""
""blur"",""1"",""20950""
","""event"",""trial"",""time""
""focus"",""1"",""23130""
","""event"",""trial"",""time""
""fullscreenenter"",""1"",""38109""
","
","","","269","","","13","15930","6262","e","elianto","#f73b6a7A"," "," ","1","0","[1119.8999999985099]","1","2","","","15930","54","2","3","lose","go","0"
"pit-trial","173","1342721","0.0-59.0","battery-v0.2","","""event"",""trial"",""time""
""blur"",""1"",""20950""
""focus"",""1"",""23130""
""fullscreenenter"",""1"",""38109""
","""event"",""trial"",""time""
""blur"",""1"",""20950""
","""event"",""trial"",""time""
""focus"",""1"",""23130""
","""event"",""trial"",""time""
""fullscreenenter"",""1"",""38109""
","
","","","190.39999999850988","","","13","15930","6262","d","elianto","#3366ff99","-1"," ","0","0","[1040.9000000022352,2421.60000000149]","2","2","","","15930","55","1","2","win","no-go","0"
"pit-trial","174","1345687","0.0-60.0","battery-v0.2","","""event"",""trial"",""time""
""blur"",""1"",""20950""
""focus"",""1"",""23130""
""fullscreenenter"",""1"",""38109""
","""event"",""trial"",""time""
""blur"",""1"",""20950""
","""event"",""trial"",""time""
""focus"",""1"",""23130""
","""event"",""trial"",""time""
""fullscreenenter"",""1"",""38109""
","
","","","112","","","13","15930","6262","j","elianto","#f73b6a7A"," "," ","1","-10","[964,1729.1000000014901,2446.10000000149]","3","2","","","15930","56","0","3","lose","go","1"
"pit-trial","175","1350540","0.0-61.0","battery-v0.2","","""event"",""trial"",""time""
""blur"",""1"",""20950""
""focus"",""1"",""23130""
""fullscreenenter"",""1"",""38109""
","""event"",""trial"",""time""
""blur"",""1"",""20950""
","""event"",""trial"",""time""
""focus"",""1"",""23130""
","""event"",""trial"",""time""
""fullscreenenter"",""1"",""38109""
","
","","","-1","","","13","15930","6262","w","elianto","#f73b6a7A","-1","-1","1","0","[137.60000000149012]","1","2","","","15930","57","3","4","lose","no-go","0"
"pit-trial","176","1354310","0.0-62.0","battery-v0.2","","""event"",""trial"",""time""
""blur"",""1"",""20950""
""focus"",""1"",""23130""
""fullscreenenter"",""1"",""38109""
","""event"",""trial"",""time""
""blur"",""1"",""20950""
","""event"",""trial"",""time""
""focus"",""1"",""23130""
","""event"",""trial"",""time""
""fullscreenenter"",""1"",""38109""
","
","","","914.8000000007451","","","13","15930","6262","e","elianto","#f73b6a7A"," "," ","1","0","[1765.7000000029802]","1","2","","","15930","58","2","3","lose","go","0"
"pit-trial","177","1358110","0.0-63.0","battery-v0.2","","""event"",""trial"",""time""
""blur"",""1"",""20950""
""focus"",""1"",""23130""
""fullscreenenter"",""1"",""38109""
","""event"",""trial"",""time""
""blur"",""1"",""20950""
","""event"",""trial"",""time""
""focus"",""1"",""23130""
","""event"",""trial"",""time""
""fullscreenenter"",""1"",""38109""
","
","","","944.8000000007451","","","13","15930","6262","s","elianto","#3366ff99"," "," ","1","0","[1796.3999999985099]","1","2","","","15930","59","4","1","win","go","1"
"pit-trial","178","1362466","0.0-64.0","battery-v0.2","","""event"",""trial"",""time""
""blur"",""1"",""20950""
""focus"",""1"",""23130""
""fullscreenenter"",""1"",""38109""
","""event"",""trial"",""time""
""blur"",""1"",""20950""
","""event"",""trial"",""time""
""focus"",""1"",""23130""
","""event"",""trial"",""time""
""fullscreenenter"",""1"",""38109""
","
","","","1502.699999999255","","","13","15930","6262","j","elianto","#f73b6a7A"," "," ","1","0","[2353.60000000149,2720.800000000745,3976.400000002235]","3","2","","","15930","60","0","3","lose","go","0"
"pit-trial","179","1367321","0.0-65.0","battery-v0.2","","""event"",""trial"",""time""
""blur"",""1"",""20950""
""focus"",""1"",""23130""
""fullscreenenter"",""1"",""38109""
","""event"",""trial"",""time""
""blur"",""1"",""20950""
","""event"",""trial"",""time""
""focus"",""1"",""23130""
","""event"",""trial"",""time""
""fullscreenenter"",""1"",""38109""
","
","","","-1","","","13","15930","6262","s","elianto","#3366ff99"," ","-1","0","0","[]","0","2","","","15930","61","4","1","win","go","0"
"pit-trial","180","1371735","0.0-66.0","battery-v0.2","","""event"",""trial"",""time""
""blur"",""1"",""20950""
""focus"",""1"",""23130""
""fullscreenenter"",""1"",""38109""
","""event"",""trial"",""time""
""blur"",""1"",""20950""
