"trial_type","trial_index","time_elapsed","internal_node_id","task_version","subject_id","interactions","blur_events","focus_events","fullscreenenter_events","fullscreenexit_events","success","view_history","rt","responses","num_errors","age","subject","participantId","rune","rune_set","hex","correct","choice","accuracy","outcome","keys","total_keys","block","practice","value","sub","trial","stimulus","robot","valence","action","sham"
"pavlovia","0","25","0.0-0.0","battery-v0.2","","""event"",""trial"",""time""
""fullscreenenter"",""1"",""3200""
","
","
","""event"",""trial"",""time""
""fullscreenenter"",""1"",""3200""
","
","","","","","","","","","","","","","","","","","","","","","","","","","","",""
"fullscreen","1","4182","0.0-1.0","battery-v0.2","","""event"",""trial"",""time""
""fullscreenenter"",""1"",""3200""
","
","
","""event"",""trial"",""time""
""fullscreenenter"",""1"",""3200""
","
","true","","","","","","","","","","","","","","","","","","","","","","","","","",""
"pit-instructions","2","17307","0.0-2.0-0.0","battery-v0.2","","""event"",""trial"",""time""
""fullscreenenter"",""1"",""3200""
","
","
","""event"",""trial"",""time""
""fullscreenenter"",""1"",""3200""
","
","","[{""page_index"":0,""viewing_time"":13084.29999923706}]","13085.29999923706","","","","","","","","","","","","","","","","","","","","","","","",""
"pit-comprehension","3","22444","0.0-2.0-1.0-0.0","battery-v0.2","","""event"",""trial"",""time""
""fullscreenenter"",""1"",""3200""
","
","
","""event"",""trial"",""time""
""fullscreenenter"",""1"",""3200""
","
","","","5130.099999427795","[""shark""]","0","13","8229","3653","","","","","","","","","","","","","","","","","","",""
"pit-instructions","4","26216","0.0-2.0-1.0-1.0","battery-v0.2","","""event"",""trial"",""time""
""fullscreenenter"",""1"",""3200""
","
","
","""event"",""trial"",""time""
""fullscreenenter"",""1"",""3200""
","
","","[{""page_index"":0,""viewing_time"":3748.3999996185303}]","3748.800000190735","","","","","","","","","","","","","","","","","","","","","","","",""
"pit-comprehension","5","29861","0.0-2.0-2.0-0.0","battery-v0.2","","""event"",""trial"",""time""
""fullscreenenter"",""1"",""3200""
","
","
","""event"",""trial"",""time""
""fullscreenenter"",""1"",""3200""
","
","","","3639.300000190735","[""tiger""]","0","13","8229","3653","","","","","","","","","","","","","","","","","","",""
"pit-instructions","6","31341","0.0-2.0-2.0-1.0","battery-v0.2","","""event"",""trial"",""time""
""fullscreenenter"",""1"",""3200""
","
","
","""event"",""trial"",""time""
""fullscreenenter"",""1"",""3200""
","
","","[{""page_index"":0,""viewing_time"":1475.3000001907349}]","1475.7000007629395","","","","","","","","","","","","","","","","","","","","","","","",""
"pit-instructions","7","133823","0.0-2.0-3.0","battery-v0.2","","""event"",""trial"",""time""
""fullscreenenter"",""1"",""3200""
","
","
","""event"",""trial"",""time""
""fullscreenenter"",""1"",""3200""
","
","","[{""page_index"":0,""viewing_time"":10952.5},{""page_index"":1,""viewing_time"":8095.200000762939},{""page_index"":2,""viewing_time"":6556.89999961853},{""page_index"":3,""viewing_time"":6127.199999809265},{""page_index"":4,""viewing_time"":6873.900000572205},{""page_index"":5,""viewing_time"":6068.89999961853},{""page_index"":6,""viewing_time"":7483.89999961853},{""page_index"":7,""viewing_time"":7220.900000572205},{""page_index"":8,""viewing_time"":6329.39999961853},{""page_index"":9,""viewing_time"":8926.800000190735},{""page_index"":10,""viewing_time"":8463.699999809265},{""page_index"":11,""viewing_time"":7549.10000038147},{""page_index"":12,""viewing_time"":6636.800000190735},{""page_index"":13,""viewing_time"":5180.299999237061}]","102470.20000076294","","","","","","","","","","","","","","","","","","","","","","","",""
"pit-trial","8","137323","0.0-2.0-4.0-0.0","battery-v0.2","","""event"",""trial"",""time""
""fullscreenenter"",""1"",""3200""
","
","
","""event"",""trial"",""time""
""fullscreenenter"",""1"",""3200""
","
","","","627.1999998092651","","","13","8229","3653","&#9784;","elianto","#FFFFF080"," "," ","1","&#10004","[1470.6999998092651]","1","0","0","","","","","","","",""
"pit-trial","9","140916","0.0-2.0-4.1-0.1","battery-v0.2","","""event"",""trial"",""time""
""fullscreenenter"",""1"",""3200""
","
","
","""event"",""trial"",""time""
""fullscreenenter"",""1"",""3200""
","
","","","726","","","13","8229","3653","&#9784;","elianto","#FFFFF080"," "," ","1","&#10004","[1585]","1","0","0","","","","","","","",""
"pit-trial","10","144591","0.0-2.0-4.2-0.2","battery-v0.2","","""event"",""trial"",""time""
""fullscreenenter"",""1"",""3200""
","
","
","""event"",""trial"",""time""
""fullscreenenter"",""1"",""3200""
","
","","","803","","","13","8229","3653","&#9784;","elianto","#FFFFF080"," "," ","1","&#10004","[1658.6999998092651]","1","0","0","","","","","","","",""
"pit-trial","11","148408","0.0-2.0-4.3-0.3","battery-v0.2","","""event"",""trial"",""time""
""fullscreenenter"",""1"",""3200""
","
","
","""event"",""trial"",""time""
""fullscreenenter"",""1"",""3200""
","
","","","962.6999998092651","","","13","8229","3653","&#9784;","elianto","#FFFFF080"," "," ","1","&#10004","[1813.6000003814697]","1","0","0","","","","","","","",""
"pit-trial","12","152040","0.0-2.0-4.4-0.4","battery-v0.2","","""event"",""trial"",""time""
""fullscreenenter"",""1"",""3200""
","
","
","""event"",""trial"",""time""
""fullscreenenter"",""1"",""3200""
","
","","","758.9000005722046","","","13","8229","3653","&#9784;","elianto","#FFFFF080"," "," ","1","&#10004","[1609.8000001907349]","1","0","0","","","","","","","",""
"pit-instructions","13","172821","0.0-2.0-5.0","battery-v0.2","","""event"",""trial"",""time""
""fullscreenenter"",""1"",""3200""
","
","
","""event"",""trial"",""time""
""fullscreenenter"",""1"",""3200""
","
","","[{""page_index"":0,""viewing_time"":4936.699999809265},{""page_index"":1,""viewing_time"":5401.5},{""page_index"":2,""viewing_time"":4774.099999427795},{""page_index"":3,""viewing_time"":5659.800000190735}]","20772.5","","","","","","","","","","","","","","","","","","","","","","","",""
"pit-trial","14","177689","0.0-2.0-6.0-0.0","battery-v0.2","","""event"",""trial"",""time""
""fullscreenenter"",""1"",""3200""
","
","
","""event"",""trial"",""time""
""fullscreenenter"",""1"",""3200""
","
","","","-1","","","13","8229","3653","&#9854;","elianto","#FFFFF080","-1","-1","1","&#10004","[]","0","0","1","","","","","","","",""
"pit-trial","15","182555","0.0-2.0-6.1-0.1","battery-v0.2","","""event"",""trial"",""time""
""fullscreenenter"",""1"",""3200""
","
","
","""event"",""trial"",""time""
""fullscreenenter"",""1"",""3200""
","
","","","-1","","","13","8229","3653","&#9854;","elianto","#FFFFF080","-1","-1","1","&#10004","[]","0","0","1","","","","","","","",""
"pit-trial","16","187426","0.0-2.0-6.2-0.2","battery-v0.2","","""event"",""trial"",""time""
""fullscreenenter"",""1"",""3200""
","
","
","""event"",""trial"",""time""
""fullscreenenter"",""1"",""3200""
","
","","","-1","","","13","8229","3653","&#9854;","elianto","#FFFFF080","-1","-1","1","&#10004","[]","0","0","1","","","","","","","",""
"pit-trial","17","192292","0.0-2.0-6.3-0.3","battery-v0.2","","""event"",""trial"",""time""
""fullscreenenter"",""1"",""3200""
","
","
","""event"",""trial"",""time""
""fullscreenenter"",""1"",""3200""
","
","","","-1","","","13","8229","3653","&#9854;","elianto","#FFFFF080","-1","-1","1","&#10004","[]","0","0","1","","","","","","","",""
"pit-trial","18","197164","0.0-2.0-6.4-0.4","battery-v0.2","","""event"",""trial"",""time""
""fullscreenenter"",""1"",""3200""
","
","
","""event"",""trial"",""time""
""fullscreenenter"",""1"",""3200""
","
","","","-1","","","13","8229","3653","&#9854;","elianto","#FFFFF080","-1","-1","1","&#10004","[]","0","0","1","","","","","","","",""
"pit-instructions","19","319559","0.0-2.0-7.0","battery-v0.2","","""event"",""trial"",""time""
""fullscreenenter"",""1"",""3200""
","
","
","""event"",""trial"",""time""
""fullscreenenter"",""1"",""3200""
","
","","[{""page_index"":0,""viewing_time"":5943.300000190735},{""page_index"":1,""viewing_time"":7339.89999961853},{""page_index"":2,""viewing_time"":5793.800000190735},{""page_index"":3,""viewing_time"":6746},{""page_index"":4,""viewing_time"":6677.800000190735},{""page_index"":5,""viewing_time"":5321.199999809265},{""page_index"":6,""viewing_time"":5077.199999809265},{""page_index"":7,""viewing_time"":8219.699999809265},{""page_index"":8,""viewing_time"":7170.199999809265},{""page_index"":9,""viewing_time"":6863.10000038147},{""page_index"":10,""viewing_time"":6495.60000038147},{""page_index"":11,""viewing_time"":4679.39999961853},{""page_index"":12,""viewing_time"":7415.89999961853},{""page_index"":13,""viewing_time"":7138.700000762939},{""page_index"":14,""viewing_time"":8029.799999237061},{""page_index"":15,""viewing_time"":7492.400000572205},{""page_index"":16,""viewing_time"":7195.699999809265},{""page_index"":17,""viewing_time"":8784.199999809265}]","122384.30000019073","","","","","","","","","","","","","","","","","","","","","","","",""
"pit-trial","20","322930","0.0-2.0-8.0-0.0","battery-v0.2","","""event"",""trial"",""time""
""fullscreenenter"",""1"",""3200""
","
","
","""event"",""trial"",""time""
""fullscreenenter"",""1"",""3200""
","
","","","509.79999923706055","","","13","8229","3653","&#9776;","elianto","#3366ff99"," "," ","1","+10","[1362.9000005722046]","1","0","1","","","","","","","",""
"pit-trial","21","326492","0.0-2.0-8.0-1.0","battery-v0.2","","""event"",""trial"",""time""
""fullscreenenter"",""1"",""3200""
","
","
","""event"",""trial"",""time""
""fullscreenenter"",""1"",""3200""
","
","","","702.0999994277954","","","13","8229","3653","&#9776;","elianto","#3366ff99"," "," ","1","+10","[1552.3000001907349]","1","0","1","","","","","","","",""
"pit-trial","22","329995","0.0-2.0-8.0-2.0","battery-v0.2","","""event"",""trial"",""time""
""fullscreenenter"",""1"",""3200""
","
","
","""event"",""trial"",""time""
""fullscreenenter"",""1"",""3200""
","
","","","640.3000001907349","","","13","8229","3653","&#9776;","elianto","#3366ff99"," "," ","1","+10","[1491.3999996185303]","1","0","1","","","","","","","",""
"pit-trial","23","333463","0.0-2.0-8.0-3.0","battery-v0.2","","""event"",""trial"",""time""
""fullscreenenter"",""1"",""3200""
","
","
","""event"",""trial"",""time""
""fullscreenenter"",""1"",""3200""
","
","","","582.3000001907349","","","13","8229","3653","&#9776;","elianto","#3366ff99"," "," ","1","0","[1433.1999998092651]","1","0","1","","","","","","","",""
"pit-trial","24","336813","0.0-2.0-8.0-4.0","battery-v0.2","","""event"",""trial"",""time""
""fullscreenenter"",""1"",""3200""
","
","
","""event"",""trial"",""time""
""fullscreenenter"",""1"",""3200""
","
","","","490","","","13","8229","3653","&#9776;","elianto","#3366ff99"," "," ","1","+10","[1342.3000001907349]","1","0","1","","","","","","","",""
"pit-trial","25","340112","0.0-2.0-8.1-0.1","battery-v0.2","","""event"",""trial"",""time""
""fullscreenenter"",""1"",""3200""
","
","
","""event"",""trial"",""time""
""fullscreenenter"",""1"",""3200""
","
","","","431","","","13","8229","3653","&#9776;","elianto","#3366ff99"," "," ","1","+10","[1287.2000007629395]","1","0","1","","","","","","","",""
"pit-trial","26","343358","0.0-2.0-8.1-1.1","battery-v0.2","","""event"",""trial"",""time""
""fullscreenenter"",""1"",""3200""
","
","
","""event"",""trial"",""time""
""fullscreenenter"",""1"",""3200""
","
","","","366.5999994277954","","","13","8229","3653","&#9776;","elianto","#3366ff99"," "," ","1","+10","[1222]","1","0","1","","","","","","","",""
"pit-trial","27","348219","0.0-2.0-8.1-2.1","battery-v0.2","","""event"",""trial"",""time""
""fullscreenenter"",""1"",""3200""
","
","
","""event"",""trial"",""time""
""fullscreenenter"",""1"",""3200""
","
","","","-1","","","13","8229","3653","&#9776;","elianto","#3366ff99"," ","-1","0","0","[]","0","0","1","","","","","","","",""
"pit-trial","28","351602","0.0-2.0-8.1-3.1","battery-v0.2","","""event"",""trial"",""time""
""fullscreenenter"",""1"",""3200""
","
","
","""event"",""trial"",""time""
""fullscreenenter"",""1"",""3200""
","
","","","521.6999998092651","","","13","8229","3653","&#9776;","elianto","#3366ff99"," "," ","1","0","[1378.0999994277954]","1","0","1","","","","","","","",""
"pit-trial","29","356463","0.0-2.0-8.1-4.1","battery-v0.2","","""event"",""trial"",""time""
""fullscreenenter"",""1"",""3200""
","
","
","""event"",""trial"",""time""
""fullscreenenter"",""1"",""3200""
","
","","","-1","","","13","8229","3653","&#9776;","elianto","#3366ff99"," ","-1","0","0","[]","0","0","1","","","","","","","",""
"pit-trial","30","359993","0.0-2.0-8.2-0.2","battery-v0.2","","""event"",""trial"",""time""
""fullscreenenter"",""1"",""3200""
","
","
","""event"",""trial"",""time""
""fullscreenenter"",""1"",""3200""
","
","","","659.5999994277954","","","13","8229","3653","&#9776;","elianto","#3366ff99"," "," ","1","+10","[1521.3999996185303]","1","0","1","","","","","","","",""
"pit-trial","31","363267","0.0-2.0-8.2-1.2","battery-v0.2","","""event"",""trial"",""time""
""fullscreenenter"",""1"",""3200""
","
","
","""event"",""trial"",""time""
""fullscreenenter"",""1"",""3200""
","
","","","410.4000005722046","","","13","8229","3653","&#9776;","elianto","#3366ff99"," "," ","1","+10","[1265.1000003814697]","1","0","1","","","","","","","",""
"pit-trial","32","366519","0.0-2.0-8.2-2.2","battery-v0.2","","""event"",""trial"",""time""
""fullscreenenter"",""1"",""3200""
","
","
","""event"",""trial"",""time""
""fullscreenenter"",""1"",""3200""
","
","","","386.9000005722046","","","13","8229","3653","&#9776;","elianto","#3366ff99"," "," ","1","+10","[1242.4000005722046]","1","0","1","","","","","","","",""
"pit-trial","33","370153","0.0-2.0-8.2-3.2","battery-v0.2","","""event"",""trial"",""time""
""fullscreenenter"",""1"",""3200""
","
","
","""event"",""trial"",""time""
""fullscreenenter"",""1"",""3200""
","
","","","776.8999996185303","","","13","8229","3653","&#9776;","elianto","#3366ff99"," "," ","1","0","[1630.2000007629395]","1","0","1","","","","","","","",""
"pit-trial","34","373595","0.0-2.0-8.2-4.2","battery-v0.2","","""event"",""trial"",""time""
""fullscreenenter"",""1"",""3200""
","
","
","""event"",""trial"",""time""
""fullscreenenter"",""1"",""3200""
","
","","","581.3999996185303","","","13","8229","3653","&#9776;","elianto","#3366ff99"," "," ","1","+10","[1436.3000001907349]","1","0","1","","","","","","","",""
"call-function","35","373597","0.0-2.0-9.0","battery-v0.2","","""event"",""trial"",""time""
""fullscreenenter"",""1"",""3200""
","
","
","""event"",""trial"",""time""
""fullscreenenter"",""1"",""3200""
","
","","","","","","","","","","","","","","","","","","","","","","","","","","",""
"pit-instructions","36","445241","0.0-2.0-10.0","battery-v0.2","","""event"",""trial"",""time""
""fullscreenenter"",""1"",""3200""
","
","
","""event"",""trial"",""time""
""fullscreenenter"",""1"",""3200""
","
","","[{""page_index"":0,""viewing_time"":11265.79999923706},{""page_index"":1,""viewing_time"":19866.60000038147},{""page_index"":2,""viewing_time"":18055.800000190735},{""page_index"":3,""viewing_time"":12672.199999809265},{""page_index"":4,""viewing_time"":9781.800000190735}]","71642.5999994278","","","","","","","","","","","","","","","","","","","","","","","",""
"pit-trial","37","448735","0.0-2.0-11.0-0.0","battery-v0.2","","""event"",""trial"",""time""
""fullscreenenter"",""1"",""3200""
","
","
","""event"",""trial"",""time""
""fullscreenenter"",""1"",""3200""
","
","","","634.6000003814697","","","13","8229","3653","&#9761;","elianto","#3366ff99","-1"," ","0","0","[1485.5]","1","0","2","","","","","","","",""
"pit-trial","38","452010","0.0-2.0-11.0-1.0","battery-v0.2","","""event"",""trial"",""time""
""fullscreenenter"",""1"",""3200""
","
","
","""event"",""trial"",""time""
""fullscreenenter"",""1"",""3200""
","
","","","398.69999980926514","","","13","8229","3653","&#9761;","elianto","#3366ff99","-1"," ","0","0","[1252.6999998092651]","1","0","2","","","","","","","",""
"pit-trial","39","455466","0.0-2.0-11.0-2.0","battery-v0.2","","""event"",""trial"",""time""
""fullscreenenter"",""1"",""3200""
","
","
","""event"",""trial"",""time""
""fullscreenenter"",""1"",""3200""
","
","","","592.6999998092651","","","13","8229","3653","&#9761;","elianto","#3366ff99","-1"," ","0","0","[1444.1999998092651]","1","0","2","","","","","","","",""
"pit-trial","40","458935","0.0-2.0-11.0-3.0","battery-v0.2","","""event"",""trial"",""time""
""fullscreenenter"",""1"",""3200""
","
","
","""event"",""trial"",""time""
""fullscreenenter"",""1"",""3200""
","
","","","597.3000001907349","","","13","8229","3653","&#9761;","elianto","#3366ff99","-1"," ","0","+10","[1453.6000003814697]","1","0","2","","","","","","","",""
"pit-trial","41","461925","0.0-2.0-11.0-4.0","battery-v0.2","","""event"",""trial"",""time""
""fullscreenenter"",""1"",""3200""
","
","
","""event"",""trial"",""time""
""fullscreenenter"",""1"",""3200""
","
","","","122.59999942779541","","","13","8229","3653","&#9761;","elianto","#3366ff99","-1"," ","0","0","[978.0999994277954]","1","0","2","","","","","","","",""
"pit-trial","42","465717","0.0-2.0-11.1-0.1","battery-v0.2","","""event"",""trial"",""time""
""fullscreenenter"",""1"",""3200""
","
","
","""event"",""trial"",""time""
""fullscreenenter"",""1"",""3200""
","
","","","923.5999994277954","","","13","8229","3653","&#9761;","elianto","#3366ff99","-1"," ","0","0","[1774.8999996185303]","1","0","2","","","","","","","",""
"pit-trial","43","468745","0.0-2.0-11.1-1.1","battery-v0.2","","""event"",""trial"",""time""
""fullscreenenter"",""1"",""3200""
","
","
","""event"",""trial"",""time""
""fullscreenenter"",""1"",""3200""
","
","","","156.10000038146973","","","13","8229","3653","&#9761;","elianto","#3366ff99","-1"," ","0","0","[1007.2000007629395]","1","0","2","","","","","","","",""
"pit-trial","44","473609","0.0-2.0-11.1-2.1","battery-v0.2","","""event"",""trial"",""time""
""fullscreenenter"",""1"",""3200""
","
","
","""event"",""trial"",""time""
""fullscreenenter"",""1"",""3200""
","
","","","-1","","","13","8229","3653","&#9761;","elianto","#3366ff99","-1","-1","1","+10","[]","0","0","2","","","","","","","",""
"pit-trial","45","476948","0.0-2.0-11.1-3.1","battery-v0.2","","""event"",""trial"",""time""
""fullscreenenter"",""1"",""3200""
","
","
","""event"",""trial"",""time""
""fullscreenenter"",""1"",""3200""
","
","","","483.1000003814697","","","13","8229","3653","&#9761;","elianto","#3366ff99","-1"," ","0","+10","[1334.3999996185303]","1","0","2","","","","","","","",""
"pit-trial","46","480300","0.0-2.0-11.1-4.1","battery-v0.2","","""event"",""trial"",""time""
""fullscreenenter"",""1"",""3200""
","
","
","""event"",""trial"",""time""
""fullscreenenter"",""1"",""3200""
","
","","","470.5","","","13","8229","3653","&#9761;","elianto","#3366ff99","-1"," ","0","0","[1333.5999994277954]","1","0","2","","","","","","","",""
"pit-trial","47","483944","0.0-2.0-11.2-0.2","battery-v0.2","","""event"",""trial"",""time""
""fullscreenenter"",""1"",""3200""
","
","
","""event"",""trial"",""time""
""fullscreenenter"",""1"",""3200""
","
","","","778.8000001907349","","","13","8229","3653","&#9761;","elianto","#3366ff99","-1"," ","0","0","[1633.6000003814697,3299.300000190735]","2","0","2","","","","","","","",""
"pit-trial","48","487662","0.0-2.0-11.2-1.2","battery-v0.2","","""event"",""trial"",""time""
""fullscreenenter"",""1"",""3200""
","
","
","""event"",""trial"",""time""
""fullscreenenter"",""1"",""3200""
","
","","","856.6999998092651","","","13","8229","3653","&#9761;","elianto","#3366ff99","-1"," ","0","0","[1714]","1","0","2","","","","","","","",""
"pit-trial","49","492525","0.0-2.0-11.2-2.2","battery-v0.2","","""event"",""trial"",""time""
""fullscreenenter"",""1"",""3200""
","
","
","""event"",""trial"",""time""
""fullscreenenter"",""1"",""3200""
","
","","","-1","","","13","8229","3653","&#9761;","elianto","#3366ff99","-1","-1","1","+10","[]","0","0","2","","","","","","","",""
"pit-trial","50","495811","0.0-2.0-11.2-3.2","battery-v0.2","","""event"",""trial"",""time""
""fullscreenenter"",""1"",""3200""
","
","
","""event"",""trial"",""time""
""fullscreenenter"",""1"",""3200""
","
","","","431.5","","","13","8229","3653","&#9761;","elianto","#3366ff99","-1"," ","0","+10","[1282.8000001907349]","1","0","2","","","","","","","",""
"pit-trial","51","500674","0.0-2.0-11.2-4.2","battery-v0.2","","""event"",""trial"",""time""
""fullscreenenter"",""1"",""3200""
","
","
","""event"",""trial"",""time""
""fullscreenenter"",""1"",""3200""
","
","","","-1","","","13","8229","3653","&#9761;","elianto","#3366ff99","-1","-1","1","+10","[]","0","0","2","","","","","","","",""
"pit-trial","52","504240","0.0-2.0-11.3-0.3","battery-v0.2","","""event"",""trial"",""time""
""fullscreenenter"",""1"",""3200""
","
","
","""event"",""trial"",""time""
""fullscreenenter"",""1"",""3200""
","
","","","708.5","","","13","8229","3653","&#9761;","elianto","#3366ff99","-1"," ","0","0","[1560.4000005722046]","1","0","2","","","","","","","",""
"pit-trial","53","509102","0.0-2.0-11.3-1.3","battery-v0.2","","""event"",""trial"",""time""
""fullscreenenter"",""1"",""3200""
","
","
","""event"",""trial"",""time""
""fullscreenenter"",""1"",""3200""
","
","","","-1","","","13","8229","3653","&#9761;","elianto","#3366ff99","-1","-1","1","+10","[]","0","0","2","","","","","","","",""
"pit-trial","54","512647","0.0-2.0-11.3-2.3","battery-v0.2","","""event"",""trial"",""time""
""fullscreenenter"",""1"",""3200""
","
","
","""event"",""trial"",""time""
""fullscreenenter"",""1"",""3200""
","
","","","689.6999998092651","","","13","8229","3653","&#9761;","elianto","#3366ff99","-1"," ","0","0","[1542.5]","1","0","2","","","","","","","",""
"pit-trial","55","515884","0.0-2.0-11.3-3.3","battery-v0.2","","""event"",""trial"",""time""
""fullscreenenter"",""1"",""3200""
","
","
","""event"",""trial"",""time""
""fullscreenenter"",""1"",""3200""
","
","","","366.8999996185303","","","13","8229","3653","&#9761;","elianto","#3366ff99","-1"," ","0","+10","[1228.6999998092651]","1","0","2","","","","","","","",""
"pit-trial","56","520740","0.0-2.0-11.3-4.3","battery-v0.2","","""event"",""trial"",""time""
""fullscreenenter"",""1"",""3200""
","
","
","""event"",""trial"",""time""
""fullscreenenter"",""1"",""3200""
","
","","","-1","","","13","8229","3653","&#9761;","elianto","#3366ff99","-1","-1","1","+10","[]","0","0","2","","","","","","","",""
"call-function","57","520742","0.0-2.0-12.0","battery-v0.2","","""event"",""trial"",""time""
""fullscreenenter"",""1"",""3200""
","
","
","""event"",""trial"",""time""
""fullscreenenter"",""1"",""3200""
","
","","","","","","","","","","","","","","","","","","","","","","","","","","",""
"pit-instructions","58","562048","0.0-2.0-13.0","battery-v0.2","","""event"",""trial"",""time""
""fullscreenenter"",""1"",""3200""
","
","
","""event"",""trial"",""time""
""fullscreenenter"",""1"",""3200""
","
","","[{""page_index"":0,""viewing_time"":6796.099999427795},{""page_index"":1,""viewing_time"":10121.699999809265},{""page_index"":2,""viewing_time"":5278.60000038147},{""page_index"":3,""viewing_time"":12391.800000190735},{""page_index"":4,""viewing_time"":6716.300000190735}]","41304.89999961853","","","","","","","","","","","","","","","","","","","","","","","",""
"pit-trial","59","565418","0.0-2.0-14.0-0.0","battery-v0.2","","""event"",""trial"",""time""
""fullscreenenter"",""1"",""3200""
","
","
","""event"",""trial"",""time""
""fullscreenenter"",""1"",""3200""
","
","","","493.20000076293945","","","13","8229","3653","&#9826;","elianto","#f73b6a7A","-1"," ","0","-10","[1351.1999998092651]","1","0","3","","","","","","","",""
"pit-trial","60","570297","0.0-2.0-14.0-1.0","battery-v0.2","","""event"",""trial"",""time""
""fullscreenenter"",""1"",""3200""
","
","
","""event"",""trial"",""time""
""fullscreenenter"",""1"",""3200""
","
","","","-1","","","13","8229","3653","&#9826;","elianto","#f73b6a7A","-1","-1","1","0","[]","0","0","3","","","","","","","",""
"pit-trial","61","575177","0.0-2.0-14.0-2.0","battery-v0.2","","""event"",""trial"",""time""
""fullscreenenter"",""1"",""3200""
","
","
","""event"",""trial"",""time""
""fullscreenenter"",""1"",""3200""
","
","","","-1","","","13","8229","3653","&#9826;","elianto","#f73b6a7A","-1","-1","1","0","[]","0","0","3","","","","","","","",""
"pit-trial","62","580050","0.0-2.0-14.0-3.0","battery-v0.2","","""event"",""trial"",""time""
""fullscreenenter"",""1"",""3200""
","
","
","""event"",""trial"",""time""
""fullscreenenter"",""1"",""3200""
","
","","","-1","","","13","8229","3653","&#9826;","elianto","#f73b6a7A","-1","-1","1","-10","[]","0","0","3","","","","","","","",""
"pit-trial","63","584938","0.0-2.0-14.0-4.0","battery-v0.2","","""event"",""trial"",""time""
""fullscreenenter"",""1"",""3200""
","
","
","""event"",""trial"",""time""
""fullscreenenter"",""1"",""3200""
","
","","","-1","","","13","8229","3653","&#9826;","elianto","#f73b6a7A","-1","-1","1","0","[]","0","0","3","","","","","","","",""
"pit-trial","64","589836","0.0-2.0-14.1-0.1","battery-v0.2","","""event"",""trial"",""time""
""fullscreenenter"",""1"",""3200""
","
","
","""event"",""trial"",""time""
""fullscreenenter"",""1"",""3200""
","
","","","-1","","","13","8229","3653","&#9826;","elianto","#f73b6a7A","-1","-1","1","0","[]","0","0","3","","","","","","","",""
"pit-trial","65","593151","0.0-2.0-14.1-1.1","battery-v0.2","","""event"",""trial"",""time""
""fullscreenenter"",""1"",""3200""
","
","
","""event"",""trial"",""time""
""fullscreenenter"",""1"",""3200""
","
","","","453.9000005722046","","","13","8229","3653","&#9826;","elianto","#f73b6a7A","-1"," ","0","-10","[1307.8000001907349]","1","0","3","","","","","","","",""
"pit-trial","66","598012","0.0-2.0-14.1-2.1","battery-v0.2","","""event"",""trial"",""time""
""fullscreenenter"",""1"",""3200""
","
","
","""event"",""trial"",""time""
""fullscreenenter"",""1"",""3200""
","
","","","-1","","","13","8229","3653","&#9826;","elianto","#f73b6a7A","-1","-1","1","0","[]","0","0","3","","","","","","","",""
"pit-trial","67","602871","0.0-2.0-14.1-3.1","battery-v0.2","","""event"",""trial"",""time""
""fullscreenenter"",""1"",""3200""
","
","
","""event"",""trial"",""time""
""fullscreenenter"",""1"",""3200""
","
","","","-1","","","13","8229","3653","&#9826;","elianto","#f73b6a7A","-1","-1","1","-10","[]","0","0","3","","","","","","","",""
"pit-trial","68","607734","0.0-2.0-14.1-4.1","battery-v0.2","","""event"",""trial"",""time""
""fullscreenenter"",""1"",""3200""
","
","
","""event"",""trial"",""time""
""fullscreenenter"",""1"",""3200""
","
","","","-1","","","13","8229","3653","&#9826;","elianto","#f73b6a7A","-1","-1","1","0","[]","0","0","3","","","","","","","",""
"pit-trial","69","612596","0.0-2.0-14.2-0.2","battery-v0.2","","""event"",""trial"",""time""
""fullscreenenter"",""1"",""3200""
","
","
","""event"",""trial"",""time""
""fullscreenenter"",""1"",""3200""
","
","","","-1","","","13","8229","3653","&#9826;","elianto","#f73b6a7A","-1","-1","1","0","[]","0","0","3","","","","","","","",""
"pit-trial","70","617451","0.0-2.0-14.2-1.2","battery-v0.2","","""event"",""trial"",""time""
""fullscreenenter"",""1"",""3200""
","
","
","""event"",""trial"",""time""
""fullscreenenter"",""1"",""3200""
","
","","","-1","","","13","8229","3653","&#9826;","elianto","#f73b6a7A","-1","-1","1","0","[]","0","0","3","","","","","","","",""
"pit-trial","71","622312","0.0-2.0-14.2-2.2","battery-v0.2","","""event"",""trial"",""time""
""fullscreenenter"",""1"",""3200""
","
","
","""event"",""trial"",""time""
""fullscreenenter"",""1"",""3200""
","
","","","-1","","","13","8229","3653","&#9826;","elianto","#f73b6a7A","-1","-1","1","0","[]","0","0","3","","","","","","","",""
"pit-trial","72","627174","0.0-2.0-14.2-3.2","battery-v0.2","","""event"",""trial"",""time""
""fullscreenenter"",""1"",""3200""
","
","
","""event"",""trial"",""time""
""fullscreenenter"",""1"",""3200""
","
","","","-1","","","13","8229","3653","&#9826;","elianto","#f73b6a7A","-1","-1","1","-10","[]","0","0","3","","","","","","","",""
"pit-trial","73","632040","0.0-2.0-14.2-4.2","battery-v0.2","","""event"",""trial"",""time""
""fullscreenenter"",""1"",""3200""
","
","
","""event"",""trial"",""time""
""fullscreenenter"",""1"",""3200""
","
","","","-1","","","13","8229","3653","&#9826;","elianto","#f73b6a7A","-1","-1","1","0","[]","0","0","3","","","","","","","",""
"pit-trial","74","636924","0.0-2.0-14.3-0.3","battery-v0.2","","""event"",""trial"",""time""
""fullscreenenter"",""1"",""3200""
","
","
","""event"",""trial"",""time""
""fullscreenenter"",""1"",""3200""
","
","","","-1","","","13","8229","3653","&#9826;","elianto","#f73b6a7A","-1","-1","1","0","[]","0","0","3","","","","","","","",""
"pit-trial","75","641780","0.0-2.0-14.3-1.3","battery-v0.2","","""event"",""trial"",""time""
""fullscreenenter"",""1"",""3200""
","
","
","""event"",""trial"",""time""
""fullscreenenter"",""1"",""3200""
","
","","","-1","","","13","8229","3653","&#9826;","elianto","#f73b6a7A","-1","-1","1","0","[]","0","0","3","","","","","","","",""
"pit-trial","76","646644","0.0-2.0-14.3-2.3","battery-v0.2","","""event"",""trial"",""time""
""fullscreenenter"",""1"",""3200""
","
","
","""event"",""trial"",""time""
""fullscreenenter"",""1"",""3200""
","
","","","-1","","","13","8229","3653","&#9826;","elianto","#f73b6a7A","-1","-1","1","0","[]","0","0","3","","","","","","","",""
"pit-trial","77","651503","0.0-2.0-14.3-3.3","battery-v0.2","","""event"",""trial"",""time""
""fullscreenenter"",""1"",""3200""
","
","
","""event"",""trial"",""time""
""fullscreenenter"",""1"",""3200""
","
","","","-1","","","13","8229","3653","&#9826;","elianto","#f73b6a7A","-1","-1","1","-10","[]","0","0","3","","","","","","","",""
"pit-trial","78","656365","0.0-2.0-14.3-4.3","battery-v0.2","","""event"",""trial"",""time""
""fullscreenenter"",""1"",""3200""
","
","
","""event"",""trial"",""time""
""fullscreenenter"",""1"",""3200""
","
","","","-1","","","13","8229","3653","&#9826;","elianto","#f73b6a7A","-1","-1","1","0","[]","0","0","3","","","","","","","",""
"call-function","79","656367","0.0-2.0-15.0","battery-v0.2","","""event"",""trial"",""time""
""fullscreenenter"",""1"",""3200""
","
","
","""event"",""trial"",""time""
""fullscreenenter"",""1"",""3200""
","
","","","","","","","","","","","","","","","","","","","","","","","","","","",""
"pit-instructions","80","688380","0.0-2.0-16.0","battery-v0.2","","""event"",""trial"",""time""
""fullscreenenter"",""1"",""3200""
","
","
","""event"",""trial"",""time""
""fullscreenenter"",""1"",""3200""
","
","","[{""page_index"":0,""viewing_time"":9089.10000038147},{""page_index"":1,""viewing_time"":11192.89999961853},{""page_index"":2,""viewing_time"":6379},{""page_index"":3,""viewing_time"":5353.5}]","32014.89999961853","","","","","","","","","","","","","","","","","","","","","","","",""
"pit-trial","81","692795","0.0-2.0-17.0-0.0","battery-v0.2","","""event"",""trial"",""time""
""fullscreenenter"",""1"",""3200""
","
","
","""event"",""trial"",""time""
""fullscreenenter"",""1"",""3200""
","
","","","1539.2000007629395","","","13","8229","3653","&#9789;","elianto","#f73b6a7A"," "," ","1","0","[2398.7999992370605]","1","0","4","","","","","","","",""
"pit-trial","82","696111","0.0-2.0-17.0-1.0","battery-v0.2","","""event"",""trial"",""time""
""fullscreenenter"",""1"",""3200""
","
","
","""event"",""trial"",""time""
""fullscreenenter"",""1"",""3200""
","
","","","452.80000019073486","","","13","8229","3653","&#9789;","elianto","#f73b6a7A"," "," ","1","0","[1305.9000005722046]","1","0","4","","","","","","","",""
"pit-trial","83","699419","0.0-2.0-17.0-2.0","battery-v0.2","","""event"",""trial"",""time""
""fullscreenenter"",""1"",""3200""
","
","
","""event"",""trial"",""time""
""fullscreenenter"",""1"",""3200""
","
","","","439.79999923706055","","","13","8229","3653","&#9789;","elianto","#f73b6a7A"," "," ","1","0","[1296.8999996185303]","1","0","4","","","","","","","",""
"pit-trial","84","703426","0.0-2.0-17.0-3.0","battery-v0.2","","""event"",""trial"",""time""
""fullscreenenter"",""1"",""3200""
","
","
","""event"",""trial"",""time""
""fullscreenenter"",""1"",""3200""
","
","","","1140.1000003814697","","","13","8229","3653","&#9789;","elianto","#f73b6a7A"," "," ","1","-10","[1991.3999996185303]","1","0","4","","","","","","","",""
"pit-trial","85","708292","0.0-2.0-17.0-4.0","battery-v0.2","","""event"",""trial"",""time""
""fullscreenenter"",""1"",""3200""
","
","
","""event"",""trial"",""time""
""fullscreenenter"",""1"",""3200""
","
","","","-1","","","13","8229","3653","&#9789;","elianto","#f73b6a7A"," ","-1","0","-10","[]","0","0","4","","","","","","","",""
"pit-trial","86","711853","0.0-2.0-17.1-0.1","battery-v0.2","","""event"",""trial"",""time""
""fullscreenenter"",""1"",""3200""
","
","
","""event"",""trial"",""time""
""fullscreenenter"",""1"",""3200""
","
","","","686.1999998092651","","","13","8229","3653","&#9789;","elianto","#f73b6a7A"," "," ","1","0","[1545]","1","0","4","","","","","","","",""
"pit-trial","87","715336","0.0-2.0-17.1-1.1","battery-v0.2","","""event"",""trial"",""time""
""fullscreenenter"",""1"",""3200""
","
","
","""event"",""trial"",""time""
""fullscreenenter"",""1"",""3200""
","
","","","612","","","13","8229","3653","&#9789;","elianto","#f73b6a7A"," "," ","1","0","[1464.8999996185303]","1","0","4","","","","","","","",""
"pit-trial","88","718695","0.0-2.0-17.1-2.1","battery-v0.2","","""event"",""trial"",""time""
""fullscreenenter"",""1"",""3200""
","
","
","""event"",""trial"",""time""
""fullscreenenter"",""1"",""3200""
","
","","","502.8999996185303","","","13","8229","3653","&#9789;","elianto","#f73b6a7A"," "," ","1","0","[1353.6000003814697]","1","0","4","","","","","","","",""
"pit-trial","89","721973","0.0-2.0-17.1-3.1","battery-v0.2","","""event"",""trial"",""time""
""fullscreenenter"",""1"",""3200""
","
","
","""event"",""trial"",""time""
""fullscreenenter"",""1"",""3200""
","
","","","415.19999980926514","","","13","8229","3653","&#9789;","elianto","#f73b6a7A"," "," ","1","-10","[1271.5999994277954]","1","0","4","","","","","","","",""
"pit-trial","90","726831","0.0-2.0-17.1-4.1","battery-v0.2","","""event"",""trial"",""time""
""fullscreenenter"",""1"",""3200""
","
","
","""event"",""trial"",""time""
""fullscreenenter"",""1"",""3200""
","
","","","-1","","","13","8229","3653","&#9789;","elianto","#f73b6a7A"," ","-1","0","-10","[]","0","0","4","","","","","","","",""
"pit-trial","91","730319","0.0-2.0-17.2-0.2","battery-v0.2","","""event"",""trial"",""time""
""fullscreenenter"",""1"",""3200""
","
","
","""event"",""trial"",""time""
""fullscreenenter"",""1"",""3200""
","
","","","628.2000007629395","","","13","8229","3653","&#9789;","elianto","#f73b6a7A"," "," ","1","0","[1482.4000005722046]","1","0","4","","","","","","","",""
"pit-trial","92","733843","0.0-2.0-17.2-1.2","battery-v0.2","","""event"",""trial"",""time""
""fullscreenenter"",""1"",""3200""
","
","
","""event"",""trial"",""time""
""fullscreenenter"",""1"",""3200""
","
","","","654.6999998092651","","","13","8229","3653","&#9789;","elianto","#f73b6a7A"," "," ","1","0","[1506]","1","0","4","","","","","","","",""
"pit-trial","93","738704","0.0-2.0-17.2-2.2","battery-v0.2","","""event"",""trial"",""time""
""fullscreenenter"",""1"",""3200""
","
","
","""event"",""trial"",""time""
""fullscreenenter"",""1"",""3200""
","
","","","-1","","","13","8229","3653","&#9789;","elianto","#f73b6a7A"," ","-1","0","-10","[]","0","0","4","","","","","","","",""
"pit-trial","94","743571","0.0-2.0-17.2-3.2","battery-v0.2","","""event"",""trial"",""time""
""fullscreenenter"",""1"",""3200""
","
","
","""event"",""trial"",""time""
""fullscreenenter"",""1"",""3200""
","
","","","-1","","","13","8229","3653","&#9789;","elianto","#f73b6a7A"," ","-1","0","0","[]","0","0","4","","","","","","","",""
"pit-trial","95","748430","0.0-2.0-17.2-4.2","battery-v0.2","","""event"",""trial"",""time""
""fullscreenenter"",""1"",""3200""
","
","
","""event"",""trial"",""time""
""fullscreenenter"",""1"",""3200""
","
","","","-1","","","13","8229","3653","&#9789;","elianto","#f73b6a7A"," ","-1","0","-10","[]","0","0","4","","","","","","","",""
"pit-trial","96","753287","0.0-2.0-17.3-0.3","battery-v0.2","","""event"",""trial"",""time""
""fullscreenenter"",""1"",""3200""
","
","
","""event"",""trial"",""time""
""fullscreenenter"",""1"",""3200""
","
","","","-1","","","13","8229","3653","&#9789;","elianto","#f73b6a7A"," ","-1","0","-10","[]","0","0","4","","","","","","","",""
"pit-trial","97","758153","0.0-2.0-17.3-1.3","battery-v0.2","","""event"",""trial"",""time""
""fullscreenenter"",""1"",""3200""
","
","
","""event"",""trial"",""time""
""fullscreenenter"",""1"",""3200""
","
","","","-1","","","13","8229","3653","&#9789;","elianto","#f73b6a7A"," ","-1","0","-10","[]","0","0","4","","","","","","","",""
"pit-trial","98","763016","0.0-2.0-17.3-2.3","battery-v0.2","","""event"",""trial"",""time""
""fullscreenenter"",""1"",""3200""
","
","
","""event"",""trial"",""time""
""fullscreenenter"",""1"",""3200""
","
","","","-1","","","13","8229","3653","&#9789;","elianto","#f73b6a7A"," ","-1","0","-10","[]","0","0","4","","","","","","","",""
"pit-trial","99","767880","0.0-2.0-17.3-3.3","battery-v0.2","","""event"",""trial"",""time""
""fullscreenenter"",""1"",""3200""
","
","
","""event"",""trial"",""time""
""fullscreenenter"",""1"",""3200""
","
","","","-1","","","13","8229","3653","&#9789;","elianto","#f73b6a7A"," ","-1","0","0","[]","0","0","4","","","","","","","",""
"pit-trial","100","772762","0.0-2.0-17.3-4.3","battery-v0.2","","""event"",""trial"",""time""
""fullscreenenter"",""1"",""3200""
","
","
","""event"",""trial"",""time""
""fullscreenenter"",""1"",""3200""
","
","","","-1","","","13","8229","3653","&#9789;","elianto","#f73b6a7A"," ","-1","0","-10","[]","0","0","4","","","","","","","",""
"call-function","101","772764","0.0-2.0-18.0","battery-v0.2","","""event"",""trial"",""time""
""fullscreenenter"",""1"",""3200""
","
","
","""event"",""trial"",""time""
""fullscreenenter"",""1"",""3200""
","
","","","","","","","","","","","","","","","","","","","","","","","","","","",""
"pit-instructions","102","867660","0.0-2.0-19.0","battery-v0.2","","""event"",""trial"",""time""
""fullscreenenter"",""1"",""3200""
","
","
","""event"",""trial"",""time""
""fullscreenenter"",""1"",""3200""
","
","","[{""page_index"":0,""viewing_time"":16891.900000572205},{""page_index"":1,""viewing_time"":8672.89999961853},{""page_index"":2,""viewing_time"":15187.89999961853},{""page_index"":3,""viewing_time"":8319.5},{""page_index"":4,""viewing_time"":7046.300000190735},{""page_index"":5,""viewing_time"":14317.699999809265},{""page_index"":6,""viewing_time"":14107.60000038147},{""page_index"":7,""viewing_time"":4687.300000190735},{""page_index"":8,""viewing_time"":5662.699999809265}]","94894.30000019073","","","","","","","","","","","","","","","","","","","","","","","",""
"pit-comprehension","103","874068","0.0-2.0-20.0-0.0","battery-v0.2","","""event"",""trial"",""time""
""fullscreenenter"",""1"",""3200""
","
","
","""event"",""trial"",""time""
""fullscreenenter"",""1"",""3200""
","
","","","6402.400000572205","[""SPACE""]","0","13","8229","3653","","","","","","","","","","","","","","","","","","",""
"pit-instructions","104","880869","0.0-2.0-20.0-1.0","battery-v0.2","","""event"",""trial"",""time""
""fullscreenenter"",""1"",""3200""
","
","
","""event"",""trial"",""time""
""fullscreenenter"",""1"",""3200""
","
","","[{""page_index"":0,""viewing_time"":6706.099999427795}]","6706.599999427795","","","","","","","","","","","","","","","","","","","","","","","",""
"pit-comprehension","105","886366","0.0-2.0-21.0-0.0","battery-v0.2","","""event"",""trial"",""time""
""fullscreenenter"",""1"",""3200""
","
","
","""event"",""trial"",""time""
""fullscreenenter"",""1"",""3200""
","
","","","5488.699999809265","[""10""]","0","13","8229","3653","","","","","","","","","","","","","","","","","","",""
"pit-instructions","106","889531","0.0-2.0-21.0-1.0","battery-v0.2","","""event"",""trial"",""time""
""fullscreenenter"",""1"",""3200""
","
","
","""event"",""trial"",""time""
""fullscreenenter"",""1"",""3200""
","
","","[{""page_index"":0,""viewing_time"":3065.8999996185303}]","3066.300000190735","","","","","","","","","","","","","","","","","","","","","","","",""
"pit-comprehension","107","896834","0.0-2.0-22.0-0.0","battery-v0.2","","""event"",""trial"",""time""
""fullscreenenter"",""1"",""3200""
","
","
","""event"",""trial"",""time""
""fullscreenenter"",""1"",""3200""
","
","","","7297.39999961853","[""-10""]","1","13","8229","3653","","","","","","","","","","","","","","","","","","",""
"pit-instructions","108","903054","0.0-2.0-22.0-1.0","battery-v0.2","","""event"",""trial"",""time""
""fullscreenenter"",""1"",""3200""
","
","
","""event"",""trial"",""time""
""fullscreenenter"",""1"",""3200""
","
","","[{""page_index"":0,""viewing_time"":6117.89999961853}]","6118.300000190735","","","","","","","","","","","","","","","","","","","","","","","",""
"pit-instructions","109","904629","0.0-2.0-22.0-2.0-0.0","battery-v0.2","","""event"",""trial"",""time""
""fullscreenenter"",""1"",""3200""
","
","
","""event"",""trial"",""time""
""fullscreenenter"",""1"",""3200""
","
","","[{""page_index"":0,""viewing_time"":1569.8999996185303}]","1570.3000001907349","","","","","","","","","","","","","","","","","","","","","","","",""
"pit-comprehension","110","911357","0.0-2.0-22.1-0.1","battery-v0.2","","""event"",""trial"",""time""
""fullscreenenter"",""1"",""3200""
","
","
","""event"",""trial"",""time""
""fullscreenenter"",""1"",""3200""
","
","","","6720.699999809265","[""0""]","0","13","8229","3653","","","","","","","","","","","","","","","","","","",""
"pit-instructions","111","916584","0.0-2.0-22.1-1.1","battery-v0.2","","""event"",""trial"",""time""
""fullscreenenter"",""1"",""3200""
","
","
","""event"",""trial"",""time""
""fullscreenenter"",""1"",""3200""
","
","","[{""page_index"":0,""viewing_time"":5133.300000190735}]","5133.800000190735","","","","","","","","","","","","","","","","","","","","","","","",""
"pit-comprehension","112","927752","0.0-2.0-23.0-0.0","battery-v0.2","","""event"",""trial"",""time""
""fullscreenenter"",""1"",""3200""
","
","
","""event"",""trial"",""time""
""fullscreenenter"",""1"",""3200""
","
","","","11160.89999961853","[""True""]","0","13","8229","3653","","","","","","","","","","","","","","","","","","",""
"pit-instructions","113","934773","0.0-2.0-23.0-1.0","battery-v0.2","","""event"",""trial"",""time""
""fullscreenenter"",""1"",""3200""
","
","
","""event"",""trial"",""time""
""fullscreenenter"",""1"",""3200""
","
","","[{""page_index"":0,""viewing_time"":6925.5}]","6926.5","","","","","","","","","","","","","","","","","","","","","","","",""
"pit-comprehension","114","978124","0.0-2.0-24.0-0.0","battery-v0.2","","""event"",""trial"",""time""
""fullscreenenter"",""1"",""3200""
","
","
","""event"",""trial"",""time""
""fullscreenenter"",""1"",""3200""
","
","","","43344.699999809265","[""True""]","0","13","8229","3653","","","","","","","","","","","","","","","","","","",""
"pit-instructions","115","980841","0.0-2.0-24.0-1.0","battery-v0.2","","""event"",""trial"",""time""
""fullscreenenter"",""1"",""3200""
","
","
","""event"",""trial"",""time""
""fullscreenenter"",""1"",""3200""
","
","","[{""page_index"":0,""viewing_time"":2633.300000190735}]","2633.6000003814697","","","","","","","","","","","","","","","","","","","","","","","",""
"pit-comprehension","116","988657","0.0-2.0-25.0-0.0","battery-v0.2","","""event"",""trial"",""time""
""fullscreenenter"",""1"",""3200""
","
","
","""event"",""trial"",""time""
""fullscreenenter"",""1"",""3200""
","
","","","7810.10000038147","[""True""]","0","13","8229","3653","","","","","","","","","","","","","","","","","","",""
"pit-instructions","117","991450","0.0-2.0-25.0-1.0","battery-v0.2","","""event"",""trial"",""time""
""fullscreenenter"",""1"",""3200""
","
","
","""event"",""trial"",""time""
""fullscreenenter"",""1"",""3200""
","
","","[{""page_index"":0,""viewing_time"":2710.2000007629395}]","2710.5","","","","","","","","","","","","","","","","","","","","","","","",""
"pit-comprehension","118","999160","0.0-2.0-26.0-0.0","battery-v0.2","","""event"",""trial"",""time""
""fullscreenenter"",""1"",""3200""
","
","
","""event"",""trial"",""time""
""fullscreenenter"",""1"",""3200""
","
","","","7702.199999809265","[""False""]","0","13","8229","3653","","","","","","","","","","","","","","","","","","",""
"pit-instructions","119","1001279","0.0-2.0-26.0-1.0","battery-v0.2","","""event"",""trial"",""time""
""fullscreenenter"",""1"",""3200""
","
","
","""event"",""trial"",""time""
""fullscreenenter"",""1"",""3200""
","
","","[{""page_index"":0,""viewing_time"":1996}]","1996.3999996185303","","","","","","","","","","","","","","","","","","","","","","","",""
"pit-instructions","120","1019895","0.0-3.0","battery-v0.2","","""event"",""trial"",""time""
""fullscreenenter"",""1"",""3200""
","
","
","""event"",""trial"",""time""
""fullscreenenter"",""1"",""3200""
","
","","[{""page_index"":0,""viewing_time"":5463.10000038147},{""page_index"":1,""viewing_time"":5998.699999809265},{""page_index"":2,""viewing_time"":7150.400000572205}]","18613.10000038147","","","","","","","","","","","","","","","","","","","","","","","",""
"pit-trial","121","1023738","0.0-4.0","battery-v0.2","","""event"",""trial"",""time""
""fullscreenenter"",""1"",""3200""
","
","
","""event"",""trial"",""time""
""fullscreenenter"",""1"",""3200""
","
","","","974.3000001907349","","","13","8229","3653","&#9733;","elianto","#3366ff99","-1"," ","0","+10","[1825.5999994277954]","1","1","","","8229","1","2","2","win","no-go","1"
"pit-trial","122","1027503","0.0-5.0","battery-v0.2","","""event"",""trial"",""time""
""fullscreenenter"",""1"",""3200""
","
","
","""event"",""trial"",""time""
""fullscreenenter"",""1"",""3200""
","
","","","900.3000001907349","","","13","8229","3653","&#9730;","elianto","#3366ff99"," "," ","1","+10","[1751.6000003814697]","1","1","","","8229","2","1","1","win","go","0"
"pit-trial","123","1031684","0.0-6.0","battery-v0.2","","""event"",""trial"",""time""
""fullscreenenter"",""1"",""3200""
","
","
","""event"",""trial"",""time""
""fullscreenenter"",""1"",""3200""
","
","","","1314.8999996185303","","","13","8229","3653","&#9728;","elianto","#f73b6a7A","-1"," ","0","-10","[2167.5]","1","1","","","8229","3","0","4","lose","no-go","0"
"pit-trial","124","1036561","0.0-7.0","battery-v0.2","","""event"",""trial"",""time""
""fullscreenenter"",""1"",""3200""
","
","
","""event"",""trial"",""time""
""fullscreenenter"",""1"",""3200""
","
","","","-1","","","13","8229","3653","&#9752;","elianto","#f73b6a7A"," ","-1","0","-10","[]","0","1","","","8229","4","3","3","lose","go","0"
"pit-trial","125","1040293","0.0-8.0","battery-v0.2","","""event"",""trial"",""time""
""fullscreenenter"",""1"",""3200""
","
","
","""event"",""trial"",""time""
""fullscreenenter"",""1"",""3200""
","
","","","870.6999998092651","","","13","8229","3653","&#9728;","elianto","#f73b6a7A","-1"," ","0","-10","[1727.0999994277954]","1","1","","","8229","5","0","4","lose","no-go","0"
"pit-trial","126","1043967","0.0-9.0","battery-v0.2","","""event"",""trial"",""time""
""fullscreenenter"",""1"",""3200""
","
","
","""event"",""trial"",""time""
""fullscreenenter"",""1"",""3200""
","
","","","811.4000005722046","","","13","8229","3653","&#9733;","elianto","#3366ff99","-1"," ","0","0","[1669]","1","1","","","8229","6","2","2","win","no-go","0"
"pit-trial","127","1047923","0.0-10.0","battery-v0.2","","""event"",""trial"",""time""
""fullscreenenter"",""1"",""3200""
","
","
","""event"",""trial"",""time""
""fullscreenenter"",""1"",""3200""
","
","","","1098.3000001907349","","","13","8229","3653","&#9730;","elianto","#3366ff99"," "," ","1","+10","[1953.4000005722046]","1","1","","","8229","7","1","1","win","go","0"
"pit-trial","128","1052373","0.0-11.0","battery-v0.2","","""event"",""trial"",""time""
""fullscreenenter"",""1"",""3200""
","
","
","""event"",""trial"",""time""
""fullscreenenter"",""1"",""3200""
","
","","","1589.6999998092651","","","13","8229","3653","&#9752;","elianto","#f73b6a7A"," "," ","1","0","[2441.699999809265]","1","1","","","8229","8","3","3","lose","go","0"
"pit-trial","129","1056118","0.0-12.0","battery-v0.2","","""event"",""trial"",""time""
""fullscreenenter"",""1"",""3200""
","
","
","""event"",""trial"",""time""
""fullscreenenter"",""1"",""3200""
","
","","","877.5","","","13","8229","3653","&#9733;","elianto","#3366ff99","-1"," ","0","0","[1734.8999996185303]","1","1","","","8229","9","2","2","win","no-go","0"
"pit-trial","130","1059772","0.0-13.0","battery-v0.2","","""event"",""trial"",""time""
""fullscreenenter"",""1"",""3200""
","
","
","""event"",""trial"",""time""
""fullscreenenter"",""1"",""3200""
","
","","","795.1999998092651","","","13","8229","3653","&#9730;","elianto","#3366ff99"," "," ","1","+10","[1649.2999992370605]","1","1","","","8229","10","1","1","win","go","0"
"pit-trial","131","1064134","0.0-14.0","battery-v0.2","","""event"",""trial"",""time""
""fullscreenenter"",""1"",""3200""
","
","
","""event"",""trial"",""time""
""fullscreenenter"",""1"",""3200""
","
","","","1500.6999998092651","","","13","8229","3653","&#9752;","elianto","#f73b6a7A"," "," ","1","0","[2357]","1","1","","","8229","11","3","3","lose","go","0"
"pit-trial","132","1068170","0.0-15.0","battery-v0.2","","""event"",""trial"",""time""
""fullscreenenter"",""1"",""3200""
","
","
","""event"",""trial"",""time""
""fullscreenenter"",""1"",""3200""
","
","","","1176.7000007629395","","","13","8229","3653","&#9728;","elianto","#f73b6a7A","-1"," ","0","0","[2027.1999998092651]","1","1","","","8229","12","0","4","lose","no-go","1"
"pit-trial","133","1071789","0.0-16.0","battery-v0.2","","""event"",""trial"",""time""
""fullscreenenter"",""1"",""3200""
","
","
","""event"",""trial"",""time""
""fullscreenenter"",""1"",""3200""
","
","","","760.1000003814697","","","13","8229","3653","&#9728;","elianto","#f73b6a7A","-1"," ","0","-10","[1610.6000003814697]","1","1","","","8229","13","0","4","lose","no-go","0"
"pit-trial","134","1075467","0.0-17.0","battery-v0.2","","""event"",""trial"",""time""
""fullscreenenter"",""1"",""3200""
","
","
","""event"",""trial"",""time""
""fullscreenenter"",""1"",""3200""
","
","","","815.1999998092651","","","13","8229","3653","&#9730;","elianto","#3366ff99"," "," ","1","+10","[1671.8000001907349]","1","1","","","8229","14","1","1","win","go","0"
"pit-trial","135","1079307","0.0-18.0","battery-v0.2","","""event"",""trial"",""time""
""fullscreenenter"",""1"",""3200""
","
","
","""event"",""trial"",""time""
""fullscreenenter"",""1"",""3200""
","
","","","986.8999996185303","","","13","8229","3653","&#9733;","elianto","#3366ff99","-1"," ","0","+10","[1837.3000001907349]","1","1","","","8229","15","2","2","win","no-go","1"
"pit-trial","136","1084170","0.0-19.0","battery-v0.2","","""event"",""trial"",""time""
""fullscreenenter"",""1"",""3200""
","
","
","""event"",""trial"",""time""
""fullscreenenter"",""1"",""3200""
","
","","","-1","","","13","8229","3653","&#9752;","elianto","#f73b6a7A"," ","-1","0","-10","[]","0","1","","","8229","16","3","3","lose","go","0"
"pit-trial","137","1087738","0.0-20.0","battery-v0.2","","""event"",""trial"",""time""
""fullscreenenter"",""1"",""3200""
","
","
","""event"",""trial"",""time""
""fullscreenenter"",""1"",""3200""
","
","","","712.5","","","13","8229","3653","&#9730;","elianto","#3366ff99"," "," ","1","+10","[1562.8999996185303]","1","1","","","8229","17","1","1","win","go","0"
"pit-trial","138","1091577","0.0-21.0","battery-v0.2","","""event"",""trial"",""time""
""fullscreenenter"",""1"",""3200""
","
","
","""event"",""trial"",""time""
""fullscreenenter"",""1"",""3200""
","
","","","976.1999998092651","","","13","8229","3653","&#9752;","elianto","#f73b6a7A"," "," ","1","0","[1833.3999996185303]","1","1","","","8229","18","3","3","lose","go","0"
"pit-trial","139","1095858","0.0-22.0","battery-v0.2","","""event"",""trial"",""time""
""fullscreenenter"",""1"",""3200""
","
","
","""event"",""trial"",""time""
""fullscreenenter"",""1"",""3200""
","
","","","1398.8000001907349","","","13","8229","3653","&#9733;","elianto","#3366ff99","-1"," ","0","0","[2250.1000003814697]","1","1","","","8229","19","2","2","win","no-go","0"
"pit-trial","140","1099587","0.0-23.0","battery-v0.2","","""event"",""trial"",""time""
""fullscreenenter"",""1"",""3200""
","
","
","""event"",""trial"",""time""
""fullscreenenter"",""1"",""3200""
","
","","","864.3999996185303","","","13","8229","3653","&#9728;","elianto","#f73b6a7A","-1"," ","0","-10","[1718,1971.1999998092651]","2","1","","","8229","20","0","4","lose","no-go","0"
"pit-instructions","141","1117460","0.0-24.0","battery-v0.2","","""event"",""trial"",""time""
""fullscreenenter"",""1"",""3200""
","
","
","""event"",""trial"",""time""
""fullscreenenter"",""1"",""3200""
","
","","[{""page_index"":0,""viewing_time"":8553.800000190735},{""page_index"":1,""viewing_time"":9315.400000572205}]","17869.70000076294","","","","","","","","","","","","","","","","","","","","","","","",""
"pit-trial","142","1121270","0.0-25.0","battery-v0.2","","""event"",""trial"",""time""
""fullscreenenter"",""1"",""3200""
","
","
","""event"",""trial"",""time""
""fullscreenenter"",""1"",""3200""
","
","","","943.8000001907349","","","13","8229","3653","f","elianto","#3366ff99","-1"," ","0","0","[1798.1999998092651]","1","2","","","8229","21","1","2","win","no-go","0"
"pit-trial","143","1125203","0.0-26.0","battery-v0.2","","""event"",""trial"",""time""
""fullscreenenter"",""1"",""3200""
","
","
","""event"",""trial"",""time""
""fullscreenenter"",""1"",""3200""
","
","","","1073.5","","","13","8229","3653","t","elianto","#f73b6a7A"," "," ","1","0","[1924.7000007629395]","1","2","","","8229","22","2","3","lose","go","0"
"pit-trial","144","1129113","0.0-27.0","battery-v0.2","","""event"",""trial"",""time""
""fullscreenenter"",""1"",""3200""
","
","
","""event"",""trial"",""time""
""fullscreenenter"",""1"",""3200""
","
","","","1049.0999994277954","","","13","8229","3653","b","elianto","#f73b6a7A","-1"," ","0","-10","[1900.6000003814697]","1","2","","","8229","23","3","4","lose","no-go","0"
"pit-trial","145","1133364","0.0-28.0","battery-v0.2","","""event"",""trial"",""time""
""fullscreenenter"",""1"",""3200""
","
","
","""event"",""trial"",""time""
""fullscreenenter"",""1"",""3200""
","
","","","1375.3999996185303","","","13","8229","3653","n","elianto","#f73b6a7A"," "," ","1","0","[2236.8999996185303]","1","2","","","8229","24","0","3","lose","go","0"
"pit-trial","146","1137472","0.0-29.0","battery-v0.2","","""event"",""trial"",""time""
""fullscreenenter"",""1"",""3200""
","
","
","""event"",""trial"",""time""
""fullscreenenter"",""1"",""3200""
","
","","","1238.3000001907349","","","13","8229","3653","b","elianto","#f73b6a7A","-1"," ","0","0","[2091.5]","1","2","","","8229","25","3","4","lose","no-go","1"
"pit-trial","147","1141213","0.0-30.0","battery-v0.2","","""event"",""trial"",""time""
""fullscreenenter"",""1"",""3200""
","
","
","""event"",""trial"",""time""
""fullscreenenter"",""1"",""3200""
","
","","","860.8000001907349","","","13","8229","3653","n","elianto","#f73b6a7A"," "," ","1","0","[1723.2999992370605]","1","2","","","8229","26","0","3","lose","go","0"
"pit-trial","148","1144866","0.0-31.0","battery-v0.2","","""event"",""trial"",""time""
""fullscreenenter"",""1"",""3200""
","
","
","""event"",""trial"",""time""
""fullscreenenter"",""1"",""3200""
","
","","","751.1000003814697","","","13","8229","3653","f","elianto","#3366ff99","-1"," ","0","+10","[1608.6999998092651]","1","2","","","8229","27","1","2","win","no-go","1"
"pit-trial","149","1148859","0.0-32.0","battery-v0.2","","""event"",""trial"",""time""
""fullscreenenter"",""1"",""3200""
","
","
","""event"",""trial"",""time""
""fullscreenenter"",""1"",""3200""
","
","","","1136","","","13","8229","3653","t","elianto","#f73b6a7A"," "," ","1","0","[1988]","1","2","","","8229","28","2","3","lose","go","0"
"pit-trial","150","1152735","0.0-33.0","battery-v0.2","","""event"",""trial"",""time""
""fullscreenenter"",""1"",""3200""
","
","
","""event"",""trial"",""time""
""fullscreenenter"",""1"",""3200""
","
","","","1018.6999998092651","","","13","8229","3653","t","elianto","#f73b6a7A"," "," ","1","0","[1872]","1","2","","","8229","29","2","3","lose","go","0"
"pit-trial","151","1157279","0.0-34.0","battery-v0.2","","""event"",""trial"",""time""
""fullscreenenter"",""1"",""3200""
","
","
","""event"",""trial"",""time""
""fullscreenenter"",""1"",""3200""
","
","","","1688.6999998092651","","","13","8229","3653","n","elianto","#f73b6a7A"," "," ","1","0","[2541.300000190735]","1","2","","","8229","30","0","3","lose","go","0"
"pit-trial","152","1161712","0.0-35.0","battery-v0.2","","""event"",""trial"",""time""
""fullscreenenter"",""1"",""3200""
","
","
","""event"",""trial"",""time""
""fullscreenenter"",""1"",""3200""
","
","","","1576.3000001907349","","","13","8229","3653","b","elianto","#f73b6a7A","-1"," ","0","-10","[2428]","1","2","","","8229","31","3","4","lose","no-go","0"
"pit-trial","153","1165151","0.0-36.0","battery-v0.2","","""event"",""trial"",""time""
""fullscreenenter"",""1"",""3200""
","
","
","""event"",""trial"",""time""
""fullscreenenter"",""1"",""3200""
","
","","","577.8000001907349","","","13","8229","3653","f","elianto","#3366ff99","-1"," ","0","0","[1429.9000005722046]","1","2","","","8229","32","1","2","win","no-go","0"
"pit-trial","154","1168650","0.0-37.0","battery-v0.2","","""event"",""trial"",""time""
""fullscreenenter"",""1"",""3200""
","
","
","""event"",""trial"",""time""
""fullscreenenter"",""1"",""3200""
","
","","","641.6999998092651","","","13","8229","3653","f","elianto","#3366ff99","-1"," ","0","+10","[1491.6000003814697]","1","2","","","8229","33","1","2","win","no-go","1"
"pit-trial","155","1173518","0.0-38.0","battery-v0.2","","""event"",""trial"",""time""
""fullscreenenter"",""1"",""3200""
","
","
","""event"",""trial"",""time""
""fullscreenenter"",""1"",""3200""
","
","","","-1","","","13","8229","3653","n","elianto","#f73b6a7A"," ","-1","0","-10","[2981.2000007629395]","1","2","","","8229","34","0","3","lose","go","0"
"pit-trial","156","1178382","0.0-39.0","battery-v0.2","","""event"",""trial"",""time""
""fullscreenenter"",""1"",""3200""
","
","
","""event"",""trial"",""time""
""fullscreenenter"",""1"",""3200""
","
","","","-1","","","13","8229","3653","t","elianto","#f73b6a7A"," ","-1","0","-10","[3411.5]","1","2","","","8229","35","2","3","lose","go","0"
"pit-trial","157","1181591","0.0-40.0","battery-v0.2","","""event"",""trial"",""time""
""fullscreenenter"",""1"",""3200""
","
","
","""event"",""trial"",""time""
""fullscreenenter"",""1"",""3200""
","
","","","353.5","","","13","8229","3653","b","elianto","#f73b6a7A","-1"," ","0","0","[1205.3999996185303]","1","2","","","8229","36","3","4","lose","no-go","1"
"pit-trial","158","1185543","0.0-41.0","battery-v0.2","","""event"",""trial"",""time""
""fullscreenenter"",""1"",""3200""
","
","
","""event"",""trial"",""time""
""fullscreenenter"",""1"",""3200""
","
","","","1093.6999998092651","","","13","8229","3653","f","elianto","#3366ff99","-1"," ","0","0","[1946.1999998092651]","1","2","","","8229","37","1","2","win","no-go","0"
"pit-trial","159","1188823","0.0-42.0","battery-v0.2","","""event"",""trial"",""time""
""fullscreenenter"",""1"",""3200""
","
","
","""event"",""trial"",""time""
""fullscreenenter"",""1"",""3200""
","
","","","422.0999994277954","","","13","8229","3653","t","elianto","#f73b6a7A"," "," ","1","0","[1276.4000005722046]","1","2","","","8229","38","2","3","lose","go","0"
"pit-trial","160","1192086","0.0-43.0","battery-v0.2","","""event"",""trial"",""time""
""fullscreenenter"",""1"",""3200""
","
","
","""event"",""trial"",""time""
""fullscreenenter"",""1"",""3200""
","
","","","400.30000019073486","","","13","8229","3653","b","elianto","#f73b6a7A","-1"," ","0","-10","[1258]","1","2","","","8229","39","3","4","lose","no-go","0"
"pit-trial","161","1194986","0.0-44.0","battery-v0.2","","""event"",""trial"",""time""
""fullscreenenter"",""1"",""3200""
","
","
","""event"",""trial"",""time""
""fullscreenenter"",""1"",""3200""
","
","","","43.30000019073486","","","13","8229","3653","n","elianto","#f73b6a7A"," "," ","1","-10","[894.3999996185303]","1","2","","","8229","40","0","3","lose","go","1"
"pit-trial","162","1199850","0.0-45.0","battery-v0.2","","""event"",""trial"",""time""
""fullscreenenter"",""1"",""3200""
","
","
","""event"",""trial"",""time""
""fullscreenenter"",""1"",""3200""
","
","","","-1","","","13","8229","3653","n","elianto","#f73b6a7A"," ","-1","0","-10","[]","0","2","","","8229","41","0","3","lose","go","0"
"pit-trial","163","1203401","0.0-46.0","battery-v0.2","","""event"",""trial"",""time""
""fullscreenenter"",""1"",""3200""
","
","
","""event"",""trial"",""time""
""fullscreenenter"",""1"",""3200""
","
","","","687.7999992370605","","","13","8229","3653","f","elianto","#3366ff99","-1"," ","0","0","[1543.0999994277954]","1","2","","","8229","42","1","2","win","no-go","0"
"pit-trial","164","1207130","0.0-47.0","battery-v0.2","","""event"",""trial"",""time""
""fullscreenenter"",""1"",""3200""
","
","
","""event"",""trial"",""time""
""fullscreenenter"",""1"",""3200""
","
","","","873.5","","","13","8229","3653","b","elianto","#f73b6a7A","-1"," ","0","-10","[1726]","1","2","","","8229","43","3","4","lose","no-go","0"
"pit-trial","165","1211994","0.0-48.0","battery-v0.2","","""event"",""trial"",""time""
""fullscreenenter"",""1"",""3200""
","
","
","""event"",""trial"",""time""
""fullscreenenter"",""1"",""3200""
","
","","","-1","","","13","8229","3653","t","elianto","#f73b6a7A"," ","-1","0","-10","[]","0","2","","","8229","44","2","3","lose","go","0"
"pit-trial","166","1216500","0.0-49.0","battery-v0.2","","""event"",""trial"",""time""
""fullscreenenter"",""1"",""3200""
","
","
","""event"",""trial"",""time""
""fullscreenenter"",""1"",""3200""
","
","","","1636.3000001907349","","","13","8229","3653","f","elianto","#3366ff99","-1"," ","0","0","[2501]","1","2","","","8229","45","1","2","win","no-go","0"
"pit-trial","167","1221366","0.0-50.0","battery-v0.2","","""event"",""trial"",""time""
""fullscreenenter"",""1"",""3200""
","
","
","""event"",""trial"",""time""
""fullscreenenter"",""1"",""3200""
","
","","","-1","","","13","8229","3653","n","elianto","#f73b6a7A"," ","-1","0","-10","[]","0","2","","","8229","46","0","3","lose","go","0"
"pit-trial","168","1224707","0.0-51.0","battery-v0.2","","""event"",""trial"",""time""
""fullscreenenter"",""1"",""3200""
","
","
","""event"",""trial"",""time""
""fullscreenenter"",""1"",""3200""
","
","","","478.19999980926514","","","13","8229","3653","t","elianto","#f73b6a7A"," "," ","1","0","[1333.3000001907349]","1","2","","","8229","47","2","3","lose","go","0"
"pit-trial","169","1227767","0.0-52.0","battery-v0.2","","""event"",""trial"",""time""
""fullscreenenter"",""1"",""3200""
","
","
","""event"",""trial"",""time""
""fullscreenenter"",""1"",""3200""
","
","","","198.69999980926514","","","13","8229","3653","b","elianto","#f73b6a7A","-1"," ","0","-10","[1060.6000003814697]","1","2","","","8229","48","3","4","lose","no-go","0"
"pit-trial","170","1231093","0.0-53.0","battery-v0.2","","""event"",""trial"",""time""
""fullscreenenter"",""1"",""3200""
","
","
","""event"",""trial"",""time""
""fullscreenenter"",""1"",""3200""
","
","","","436.4000005722046","","","13","8229","3653","f","elianto","#3366ff99","-1"," ","0","+10","[1292.3000001907349]","1","2","","","8229","49","1","2","win","no-go","1"
"pit-trial","171","1234718","0.0-54.0","battery-v0.2","","""event"",""trial"",""time""
""fullscreenenter"",""1"",""3200""
","
","
","""event"",""trial"",""time""
""fullscreenenter"",""1"",""3200""
","
","","","761.1999998092651","","","13","8229","3653","b","elianto","#f73b6a7A","-1"," ","0","-10","[1616.3000001907349]","1","2","","","8229","50","3","4","lose","no-go","0"
"pit-trial","172","1238369","0.0-55.0","battery-v0.2","","""event"",""trial"",""time""
""fullscreenenter"",""1"",""3200""
","
","
","""event"",""trial"",""time""
""fullscreenenter"",""1"",""3200""
","
","","","792.6999998092651","","","13","8229","3653","t","elianto","#f73b6a7A"," "," ","1","0","[1648.3000001907349]","1","2","","","8229","51","2","3","lose","go","0"
"pit-trial","173","1243229","0.0-56.0","battery-v0.2","","""event"",""trial"",""time""
""fullscreenenter"",""1"",""3200""
","
","
","""event"",""trial"",""time""
""fullscreenenter"",""1"",""3200""
","
","","","-1","","","13","8229","3653","n","elianto","#f73b6a7A"," ","-1","0","-10","[]","0","2","","","8229","52","0","3","lose","go","0"
"pit-trial","174","1246942","0.0-57.0","battery-v0.2","","""event"",""trial"",""time""
""fullscreenenter"",""1"",""3200""
","
","
","""event"",""trial"",""time""
""fullscreenenter"",""1"",""3200""
","
","","","855.5","","","13","8229","3653","n","elianto","#f73b6a7A"," "," ","1","0","[1707.2999992370605]","1","2","","","8229","53","0","3","lose","go","0"
"pit-trial","175","1250533","0.0-58.0","battery-v0.2","","""event"",""trial"",""time""
""fullscreenenter"",""1"",""3200""
","
","
","""event"",""trial"",""time""
""fullscreenenter"",""1"",""3200""
","
","","","715.1999998092651","","","13","8229","3653","f","elianto","#3366ff99","-1"," ","0","0","[1569.1000003814697]","1","2","","","8229","54","1","2","win","no-go","0"
"pit-trial","176","1254205","0.0-59.0","battery-v0.2","","""event"",""trial"",""time""
""fullscreenenter"",""1"",""3200""
","
","
","""event"",""trial"",""time""
""fullscreenenter"",""1"",""3200""
","
","","","802.3999996185303","","","13","8229","3653","b","elianto","#f73b6a7A","-1"," ","0","-10","[1664.8000001907349]","1","2","","","8229","55","3","4","lose","no-go","0"
"pit-trial","177","1257671","0.0-60.0","battery-v0.2","","""event"",""trial"",""time""
""fullscreenenter"",""1"",""3200""
","
","
","""event"",""trial"",""time""
""fullscreenenter"",""1"",""3200""
","
","","","605.8000001907349","","","13","8229","3653","t","elianto","#f73b6a7A"," "," ","1","0","[1457.8999996185303]","1","2","","","8229","56","2","3","lose","go","0"
"pit-trial","178","1261701","0.0-61.0","battery-v0.2","","""event"",""trial"",""time""
""fullscreenenter"",""1"",""3200""
","
","
","""event"",""trial"",""time""
""fullscreenenter"",""1"",""3200""
","
","","","1172.6000003814697","","","13","8229","3653","t","elianto","#f73b6a7A"," "," ","1","0","[2024.5999994277954]","1","2","","","8229","57","2","3","lose","go","0"
"pit-trial","179","1266565","0.0-62.0","battery-v0.2","","""event"",""trial"",""time""
""fullscreenenter"",""1"",""3200""
","
","
","""event"",""trial"",""time""
""fullscreenenter"",""1"",""3200""
","
","","","-1","","","13","8229","3653","b","elianto","#f73b6a7A","-1","-1","1","0","[]","0","2","","","8229","58","3","4","lose","no-go","0"
"pit-trial","180","1270821","0.0-63.0","battery-v0.2","","""event"",""trial"",""time""
""fullscreenenter"",""1"",""3200""
","
","
","""event"",""trial"",""time""
""fullscreenenter"",""1"",""3200""
","
","","","1399.8000001907349","","","13","8229","3653","n","elianto","#f73b6a7A"," "," ","1","0","[2250.800000190735]","1","2","","","8229","59","0","3","lose","go","0"
"pit-trial","181","1274470","0.0-64.0","battery-v0.2","","""event"",""trial"",""time""
""fullscreenenter"",""1"",""3200""
","
","
","""event"",""trial"",""time""
""fullscreenenter"",""1"",""3200""
","
","","","792.0999994277954","","","13","8229","3653","c","elianto","#3366ff99"," "," ","1","0","[1644.0999994277954]","1","2","","","8229","60","4","1","win","go","1"
"pit-trial","182","1279328","0.0-65.0","battery-v0.2","","""event"",""trial"",""time""
""fullscreenenter"",""1"",""3200""
","
","
","""event"",""trial"",""time""
""fullscreenenter"",""1"",""3200""
","
","","","-1","","","13","8229","3653","b","elianto","#f73b6a7A","-1","-1","1","0","[]","0","2","","","8229","61","3","4","lose","no-go","0"
"pit-trial","183","1283337","0.0-66.0","battery-v0.2","","""event"",""trial"",""time""
""fullscreenenter"",""1"",""3200""
","
","
","""event"",""trial"",""time""
""fullscreenenter"",""1"",""3200""
","
","","","1149.5","","","13","8229","3653","t","elianto","#f73b6a7A"," "," ","1","0","[2002]","1","2","","","8229","62","2","3","lose","go","0"
"pit-trial","184","1286973","0.0-67.0","battery-v0.2","","""event"",""trial"",""time""
""fullscreenenter"",""1"",""3200""
","
","
","""event"",""trial"",""time""
""fullscreenenter"",""1"",""3200""
","
","","","775.1000003814697","","","13","8229","3653","c","elianto","#3366ff99"," "," ","1","+10","[1627.8999996185303]","1","2","","","8229","63","4","1","win","go","0"
"pit-trial","185","1290723","0.0-68.0","battery-v0.2","","""event"",""trial"",""time""
""fullscreenenter"",""1"",""3200""
","
","
","""event"",""trial"",""time""
""fullscreenenter"",""1"",""3200""
","
","","","886.1000003814697","","","13","8229","3653","f","elianto","#3366ff99","-1"," ","0","+10","[1740.3000001907349]","1","2","","","8229","64","1","2","win","no-go","1"
"pit-trial","186","1294216","0.0-69.0","battery-v0.2","","""event"",""trial"",""time""
""fullscreenenter"",""1"",""3200""
","
","
","""event"",""trial"",""time""
""fullscreenenter"",""1"",""3200""
","
","","","631.7999992370605","","","13","8229","3653","c","elianto","#3366ff99"," "," ","1","+10","[1486.0999994277954]","1","2","","","8229","65","4","1","win","go","0"
"pit-trial","187","1297951","0.0-70.0","battery-v0.2","","""event"",""trial"",""time""
""fullscreenenter"",""1"",""3200""
","
","
","""event"",""trial"",""time""
""fullscreenenter"",""1"",""3200""
","
","","","877.5","","","13","8229","3653","f","elianto","#3366ff99","-1"," ","0","0","[1727.8999996185303]","1","2","","","8229","66","1","2","win","no-go","0"
"pit-trial","188","1302811","0.0-71.0","battery-v0.2","","""event"",""trial"",""time""
""fullscreenenter"",""1"",""3200""
","
","
","""event"",""trial"",""time""
""fullscreenenter"",""1"",""3200""
","
","","","-1","","","13","8229","3653","b","elianto","#f73b6a7A","-1","-1","1","-10","[]","0","2","","","8229","67","3","4","lose","no-go","1"
"pit-trial","189","1306503","0.0-72.0","battery-v0.2","","""event"",""trial"",""time""
""fullscreenenter"",""1"",""3200""
","
","
","""event"",""trial"",""time""
""fullscreenenter"",""1"",""3200""
","
","","","830.5999994277954","","","13","8229","3653","z","elianto","#3366ff99","-1"," ","0","+10","[1683]","1","2","","","8229","68","5","2","win","no-go","1"
"pit-trial","190","1310091","0.0-73.0","battery-v0.2","","""event"",""trial"",""time""
""fullscreenenter"",""1"",""3200""
","
","
","""event"",""trial"",""time""
""fullscreenenter"",""1"",""3200""
","
","","","724.1999998092651","","","13","8229","3653","c","elianto","#3366ff99"," "," ","1","+10","[1581.3000001907349]","1","2","","","8229","69","4","1","win","go","0"
"pit-trial","191","1313705","0.0-74.0","battery-v0.2","","""event"",""trial"",""time""
""fullscreenenter"",""1"",""3200""
","
","
","""event"",""trial"",""time""
""fullscreenenter"",""1"",""3200""
","
","","","754.7999992370605","","","13","8229","3653","f","elianto","#3366ff99","-1"," ","0","0","[1608.3999996185303]","1","2","","","8229","70","1","2","win","no-go","0"
"pit-trial","192","1317505","0.0-75.0","battery-v0.2","","""event"",""trial"",""time""
""fullscreenenter"",""1"",""3200""
","
","
","""event"",""trial"",""time""
""fullscreenenter"",""1"",""3200""
","
","","","927.5","","","13","8229","3653","t","elianto","#f73b6a7A"," "," ","1","0","[1783.0999994277954]","1","2","","","8229","71","2","3","lose","go","0"
"pit-trial","193","1320956","0.0-76.0","battery-v0.2","","""event"",""trial"",""time""
""fullscreenenter"",""1"",""3200""
","
","
","""event"",""trial"",""time""
""fullscreenenter"",""1"",""3200""
","
","","","592.4000005722046","","","13","8229","3653","z","elianto","#3366ff99","-1"," ","0","0","[1447.5]","1","2","","","8229","72","5","2","win","no-go","0"
"pit-trial","194","1325818","0.0-77.0","battery-v0.2","","""event"",""trial"",""time""
""fullscreenenter"",""1"",""3200""
","
","
","""event"",""trial"",""time""
""fullscreenenter"",""1"",""3200""
","
","","","-1","","","13","8229","3653","b","elianto","#f73b6a7A","-1","-1","1","0","[]","0","2","","","8229","73","3","4","lose","no-go","0"
"pit-trial","195","1329346","0.0-78.0","battery-v0.2","","""event"",""trial"",""time""
""fullscreenenter"",""1"",""3200""
","
","
","""event"",""trial"",""time""
""fullscreenenter"",""1"",""3200""
","
","","","672.0999994277954","","","13","8229","3653","c","elianto","#3366ff99"," "," ","1","+10","[1522.5]","1","2","","","8229","74","4","1","win","go","0"
"pit-trial","196","1332787","0.0-79.0","battery-v0.2","","""event"",""trial"",""time""
""fullscreenenter"",""1"",""3200""
","
","
","""event"",""trial"",""time""
""fullscreenenter"",""1"",""3200""
","
","","","573.2000007629395","","","13","8229","3653","z","elianto","#3366ff99","-1"," ","0","0","[1431.1000003814697]","1","2","","","8229","75","5","2","win","no-go","0"
"pit-trial","197","1336205","0.0-80.0","battery-v0.2","","""event"",""trial"",""time""
""fullscreenenter"",""1"",""3200""
","
","
","""event"",""trial"",""time""
""fullscreenenter"",""1"",""3200""
","
","","","538","","","13","8229","3653","f","elianto","#3366ff99","-1"," ","0","0","[1400]","1","2","","","8229","76","1","2","win","no-go","0"
"pit-trial","198","1339574","0.0-81.0","battery-v0.2","","""event"",""trial"",""time""
""fullscreenenter"",""1"",""3200""
","
","
","""event"",""trial"",""time""
""fullscreenenter"",""1"",""3200""
","
","","","511.4000005722046","","","13","8229","3653","c","elianto","#3366ff99"," "," ","1","0","[1362.4000005722046]","1","2","","","8229","77","4","1","win","go","1"
"pit-trial","199","1343043","0.0-82.0","battery-v0.2","","""event"",""trial"",""time""
""fullscreenenter"",""1"",""3200""
","
","
","""event"",""trial"",""time""
""fullscreenenter"",""1"",""3200""
","
","","","606.3000001907349","","","13","8229","3653","c","elianto","#3366ff99"," "," ","1","+10","[1459.3999996185303]","1","2","","","8229","78","4","1","win","go","0"
"pit-trial","200","1346405","0.0-83.0","battery-v0.2","","""event"",""trial"",""time""
""fullscreenenter"",""1"",""3200""
","
","
","""event"",""trial"",""time""
""fullscreenenter"",""1"",""3200""
","
","","","493.30000019073486","","","13","8229","3653","z","elianto","#3366ff99","-1"," ","0","0","[1351.9000005722046]","1","2","","","8229","79","5","2","win","no-go","0"
"pit-trial","201","1351260","0.0-84.0","battery-v0.2","","""event"",""trial"",""time""
""fullscreenenter"",""1"",""3200""
","
","
","""event"",""trial"",""time""
""fullscreenenter"",""1"",""3200""
","
","","","-1","","","13","8229","3653","b","elianto","#f73b6a7A","-1","-1","1","0","[]","0","2","","","8229","80","3","4","lose","no-go","0"
"pit-trial","202","1354971","0.0-85.0","battery-v0.2","","""event"",""trial"",""time""
""fullscreenenter"",""1"",""3200""
","
","
","""event"",""trial"",""time""
""fullscreenenter"",""1"",""3200""
","
","","","847.8000001907349","","","13","8229","3653","z","elianto","#3366ff99","-1"," ","0","+10","[1700.6999998092651]","1","2","","","8229","81","5","2","win","no-go","1"
"pit-trial","203","1358295","0.0-86.0","battery-v0.2","","""event"",""trial"",""time""
""fullscreenenter"",""1"",""3200""
","
","
","""event"",""trial"",""time""
""fullscreenenter"",""1"",""3200""
","
","","","458","","","13","8229","3653","c","elianto","#3366ff99"," "," ","1","+10","[1316]","1","2","","","8229","82","4","1","win","go","0"
"pit-trial","204","1363158","0.0-87.0","battery-v0.2","","""event"",""trial"",""time""
""fullscreenenter"",""1"",""3200""
","
","
","""event"",""trial"",""time""
""fullscreenenter"",""1"",""3200""
","
","","","-1","","","13","8229","3653","b","elianto","#f73b6a7A","-1","-1","1","0","[]","0","2","","","8229","83","3","4","lose","no-go","0"
"pit-trial","205","1367280","0.0-88.0","battery-v0.2","","""event"",""trial"",""time""
""fullscreenenter"",""1"",""3200""
","
","
","""event"",""trial"",""time""
""fullscreenenter"",""1"",""3200""
","
","","","1264.3000001907349","","","13","8229","3653","y","elianto","#f73b6a7A","-1"," ","0","-10","[2119.300000190735]","1","2","","","8229","84","7","4","lose","no-go","0"
"pit-trial","206","1370738","0.0-89.0","battery-v0.2","","""event"",""trial"",""time""
""fullscreenenter"",""1"",""3200""
","
","
","""event"",""trial"",""time""
""fullscreenenter"",""1"",""3200""
","
","","","594","","","13","8229","3653","z","elianto","#3366ff99","-1"," ","0","0","[1447.5999994277954]","1","2","","","8229","85","5","2","win","no-go","0"
"pit-trial","207","1374885","0.0-90.0","battery-v0.2","","""event"",""trial"",""time""
""fullscreenenter"",""1"",""3200""
","
","
","""event"",""trial"",""time""
""fullscreenenter"",""1"",""3200""
","
","","","1290.0999994277954","","","13","8229","3653","h","elianto","#f73b6a7A"," "," ","1","-10","[2141.0999994277954]","1","2","","","8229","86","6","3","lose","go","1"
"pit-trial","208","1379747","0.0-91.0","battery-v0.2","","""event"",""trial"",""time""
""fullscreenenter"",""1"",""3200""
","
","
","""event"",""trial"",""time""
""fullscreenenter"",""1"",""3200""
","
","","","-1","","","13","8229","3653","y","elianto","#f73b6a7A","-1","-1","1","0","[]","0","2","","","8229","87","7","4","lose","no-go","0"
"pit-trial","209","1383297","0.0-92.0","battery-v0.2","","""event"",""trial"",""time""
""fullscreenenter"",""1"",""3200""
","
","
","""event"",""trial"",""time""
""fullscreenenter"",""1"",""3200""
","
","","","694.9000005722046","","","13","8229","3653","c","elianto","#3366ff99"," "," ","1","+10","[1545.1999998092651]","1","2","","","8229","88","4","1","win","go","0"
"pit-trial","210","1388164","0.0-93.0","battery-v0.2","","""event"",""trial"",""time""
""fullscreenenter"",""1"",""3200""
","
","
","""event"",""trial"",""time""
""fullscreenenter"",""1"",""3200""
","
","","","-1","","","13","8229","3653","y","elianto","#f73b6a7A","-1","-1","1","0","[]","0","2","","","8229","89","7","4","lose","no-go","0"
"pit-trial","211","1391754","0.0-94.0","battery-v0.2","","""event"",""trial"",""time""
""fullscreenenter"",""1"",""3200""
","
","
","""event"",""trial"",""time""
""fullscreenenter"",""1"",""3200""
","
","","","728.6000003814697","","","13","8229","3653","z","elianto","#3366ff99","-1"," ","0","0","[1581.1999998092651]","1","2","","","8229","90","5","2","win","no-go","0"
"pit-trial","212","1395180","0.0-95.0","battery-v0.2","","""event"",""trial"",""time""
""fullscreenenter"",""1"",""3200""
","
","
","""event"",""trial"",""time""
""fullscreenenter"",""1"",""3200""
","
","","","570.6999998092651","","","13","8229","3653","c","elianto","#3366ff99"," "," ","1","+10","[1422.5]","1","2","","","8229","91","4","1","win","go","0"
"pit-trial","213","1400043","0.0-96.0","battery-v0.2","","""event"",""trial"",""time""
""fullscreenenter"",""1"",""3200""
","
","
","""event"",""trial"",""time""
""fullscreenenter"",""1"",""3200""
","
","","","-1","","","13","8229","3653","h","elianto","#f73b6a7A"," ","-1","0","-10","[]","0","2","","","8229","92","6","3","lose","go","0"
"pit-trial","214","1403604","0.0-97.0","battery-v0.2","","""event"",""trial"",""time""
""fullscreenenter"",""1"",""3200""
","
","
","""event"",""trial"",""time""
""fullscreenenter"",""1"",""3200""
","
","","","702.8999996185303","","","13","8229","3653","r","elianto","#3366ff99"," "," ","1","+10","[1555.5999994277954]","1","2","","","8229","93","8","1","win","go","0"
"pit-trial","215","1407200","0.0-98.0","battery-v0.2","","""event"",""trial"",""time""
""fullscreenenter"",""1"",""3200""
","
","
","""event"",""trial"",""time""
""fullscreenenter"",""1"",""3200""
","
","","","733.5","","","13","8229","3653","z","elianto","#3366ff99","-1"," ","0","0","[1584.6000003814697]","1","2","","","8229","94","5","2","win","no-go","0"
"pit-trial","216","1412068","0.0-99.0","battery-v0.2","","""event"",""trial"",""time""
""fullscreenenter"",""1"",""3200""
","
","
","""event"",""trial"",""time""
""fullscreenenter"",""1"",""3200""
","
","","","-1","","","13","8229","3653","y","elianto","#f73b6a7A","-1","-1","1","-10","[]","0","2","","","8229","95","7","4","lose","no-go","1"
"pit-trial","217","1415960","0.0-100.0","battery-v0.2","","""event"",""trial"",""time""
""fullscreenenter"",""1"",""3200""
","
","
","""event"",""trial"",""time""
""fullscreenenter"",""1"",""3200""
","
","","","1036.4000005722046","","","13","8229","3653","h","elianto","#f73b6a7A"," "," ","1","0","[1886.8000001907349]","1","2","","","8229","96","6","3","lose","go","0"
"pit-trial","218","1420820","0.0-101.0","battery-v0.2","","""event"",""trial"",""time""
""fullscreenenter"",""1"",""3200""
","
","
","""event"",""trial"",""time""
""fullscreenenter"",""1"",""3200""
","
","","","-1","","","13","8229","3653","h","elianto","#f73b6a7A"," ","-1","0","-10","[]","0","2","","","8229","97","6","3","lose","go","0"
"pit-trial","219","1424537","0.0-102.0","battery-v0.2","","""event"",""trial"",""time""
""fullscreenenter"",""1"",""3200""
","
","
","""event"",""trial"",""time""
""fullscreenenter"",""1"",""3200""
","
","","","853.5999994277954","","","13","8229","3653","r","elianto","#3366ff99"," "," ","1","+10","[1711.3999996185303]","1","2","","","8229","98","8","1","win","go","0"
"pit-trial","220","1429398","0.0-103.0","battery-v0.2","","""event"",""trial"",""time""
""fullscreenenter"",""1"",""3200""
","
","
","""event"",""trial"",""time""
""fullscreenenter"",""1"",""3200""
","
","","","-1","","","13","8229","3653","y","elianto","#f73b6a7A","-1","-1","1","-10","[]","0","2","","","8229","99","7","4","lose","no-go","1"
"pit-trial","221","1432749","0.0-104.0","battery-v0.2","","""event"",""trial"",""time""
""fullscreenenter"",""1"",""3200""
","
","
","""event"",""trial"",""time""
""fullscreenenter"",""1"",""3200""
","
","","","496.0999994277954","","","13","8229","3653","z","elianto","#3366ff99","-1"," ","0","+10","[1346.6999998092651]","1","2","","","8229","100","5","2","win","no-go","1"
"pit-trial","222","1436244","0.0-105.0","battery-v0.2","","""event"",""trial"",""time""
""fullscreenenter"",""1"",""3200""
","
","
","""event"",""trial"",""time""
""fullscreenenter"",""1"",""3200""
","
","","","633.1999998092651","","","13","8229","3653","m","elianto","#3366ff99"," "," ","1","+10","[1487.1000003814697]","1","2","","","8229","101","9","1","win","go","0"
"pit-trial","223","1440615","0.0-106.0","battery-v0.2","","""event"",""trial"",""time""
""fullscreenenter"",""1"",""3200""
","
","
","""event"",""trial"",""time""
""fullscreenenter"",""1"",""3200""
","
","","","1503.4000005722046","","","13","8229","3653","y","elianto","#f73b6a7A","-1"," ","0","-10","[2361.800000190735]","1","2","","","8229","102","7","4","lose","no-go","0"
"pit-trial","224","1444021","0.0-107.0","battery-v0.2","","""event"",""trial"",""time""
""fullscreenenter"",""1"",""3200""
","
","
","""event"",""trial"",""time""
""fullscreenenter"",""1"",""3200""
","
","","","542","","","13","8229","3653","z","elianto","#3366ff99","-1"," ","0","0","[1395.8999996185303]","1","2","","","8229","103","5","2","win","no-go","0"
"pit-trial","225","1447436","0.0-108.0","battery-v0.2","","""event"",""trial"",""time""
""fullscreenenter"",""1"",""3200""
","
","
","""event"",""trial"",""time""
""fullscreenenter"",""1"",""3200""
","
","","","555.5","","","13","8229","3653","r","elianto","#3366ff99"," "," ","1","+10","[1411.8000001907349]","1","2","","","8229","104","8","1","win","go","0"
"pit-trial","226","1450805","0.0-109.0","battery-v0.2","","""event"",""trial"",""time""
""fullscreenenter"",""1"",""3200""
","
","
","""event"",""trial"",""time""
""fullscreenenter"",""1"",""3200""
","
","","","512.8000001907349","","","13","8229","3653","c","elianto","#3366ff99"," "," ","1","+10","[1362.8000001907349]","1","2","","","8229","105","4","1","win","go","0"
"pit-trial","227","1454247","0.0-110.0","battery-v0.2","","""event"",""trial"",""time""
""fullscreenenter"",""1"",""3200""
","
","
","""event"",""trial"",""time""
""fullscreenenter"",""1"",""3200""
","
","","","576.3999996185303","","","13","8229","3653","r","elianto","#3366ff99"," "," ","1","0","[1434.0999994277954]","1","2","","","8229","106","8","1","win","go","1"
"pit-trial","228","1457654","0.0-111.0","battery-v0.2","","""event"",""trial"",""time""
""fullscreenenter"",""1"",""3200""
","
","
","""event"",""trial"",""time""
""fullscreenenter"",""1"",""3200""
","
","","","546.1999998092651","","","13","8229","3653","m","elianto","#3366ff99"," "," ","1","+10","[1402.7000007629395]","1","2","","","8229","107","9","1","win","go","0"
"pit-trial","229","1462519","0.0-112.0","battery-v0.2","","""event"",""trial"",""time""
""fullscreenenter"",""1"",""3200""
","
","
","""event"",""trial"",""time""
""fullscreenenter"",""1"",""3200""
","
","","","-1","","","13","8229","3653","h","elianto","#f73b6a7A"," ","-1","0","-10","[]","0","2","","","8229","108","6","3","lose","go","0"
"pit-trial","230","1466031","0.0-113.0","battery-v0.2","","""event"",""trial"",""time""
""fullscreenenter"",""1"",""3200""
","
","
","""event"",""trial"",""time""
""fullscreenenter"",""1"",""3200""
","
","","","658.2999992370605","","","13","8229","3653","m","elianto","#3366ff99"," "," ","1","0","[1509.2999992370605]","1","2","","","8229","109","9","1","win","go","1"
"pit-trial","231","1469518","0.0-114.0","battery-v0.2","","""event"",""trial"",""time""
""fullscreenenter"",""1"",""3200""
","
","
","""event"",""trial"",""time""
""fullscreenenter"",""1"",""3200""
","
","","","626.5","","","13","8229","3653","z","elianto","#3366ff99","-1"," ","0","0","[1476.5999994277954]","1","2","","","8229","110","5","2","win","no-go","0"
"pit-trial","232","1473581","0.0-115.0","battery-v0.2","","""event"",""trial"",""time""
""fullscreenenter"",""1"",""3200""
","
","
","""event"",""trial"",""time""
""fullscreenenter"",""1"",""3200""
","
","","","1198.9000005722046","","","13","8229","3653","r","elianto","#3366ff99"," "," ","1","+10","[2056.7000007629395]","1","2","","","8229","111","8","1","win","go","0"
"pit-trial","233","1478397","0.0-116.0","battery-v0.2","","""event"",""trial"",""time""
""fullscreenenter"",""1"",""3200""
","
","
","""event"",""trial"",""time""
""fullscreenenter"",""1"",""3200""
","
","","","1953.8000001907349","","","13","8229","3653","h","elianto","#f73b6a7A"," "," ","1","0","[2806.4000005722046]","1","2","","","8229","112","6","3","lose","go","0"
"pit-trial","234","1483256","0.0-117.0","battery-v0.2","","""event"",""trial"",""time""
""fullscreenenter"",""1"",""3200""
","
","
","""event"",""trial"",""time""
""fullscreenenter"",""1"",""3200""
","
","","","-1","","","13","8229","3653","h","elianto","#f73b6a7A"," ","-1","0","-10","[2863.5999994277954]","1","2","","","8229","113","6","3","lose","go","0"
"pit-trial","235","1487177","0.0-118.0","battery-v0.2","","""event"",""trial"",""time""
""fullscreenenter"",""1"",""3200""
","
","
","""event"",""trial"",""time""
""fullscreenenter"",""1"",""3200""
","
","","","1060.8999996185303","","","13","8229","3653","r","elianto","#3366ff99"," "," ","1","0","[1917.5]","1","2","","","8229","114","8","1","win","go","1"
"pit-trial","236","1490609","0.0-119.0","battery-v0.2","","""event"",""trial"",""time""
""fullscreenenter"",""1"",""3200""
","
","
","""event"",""trial"",""time""
""fullscreenenter"",""1"",""3200""
","
","","","570.4000005722046","","","13","8229","3653","m","elianto","#3366ff99"," "," ","1","+10","[1427.3000001907349]","1","2","","","8229","115","9","1","win","go","0"
"pit-trial","237","1494489","0.0-120.0","battery-v0.2","","""event"",""trial"",""time""
""fullscreenenter"",""1"",""3200""
","
","
","""event"",""trial"",""time""
""fullscreenenter"",""1"",""3200""
","
","","","1021.7000007629395","","","13","8229","3653","z","elianto","#3366ff99","-1"," ","0","0","[1873.8000001907349]","1","2","","","8229","116","5","2","win","no-go","0"
"pit-trial","238","1497878","0.0-121.0","battery-v0.2","","""event"",""trial"",""time""
""fullscreenenter"",""1"",""3200""
","
","
","""event"",""trial"",""time""
""fullscreenenter"",""1"",""3200""
","
","","","526.3000001907349","","","13","8229","3653","m","elianto","#3366ff99"," "," ","1","+10","[1380.5]","1","2","","","8229","117","9","1","win","go","0"
"pit-trial","239","1501421","0.0-122.0","battery-v0.2","","""event"",""trial"",""time""
""fullscreenenter"",""1"",""3200""
","
","
","""event"",""trial"",""time""
""fullscreenenter"",""1"",""3200""
","
","","","680.0999994277954","","","13","8229","3653","z","elianto","#3366ff99","-1"," ","0","+10","[1536.0999994277954]","1","2","","","8229","118","5","2","win","no-go","1"
"pit-trial","240","1505172","0.0-123.0","battery-v0.2","","""event"",""trial"",""time""
""fullscreenenter"",""1"",""3200""
","
","
","""event"",""trial"",""time""
""fullscreenenter"",""1"",""3200""
","
","","","884.3999996185303","","","13","8229","3653","h","elianto","#f73b6a7A"," "," ","1","0","[1741.3999996185303]","1","2","","","8229","119","6","3","lose","go","0"
"pit-trial","241","1508986","0.0-124.0","battery-v0.2","","""event"",""trial"",""time""
""fullscreenenter"",""1"",""3200""
","
","
","""event"",""trial"",""time""
""fullscreenenter"",""1"",""3200""
","
","","","951.1000003814697","","","13","8229","3653","r","elianto","#3366ff99"," "," ","1","+10","[1804.8000001907349]","1","2","","","8229","120","8","1","win","go","0"
"pit-trial","242","1512350","0.0-125.0","battery-v0.2","","""event"",""trial"",""time""
""fullscreenenter"",""1"",""3200""
","
","
","""event"",""trial"",""time""
""fullscreenenter"",""1"",""3200""
","
","","","499.8999996185303","","","13","8229","3653","m","elianto","#3366ff99"," "," ","1","+10","[1356]","1","2","","","8229","121","9","1","win","go","0"
"pit-trial","243","1516130","0.0-126.0","battery-v0.2","","""event"",""trial"",""time""
""fullscreenenter"",""1"",""3200""
","
","
","""event"",""trial"",""time""
""fullscreenenter"",""1"",""3200""
","
","","","926","","","13","8229","3653","y","elianto","#f73b6a7A","-1"," ","0","0","[1776.5]","1","2","","","8229","122","7","4","lose","no-go","1"
"pit-trial","244","1519739","0.0-127.0","battery-v0.2","","""event"",""trial"",""time""
""fullscreenenter"",""1"",""3200""
","
","
","""event"",""trial"",""time""
""fullscreenenter"",""1"",""3200""
","
","","","751.3999996185303","","","13","8229","3653","r","elianto","#3366ff99"," "," ","1","+10","[1601.6000003814697]","1","2","","","8229","123","8","1","win","go","0"
"pit-trial","245","1523322","0.0-128.0","battery-v0.2","","""event"",""trial"",""time""
""fullscreenenter"",""1"",""3200""
","
","
","""event"",""trial"",""time""
""fullscreenenter"",""1"",""3200""
","
","","","715.6000003814697","","","13","8229","3653","h","elianto","#f73b6a7A"," "," ","1","0","[1572.6999998092651]","1","2","","","8229","124","6","3","lose","go","0"
"pit-trial","246","1526843","0.0-129.0","battery-v0.2","","""event"",""trial"",""time""
""fullscreenenter"",""1"",""3200""
","
","
","""event"",""trial"",""time""
""fullscreenenter"",""1"",""3200""
","
","","","655.3000001907349","","","13","8229","3653","h","elianto","#f73b6a7A"," "," ","1","0","[1510.4000005722046]","1","2","","","8229","125","6","3","lose","go","0"
"pit-trial","247","1530270","0.0-130.0","battery-v0.2","","""event"",""trial"",""time""
""fullscreenenter"",""1"",""3200""
","
","
","""event"",""trial"",""time""
""fullscreenenter"",""1"",""3200""
","
","","","567.0999994277954","","","13","8229","3653","m","elianto","#3366ff99"," "," ","1","+10","[1424.6999998092651]","1","2","","","8229","126","9","1","win","go","0"
"pit-trial","248","1534134","0.0-131.0","battery-v0.2","","""event"",""trial"",""time""
""fullscreenenter"",""1"",""3200""
","
","
","""event"",""trial"",""time""
""fullscreenenter"",""1"",""3200""
","
","","","997.1000003814697","","","13","8229","3653","y","elianto","#f73b6a7A","-1"," ","0","-10","[1854.1000003814697]","1","2","","","8229","127","7","4","lose","no-go","0"
"pit-trial","249","1537570","0.0-132.0","battery-v0.2","","""event"",""trial"",""time""
""fullscreenenter"",""1"",""3200""
","
","
","""event"",""trial"",""time""
""fullscreenenter"",""1"",""3200""
","
","","","578.8999996185303","","","13","8229","3653","r","elianto","#3366ff99"," "," ","1","+10","[1431]","1","2","","","8229","128","8","1","win","go","0"
"pit-trial","250","1541966","0.0-133.0","battery-v0.2","","""event"",""trial"",""time""
""fullscreenenter"",""1"",""3200""
","
","
","""event"",""trial"",""time""
""fullscreenenter"",""1"",""3200""
","
","","","1528.2999992370605","","","13","8229","3653","h","elianto","#f73b6a7A"," "," ","1","0","[2384.5]","1","2","","","8229","129","6","3","lose","go","0"
"pit-trial","251","1546294","0.0-134.0","battery-v0.2","","""event"",""trial"",""time""
""fullscreenenter"",""1"",""3200""
","
","
","""event"",""trial"",""time""
""fullscreenenter"",""1"",""3200""
","
","","","1464.8999996185303","","","13","8229","3653","r","elianto","#3366ff99"," "," ","1","+10","[2319.8999996185303]","1","2","","","8229","130","8","1","win","go","0"
"pit-trial","252","1549850","0.0-135.0","battery-v0.2","","""event"",""trial"",""time""
""fullscreenenter"",""1"",""3200""
","
","
","""event"",""trial"",""time""
""fullscreenenter"",""1"",""3200""
","
","","","695","","","13","8229","3653","y","elianto","#f73b6a7A","-1"," ","0","-10","[1552.3000001907349]","1","2","","","8229","131","7","4","lose","no-go","0"
"pit-trial","253","1553152","0.0-136.0","battery-v0.2","","""event"",""trial"",""time""
""fullscreenenter"",""1"",""3200""
","
","
","""event"",""trial"",""time""
""fullscreenenter"",""1"",""3200""
","
","","","432.5999994277954","","","13","8229","3653","m","elianto","#3366ff99"," "," ","1","+10","[1291.4000005722046]","1","2","","","8229","132","9","1","win","go","0"
"pit-trial","254","1556806","0.0-137.0","battery-v0.2","","""event"",""trial"",""time""
""fullscreenenter"",""1"",""3200""
","
","
","""event"",""trial"",""time""
""fullscreenenter"",""1"",""3200""
","
","","","797.9000005722046","","","13","8229","3653","h","elianto","#f73b6a7A"," "," ","1","0","[1650]","1","2","","","8229","133","6","3","lose","go","0"
"pit-trial","255","1561665","0.0-138.0","battery-v0.2","","""event"",""trial"",""time""
""fullscreenenter"",""1"",""3200""
","
","
","""event"",""trial"",""time""
""fullscreenenter"",""1"",""3200""
","
","","","-1","","","13","8229","3653","y","elianto","#f73b6a7A","-1","-1","1","0","[]","0","2","","","8229","134","7","4","lose","no-go","0"
"pit-trial","256","1565089","0.0-139.0","battery-v0.2","","""event"",""trial"",""time""
""fullscreenenter"",""1"",""3200""
","
","
","""event"",""trial"",""time""
""fullscreenenter"",""1"",""3200""
","
","","","561.2000007629395","","","13","8229","3653","m","elianto","#3366ff99"," "," ","1","+10","[1415.7000007629395]","1","2","","","8229","135","9","1","win","go","0"
"pit-trial","257","1569952","0.0-140.0","battery-v0.2","","""event"",""trial"",""time""
""fullscreenenter"",""1"",""3200""
","
","
","""event"",""trial"",""time""
""fullscreenenter"",""1"",""3200""
","
","","","-1","","","13","8229","3653","r","elianto","#3366ff99"," ","-1","0","0","[3580]","1","2","","","8229","136","8","1","win","go","0"
"pit-trial","258","1574811","0.0-141.0","battery-v0.2","","""event"",""trial"",""time""
""fullscreenenter"",""1"",""3200""
","
","
","""event"",""trial"",""time""
""fullscreenenter"",""1"",""3200""
","
","","","-1","","","13","8229","3653","y","elianto","#f73b6a7A","-1","-1","1","0","[]","0","2","","","8229","137","7","4","lose","no-go","0"
"pit-trial","259","1579669","0.0-142.0","battery-v0.2","","""event"",""trial"",""time""
""fullscreenenter"",""1"",""3200""
","
","
","""event"",""trial"",""time""
""fullscreenenter"",""1"",""3200""
","
","","","-1","","","13","8229","3653","h","elianto","#f73b6a7A"," ","-1","0","-10","[]","0","2","","","8229","138","6","3","lose","go","0"
"pit-trial","260","1583164","0.0-143.0","battery-v0.2","","""event"",""trial"",""time""
""fullscreenenter"",""1"",""3200""
","
","
","""event"",""trial"",""time""
""fullscreenenter"",""1"",""3200""
","
","","","632","","","13","8229","3653","m","elianto","#3366ff99"," "," ","1","+10","[1489.0999994277954]","1","2","","","8229","139","9","1","win","go","0"
"pit-trial","261","1586832","0.0-144.0","battery-v0.2","","""event"",""trial"",""time""
""fullscreenenter"",""1"",""3200""
","
","
","""event"",""trial"",""time""
""fullscreenenter"",""1"",""3200""
","
","","","806.8000001907349","","","13","8229","3653","r","elianto","#3366ff99"," "," ","1","0","[1663.2000007629395]","1","2","","","8229","140","8","1","win","go","1"
"pit-instructions","262","1604477","0.0-145.0","battery-v0.2","","""event"",""trial"",""time""
""fullscreenenter"",""1"",""3200""
","
","
","""event"",""trial"",""time""
""fullscreenenter"",""1"",""3200""
","
","","[{""page_index"":0,""viewing_time"":9182.5},{""page_index"":1,""viewing_time"":8455}]","17637.900000572205","","","","","","","","","","","","","","","","","","","","","","","",""
"pit-trial","263","1608680","0.0-146.0","battery-v0.2","","""event"",""trial"",""time""
""fullscreenenter"",""1"",""3200""
","
","
","""event"",""trial"",""time""
""fullscreenenter"",""1"",""3200""
","
","","","1320.6000003814697","","","13","8229","3653","e","elianto","#f73b6a7A","-1"," ","0","-10","[2185.5]","1","3","","","8229","141","2","4","lose","no-go","0"
"pit-trial","264","1612070","0.0-147.0","battery-v0.2","","""event"",""trial"",""time""
""fullscreenenter"",""1"",""3200""
","
","
","""event"",""trial"",""time""
""fullscreenenter"",""1"",""3200""
","
