"trial_type","trial_index","time_elapsed","internal_node_id","task_version","subject_id","interactions","blur_events","focus_events","fullscreenenter_events","fullscreenexit_events","success","view_history","rt","responses","num_errors","age","subject","participantId","rune","rune_set","hex","correct","choice","accuracy","outcome","keys","total_keys","block","practice","value","sub","trial","stimulus","robot","valence","action","sham"
"pavlovia","0","17","0.0-0.0","battery-v0.2","","""event"",""trial"",""time""
""fullscreenenter"",""1"",""3411""
","
","
","""event"",""trial"",""time""
""fullscreenenter"",""1"",""3411""
","
","","","","","","","","","","","","","","","","","","","","","","","","","","",""
"fullscreen","1","4399","0.0-1.0","battery-v0.2","","""event"",""trial"",""time""
""fullscreenenter"",""1"",""3411""
","
","
","""event"",""trial"",""time""
""fullscreenenter"",""1"",""3411""
","
","true","","","","","","","","","","","","","","","","","","","","","","","","","",""
"pit-instructions","2","16157","0.0-2.0-0.0","battery-v0.2","","""event"",""trial"",""time""
""fullscreenenter"",""1"",""3411""
","
","
","""event"",""trial"",""time""
""fullscreenenter"",""1"",""3411""
","
","","[{""page_index"":0,""viewing_time"":11754.199999988079}]","11754.599999964237","","","","","","","","","","","","","","","","","","","","","","","",""
"pit-comprehension","3","20016","0.0-2.0-1.0-0.0","battery-v0.2","","""event"",""trial"",""time""
""fullscreenenter"",""1"",""3411""
","
","
","""event"",""trial"",""time""
""fullscreenenter"",""1"",""3411""
","
","","","3855.300000011921","[""shark""]","0","10","15347","2225","","","","","","","","","","","","","","","","","","",""
"pit-instructions","4","21582","0.0-2.0-1.0-1.0","battery-v0.2","","""event"",""trial"",""time""
""fullscreenenter"",""1"",""3411""
","
","
","""event"",""trial"",""time""
""fullscreenenter"",""1"",""3411""
","
","","[{""page_index"":0,""viewing_time"":1550.6000000238419}]","1550.8999999761581","","","","","","","","","","","","","","","","","","","","","","","",""
"pit-comprehension","5","26802","0.0-2.0-2.0-0.0","battery-v0.2","","""event"",""trial"",""time""
""fullscreenenter"",""1"",""3411""
","
","
","""event"",""trial"",""time""
""fullscreenenter"",""1"",""3411""
","
","","","5215.399999976158","[""tiger""]","0","10","15347","2225","","","","","","","","","","","","","","","","","","",""
"pit-instructions","6","28142","0.0-2.0-2.0-1.0","battery-v0.2","","""event"",""trial"",""time""
""fullscreenenter"",""1"",""3411""
","
","
","""event"",""trial"",""time""
""fullscreenenter"",""1"",""3411""
","
","","[{""page_index"":0,""viewing_time"":1336.9000000357628}]","1337.2000000476837","","","","","","","","","","","","","","","","","","","","","","","",""
"pit-instructions","7","137098","0.0-2.0-3.0","battery-v0.2","","""event"",""trial"",""time""
""fullscreenenter"",""1"",""3411""
","
","
","""event"",""trial"",""time""
""fullscreenenter"",""1"",""3411""
","
","","[{""page_index"":0,""viewing_time"":10627.199999988079},{""page_index"":1,""viewing_time"":7667.300000011921},{""page_index"":2,""viewing_time"":6453.5},{""page_index"":3,""viewing_time"":7246.300000011921},{""page_index"":4,""viewing_time"":7337.199999988079},{""page_index"":5,""viewing_time"":8206.100000023842},{""page_index"":6,""viewing_time"":8371.799999952316},{""page_index"":7,""viewing_time"":7174.600000023842},{""page_index"":8,""viewing_time"":6074.5},{""page_index"":9,""viewing_time"":8669.300000011921},{""page_index"":10,""viewing_time"":8653.699999988079},{""page_index"":11,""viewing_time"":10986},{""page_index"":12,""viewing_time"":6231.5},{""page_index"":13,""viewing_time"":5251.899999976158}]","108951.30000001192","","","","","","","","","","","","","","","","","","","","","","","",""
"pit-trial","8","140626","0.0-2.0-4.0-0.0","battery-v0.2","","""event"",""trial"",""time""
""fullscreenenter"",""1"",""3411""
","
","
","""event"",""trial"",""time""
""fullscreenenter"",""1"",""3411""
","
","","","664","","","10","15347","2225","&#9784;","elianto","#FFFFF080"," "," ","1","&#10004","[1516.1000000238419]","1","0","0","","","","","","","",""
"pit-trial","9","144214","0.0-2.0-4.1-0.1","battery-v0.2","","""event"",""trial"",""time""
""fullscreenenter"",""1"",""3411""
","
","
","""event"",""trial"",""time""
""fullscreenenter"",""1"",""3411""
","
","","","732.7999999523163","","","10","15347","2225","&#9784;","elianto","#FFFFF080"," "," ","1","&#10004","[1582.8999999761581]","1","0","0","","","","","","","",""
"pit-trial","10","147707","0.0-2.0-4.2-0.2","battery-v0.2","","""event"",""trial"",""time""
""fullscreenenter"",""1"",""3411""
","
","
","""event"",""trial"",""time""
""fullscreenenter"",""1"",""3411""
","
","","","629.8999999761581","","","10","15347","2225","&#9784;","elianto","#FFFFF080"," "," ","1","&#10004","[1481.6000000238419]","1","0","0","","","","","","","",""
"pit-trial","11","151097","0.0-2.0-4.3-0.3","battery-v0.2","","""event"",""trial"",""time""
""fullscreenenter"",""1"",""3411""
","
","
","""event"",""trial"",""time""
""fullscreenenter"",""1"",""3411""
","
","","","527.3999999761581","","","10","15347","2225","&#9784;","elianto","#FFFFF080"," "," ","1","&#10004","[1380.5]","1","0","0","","","","","","","",""
"pit-trial","12","154462","0.0-2.0-4.4-0.4","battery-v0.2","","""event"",""trial"",""time""
""fullscreenenter"",""1"",""3411""
","
","
","""event"",""trial"",""time""
""fullscreenenter"",""1"",""3411""
","
","","","490","","","10","15347","2225","&#9784;","elianto","#FFFFF080"," "," ","1","&#10004","[1348.3999999761581]","1","0","0","","","","","","","",""
"pit-instructions","13","179696","0.0-2.0-5.0","battery-v0.2","","""event"",""trial"",""time""
""fullscreenenter"",""1"",""3411""
","
","
","""event"",""trial"",""time""
""fullscreenenter"",""1"",""3411""
","
","","[{""page_index"":0,""viewing_time"":7043.300000011921},{""page_index"":1,""viewing_time"":6219.599999964237},{""page_index"":2,""viewing_time"":5515.300000011921},{""page_index"":3,""viewing_time"":6453}]","25231.399999976158","","","","","","","","","","","","","","","","","","","","","","","",""
"pit-trial","14","184552","0.0-2.0-6.0-0.0","battery-v0.2","","""event"",""trial"",""time""
""fullscreenenter"",""1"",""3411""
","
","
","""event"",""trial"",""time""
""fullscreenenter"",""1"",""3411""
","
","","","-1","","","10","15347","2225","&#9854;","elianto","#FFFFF080","-1","-1","1","&#10004","[]","0","0","1","","","","","","","",""
"pit-trial","15","189416","0.0-2.0-6.1-0.1","battery-v0.2","","""event"",""trial"",""time""
""fullscreenenter"",""1"",""3411""
","
","
","""event"",""trial"",""time""
""fullscreenenter"",""1"",""3411""
","
","","","-1","","","10","15347","2225","&#9854;","elianto","#FFFFF080","-1","-1","1","&#10004","[]","0","0","1","","","","","","","",""
"pit-trial","16","194283","0.0-2.0-6.2-0.2","battery-v0.2","","""event"",""trial"",""time""
""fullscreenenter"",""1"",""3411""
","
","
","""event"",""trial"",""time""
""fullscreenenter"",""1"",""3411""
","
","","","-1","","","10","15347","2225","&#9854;","elianto","#FFFFF080","-1","-1","1","&#10004","[]","0","0","1","","","","","","","",""
"pit-trial","17","199153","0.0-2.0-6.3-0.3","battery-v0.2","","""event"",""trial"",""time""
""fullscreenenter"",""1"",""3411""
","
","
","""event"",""trial"",""time""
""fullscreenenter"",""1"",""3411""
","
","","","-1","","","10","15347","2225","&#9854;","elianto","#FFFFF080","-1","-1","1","&#10004","[]","0","0","1","","","","","","","",""
"pit-trial","18","204020","0.0-2.0-6.4-0.4","battery-v0.2","","""event"",""trial"",""time""
""fullscreenenter"",""1"",""3411""
","
","
","""event"",""trial"",""time""
""fullscreenenter"",""1"",""3411""
","
","","","-1","","","10","15347","2225","&#9854;","elianto","#FFFFF080","-1","-1","1","&#10004","[]","0","0","1","","","","","","","",""
"pit-instructions","19","392393","0.0-2.0-7.0","battery-v0.2","","""event"",""trial"",""time""
""fullscreenenter"",""1"",""3411""
","
","
","""event"",""trial"",""time""
""fullscreenenter"",""1"",""3411""
","
","","[{""page_index"":0,""viewing_time"":22940.100000023842},{""page_index"":1,""viewing_time"":9505.199999988079},{""page_index"":2,""viewing_time"":9913.800000011921},{""page_index"":3,""viewing_time"":9134.5},{""page_index"":4,""viewing_time"":8605.399999976158},{""page_index"":5,""viewing_time"":8186.300000011921},{""page_index"":6,""viewing_time"":7875.899999976158},{""page_index"":7,""viewing_time"":17114.900000035763},{""page_index"":8,""viewing_time"":9878.599999964237},{""page_index"":9,""viewing_time"":10917.699999988079},{""page_index"":10,""viewing_time"":8136.100000023842},{""page_index"":11,""viewing_time"":10062.199999988079},{""page_index"":12,""viewing_time"":16168.699999988079},{""page_index"":13,""viewing_time"":9262.300000011921},{""page_index"":14,""viewing_time"":8691.300000011921},{""page_index"":15,""viewing_time"":8211.699999988079},{""page_index"":16,""viewing_time"":6191},{""page_index"":17,""viewing_time"":7573.400000035763}]","188369.5","","","","","","","","","","","","","","","","","","","","","","","",""
"pit-trial","20","396106","0.0-2.0-8.0-0.0","battery-v0.2","","""event"",""trial"",""time""
""fullscreenenter"",""1"",""3411""
","
","
","""event"",""trial"",""time""
""fullscreenenter"",""1"",""3411""
","
","","","852.0999999642372","","","10","15347","2225","&#9776;","elianto","#3366ff99"," "," ","1","+10","[1709]","1","0","1","","","","","","","",""
"pit-trial","21","399712","0.0-2.0-8.0-1.0","battery-v0.2","","""event"",""trial"",""time""
""fullscreenenter"",""1"",""3411""
","
","
","""event"",""trial"",""time""
""fullscreenenter"",""1"",""3411""
","
","","","736.2999999523163","","","10","15347","2225","&#9776;","elianto","#3366ff99"," "," ","1","+10","[1588.0999999642372]","1","0","1","","","","","","","",""
"pit-trial","22","403236","0.0-2.0-8.0-2.0","battery-v0.2","","""event"",""trial"",""time""
""fullscreenenter"",""1"",""3411""
","
","
","""event"",""trial"",""time""
""fullscreenenter"",""1"",""3411""
","
","","","667.1999999880791","","","10","15347","2225","&#9776;","elianto","#3366ff99"," "," ","1","+10","[1520.2999999523163]","1","0","1","","","","","","","",""
"pit-trial","23","406685","0.0-2.0-8.0-3.0","battery-v0.2","","""event"",""trial"",""time""
""fullscreenenter"",""1"",""3411""
","
","
","""event"",""trial"",""time""
""fullscreenenter"",""1"",""3411""
","
","","","591.0999999642372","","","10","15347","2225","&#9776;","elianto","#3366ff99"," "," ","1","0","[1443.2000000476837]","1","0","1","","","","","","","",""
"pit-trial","24","410244","0.0-2.0-8.0-4.0","battery-v0.2","","""event"",""trial"",""time""
""fullscreenenter"",""1"",""3411""
","
","
","""event"",""trial"",""time""
""fullscreenenter"",""1"",""3411""
","
","","","697.7999999523163","","","10","15347","2225","&#9776;","elianto","#3366ff99"," "," ","1","+10","[1554.3999999761581]","1","0","1","","","","","","","",""
"pit-trial","25","413540","0.0-2.0-8.1-0.1","battery-v0.2","","""event"",""trial"",""time""
""fullscreenenter"",""1"",""3411""
","
","
","""event"",""trial"",""time""
""fullscreenenter"",""1"",""3411""
","
","","","438.2999999523163","","","10","15347","2225","&#9776;","elianto","#3366ff99"," "," ","1","+10","[1291.699999988079]","1","0","1","","","","","","","",""
"pit-trial","26","417334","0.0-2.0-8.1-1.1","battery-v0.2","","""event"",""trial"",""time""
""fullscreenenter"",""1"",""3411""
","
","
","""event"",""trial"",""time""
""fullscreenenter"",""1"",""3411""
","
","","","935.1999999880791","","","10","15347","2225","&#9776;","elianto","#3366ff99"," "," ","1","+10","[1787.7999999523163]","1","0","1","","","","","","","",""
"pit-trial","27","422194","0.0-2.0-8.1-2.1","battery-v0.2","","""event"",""trial"",""time""
""fullscreenenter"",""1"",""3411""
","
","
","""event"",""trial"",""time""
""fullscreenenter"",""1"",""3411""
","
","","","-1","","","10","15347","2225","&#9776;","elianto","#3366ff99"," ","-1","0","0","[]","0","0","1","","","","","","","",""
"pit-trial","28","425369","0.0-2.0-8.1-3.1","battery-v0.2","","""event"",""trial"",""time""
""fullscreenenter"",""1"",""3411""
","
","
","""event"",""trial"",""time""
""fullscreenenter"",""1"",""3411""
","
","","","321.7000000476837","","","10","15347","2225","&#9776;","elianto","#3366ff99"," "," ","1","0","[1171.800000011921]","1","0","1","","","","","","","",""
"pit-trial","29","429106","0.0-2.0-8.1-4.1","battery-v0.2","","""event"",""trial"",""time""
""fullscreenenter"",""1"",""3411""
","
","
","""event"",""trial"",""time""
""fullscreenenter"",""1"",""3411""
","
","","","884.5","","","10","15347","2225","&#9776;","elianto","#3366ff99"," "," ","1","+10","[1735]","1","0","1","","","","","","","",""
"pit-trial","30","432552","0.0-2.0-8.2-0.2","battery-v0.2","","""event"",""trial"",""time""
""fullscreenenter"",""1"",""3411""
","
","
","""event"",""trial"",""time""
""fullscreenenter"",""1"",""3411""
","
","","","583.1000000238419","","","10","15347","2225","&#9776;","elianto","#3366ff99"," "," ","1","+10","[1434]","1","0","1","","","","","","","",""
"pit-trial","31","435692","0.0-2.0-8.2-1.2","battery-v0.2","","""event"",""trial"",""time""
""fullscreenenter"",""1"",""3411""
","
","
","""event"",""trial"",""time""
""fullscreenenter"",""1"",""3411""
","
","","","286.30000001192093","","","10","15347","2225","&#9776;","elianto","#3366ff99"," "," ","1","+10","[705.5,1136.800000011921]","2","0","1","","","","","","","",""
"pit-trial","32","438837","0.0-2.0-8.2-2.2","battery-v0.2","","""event"",""trial"",""time""
""fullscreenenter"",""1"",""3411""
","
","
","""event"",""trial"",""time""
""fullscreenenter"",""1"",""3411""
","
","","","291.80000001192093","","","10","15347","2225","&#9776;","elianto","#3366ff99"," "," ","1","+10","[1142]","1","0","1","","","","","","","",""
"pit-trial","33","441931","0.0-2.0-8.2-3.2","battery-v0.2","","""event"",""trial"",""time""
""fullscreenenter"",""1"",""3411""
","
","
","""event"",""trial"",""time""
""fullscreenenter"",""1"",""3411""
","
","","","241.20000004768372","","","10","15347","2225","&#9776;","elianto","#3366ff99"," "," ","1","0","[1091.7000000476837]","1","0","1","","","","","","","",""
"pit-trial","34","445411","0.0-2.0-8.2-4.2","battery-v0.2","","""event"",""trial"",""time""
""fullscreenenter"",""1"",""3411""
","
","
","""event"",""trial"",""time""
""fullscreenenter"",""1"",""3411""
","
","","","626.4000000357628","","","10","15347","2225","&#9776;","elianto","#3366ff99"," "," ","1","+10","[1478.1000000238419]","1","0","1","","","","","","","",""
"call-function","35","445413","0.0-2.0-9.0","battery-v0.2","","""event"",""trial"",""time""
""fullscreenenter"",""1"",""3411""
","
","
","""event"",""trial"",""time""
""fullscreenenter"",""1"",""3411""
","
","","","","","","","","","","","","","","","","","","","","","","","","","","",""
"pit-instructions","36","492426","0.0-2.0-10.0","battery-v0.2","","""event"",""trial"",""time""
""fullscreenenter"",""1"",""3411""
","
","
","""event"",""trial"",""time""
""fullscreenenter"",""1"",""3411""
","
","","[{""page_index"":0,""viewing_time"":7393},{""page_index"":1,""viewing_time"":9433.899999976158},{""page_index"":2,""viewing_time"":11052.199999988079},{""page_index"":3,""viewing_time"":11230.700000047684},{""page_index"":4,""viewing_time"":7901.399999976158}]","47011.69999998808","","","","","","","","","","","","","","","","","","","","","","","",""
"pit-trial","37","495795","0.0-2.0-11.0-0.0","battery-v0.2","","""event"",""trial"",""time""
""fullscreenenter"",""1"",""3411""
","
","
","""event"",""trial"",""time""
""fullscreenenter"",""1"",""3411""
","
","","","507.39999997615814","","","10","15347","2225","&#9761;","elianto","#3366ff99","-1"," ","0","0","[1363.0999999642372]","1","0","2","","","","","","","",""
"pit-trial","38","498775","0.0-2.0-11.0-1.0","battery-v0.2","","""event"",""trial"",""time""
""fullscreenenter"",""1"",""3411""
","
","
","""event"",""trial"",""time""
""fullscreenenter"",""1"",""3411""
","
","","","107.69999998807907","","","10","15347","2225","&#9761;","elianto","#3366ff99","-1"," ","0","0","[964.8000000119209]","1","0","2","","","","","","","",""
"pit-trial","39","503645","0.0-2.0-11.0-2.0","battery-v0.2","","""event"",""trial"",""time""
""fullscreenenter"",""1"",""3411""
","
","
","""event"",""trial"",""time""
""fullscreenenter"",""1"",""3411""
","
","","","-1","","","10","15347","2225","&#9761;","elianto","#3366ff99","-1","-1","1","+10","[]","0","0","2","","","","","","","",""
"pit-trial","40","507089","0.0-2.0-11.0-3.0","battery-v0.2","","""event"",""trial"",""time""
""fullscreenenter"",""1"",""3411""
","
","
","""event"",""trial"",""time""
""fullscreenenter"",""1"",""3411""
","
","","","569.1000000238419","","","10","15347","2225","&#9761;","elianto","#3366ff99","-1"," ","0","+10","[1428.1000000238419]","1","0","2","","","","","","","",""
"pit-trial","41","510699","0.0-2.0-11.0-4.0","battery-v0.2","","""event"",""trial"",""time""
""fullscreenenter"",""1"",""3411""
","
","
","""event"",""trial"",""time""
""fullscreenenter"",""1"",""3411""
","
","","","749.5","","","10","15347","2225","&#9761;","elianto","#3366ff99","-1"," ","0","0","[800.1999999880791,1603.300000011921]","2","0","2","","","","","","","",""
"pit-trial","42","513773","0.0-2.0-11.1-0.1","battery-v0.2","","""event"",""trial"",""time""
""fullscreenenter"",""1"",""3411""
","
","
","""event"",""trial"",""time""
""fullscreenenter"",""1"",""3411""
","
","","","210.79999995231628","","","10","15347","2225","&#9761;","elianto","#3366ff99","-1"," ","0","0","[10.800000011920929,1062.5999999642372]","2","0","2","","","","","","","",""
"pit-trial","43","517803","0.0-2.0-11.1-1.1","battery-v0.2","","""event"",""trial"",""time""
""fullscreenenter"",""1"",""3411""
","
","
","""event"",""trial"",""time""
""fullscreenenter"",""1"",""3411""
","
","","","1173.199999988079","","","10","15347","2225","&#9761;","elianto","#3366ff99","-1"," ","0","0","[2025]","1","0","2","","","","","","","",""
"pit-trial","44","520764","0.0-2.0-11.1-2.1","battery-v0.2","","""event"",""trial"",""time""
""fullscreenenter"",""1"",""3411""
","
","
","""event"",""trial"",""time""
""fullscreenenter"",""1"",""3411""
","
","","","104.30000001192093","","","10","15347","2225","&#9761;","elianto","#3366ff99","-1"," ","0","0","[958.4000000357628]","1","0","2","","","","","","","",""
"pit-trial","45","525617","0.0-2.0-11.1-3.1","battery-v0.2","","""event"",""trial"",""time""
""fullscreenenter"",""1"",""3411""
","
","
","""event"",""trial"",""time""
""fullscreenenter"",""1"",""3411""
","
","","","-1","","","10","15347","2225","&#9761;","elianto","#3366ff99","-1","-1","1","0","[]","0","0","2","","","","","","","",""
"pit-trial","46","529339","0.0-2.0-11.1-4.1","battery-v0.2","","""event"",""trial"",""time""
""fullscreenenter"",""1"",""3411""
","
","
","""event"",""trial"",""time""
""fullscreenenter"",""1"",""3411""
","
","","","869.1999999880791","","","10","15347","2225","&#9761;","elianto","#3366ff99","-1"," ","0","0","[1720.3999999761581]","1","0","2","","","","","","","",""
"pit-trial","47","533071","0.0-2.0-11.2-0.2","battery-v0.2","","""event"",""trial"",""time""
""fullscreenenter"",""1"",""3411""
","
","
","""event"",""trial"",""time""
""fullscreenenter"",""1"",""3411""
","
","","","877.4000000357628","","","10","15347","2225","&#9761;","elianto","#3366ff99","-1"," ","0","0","[1729.7000000476837]","1","0","2","","","","","","","",""
"pit-trial","48","536865","0.0-2.0-11.2-1.2","battery-v0.2","","""event"",""trial"",""time""
""fullscreenenter"",""1"",""3411""
","
","
","""event"",""trial"",""time""
""fullscreenenter"",""1"",""3411""
","
","","","941","","","10","15347","2225","&#9761;","elianto","#3366ff99","-1"," ","0","0","[1791.8999999761581]","1","0","2","","","","","","","",""
"pit-trial","49","541683","0.0-2.0-11.2-2.2","battery-v0.2","","""event"",""trial"",""time""
""fullscreenenter"",""1"",""3411""
","
","
","""event"",""trial"",""time""
""fullscreenenter"",""1"",""3411""
","
","","","1965.3999999761581","","","10","15347","2225","&#9761;","elianto","#3366ff99","-1"," ","0","0","[2816.199999988079]","1","0","2","","","","","","","",""
"pit-trial","50","545391","0.0-2.0-11.2-3.2","battery-v0.2","","""event"",""trial"",""time""
""fullscreenenter"",""1"",""3411""
","
","
","""event"",""trial"",""time""
""fullscreenenter"",""1"",""3411""
","
","","","854.5999999642372","","","10","15347","2225","&#9761;","elianto","#3366ff99","-1"," ","0","+10","[1705.4000000357628]","1","0","2","","","","","","","",""
"pit-trial","51","548953","0.0-2.0-11.2-4.2","battery-v0.2","","""event"",""trial"",""time""
""fullscreenenter"",""1"",""3411""
","
","
","""event"",""trial"",""time""
""fullscreenenter"",""1"",""3411""
","
","","","708.8000000119209","","","10","15347","2225","&#9761;","elianto","#3366ff99","-1"," ","0","0","[1559.5,2348.100000023842,3159.899999976158]","3","0","2","","","","","","","",""
"pit-trial","52","552086","0.0-2.0-11.3-0.3","battery-v0.2","","""event"",""trial"",""time""
""fullscreenenter"",""1"",""3411""
","
","
","""event"",""trial"",""time""
""fullscreenenter"",""1"",""3411""
","
","","","280.89999997615814","","","10","15347","2225","&#9761;","elianto","#3366ff99","-1"," ","0","0","[393.19999998807907,1131.5999999642372,1923.300000011921,2736.800000011921]","4","0","2","","","","","","","",""
"pit-trial","53","555280","0.0-2.0-11.3-1.3","battery-v0.2","","""event"",""trial"",""time""
""fullscreenenter"",""1"",""3411""
","
","
","""event"",""trial"",""time""
""fullscreenenter"",""1"",""3411""
","
","","","339.5999999642372","","","10","15347","2225","&#9761;","elianto","#3366ff99","-1"," ","0","0","[418.39999997615814,1191.199999988079,1945.300000011921,2738.699999988079]","4","0","2","","","","","","","",""
"pit-trial","54","558340","0.0-2.0-11.3-2.3","battery-v0.2","","""event"",""trial"",""time""
""fullscreenenter"",""1"",""3411""
","
","
","""event"",""trial"",""time""
""fullscreenenter"",""1"",""3411""
","
","","","207.30000001192093","","","10","15347","2225","&#9761;","elianto","#3366ff99","-1"," ","0","0","[316.60000002384186,1058.300000011921,1779.1000000238419,2469.800000011921]","4","0","2","","","","","","","",""
"pit-trial","55","561287","0.0-2.0-11.3-3.3","battery-v0.2","","""event"",""trial"",""time""
""fullscreenenter"",""1"",""3411""
","
","
","""event"",""trial"",""time""
""fullscreenenter"",""1"",""3411""
","
","","","93.5","","","10","15347","2225","&#9761;","elianto","#3366ff99","-1"," ","0","+10","[163.29999995231628,944.2999999523163,1668.8999999761581,2390.399999976158]","4","0","2","","","","","","","",""
"pit-trial","56","564253","0.0-2.0-11.3-4.3","battery-v0.2","","""event"",""trial"",""time""
""fullscreenenter"",""1"",""3411""
","
","
","""event"",""trial"",""time""
""fullscreenenter"",""1"",""3411""
","
","","","110.39999997615814","","","10","15347","2225","&#9761;","elianto","#3366ff99","-1"," ","0","0","[213.19999998807907,963.1000000238419,1746.6000000238419,2532.199999988079]","4","0","2","","","","","","","",""
"call-function","57","564255","0.0-2.0-12.0","battery-v0.2","","""event"",""trial"",""time""
""fullscreenenter"",""1"",""3411""
","
","
","""event"",""trial"",""time""
""fullscreenenter"",""1"",""3411""
","
","","","","","","","","","","","","","","","","","","","","","","","","","","",""
"pit-instructions","58","608414","0.0-2.0-13.0","battery-v0.2","","""event"",""trial"",""time""
""fullscreenenter"",""1"",""3411""
","
","
","""event"",""trial"",""time""
""fullscreenenter"",""1"",""3411""
","
","","[{""page_index"":0,""viewing_time"":12555.699999988079},{""page_index"":1,""viewing_time"":11354.600000023842},{""page_index"":2,""viewing_time"":4138.800000011921},{""page_index"":3,""viewing_time"":10698.899999976158},{""page_index"":4,""viewing_time"":5409}]","44157.5","","","","","","","","","","","","","","","","","","","","","","","",""
"pit-trial","59","613283","0.0-2.0-14.0-0.0","battery-v0.2","","""event"",""trial"",""time""
""fullscreenenter"",""1"",""3411""
","
","
","""event"",""trial"",""time""
""fullscreenenter"",""1"",""3411""
","
","","","-1","","","10","15347","2225","&#9826;","elianto","#f73b6a7A","-1","-1","1","0","[]","0","0","3","","","","","","","",""
"pit-trial","60","616452","0.0-2.0-14.0-1.0","battery-v0.2","","""event"",""trial"",""time""
""fullscreenenter"",""1"",""3411""
","
","
","""event"",""trial"",""time""
""fullscreenenter"",""1"",""3411""
","
","","","310","","","10","15347","2225","&#9826;","elianto","#f73b6a7A","-1"," ","0","-10","[1164.1000000238419]","1","0","3","","","","","","","",""
"pit-trial","61","621318","0.0-2.0-14.0-2.0","battery-v0.2","","""event"",""trial"",""time""
""fullscreenenter"",""1"",""3411""
","
","
","""event"",""trial"",""time""
""fullscreenenter"",""1"",""3411""
","
","","","-1","","","10","15347","2225","&#9826;","elianto","#f73b6a7A","-1","-1","1","0","[]","0","0","3","","","","","","","",""
"pit-trial","62","626183","0.0-2.0-14.0-3.0","battery-v0.2","","""event"",""trial"",""time""
""fullscreenenter"",""1"",""3411""
","
","
","""event"",""trial"",""time""
""fullscreenenter"",""1"",""3411""
","
","","","-1","","","10","15347","2225","&#9826;","elianto","#f73b6a7A","-1","-1","1","-10","[]","0","0","3","","","","","","","",""
"pit-trial","63","631053","0.0-2.0-14.0-4.0","battery-v0.2","","""event"",""trial"",""time""
""fullscreenenter"",""1"",""3411""
","
","
","""event"",""trial"",""time""
""fullscreenenter"",""1"",""3411""
","
","","","-1","","","10","15347","2225","&#9826;","elianto","#f73b6a7A","-1","-1","1","0","[]","0","0","3","","","","","","","",""
"pit-trial","64","635920","0.0-2.0-14.1-0.1","battery-v0.2","","""event"",""trial"",""time""
""fullscreenenter"",""1"",""3411""
","
","
","""event"",""trial"",""time""
""fullscreenenter"",""1"",""3411""
","
","","","-1","","","10","15347","2225","&#9826;","elianto","#f73b6a7A","-1","-1","1","0","[]","0","0","3","","","","","","","",""
"pit-trial","65","640773","0.0-2.0-14.1-1.1","battery-v0.2","","""event"",""trial"",""time""
""fullscreenenter"",""1"",""3411""
","
","
","""event"",""trial"",""time""
""fullscreenenter"",""1"",""3411""
","
","","","-1","","","10","15347","2225","&#9826;","elianto","#f73b6a7A","-1","-1","1","0","[]","0","0","3","","","","","","","",""
"pit-trial","66","645625","0.0-2.0-14.1-2.1","battery-v0.2","","""event"",""trial"",""time""
""fullscreenenter"",""1"",""3411""
","
","
","""event"",""trial"",""time""
""fullscreenenter"",""1"",""3411""
","
","","","-1","","","10","15347","2225","&#9826;","elianto","#f73b6a7A","-1","-1","1","0","[]","0","0","3","","","","","","","",""
"pit-trial","67","650479","0.0-2.0-14.1-3.1","battery-v0.2","","""event"",""trial"",""time""
""fullscreenenter"",""1"",""3411""
","
","
","""event"",""trial"",""time""
""fullscreenenter"",""1"",""3411""
","
","","","-1","","","10","15347","2225","&#9826;","elianto","#f73b6a7A","-1","-1","1","-10","[]","0","0","3","","","","","","","",""
"pit-trial","68","655332","0.0-2.0-14.1-4.1","battery-v0.2","","""event"",""trial"",""time""
""fullscreenenter"",""1"",""3411""
","
","
","""event"",""trial"",""time""
""fullscreenenter"",""1"",""3411""
","
","","","-1","","","10","15347","2225","&#9826;","elianto","#f73b6a7A","-1","-1","1","0","[]","0","0","3","","","","","","","",""
"pit-trial","69","660185","0.0-2.0-14.2-0.2","battery-v0.2","","""event"",""trial"",""time""
""fullscreenenter"",""1"",""3411""
","
","
","""event"",""trial"",""time""
""fullscreenenter"",""1"",""3411""
","
","","","-1","","","10","15347","2225","&#9826;","elianto","#f73b6a7A","-1","-1","1","0","[]","0","0","3","","","","","","","",""
"pit-trial","70","665038","0.0-2.0-14.2-1.2","battery-v0.2","","""event"",""trial"",""time""
""fullscreenenter"",""1"",""3411""
","
","
","""event"",""trial"",""time""
""fullscreenenter"",""1"",""3411""
","
","","","-1","","","10","15347","2225","&#9826;","elianto","#f73b6a7A","-1","-1","1","0","[]","0","0","3","","","","","","","",""
"pit-trial","71","669891","0.0-2.0-14.2-2.2","battery-v0.2","","""event"",""trial"",""time""
""fullscreenenter"",""1"",""3411""
","
","
","""event"",""trial"",""time""
""fullscreenenter"",""1"",""3411""
","
","","","-1","","","10","15347","2225","&#9826;","elianto","#f73b6a7A","-1","-1","1","0","[]","0","0","3","","","","","","","",""
"pit-trial","72","674744","0.0-2.0-14.2-3.2","battery-v0.2","","""event"",""trial"",""time""
""fullscreenenter"",""1"",""3411""
","
","
","""event"",""trial"",""time""
""fullscreenenter"",""1"",""3411""
","
","","","-1","","","10","15347","2225","&#9826;","elianto","#f73b6a7A","-1","-1","1","-10","[]","0","0","3","","","","","","","",""
"pit-trial","73","679596","0.0-2.0-14.2-4.2","battery-v0.2","","""event"",""trial"",""time""
""fullscreenenter"",""1"",""3411""
","
","
","""event"",""trial"",""time""
""fullscreenenter"",""1"",""3411""
","
","","","-1","","","10","15347","2225","&#9826;","elianto","#f73b6a7A","-1","-1","1","0","[]","0","0","3","","","","","","","",""
"pit-trial","74","684449","0.0-2.0-14.3-0.3","battery-v0.2","","""event"",""trial"",""time""
""fullscreenenter"",""1"",""3411""
","
","
","""event"",""trial"",""time""
""fullscreenenter"",""1"",""3411""
","
","","","-1","","","10","15347","2225","&#9826;","elianto","#f73b6a7A","-1","-1","1","0","[]","0","0","3","","","","","","","",""
"pit-trial","75","689302","0.0-2.0-14.3-1.3","battery-v0.2","","""event"",""trial"",""time""
""fullscreenenter"",""1"",""3411""
","
","
","""event"",""trial"",""time""
""fullscreenenter"",""1"",""3411""
","
","","","-1","","","10","15347","2225","&#9826;","elianto","#f73b6a7A","-1","-1","1","0","[]","0","0","3","","","","","","","",""
"pit-trial","76","694155","0.0-2.0-14.3-2.3","battery-v0.2","","""event"",""trial"",""time""
""fullscreenenter"",""1"",""3411""
","
","
","""event"",""trial"",""time""
""fullscreenenter"",""1"",""3411""
","
","","","-1","","","10","15347","2225","&#9826;","elianto","#f73b6a7A","-1","-1","1","0","[]","0","0","3","","","","","","","",""
"pit-trial","77","699008","0.0-2.0-14.3-3.3","battery-v0.2","","""event"",""trial"",""time""
""fullscreenenter"",""1"",""3411""
","
","
","""event"",""trial"",""time""
""fullscreenenter"",""1"",""3411""
","
","","","-1","","","10","15347","2225","&#9826;","elianto","#f73b6a7A","-1","-1","1","-10","[]","0","0","3","","","","","","","",""
"pit-trial","78","703860","0.0-2.0-14.3-4.3","battery-v0.2","","""event"",""trial"",""time""
""fullscreenenter"",""1"",""3411""
","
","
","""event"",""trial"",""time""
""fullscreenenter"",""1"",""3411""
","
","","","-1","","","10","15347","2225","&#9826;","elianto","#f73b6a7A","-1","-1","1","0","[]","0","0","3","","","","","","","",""
"call-function","79","703862","0.0-2.0-15.0","battery-v0.2","","""event"",""trial"",""time""
""fullscreenenter"",""1"",""3411""
","
","
","""event"",""trial"",""time""
""fullscreenenter"",""1"",""3411""
","
","","","","","","","","","","","","","","","","","","","","","","","","","","",""
"pit-instructions","80","730218","0.0-2.0-16.0","battery-v0.2","","""event"",""trial"",""time""
""fullscreenenter"",""1"",""3411""
","
","
","""event"",""trial"",""time""
""fullscreenenter"",""1"",""3411""
","
","","[{""page_index"":0,""viewing_time"":7513.200000047684},{""page_index"":1,""viewing_time"":8377.699999988079},{""page_index"":2,""viewing_time"":5292.5},{""page_index"":3,""viewing_time"":5172.199999988079}]","26356","","","","","","","","","","","","","","","","","","","","","","","",""
"pit-trial","81","734249","0.0-2.0-17.0-0.0","battery-v0.2","","""event"",""trial"",""time""
""fullscreenenter"",""1"",""3411""
","
","
","""event"",""trial"",""time""
""fullscreenenter"",""1"",""3411""
","
","","","1158.5999999642372","","","10","15347","2225","&#9789;","elianto","#f73b6a7A"," "," ","1","0","[2014.5]","1","0","4","","","","","","","",""
"pit-trial","82","739108","0.0-2.0-17.0-1.0","battery-v0.2","","""event"",""trial"",""time""
""fullscreenenter"",""1"",""3411""
","
","
","""event"",""trial"",""time""
""fullscreenenter"",""1"",""3411""
","
","","","-1","","","10","15347","2225","&#9789;","elianto","#f73b6a7A"," ","-1","0","-10","[]","0","0","4","","","","","","","",""
"pit-trial","83","741982","0.0-2.0-17.0-2.0","battery-v0.2","","""event"",""trial"",""time""
""fullscreenenter"",""1"",""3411""
","
","
","""event"",""trial"",""time""
""fullscreenenter"",""1"",""3411""
","
","","","17.80000001192093","","","10","15347","2225","&#9789;","elianto","#f73b6a7A"," "," ","1","0","[869.5]","1","0","4","","","","","","","",""
"pit-trial","84","746846","0.0-2.0-17.0-3.0","battery-v0.2","","""event"",""trial"",""time""
""fullscreenenter"",""1"",""3411""
","
","
","""event"",""trial"",""time""
""fullscreenenter"",""1"",""3411""
","
","","","-1","","","10","15347","2225","&#9789;","elianto","#f73b6a7A"," ","-1","0","0","[]","0","0","4","","","","","","","",""
"pit-trial","85","751723","0.0-2.0-17.0-4.0","battery-v0.2","","""event"",""trial"",""time""
""fullscreenenter"",""1"",""3411""
","
","
","""event"",""trial"",""time""
""fullscreenenter"",""1"",""3411""
","
","","","-1","","","10","15347","2225","&#9789;","elianto","#f73b6a7A"," ","-1","0","-10","[]","0","0","4","","","","","","","",""
"pit-trial","86","756597","0.0-2.0-17.1-0.1","battery-v0.2","","""event"",""trial"",""time""
""fullscreenenter"",""1"",""3411""
","
","
","""event"",""trial"",""time""
""fullscreenenter"",""1"",""3411""
","
","","","-1","","","10","15347","2225","&#9789;","elianto","#f73b6a7A"," ","-1","0","-10","[]","0","0","4","","","","","","","",""
"pit-trial","87","761450","0.0-2.0-17.1-1.1","battery-v0.2","","""event"",""trial"",""time""
""fullscreenenter"",""1"",""3411""
","
","
","""event"",""trial"",""time""
""fullscreenenter"",""1"",""3411""
","
","","","-1","","","10","15347","2225","&#9789;","elianto","#f73b6a7A"," ","-1","0","-10","[]","0","0","4","","","","","","","",""
"pit-trial","88","766303","0.0-2.0-17.1-2.1","battery-v0.2","","""event"",""trial"",""time""
""fullscreenenter"",""1"",""3411""
","
","
","""event"",""trial"",""time""
""fullscreenenter"",""1"",""3411""
","
","","","-1","","","10","15347","2225","&#9789;","elianto","#f73b6a7A"," ","-1","0","-10","[]","0","0","4","","","","","","","",""
"pit-trial","89","771156","0.0-2.0-17.1-3.1","battery-v0.2","","""event"",""trial"",""time""
""fullscreenenter"",""1"",""3411""
","
","
","""event"",""trial"",""time""
""fullscreenenter"",""1"",""3411""
","
","","","-1","","","10","15347","2225","&#9789;","elianto","#f73b6a7A"," ","-1","0","0","[]","0","0","4","","","","","","","",""
"pit-trial","90","776008","0.0-2.0-17.1-4.1","battery-v0.2","","""event"",""trial"",""time""
""fullscreenenter"",""1"",""3411""
","
","
","""event"",""trial"",""time""
""fullscreenenter"",""1"",""3411""
","
","","","-1","","","10","15347","2225","&#9789;","elianto","#f73b6a7A"," ","-1","0","-10","[]","0","0","4","","","","","","","",""
"pit-trial","91","780862","0.0-2.0-17.2-0.2","battery-v0.2","","""event"",""trial"",""time""
""fullscreenenter"",""1"",""3411""
","
","
","""event"",""trial"",""time""
""fullscreenenter"",""1"",""3411""
","
","","","-1","","","10","15347","2225","&#9789;","elianto","#f73b6a7A"," ","-1","0","-10","[]","0","0","4","","","","","","","",""
"pit-trial","92","785716","0.0-2.0-17.2-1.2","battery-v0.2","","""event"",""trial"",""time""
""fullscreenenter"",""1"",""3411""
","
","
","""event"",""trial"",""time""
""fullscreenenter"",""1"",""3411""
","
","","","-1","","","10","15347","2225","&#9789;","elianto","#f73b6a7A"," ","-1","0","-10","[]","0","0","4","","","","","","","",""
"pit-trial","93","790568","0.0-2.0-17.2-2.2","battery-v0.2","","""event"",""trial"",""time""
""fullscreenenter"",""1"",""3411""
","
","
","""event"",""trial"",""time""
""fullscreenenter"",""1"",""3411""
","
","","","-1","","","10","15347","2225","&#9789;","elianto","#f73b6a7A"," ","-1","0","-10","[]","0","0","4","","","","","","","",""
"pit-trial","94","795422","0.0-2.0-17.2-3.2","battery-v0.2","","""event"",""trial"",""time""
""fullscreenenter"",""1"",""3411""
","
","
","""event"",""trial"",""time""
""fullscreenenter"",""1"",""3411""
","
","","","-1","","","10","15347","2225","&#9789;","elianto","#f73b6a7A"," ","-1","0","0","[]","0","0","4","","","","","","","",""
"pit-trial","95","800274","0.0-2.0-17.2-4.2","battery-v0.2","","""event"",""trial"",""time""
""fullscreenenter"",""1"",""3411""
","
","
","""event"",""trial"",""time""
""fullscreenenter"",""1"",""3411""
","
","","","-1","","","10","15347","2225","&#9789;","elianto","#f73b6a7A"," ","-1","0","-10","[]","0","0","4","","","","","","","",""
"pit-trial","96","805127","0.0-2.0-17.3-0.3","battery-v0.2","","""event"",""trial"",""time""
""fullscreenenter"",""1"",""3411""
","
","
","""event"",""trial"",""time""
""fullscreenenter"",""1"",""3411""
","
","","","-1","","","10","15347","2225","&#9789;","elianto","#f73b6a7A"," ","-1","0","-10","[]","0","0","4","","","","","","","",""
"pit-trial","97","809981","0.0-2.0-17.3-1.3","battery-v0.2","","""event"",""trial"",""time""
""fullscreenenter"",""1"",""3411""
","
","
","""event"",""trial"",""time""
""fullscreenenter"",""1"",""3411""
","
","","","-1","","","10","15347","2225","&#9789;","elianto","#f73b6a7A"," ","-1","0","-10","[]","0","0","4","","","","","","","",""
"pit-trial","98","814834","0.0-2.0-17.3-2.3","battery-v0.2","","""event"",""trial"",""time""
""fullscreenenter"",""1"",""3411""
","
","
","""event"",""trial"",""time""
""fullscreenenter"",""1"",""3411""
","
","","","-1","","","10","15347","2225","&#9789;","elianto","#f73b6a7A"," ","-1","0","-10","[]","0","0","4","","","","","","","",""
"pit-trial","99","819687","0.0-2.0-17.3-3.3","battery-v0.2","","""event"",""trial"",""time""
""fullscreenenter"",""1"",""3411""
","
","
","""event"",""trial"",""time""
""fullscreenenter"",""1"",""3411""
","
","","","-1","","","10","15347","2225","&#9789;","elianto","#f73b6a7A"," ","-1","0","0","[]","0","0","4","","","","","","","",""
"pit-trial","100","824545","0.0-2.0-17.3-4.3","battery-v0.2","","""event"",""trial"",""time""
""fullscreenenter"",""1"",""3411""
","
","
","""event"",""trial"",""time""
""fullscreenenter"",""1"",""3411""
","
","","","-1","","","10","15347","2225","&#9789;","elianto","#f73b6a7A"," ","-1","0","-10","[]","0","0","4","","","","","","","",""
"call-function","101","824546","0.0-2.0-18.0","battery-v0.2","","""event"",""trial"",""time""
""fullscreenenter"",""1"",""3411""
","
","
","""event"",""trial"",""time""
""fullscreenenter"",""1"",""3411""
","
","","","","","","","","","","","","","","","","","","","","","","","","","","",""
"pit-instructions","102","917189","0.0-2.0-19.0","battery-v0.2","","""event"",""trial"",""time""
""fullscreenenter"",""1"",""3411""
","
","
","""event"",""trial"",""time""
""fullscreenenter"",""1"",""3411""
","
","","[{""page_index"":0,""viewing_time"":11201.099999964237},{""page_index"":1,""viewing_time"":7940.800000011921},{""page_index"":2,""viewing_time"":19716.5},{""page_index"":3,""viewing_time"":9244},{""page_index"":4,""viewing_time"":9923.300000011921},{""page_index"":5,""viewing_time"":8565.399999976158},{""page_index"":6,""viewing_time"":10618.900000035763},{""page_index"":7,""viewing_time"":9019.699999988079},{""page_index"":8,""viewing_time"":6412.800000011921}]","92642.89999997616","","","","","","","","","","","","","","","","","","","","","","","",""
"pit-comprehension","103","924504","0.0-2.0-20.0-0.0","battery-v0.2","","""event"",""trial"",""time""
""fullscreenenter"",""1"",""3411""
","
","
","""event"",""trial"",""time""
""fullscreenenter"",""1"",""3411""
","
","","","7311.099999964237","[""SPACE""]","0","10","15347","2225","","","","","","","","","","","","","","","","","","",""
"pit-instructions","104","927333","0.0-2.0-20.0-1.0","battery-v0.2","","""event"",""trial"",""time""
""fullscreenenter"",""1"",""3411""
","
","
","""event"",""trial"",""time""
""fullscreenenter"",""1"",""3411""
","
","","[{""page_index"":0,""viewing_time"":2767.899999976158}]","2768.2999999523163","","","","","","","","","","","","","","","","","","","","","","","",""
"pit-comprehension","105","934624","0.0-2.0-21.0-0.0","battery-v0.2","","""event"",""trial"",""time""
""fullscreenenter"",""1"",""3411""
","
","
","""event"",""trial"",""time""
""fullscreenenter"",""1"",""3411""
","
","","","7287.099999964237","[""10""]","0","10","15347","2225","","","","","","","","","","","","","","","","","","",""
"pit-instructions","106","935934","0.0-2.0-21.0-1.0","battery-v0.2","","""event"",""trial"",""time""
""fullscreenenter"",""1"",""3411""
","
","
","""event"",""trial"",""time""
""fullscreenenter"",""1"",""3411""
","
","","[{""page_index"":0,""viewing_time"":1262.8999999761581}]","1263.2999999523163","","","","","","","","","","","","","","","","","","","","","","","",""
"pit-comprehension","107","944395","0.0-2.0-22.0-0.0","battery-v0.2","","""event"",""trial"",""time""
""fullscreenenter"",""1"",""3411""
","
","
","""event"",""trial"",""time""
""fullscreenenter"",""1"",""3411""
","
","","","8457.300000011921","[""0""]","0","10","15347","2225","","","","","","","","","","","","","","","","","","",""
"pit-instructions","108","946949","0.0-2.0-22.0-1.0","battery-v0.2","","""event"",""trial"",""time""
""fullscreenenter"",""1"",""3411""
","
","
","""event"",""trial"",""time""
""fullscreenenter"",""1"",""3411""
","
","","[{""page_index"":0,""viewing_time"":2495.599999964237}]","2496","","","","","","","","","","","","","","","","","","","","","","","",""
"pit-comprehension","109","961491","0.0-2.0-23.0-0.0","battery-v0.2","","""event"",""trial"",""time""
""fullscreenenter"",""1"",""3411""
","
","
","""event"",""trial"",""time""
""fullscreenenter"",""1"",""3411""
","
","","","14539.100000023842","[""True""]","0","10","15347","2225","","","","","","","","","","","","","","","","","","",""
"pit-instructions","110","963042","0.0-2.0-23.0-1.0","battery-v0.2","","""event"",""trial"",""time""
""fullscreenenter"",""1"",""3411""
","
","
","""event"",""trial"",""time""
""fullscreenenter"",""1"",""3411""
","
","","[{""page_index"":0,""viewing_time"":1501.7000000476837}]","1502","","","","","","","","","","","","","","","","","","","","","","","",""
"pit-comprehension","111","973021","0.0-2.0-24.0-0.0","battery-v0.2","","""event"",""trial"",""time""
""fullscreenenter"",""1"",""3411""
","
","
","""event"",""trial"",""time""
""fullscreenenter"",""1"",""3411""
","
","","","9975.199999988079","[""True""]","0","10","15347","2225","","","","","","","","","","","","","","","","","","",""
"pit-instructions","112","974852","0.0-2.0-24.0-1.0","battery-v0.2","","""event"",""trial"",""time""
""fullscreenenter"",""1"",""3411""
","
","
","""event"",""trial"",""time""
""fullscreenenter"",""1"",""3411""
","
","","[{""page_index"":0,""viewing_time"":1783.0999999642372}]","1783.300000011921","","","","","","","","","","","","","","","","","","","","","","","",""
"pit-comprehension","113","981446","0.0-2.0-25.0-0.0","battery-v0.2","","""event"",""trial"",""time""
""fullscreenenter"",""1"",""3411""
","
","
","""event"",""trial"",""time""
""fullscreenenter"",""1"",""3411""
","
","","","6591.199999988079","[""True""]","0","10","15347","2225","","","","","","","","","","","","","","","","","","",""
"pit-instructions","114","982770","0.0-2.0-25.0-1.0","battery-v0.2","","""event"",""trial"",""time""
""fullscreenenter"",""1"",""3411""
","
","
","""event"",""trial"",""time""
""fullscreenenter"",""1"",""3411""
","
","","[{""page_index"":0,""viewing_time"":1265.8999999761581}]","1266.199999988079","","","","","","","","","","","","","","","","","","","","","","","",""
"pit-comprehension","115","992809","0.0-2.0-26.0-0.0","battery-v0.2","","""event"",""trial"",""time""
""fullscreenenter"",""1"",""3411""
","
","
","""event"",""trial"",""time""
""fullscreenenter"",""1"",""3411""
","
","","","10035.800000011921","[""True""]","1","10","15347","2225","","","","","","","","","","","","","","","","","","",""
"pit-instructions","116","1000496","0.0-2.0-26.0-1.0","battery-v0.2","","""event"",""trial"",""time""
""fullscreenenter"",""1"",""3411""
","
","
","""event"",""trial"",""time""
""fullscreenenter"",""1"",""3411""
","
","","[{""page_index"":0,""viewing_time"":7636.100000023842}]","7636.399999976158","","","","","","","","","","","","","","","","","","","","","","","",""
"pit-instructions","117","1005154","0.0-2.0-26.0-2.0-0.0","battery-v0.2","","""event"",""trial"",""time""
""fullscreenenter"",""1"",""3411""
","
","
","""event"",""trial"",""time""
""fullscreenenter"",""1"",""3411""
","
","","[{""page_index"":0,""viewing_time"":4656.099999964237}]","4656.399999976158","","","","","","","","","","","","","","","","","","","","","","","",""
"pit-comprehension","118","1015341","0.0-2.0-26.1-0.1","battery-v0.2","","""event"",""trial"",""time""
""fullscreenenter"",""1"",""3411""
","
","
","""event"",""trial"",""time""
""fullscreenenter"",""1"",""3411""
","
","","","10184.199999988079","[""False""]","0","10","15347","2225","","","","","","","","","","","","","","","","","","",""
"pit-instructions","119","1016899","0.0-2.0-26.1-1.1","battery-v0.2","","""event"",""trial"",""time""
""fullscreenenter"",""1"",""3411""
","
","
","""event"",""trial"",""time""
""fullscreenenter"",""1"",""3411""
","
","","[{""page_index"":0,""viewing_time"":1509}]","1509.300000011921","","","","","","","","","","","","","","","","","","","","","","","",""
"pit-instructions","120","1041406","0.0-3.0","battery-v0.2","","""event"",""trial"",""time""
""fullscreenenter"",""1"",""3411""
","
","
","""event"",""trial"",""time""
""fullscreenenter"",""1"",""3411""
","
","","[{""page_index"":0,""viewing_time"":4463},{""page_index"":1,""viewing_time"":12382.100000023842},{""page_index"":2,""viewing_time"":7659.300000011921}]","24504.80000001192","","","","","","","","","","","","","","","","","","","","","","","",""
"pit-trial","121","1045006","0.0-4.0","battery-v0.2","","""event"",""trial"",""time""
""fullscreenenter"",""1"",""3411""
","
","
","""event"",""trial"",""time""
""fullscreenenter"",""1"",""3411""
","
","","","727.6000000238419","","","10","15347","2225","&#9730;","elianto","#3366ff99"," "," ","1","0","[1583.4000000357628]","1","1","","","15347","1","1","1","win","go","1"
"pit-trial","122","1049878","0.0-5.0","battery-v0.2","","""event"",""trial"",""time""
""fullscreenenter"",""1"",""3411""
","
","
","""event"",""trial"",""time""
""fullscreenenter"",""1"",""3411""
","
","","","-1","","","10","15347","2225","&#9728;","elianto","#f73b6a7A","-1","-1","1","0","[]","0","1","","","15347","2","0","4","lose","no-go","0"
"pit-trial","123","1054742","0.0-6.0","battery-v0.2","","""event"",""trial"",""time""
""fullscreenenter"",""1"",""3411""
","
","
","""event"",""trial"",""time""
""fullscreenenter"",""1"",""3411""
","
","","","-1","","","10","15347","2225","&#9752;","elianto","#f73b6a7A"," ","-1","0","-10","[]","0","1","","","15347","3","3","3","lose","go","0"
"pit-trial","124","1058194","0.0-7.0","battery-v0.2","","""event"",""trial"",""time""
""fullscreenenter"",""1"",""3411""
","
","
","""event"",""trial"",""time""
""fullscreenenter"",""1"",""3411""
","
","","","587.1999999880791","","","10","15347","2225","&#9733;","elianto","#3366ff99","-1"," ","0","+10","[1442.6000000238419]","1","1","","","15347","4","2","2","win","no-go","1"
"pit-trial","125","1063059","0.0-8.0","battery-v0.2","","""event"",""trial"",""time""
""fullscreenenter"",""1"",""3411""
","
","
","""event"",""trial"",""time""
""fullscreenenter"",""1"",""3411""
","
","","","-1","","","10","15347","2225","&#9752;","elianto","#f73b6a7A"," ","-1","0","0","[]","0","1","","","15347","5","3","3","lose","go","1"
"pit-trial","126","1067926","0.0-9.0","battery-v0.2","","""event"",""trial"",""time""
""fullscreenenter"",""1"",""3411""
","
","
","""event"",""trial"",""time""
""fullscreenenter"",""1"",""3411""
","
","","","-1","","","10","15347","2225","&#9728;","elianto","#f73b6a7A","-1","-1","1","0","[]","0","1","","","15347","6","0","4","lose","no-go","0"
"pit-trial","127","1071719","0.0-10.0","battery-v0.2","","""event"",""trial"",""time""
""fullscreenenter"",""1"",""3411""
","
","
","""event"",""trial"",""time""
""fullscreenenter"",""1"",""3411""
","
","","","940","","","10","15347","2225","&#9730;","elianto","#3366ff99"," "," ","1","0","[1790.199999988079]","1","1","","","15347","7","1","1","win","go","1"
"pit-trial","128","1075973","0.0-11.0","battery-v0.2","","""event"",""trial"",""time""
""fullscreenenter"",""1"",""3411""
","
","
","""event"",""trial"",""time""
""fullscreenenter"",""1"",""3411""
","
","","","1400.699999988079","","","10","15347","2225","&#9733;","elianto","#3366ff99","-1"," ","0","+10","[2251.100000023842]","1","1","","","15347","8","2","2","win","no-go","1"
"pit-trial","129","1080826","0.0-12.0","battery-v0.2","","""event"",""trial"",""time""
""fullscreenenter"",""1"",""3411""
","
","
","""event"",""trial"",""time""
""fullscreenenter"",""1"",""3411""
","
","","","-1","","","10","15347","2225","&#9752;","elianto","#f73b6a7A"," ","-1","0","-10","[3225.5]","1","1","","","15347","9","3","3","lose","go","0"
"pit-trial","130","1085679","0.0-13.0","battery-v0.2","","""event"",""trial"",""time""
""fullscreenenter"",""1"",""3411""
","
","
","""event"",""trial"",""time""
""fullscreenenter"",""1"",""3411""
","
","","","-1","","","10","15347","2225","&#9728;","elianto","#f73b6a7A","-1","-1","1","0","[]","0","1","","","15347","10","0","4","lose","no-go","0"
"pit-trial","131","1090249","0.0-14.0","battery-v0.2","","""event"",""trial"",""time""
""fullscreenenter"",""1"",""3411""
","
","
","""event"",""trial"",""time""
""fullscreenenter"",""1"",""3411""
","
","","","1716.3999999761581","","","10","15347","2225","&#9733;","elianto","#3366ff99","-1"," ","0","0","[2567.300000011921]","1","1","","","15347","11","2","2","win","no-go","0"
"pit-trial","132","1093656","0.0-15.0","battery-v0.2","","""event"",""trial"",""time""
""fullscreenenter"",""1"",""3411""
","
","
","""event"",""trial"",""time""
""fullscreenenter"",""1"",""3411""
","
","","","553.6000000238419","","","10","15347","2225","&#9730;","elianto","#3366ff99"," "," ","1","+10","[1403.800000011921]","1","1","","","15347","12","1","1","win","go","0"
"pit-trial","133","1098509","0.0-16.0","battery-v0.2","","""event"",""trial"",""time""
""fullscreenenter"",""1"",""3411""
","
","
","""event"",""trial"",""time""
""fullscreenenter"",""1"",""3411""
","
","","","-1","","","10","15347","2225","&#9752;","elianto","#f73b6a7A"," ","-1","0","-10","[]","0","1","","","15347","13","3","3","lose","go","0"
"pit-trial","134","1102437","0.0-17.0","battery-v0.2","","""event"",""trial"",""time""
""fullscreenenter"",""1"",""3411""
","
","
","""event"",""trial"",""time""
""fullscreenenter"",""1"",""3411""
","
","","","1074.800000011921","","","10","15347","2225","&#9733;","elianto","#3366ff99","-1"," ","0","0","[1925.300000011921]","1","1","","","15347","14","2","2","win","no-go","0"
"pit-trial","135","1107290","0.0-18.0","battery-v0.2","","""event"",""trial"",""time""
""fullscreenenter"",""1"",""3411""
","
","
","""event"",""trial"",""time""
""fullscreenenter"",""1"",""3411""
","
","","","-1","","","10","15347","2225","&#9730;","elianto","#3366ff99"," ","-1","0","0","[4484.899999976158]","1","1","","","15347","15","1","1","win","go","0"
"pit-trial","136","1111479","0.0-19.0","battery-v0.2","","""event"",""trial"",""time""
""fullscreenenter"",""1"",""3411""
","
","
","""event"",""trial"",""time""
""fullscreenenter"",""1"",""3411""
","
","","","1334.4000000357628","","","10","15347","2225","&#9728;","elianto","#f73b6a7A","-1"," ","0","-10","[2186]","1","1","","","15347","16","0","4","lose","no-go","0"
"pit-trial","137","1114902","0.0-20.0","battery-v0.2","","""event"",""trial"",""time""
""fullscreenenter"",""1"",""3411""
","
","
","""event"",""trial"",""time""
""fullscreenenter"",""1"",""3411""
","
","","","569.9000000357628","","","10","15347","2225","&#9733;","elianto","#3366ff99","-1"," ","0","0","[1421.5]","1","1","","","15347","17","2","2","win","no-go","0"
"pit-trial","138","1119756","0.0-21.0","battery-v0.2","","""event"",""trial"",""time""
""fullscreenenter"",""1"",""3411""
","
","
","""event"",""trial"",""time""
""fullscreenenter"",""1"",""3411""
","
","","","-1","","","10","15347","2225","&#9728;","elianto","#f73b6a7A","-1","-1","1","0","[]","0","1","","","15347","18","0","4","lose","no-go","0"
"pit-trial","139","1124610","0.0-22.0","battery-v0.2","","""event"",""trial"",""time""
""fullscreenenter"",""1"",""3411""
","
","
","""event"",""trial"",""time""
""fullscreenenter"",""1"",""3411""
","
","","","-1","","","10","15347","2225","&#9752;","elianto","#f73b6a7A"," ","-1","0","-10","[]","0","1","","","15347","19","3","3","lose","go","0"
"pit-trial","140","1128325","0.0-23.0","battery-v0.2","","""event"",""trial"",""time""
""fullscreenenter"",""1"",""3411""
","
","
","""event"",""trial"",""time""
""fullscreenenter"",""1"",""3411""
","
","","","863.3000000119209","","","10","15347","2225","&#9730;","elianto","#3366ff99"," "," ","1","+10","[1713.699999988079]","1","1","","","15347","20","1","1","win","go","0"
"pit-instructions","141","1147295","0.0-24.0","battery-v0.2","","""event"",""trial"",""time""
""fullscreenenter"",""1"",""3411""
","
","
","""event"",""trial"",""time""
""fullscreenenter"",""1"",""3411""
","
","","[{""page_index"":0,""viewing_time"":12019.900000035763},{""page_index"":1,""viewing_time"":6948.399999976158}]","18968.69999998808","","","","","","","","","","","","","","","","","","","","","","","",""
"pit-trial","142","1152163","0.0-25.0","battery-v0.2","","""event"",""trial"",""time""
""fullscreenenter"",""1"",""3411""
","
","
","""event"",""trial"",""time""
""fullscreenenter"",""1"",""3411""
","
","","","-1","","","10","15347","2225","y","elianto","#f73b6a7A"," ","-1","0","0","[]","0","2","","","15347","21","2","3","lose","go","1"
"pit-trial","143","1155999","0.0-26.0","battery-v0.2","","""event"",""trial"",""time""
""fullscreenenter"",""1"",""3411""
","
","
","""event"",""trial"",""time""
""fullscreenenter"",""1"",""3411""
","
","","","978.0999999642372","","","10","15347","2225","r","elianto","#3366ff99","-1"," ","0","0","[1831]","1","2","","","15347","22","1","2","win","no-go","0"
"pit-trial","144","1160876","0.0-27.0","battery-v0.2","","""event"",""trial"",""time""
""fullscreenenter"",""1"",""3411""
","
","
","""event"",""trial"",""time""
""fullscreenenter"",""1"",""3411""
","
","","","-1","","","10","15347","2225","m","elianto","#f73b6a7A"," ","-1","0","0","[]","0","2","","","15347","23","0","3","lose","go","1"
"pit-trial","145","1164595","0.0-28.0","battery-v0.2","","""event"",""trial"",""time""
""fullscreenenter"",""1"",""3411""
","
","
","""event"",""trial"",""time""
""fullscreenenter"",""1"",""3411""
","
","","","863.5","","","10","15347","2225","h","elianto","#f73b6a7A","-1"," ","0","-10","[1713.800000011921]","1","2","","","15347","24","3","4","lose","no-go","0"
"pit-trial","146","1169470","0.0-29.0","battery-v0.2","","""event"",""trial"",""time""
""fullscreenenter"",""1"",""3411""
","
","
","""event"",""trial"",""time""
""fullscreenenter"",""1"",""3411""
","
","","","-1","","","10","15347","2225","y","elianto","#f73b6a7A"," ","-1","0","-10","[]","0","2","","","15347","25","2","3","lose","go","0"
"pit-trial","147","1174334","0.0-30.0","battery-v0.2","","""event"",""trial"",""time""
""fullscreenenter"",""1"",""3411""
","
","
","""event"",""trial"",""time""
""fullscreenenter"",""1"",""3411""
","
","","","-1","","","10","15347","2225","m","elianto","#f73b6a7A"," ","-1","0","0","[]","0","2","","","15347","26","0","3","lose","go","1"
"pit-trial","148","1177830","0.0-31.0","battery-v0.2","","""event"",""trial"",""time""
""fullscreenenter"",""1"",""3411""
","
","
","""event"",""trial"",""time""
""fullscreenenter"",""1"",""3411""
","
","","","638","","","10","15347","2225","r","elianto","#3366ff99","-1"," ","0","+10","[1491.3999999761581]","1","2","","","15347","27","1","2","win","no-go","1"
"pit-trial","149","1182684","0.0-32.0","battery-v0.2","","""event"",""trial"",""time""
""fullscreenenter"",""1"",""3411""
","
","
","""event"",""trial"",""time""
""fullscreenenter"",""1"",""3411""
","
","","","-1","","","10","15347","2225","h","elianto","#f73b6a7A","-1","-1","1","0","[]","0","2","","","15347","28","3","4","lose","no-go","0"
"pit-trial","150","1187537","0.0-33.0","battery-v0.2","","""event"",""trial"",""time""
""fullscreenenter"",""1"",""3411""
","
","
","""event"",""trial"",""time""
""fullscreenenter"",""1"",""3411""
","
","","","-1","","","10","15347","2225","m","elianto","#f73b6a7A"," ","-1","0","-10","[]","0","2","","","15347","29","0","3","lose","go","0"
"pit-trial","151","1191013","0.0-34.0","battery-v0.2","","""event"",""trial"",""time""
""fullscreenenter"",""1"",""3411""
","
","
","""event"",""trial"",""time""
""fullscreenenter"",""1"",""3411""
","
","","","622.5","","","10","15347","2225","r","elianto","#3366ff99","-1"," ","0","0","[1473.2000000476837]","1","2","","","15347","30","1","2","win","no-go","0"
"pit-trial","152","1195866","0.0-35.0","battery-v0.2","","""event"",""trial"",""time""
""fullscreenenter"",""1"",""3411""
","
","
","""event"",""trial"",""time""
""fullscreenenter"",""1"",""3411""
","
","","","-1","","","10","15347","2225","y","elianto","#f73b6a7A"," ","-1","0","-10","[]","0","2","","","15347","31","2","3","lose","go","0"
"pit-trial","153","1200719","0.0-36.0","battery-v0.2","","""event"",""trial"",""time""
""fullscreenenter"",""1"",""3411""
","
","
","""event"",""trial"",""time""
""fullscreenenter"",""1"",""3411""
","
","","","-1","","","10","15347","2225","h","elianto","#f73b6a7A","-1","-1","1","0","[]","0","2","","","15347","32","3","4","lose","no-go","0"
"pit-trial","154","1205572","0.0-37.0","battery-v0.2","","""event"",""trial"",""time""
""fullscreenenter"",""1"",""3411""
","
","
","""event"",""trial"",""time""
""fullscreenenter"",""1"",""3411""
","
","","","-1","","","10","15347","2225","h","elianto","#f73b6a7A","-1","-1","1","-10","[]","0","2","","","15347","33","3","4","lose","no-go","1"
"pit-trial","155","1209005","0.0-38.0","battery-v0.2","","""event"",""trial"",""time""
""fullscreenenter"",""1"",""3411""
","
","
","""event"",""trial"",""time""
""fullscreenenter"",""1"",""3411""
","
","","","579.4000000357628","","","10","15347","2225","r","elianto","#3366ff99","-1"," ","0","+10","[1430.4000000357628]","1","2","","","15347","34","1","2","win","no-go","1"
"pit-trial","156","1213858","0.0-39.0","battery-v0.2","","""event"",""trial"",""time""
""fullscreenenter"",""1"",""3411""
","
","
","""event"",""trial"",""time""
""fullscreenenter"",""1"",""3411""
","
","","","-1","","","10","15347","2225","m","elianto","#f73b6a7A"," ","-1","0","-10","[]","0","2","","","15347","35","0","3","lose","go","0"
"pit-trial","157","1218711","0.0-40.0","battery-v0.2","","""event"",""trial"",""time""
""fullscreenenter"",""1"",""3411""
","
","
","""event"",""trial"",""time""
""fullscreenenter"",""1"",""3411""
","
","","","-1","","","10","15347","2225","y","elianto","#f73b6a7A"," ","-1","0","-10","[]","0","2","","","15347","36","2","3","lose","go","0"
"pit-trial","158","1223564","0.0-41.0","battery-v0.2","","""event"",""trial"",""time""
""fullscreenenter"",""1"",""3411""
","
","
","""event"",""trial"",""time""
""fullscreenenter"",""1"",""3411""
","
","","","-1","","","10","15347","2225","m","elianto","#f73b6a7A"," ","-1","0","-10","[]","0","2","","","15347","37","0","3","lose","go","0"
"pit-trial","159","1228417","0.0-42.0","battery-v0.2","","""event"",""trial"",""time""
""fullscreenenter"",""1"",""3411""
","
","
","""event"",""trial"",""time""
""fullscreenenter"",""1"",""3411""
","
","","","-1","","","10","15347","2225","y","elianto","#f73b6a7A"," ","-1","0","0","[]","0","2","","","15347","38","2","3","lose","go","1"
"pit-trial","160","1231812","0.0-43.0","battery-v0.2","","""event"",""trial"",""time""
""fullscreenenter"",""1"",""3411""
","
","
","""event"",""trial"",""time""
""fullscreenenter"",""1"",""3411""
","
","","","541.5","","","10","15347","2225","r","elianto","#3366ff99","-1"," ","0","0","[1393.3999999761581]","1","2","","","15347","39","1","2","win","no-go","0"
"pit-trial","161","1236665","0.0-44.0","battery-v0.2","","""event"",""trial"",""time""
""fullscreenenter"",""1"",""3411""
","
","
","""event"",""trial"",""time""
""fullscreenenter"",""1"",""3411""
","
","","","-1","","","10","15347","2225","h","elianto","#f73b6a7A","-1","-1","1","0","[]","0","2","","","15347","40","3","4","lose","no-go","0"
"pit-trial","162","1241518","0.0-45.0","battery-v0.2","","""event"",""trial"",""time""
""fullscreenenter"",""1"",""3411""
","
","
","""event"",""trial"",""time""
""fullscreenenter"",""1"",""3411""
","
","","","-1","","","10","15347","2225","y","elianto","#f73b6a7A"," ","-1","0","-10","[]","0","2","","","15347","41","2","3","lose","go","0"
"pit-trial","163","1246370","0.0-46.0","battery-v0.2","","""event"",""trial"",""time""
""fullscreenenter"",""1"",""3411""
","
","
","""event"",""trial"",""time""
""fullscreenenter"",""1"",""3411""
","
","","","-1","","","10","15347","2225","h","elianto","#f73b6a7A","-1","-1","1","-10","[]","0","2","","","15347","42","3","4","lose","no-go","1"
"pit-trial","164","1249825","0.0-47.0","battery-v0.2","","""event"",""trial"",""time""
""fullscreenenter"",""1"",""3411""
","
","
","""event"",""trial"",""time""
""fullscreenenter"",""1"",""3411""
","
","","","601","","","10","15347","2225","r","elianto","#3366ff99","-1"," ","0","+10","[1452.199999988079]","1","2","","","15347","43","1","2","win","no-go","1"
"pit-trial","165","1254677","0.0-48.0","battery-v0.2","","""event"",""trial"",""time""
""fullscreenenter"",""1"",""3411""
","
","
","""event"",""trial"",""time""
""fullscreenenter"",""1"",""3411""
","
","","","-1","","","10","15347","2225","m","elianto","#f73b6a7A"," ","-1","0","-10","[]","0","2","","","15347","44","0","3","lose","go","0"
"pit-trial","166","1258371","0.0-49.0","battery-v0.2","","""event"",""trial"",""time""
""fullscreenenter"",""1"",""3411""
","
","
","""event"",""trial"",""time""
""fullscreenenter"",""1"",""3411""
","
","","","840.3999999761581","","","10","15347","2225","r","elianto","#3366ff99","-1"," ","0","0","[1691.5]","1","2","","","15347","45","1","2","win","no-go","0"
"pit-trial","167","1263224","0.0-50.0","battery-v0.2","","""event"",""trial"",""time""
""fullscreenenter"",""1"",""3411""
","
","
","""event"",""trial"",""time""
""fullscreenenter"",""1"",""3411""
","
","","","-1","","","10","15347","2225","h","elianto","#f73b6a7A","-1","-1","1","-10","[]","0","2","","","15347","46","3","4","lose","no-go","1"
"pit-trial","168","1268077","0.0-51.0","battery-v0.2","","""event"",""trial"",""time""
""fullscreenenter"",""1"",""3411""
","
","
","""event"",""trial"",""time""
""fullscreenenter"",""1"",""3411""
","
","","","-1","","","10","15347","2225","y","elianto","#f73b6a7A"," ","-1","0","-10","[]","0","2","","","15347","47","2","3","lose","go","0"
"pit-trial","169","1272931","0.0-52.0","battery-v0.2","","""event"",""trial"",""time""
""fullscreenenter"",""1"",""3411""
","
","
","""event"",""trial"",""time""
""fullscreenenter"",""1"",""3411""
","
","","","-1","","","10","15347","2225","m","elianto","#f73b6a7A"," ","-1","0","-10","[]","0","2","","","15347","48","0","3","lose","go","0"
"pit-trial","170","1276391","0.0-53.0","battery-v0.2","","""event"",""trial"",""time""
""fullscreenenter"",""1"",""3411""
","
","
","""event"",""trial"",""time""
""fullscreenenter"",""1"",""3411""
","
","","","607.8999999761581","","","10","15347","2225","r","elianto","#3366ff99","-1"," ","0","0","[1458.8999999761581]","1","2","","","15347","49","1","2","win","no-go","0"
"pit-trial","171","1281243","0.0-54.0","battery-v0.2","","""event"",""trial"",""time""
""fullscreenenter"",""1"",""3411""
","
","
","""event"",""trial"",""time""
""fullscreenenter"",""1"",""3411""
","
","","","-1","","","10","15347","2225","y","elianto","#f73b6a7A"," ","-1","0","0","[]","0","2","","","15347","50","2","3","lose","go","1"
"pit-trial","172","1286096","0.0-55.0","battery-v0.2","","""event"",""trial"",""time""
""fullscreenenter"",""1"",""3411""
","
","
","""event"",""trial"",""time""
""fullscreenenter"",""1"",""3411""
","
","","","-1","","","10","15347","2225","h","elianto","#f73b6a7A","-1","-1","1","0","[]","0","2","","","15347","51","3","4","lose","no-go","0"
"pit-trial","173","1290949","0.0-56.0","battery-v0.2","","""event"",""trial"",""time""
""fullscreenenter"",""1"",""3411""
","
","
","""event"",""trial"",""time""
""fullscreenenter"",""1"",""3411""
","
","","","-1","","","10","15347","2225","m","elianto","#f73b6a7A"," ","-1","0","-10","[]","0","2","","","15347","52","0","3","lose","go","0"
"pit-trial","174","1295802","0.0-57.0","battery-v0.2","","""event"",""trial"",""time""
""fullscreenenter"",""1"",""3411""
","
","
","""event"",""trial"",""time""
""fullscreenenter"",""1"",""3411""
","
","","","-1","","","10","15347","2225","y","elianto","#f73b6a7A"," ","-1","0","-10","[]","0","2","","","15347","53","2","3","lose","go","0"
"pit-trial","175","1300656","0.0-58.0","battery-v0.2","","""event"",""trial"",""time""
""fullscreenenter"",""1"",""3411""
","
","
","""event"",""trial"",""time""
""fullscreenenter"",""1"",""3411""
","
","","","-1","","","10","15347","2225","h","elianto","#f73b6a7A","-1","-1","1","0","[]","0","2","","","15347","54","3","4","lose","no-go","0"
"pit-trial","176","1304199","0.0-59.0","battery-v0.2","","""event"",""trial"",""time""
""fullscreenenter"",""1"",""3411""
","
","
","""event"",""trial"",""time""
""fullscreenenter"",""1"",""3411""
","
","","","690.5","","","10","15347","2225","r","elianto","#3366ff99","-1"," ","0","0","[1540.6000000238419]","1","2","","","15347","55","1","2","win","no-go","0"
"pit-trial","177","1309051","0.0-60.0","battery-v0.2","","""event"",""trial"",""time""
""fullscreenenter"",""1"",""3411""
","
","
","""event"",""trial"",""time""
""fullscreenenter"",""1"",""3411""
","
","","","-1","","","10","15347","2225","m","elianto","#f73b6a7A"," ","-1","0","-10","[]","0","2","","","15347","56","0","3","lose","go","0"
"pit-trial","178","1313905","0.0-61.0","battery-v0.2","","""event"",""trial"",""time""
""fullscreenenter"",""1"",""3411""
","
","
","""event"",""trial"",""time""
""fullscreenenter"",""1"",""3411""
","
","","","-1","","","10","15347","2225","h","elianto","#f73b6a7A","-1","-1","1","0","[]","0","2","","","15347","57","3","4","lose","no-go","0"
"pit-trial","179","1318757","0.0-62.0","battery-v0.2","","""event"",""trial"",""time""
""fullscreenenter"",""1"",""3411""
","
","
","""event"",""trial"",""time""
""fullscreenenter"",""1"",""3411""
","
","","","-1","","","10","15347","2225","y","elianto","#f73b6a7A"," ","-1","0","0","[]","0","2","","","15347","58","2","3","lose","go","1"
"pit-trial","180","1323611","0.0-63.0","battery-v0.2","","""event"",""trial"",""time""
""fullscreenenter"",""1"",""3411""
","
","
","""event"",""trial"",""time""
""fullscreenenter"",""1"",""3411""
","
","","","-1","","","10","15347","2225","m","elianto","#f73b6a7A"," ","-1","0","0","[]","0","2","","","15347","59","0","3","lose","go","1"
"pit-trial","181","1327094","0.0-64.0","battery-v0.2","","""event"",""trial"",""time""
""fullscreenenter"",""1"",""3411""
","
","
","""event"",""trial"",""time""
""fullscreenenter"",""1"",""3411""
","
","","","629.5","","","10","15347","2225","z","elianto","#3366ff99"," "," ","1","+10","[1480.199999988079]","1","2","","","15347","60","4","1","win","go","0"
"pit-trial","182","1330681","0.0-65.0","battery-v0.2","","""event"",""trial"",""time""
""fullscreenenter"",""1"",""3411""
","
","
","""event"",""trial"",""time""
""fullscreenenter"",""1"",""3411""
","
","","","734.7000000476837","","","10","15347","2225","r","elianto","#3366ff99","-1"," ","0","0","[1584.9000000357628]","1","2","","","15347","61","1","2","win","no-go","0"
"pit-trial","183","1334238","0.0-66.0","battery-v0.2","","""event"",""trial"",""time""
""fullscreenenter"",""1"",""3411""
","
","
","""event"",""trial"",""time""
""fullscreenenter"",""1"",""3411""
","
","","","703.1999999880791","","","10","15347","2225","z","elianto","#3366ff99"," "," ","1","+10","[1553.800000011921]","1","2","","","15347","62","4","1","win","go","0"
"pit-trial","184","1339090","0.0-67.0","battery-v0.2","","""event"",""trial"",""time""
""fullscreenenter"",""1"",""3411""
","
","
","""event"",""trial"",""time""
""fullscreenenter"",""1"",""3411""
","
","","","-1","","","10","15347","2225","h","elianto","#f73b6a7A","-1","-1","1","0","[]","0","2","","","15347","63","3","4","lose","no-go","0"
"pit-trial","185","1343942","0.0-68.0","battery-v0.2","","""event"",""trial"",""time""
""fullscreenenter"",""1"",""3411""
","
","
","""event"",""trial"",""time""
""fullscreenenter"",""1"",""3411""
","
","","","-1","","","10","15347","2225","y","elianto","#f73b6a7A"," ","-1","0","-10","[]","0","2","","","15347","64","2","3","lose","go","0"
"pit-trial","186","1347564","0.0-69.0","battery-v0.2","","""event"",""trial"",""time""
""fullscreenenter"",""1"",""3411""
","
","
","""event"",""trial"",""time""
""fullscreenenter"",""1"",""3411""
","
","","","768.3000000119209","","","10","15347","2225","z","elianto","#3366ff99"," "," ","1","+10","[1619]","1","2","","","15347","65","4","1","win","go","0"
"pit-trial","187","1352418","0.0-70.0","battery-v0.2","","""event"",""trial"",""time""
""fullscreenenter"",""1"",""3411""
","
","
","""event"",""trial"",""time""
""fullscreenenter"",""1"",""3411""
","
","","","-1","","","10","15347","2225","h","elianto","#f73b6a7A","-1","-1","1","0","[]","0","2","","","15347","66","3","4","lose","no-go","0"
"pit-trial","188","1356157","0.0-71.0","battery-v0.2","","""event"",""trial"",""time""
""fullscreenenter"",""1"",""3411""
","
","
","""event"",""trial"",""time""
""fullscreenenter"",""1"",""3411""
","
","","","887.2999999523163","","","10","15347","2225","r","elianto","#3366ff99","-1"," ","0","0","[1737.6000000238419]","1","2","","","15347","67","1","2","win","no-go","0"
"pit-trial","189","1359813","0.0-72.0","battery-v0.2","","""event"",""trial"",""time""
""fullscreenenter"",""1"",""3411""
","
","
","""event"",""trial"",""time""
""fullscreenenter"",""1"",""3411""
","
","","","803.4000000357628","","","10","15347","2225","c","elianto","#3366ff99","-1"," ","0","+10","[1653.4000000357628]","1","2","","","15347","68","5","2","win","no-go","1"
"pit-trial","190","1363889","0.0-73.0","battery-v0.2","","""event"",""trial"",""time""
""fullscreenenter"",""1"",""3411""
","
","
","""event"",""trial"",""time""
""fullscreenenter"",""1"",""3411""
","
","","","1221.6000000238419","","","10","15347","2225","c","elianto","#3366ff99","-1"," ","0","+10","[2072.5]","1","2","","","15347","69","5","2","win","no-go","1"
"pit-trial","191","1367454","0.0-74.0","battery-v0.2","","""event"",""trial"",""time""
""fullscreenenter"",""1"",""3411""
","
","
","""event"",""trial"",""time""
""fullscreenenter"",""1"",""3411""
","
","","","712.7000000476837","","","10","15347","2225","r","elianto","#3366ff99","-1"," ","0","0","[1563.800000011921]","1","2","","","15347","70","1","2","win","no-go","0"
"pit-trial","192","1372308","0.0-75.0","battery-v0.2","","""event"",""trial"",""time""
""fullscreenenter"",""1"",""3411""
","
","
","""event"",""trial"",""time""
""fullscreenenter"",""1"",""3411""
","
","","","-1","","","10","15347","2225","y","elianto","#f73b6a7A"," ","-1","0","-10","[]","0","2","","","15347","71","2","3","lose","go","0"
"pit-trial","193","1376210","0.0-76.0","battery-v0.2","","""event"",""trial"",""time""
""fullscreenenter"",""1"",""3411""
","
","
","""event"",""trial"",""time""
""fullscreenenter"",""1"",""3411""
","
","","","1050.4000000357628","","","10","15347","2225","z","elianto","#3366ff99"," "," ","1","+10","[1900.6000000238419]","1","2","","","15347","72","4","1","win","go","0"
"pit-trial","194","1379757","0.0-77.0","battery-v0.2","","""event"",""trial"",""time""
""fullscreenenter"",""1"",""3411""
","
","
","""event"",""trial"",""time""
""fullscreenenter"",""1"",""3411""
","
","","","691.6999999880791","","","10","15347","2225","z","elianto","#3366ff99"," "," ","1","+10","[1544.199999988079]","1","2","","","15347","73","4","1","win","go","0"
"pit-trial","195","1384610","0.0-78.0","battery-v0.2","","""event"",""trial"",""time""
""fullscreenenter"",""1"",""3411""
","
","
","""event"",""trial"",""time""
""fullscreenenter"",""1"",""3411""
","
","","","-1","","","10","15347","2225","h","elianto","#f73b6a7A","-1","-1","1","-10","[]","0","2","","","15347","74","3","4","lose","no-go","1"
"pit-trial","196","1388098","0.0-79.0","battery-v0.2","","""event"",""trial"",""time""
""fullscreenenter"",""1"",""3411""
","
","
","""event"",""trial"",""time""
""fullscreenenter"",""1"",""3411""
","
","","","634.3999999761581","","","10","15347","2225","r","elianto","#3366ff99","-1"," ","0","+10","[1485.199999988079]","1","2","","","15347","75","1","2","win","no-go","1"
"pit-trial","197","1391532","0.0-80.0","battery-v0.2","","""event"",""trial"",""time""
""fullscreenenter"",""1"",""3411""
","
","
","""event"",""trial"",""time""
""fullscreenenter"",""1"",""3411""
","
","","","581.6000000238419","","","10","15347","2225","c","elianto","#3366ff99","-1"," ","0","+10","[1431.699999988079]","1","2","","","15347","76","5","2","win","no-go","1"
"pit-trial","198","1395255","0.0-81.0","battery-v0.2","","""event"",""trial"",""time""
""fullscreenenter"",""1"",""3411""
","
","
","""event"",""trial"",""time""
""fullscreenenter"",""1"",""3411""
","
","","","870.6000000238419","","","10","15347","2225","z","elianto","#3366ff99"," "," ","1","+10","[1721]","1","2","","","15347","77","4","1","win","go","0"
"pit-trial","199","1400108","0.0-82.0","battery-v0.2","","""event"",""trial"",""time""
""fullscreenenter"",""1"",""3411""
","
","
","""event"",""trial"",""time""
""fullscreenenter"",""1"",""3411""
","
","","","-1","","","10","15347","2225","h","elianto","#f73b6a7A","-1","-1","1","0","[]","0","2","","","15347","78","3","4","lose","no-go","0"
"pit-trial","200","1403673","0.0-83.0","battery-v0.2","","""event"",""trial"",""time""
""fullscreenenter"",""1"",""3411""
","
","
","""event"",""trial"",""time""
""fullscreenenter"",""1"",""3411""
","
","","","712.5","","","10","15347","2225","c","elianto","#3366ff99","-1"," ","0","0","[1562.6000000238419]","1","2","","","15347","79","5","2","win","no-go","0"
"pit-trial","201","1407277","0.0-84.0","battery-v0.2","","""event"",""trial"",""time""
""fullscreenenter"",""1"",""3411""
","
","
","""event"",""trial"",""time""
""fullscreenenter"",""1"",""3411""
","
","","","751.3999999761581","","","10","15347","2225","z","elianto","#3366ff99"," "," ","1","0","[1602.300000011921]","1","2","","","15347","80","4","1","win","go","1"
"pit-trial","202","1410695","0.0-85.0","battery-v0.2","","""event"",""trial"",""time""
""fullscreenenter"",""1"",""3411""
","
","
","""event"",""trial"",""time""
""fullscreenenter"",""1"",""3411""
","
","","","565.6999999880791","","","10","15347","2225","z","elianto","#3366ff99"," "," ","1","+10","[1416.3999999761581]","1","2","","","15347","81","4","1","win","go","0"
"pit-trial","203","1415549","0.0-86.0","battery-v0.2","","""event"",""trial"",""time""
""fullscreenenter"",""1"",""3411""
","
","
","""event"",""trial"",""time""
""fullscreenenter"",""1"",""3411""
","
","","","-1","","","10","15347","2225","t","elianto","#f73b6a7A","-1","-1","1","0","[]","0","2","","","15347","82","7","4","lose","no-go","0"
"pit-trial","204","1420402","0.0-87.0","battery-v0.2","","""event"",""trial"",""time""
""fullscreenenter"",""1"",""3411""
","
","
","""event"",""trial"",""time""
""fullscreenenter"",""1"",""3411""
","
","","","-1","","","10","15347","2225","h","elianto","#f73b6a7A","-1","-1","1","0","[]","0","2","","","15347","83","3","4","lose","no-go","0"
"pit-trial","205","1424065","0.0-88.0","battery-v0.2","","""event"",""trial"",""time""
""fullscreenenter"",""1"",""3411""
","
","
","""event"",""trial"",""time""
""fullscreenenter"",""1"",""3411""
","
","","","809","","","10","15347","2225","c","elianto","#3366ff99","-1"," ","0","0","[1659.9000000357628]","1","2","","","15347","84","5","2","win","no-go","0"
"pit-trial","206","1427562","0.0-89.0","battery-v0.2","","""event"",""trial"",""time""
""fullscreenenter"",""1"",""3411""
","
","
","""event"",""trial"",""time""
""fullscreenenter"",""1"",""3411""
","
","","","645","","","10","15347","2225","z","elianto","#3366ff99"," "," ","1","0","[1495.6000000238419]","1","2","","","15347","85","4","1","win","go","1"
"pit-trial","207","1432416","0.0-90.0","battery-v0.2","","""event"",""trial"",""time""
""fullscreenenter"",""1"",""3411""
","
","
","""event"",""trial"",""time""
""fullscreenenter"",""1"",""3411""
","
","","","-1","","","10","15347","2225","c","elianto","#3366ff99","-1","-1","1","+10","[3375.899999976158]","1","2","","","15347","86","5","2","win","no-go","0"
"pit-trial","208","1437268","0.0-91.0","battery-v0.2","","""event"",""trial"",""time""
""fullscreenenter"",""1"",""3411""
","
","
","""event"",""trial"",""time""
""fullscreenenter"",""1"",""3411""
","
","","","-1","","","10","15347","2225","t","elianto","#f73b6a7A","-1","-1","1","0","[]","0","2","","","15347","87","7","4","lose","no-go","0"
"pit-trial","209","1442122","0.0-92.0","battery-v0.2","","""event"",""trial"",""time""
""fullscreenenter"",""1"",""3411""
","
","
","""event"",""trial"",""time""
""fullscreenenter"",""1"",""3411""
","
","","","-1","","","10","15347","2225","b","elianto","#f73b6a7A"," ","-1","0","0","[]","0","2","","","15347","88","6","3","lose","go","1"
"pit-trial","210","1446975","0.0-93.0","battery-v0.2","","""event"",""trial"",""time""
""fullscreenenter"",""1"",""3411""
","
","
","""event"",""trial"",""time""
""fullscreenenter"",""1"",""3411""
","
","","","-1","","","10","15347","2225","b","elianto","#f73b6a7A"," ","-1","0","-10","[]","0","2","","","15347","89","6","3","lose","go","0"
"pit-trial","211","1451828","0.0-94.0","battery-v0.2","","""event"",""trial"",""time""
""fullscreenenter"",""1"",""3411""
","
","
","""event"",""trial"",""time""
""fullscreenenter"",""1"",""3411""
","
","","","-1","","","10","15347","2225","t","elianto","#f73b6a7A","-1","-1","1","0","[]","0","2","","","15347","90","7","4","lose","no-go","0"
"pit-trial","212","1455352","0.0-95.0","battery-v0.2","","""event"",""trial"",""time""
""fullscreenenter"",""1"",""3411""
","
","
","""event"",""trial"",""time""
""fullscreenenter"",""1"",""3411""
","
","","","670.8999999761581","","","10","15347","2225","c","elianto","#3366ff99","-1"," ","0","0","[1521.5999999642372]","1","2","","","15347","91","5","2","win","no-go","0"
"pit-trial","213","1459375","0.0-96.0","battery-v0.2","","""event"",""trial"",""time""
""fullscreenenter"",""1"",""3411""
","
","
","""event"",""trial"",""time""
""fullscreenenter"",""1"",""3411""
","
","","","1169.8999999761581","","","10","15347","2225","z","elianto","#3366ff99"," "," ","1","+10","[2020.6000000238419]","1","2","","","15347","92","4","1","win","go","0"
"pit-trial","214","1464228","0.0-97.0","battery-v0.2","","""event"",""trial"",""time""
""fullscreenenter"",""1"",""3411""
","
","
","""event"",""trial"",""time""
""fullscreenenter"",""1"",""3411""
","
","","","-1","","","10","15347","2225","b","elianto","#f73b6a7A"," ","-1","0","0","[]","0","2","","","15347","93","6","3","lose","go","1"
"pit-trial","215","1467879","0.0-98.0","battery-v0.2","","""event"",""trial"",""time""
""fullscreenenter"",""1"",""3411""
","
","
","""event"",""trial"",""time""
""fullscreenenter"",""1"",""3411""
","
","","","797.5999999642372","","","10","15347","2225","c","elianto","#3366ff99","-1"," ","0","+10","[1648.5999999642372]","1","2","","","15347","94","5","2","win","no-go","1"
"pit-trial","216","1471985","0.0-99.0","battery-v0.2","","""event"",""trial"",""time""
""fullscreenenter"",""1"",""3411""
","
","
","""event"",""trial"",""time""
""fullscreenenter"",""1"",""3411""
","
","","","1252.5","","","10","15347","2225","f","elianto","#3366ff99"," "," ","1","0","[2104.400000035763]","1","2","","","15347","95","8","1","win","go","1"
"pit-trial","217","1476838","0.0-100.0","battery-v0.2","","""event"",""trial"",""time""
""fullscreenenter"",""1"",""3411""
","
","
","""event"",""trial"",""time""
""fullscreenenter"",""1"",""3411""
","
","","","-1","","","10","15347","2225","t","elianto","#f73b6a7A","-1","-1","1","0","[]","0","2","","","15347","96","7","4","lose","no-go","0"
"pit-trial","218","1481692","0.0-101.0","battery-v0.2","","""event"",""trial"",""time""
""fullscreenenter"",""1"",""3411""
","
","
","""event"",""trial"",""time""
""fullscreenenter"",""1"",""3411""
","
","","","-1","","","10","15347","2225","t","elianto","#f73b6a7A","-1","-1","1","0","[]","0","2","","","15347","97","7","4","lose","no-go","0"
"pit-trial","219","1485657","0.0-102.0","battery-v0.2","","""event"",""trial"",""time""
""fullscreenenter"",""1"",""3411""
","
","
","""event"",""trial"",""time""
""fullscreenenter"",""1"",""3411""
","
","","","1111.199999988079","","","10","15347","2225","c","elianto","#3366ff99","-1"," ","0","0","[1962.800000011921]","1","2","","","15347","98","5","2","win","no-go","0"
"pit-trial","220","1490510","0.0-103.0","battery-v0.2","","""event"",""trial"",""time""
""fullscreenenter"",""1"",""3411""
","
","
","""event"",""trial"",""time""
""fullscreenenter"",""1"",""3411""
","
","","","-1","","","10","15347","2225","f","elianto","#3366ff99"," ","-1","0","+10","[3456]","1","2","","","15347","99","8","1","win","go","1"
"pit-trial","221","1495363","0.0-104.0","battery-v0.2","","""event"",""trial"",""time""
""fullscreenenter"",""1"",""3411""
","
","
","""event"",""trial"",""time""
""fullscreenenter"",""1"",""3411""
","
","","","-1","","","10","15347","2225","b","elianto","#f73b6a7A"," ","-1","0","-10","[]","0","2","","","15347","100","6","3","lose","go","0"
"pit-trial","222","1498887","0.0-105.0","battery-v0.2","","""event"",""trial"",""time""
""fullscreenenter"",""1"",""3411""
","
","
","""event"",""trial"",""time""
""fullscreenenter"",""1"",""3411""
","
","","","671","","","10","15347","2225","n","elianto","#3366ff99"," "," ","1","+10","[1521.6000000238419]","1","2","","","15347","101","9","1","win","go","0"
"pit-trial","223","1502793","0.0-106.0","battery-v0.2","","""event"",""trial"",""time""
""fullscreenenter"",""1"",""3411""
","
","
","""event"",""trial"",""time""
""fullscreenenter"",""1"",""3411""
","
","","","1052.800000011921","","","10","15347","2225","c","elianto","#3366ff99","-1"," ","0","0","[1903.699999988079]","1","2","","","15347","102","5","2","win","no-go","0"
"pit-trial","224","1506167","0.0-107.0","battery-v0.2","","""event"",""trial"",""time""
""fullscreenenter"",""1"",""3411""
","
","
","""event"",""trial"",""time""
""fullscreenenter"",""1"",""3411""
","
","","","520.8999999761581","","","10","15347","2225","t","elianto","#f73b6a7A","-1"," ","0","-10","[1371.800000011921]","1","2","","","15347","103","7","4","lose","no-go","0"
"pit-trial","225","1509821","0.0-108.0","battery-v0.2","","""event"",""trial"",""time""
""fullscreenenter"",""1"",""3411""
","
","
","""event"",""trial"",""time""
""fullscreenenter"",""1"",""3411""
","
","","","800.5","","","10","15347","2225","f","elianto","#3366ff99"," "," ","1","+10","[1650.800000011921]","1","2","","","15347","104","8","1","win","go","0"
"pit-trial","226","1513365","0.0-109.0","battery-v0.2","","""event"",""trial"",""time""
""fullscreenenter"",""1"",""3411""
","
","
","""event"",""trial"",""time""
""fullscreenenter"",""1"",""3411""
","
","","","691.8999999761581","","","10","15347","2225","f","elianto","#3366ff99"," "," ","1","+10","[1542.199999988079]","1","2","","","15347","105","8","1","win","go","0"
"pit-trial","227","1516904","0.0-110.0","battery-v0.2","","""event"",""trial"",""time""
""fullscreenenter"",""1"",""3411""
","
","
","""event"",""trial"",""time""
""fullscreenenter"",""1"",""3411""
","
","","","687","","","10","15347","2225","z","elianto","#3366ff99"," "," ","1","+10","[1537.2000000476837]","1","2","","","15347","106","4","1","win","go","0"
"pit-trial","228","1521758","0.0-111.0","battery-v0.2","","""event"",""trial"",""time""
""fullscreenenter"",""1"",""3411""
","
","
","""event"",""trial"",""time""
""fullscreenenter"",""1"",""3411""
","
","","","-1","","","10","15347","2225","b","elianto","#f73b6a7A"," ","-1","0","-10","[]","0","2","","","15347","107","6","3","lose","go","0"
"pit-trial","229","1525199","0.0-112.0","battery-v0.2","","""event"",""trial"",""time""
""fullscreenenter"",""1"",""3411""
","
","
","""event"",""trial"",""time""
""fullscreenenter"",""1"",""3411""
","
","","","587.3000000119209","","","10","15347","2225","n","elianto","#3366ff99"," "," ","1","+10","[1438.5999999642372]","1","2","","","15347","108","9","1","win","go","0"
"pit-trial","230","1528919","0.0-113.0","battery-v0.2","","""event"",""trial"",""time""
""fullscreenenter"",""1"",""3411""
","
","
","""event"",""trial"",""time""
""fullscreenenter"",""1"",""3411""
","
","","","866.6000000238419","","","10","15347","2225","n","elianto","#3366ff99"," "," ","1","0","[1717.4000000357628]","1","2","","","15347","109","9","1","win","go","1"
"pit-trial","231","1532563","0.0-114.0","battery-v0.2","","""event"",""trial"",""time""
""fullscreenenter"",""1"",""3411""
","
","
","""event"",""trial"",""time""
""fullscreenenter"",""1"",""3411""
","
","","","789.6999999880791","","","10","15347","2225","f","elianto","#3366ff99"," "," ","1","0","[1641.699999988079]","1","2","","","15347","110","8","1","win","go","1"
"pit-trial","232","1536416","0.0-115.0","battery-v0.2","","""event"",""trial"",""time""
""fullscreenenter"",""1"",""3411""
","
","
","""event"",""trial"",""time""
""fullscreenenter"",""1"",""3411""
","
","","","999.1000000238419","","","10","15347","2225","c","elianto","#3366ff99","-1"," ","0","0","[1850.8999999761581]","1","2","","","15347","111","5","2","win","no-go","0"
"pit-trial","233","1541269","0.0-116.0","battery-v0.2","","""event"",""trial"",""time""
""fullscreenenter"",""1"",""3411""
","
","
","""event"",""trial"",""time""
""fullscreenenter"",""1"",""3411""
","
","","","-1","","","10","15347","2225","b","elianto","#f73b6a7A"," ","-1","0","-10","[]","0","2","","","15347","112","6","3","lose","go","0"
"pit-trial","234","1544681","0.0-117.0","battery-v0.2","","""event"",""trial"",""time""
""fullscreenenter"",""1"",""3411""
","
","
","""event"",""trial"",""time""
""fullscreenenter"",""1"",""3411""
","
","","","558","","","10","15347","2225","n","elianto","#3366ff99"," "," ","1","+10","[1408.800000011921]","1","2","","","15347","113","9","1","win","go","0"
"pit-trial","235","1548325","0.0-118.0","battery-v0.2","","""event"",""trial"",""time""
""fullscreenenter"",""1"",""3411""
","
","
","""event"",""trial"",""time""
""fullscreenenter"",""1"",""3411""
","
","","","792","","","10","15347","2225","f","elianto","#3366ff99"," "," ","1","+10","[1642.3999999761581]","1","2","","","15347","114","8","1","win","go","0"
"pit-trial","236","1553178","0.0-119.0","battery-v0.2","","""event"",""trial"",""time""
""fullscreenenter"",""1"",""3411""
","
","
","""event"",""trial"",""time""
""fullscreenenter"",""1"",""3411""
","
","","","-1","","","10","15347","2225","b","elianto","#f73b6a7A"," ","-1","0","-10","[]","0","2","","","15347","115","6","3","lose","go","0"
"pit-trial","237","1556704","0.0-120.0","battery-v0.2","","""event"",""trial"",""time""
""fullscreenenter"",""1"",""3411""
","
","
","""event"",""trial"",""time""
""fullscreenenter"",""1"",""3411""
","
","","","673.5","","","10","15347","2225","c","elianto","#3366ff99","-1"," ","0","0","[1523.699999988079]","1","2","","","15347","116","5","2","win","no-go","0"
"pit-trial","238","1561557","0.0-121.0","battery-v0.2","","""event"",""trial"",""time""
""fullscreenenter"",""1"",""3411""
","
","
","""event"",""trial"",""time""
""fullscreenenter"",""1"",""3411""
","
","","","-1","","","10","15347","2225","b","elianto","#f73b6a7A"," ","-1","0","-10","[]","0","2","","","15347","117","6","3","lose","go","0"
"pit-trial","239","1565146","0.0-122.0","battery-v0.2","","""event"",""trial"",""time""
""fullscreenenter"",""1"",""3411""
","
","
","""event"",""trial"",""time""
""fullscreenenter"",""1"",""3411""
","
","","","736","","","10","15347","2225","f","elianto","#3366ff99"," "," ","1","+10","[1586.300000011921]","1","2","","","15347","118","8","1","win","go","0"
"pit-trial","240","1568864","0.0-123.0","battery-v0.2","","""event"",""trial"",""time""
""fullscreenenter"",""1"",""3411""
","
","
","""event"",""trial"",""time""
""fullscreenenter"",""1"",""3411""
","
","","","865.5","","","10","15347","2225","c","elianto","#3366ff99","-1"," ","0","+10","[1715.699999988079]","1","2","","","15347","119","5","2","win","no-go","1"
"pit-trial","241","1573534","0.0-124.0","battery-v0.2","","""event"",""trial"",""time""
""fullscreenenter"",""1"",""3411""
","
","
","""event"",""trial"",""time""
""fullscreenenter"",""1"",""3411""
","
","","","1817.5","","","10","15347","2225","n","elianto","#3366ff99"," "," ","1","0","[2668]","1","2","","","15347","120","9","1","win","go","1"
"pit-trial","242","1577062","0.0-125.0","battery-v0.2","","""event"",""trial"",""time""
""fullscreenenter"",""1"",""3411""
","
","
","""event"",""trial"",""time""
""fullscreenenter"",""1"",""3411""
","
","","","675","","","10","15347","2225","n","elianto","#3366ff99"," "," ","1","0","[1525.5]","1","2","","","15347","121","9","1","win","go","1"
"pit-trial","243","1580467","0.0-126.0","battery-v0.2","","""event"",""trial"",""time""
""fullscreenenter"",""1"",""3411""
","
","
","""event"",""trial"",""time""
""fullscreenenter"",""1"",""3411""
","
","","","552.2999999523163","","","10","15347","2225","f","elianto","#3366ff99"," "," ","1","+10","[1402.5]","1","2","","","15347","122","8","1","win","go","0"
"pit-trial","244","1585320","0.0-127.0","battery-v0.2","","""event"",""trial"",""time""
""fullscreenenter"",""1"",""3411""
","
","
","""event"",""trial"",""time""
""fullscreenenter"",""1"",""3411""
","
","","","-1","","","10","15347","2225","t","elianto","#f73b6a7A","-1","-1","1","0","[]","0","2","","","15347","123","7","4","lose","no-go","0"
"pit-trial","245","1590173","0.0-128.0","battery-v0.2","","""event"",""trial"",""time""
""fullscreenenter"",""1"",""3411""
","
","
","""event"",""trial"",""time""
""fullscreenenter"",""1"",""3411""
","
","","","-1","","","10","15347","2225","b","elianto","#f73b6a7A"," ","-1","0","-10","[]","0","2","","","15347","124","6","3","lose","go","0"
"pit-trial","246","1593899","0.0-129.0","battery-v0.2","","""event"",""trial"",""time""
""fullscreenenter"",""1"",""3411""
","
","
","""event"",""trial"",""time""
""fullscreenenter"",""1"",""3411""
","
","","","873.1999999880791","","","10","15347","2225","f","elianto","#3366ff99"," "," ","1","+10","[1723.3999999761581]","1","2","","","15347","125","8","1","win","go","0"
"pit-trial","247","1598753","0.0-130.0","battery-v0.2","","""event"",""trial"",""time""
""fullscreenenter"",""1"",""3411""
","
","
","""event"",""trial"",""time""
""fullscreenenter"",""1"",""3411""
","
","","","-1","","","10","15347","2225","t","elianto","#f73b6a7A","-1","-1","1","0","[]","0","2","","","15347","126","7","4","lose","no-go","0"
"pit-trial","248","1602213","0.0-131.0","battery-v0.2","","""event"",""trial"",""time""
""fullscreenenter"",""1"",""3411""
","
","
","""event"",""trial"",""time""
""fullscreenenter"",""1"",""3411""
","
","","","607.2999999523163","","","10","15347","2225","n","elianto","#3366ff99"," "," ","1","0","[1457.699999988079]","1","2","","","15347","127","9","1","win","go","1"
"pit-trial","249","1607065","0.0-132.0","battery-v0.2","","""event"",""trial"",""time""
""fullscreenenter"",""1"",""3411""
","
","
","""event"",""trial"",""time""
""fullscreenenter"",""1"",""3411""
","
","","","-1","","","10","15347","2225","b","elianto","#f73b6a7A"," ","-1","0","0","[]","0","2","","","15347","128","6","3","lose","go","1"
"pit-trial","250","1611138","0.0-133.0","battery-v0.2","","""event"",""trial"",""time""
""fullscreenenter"",""1"",""3411""
","
","
","""event"",""trial"",""time""
""fullscreenenter"",""1"",""3411""
","
","","","1219.699999988079","","","10","15347","2225","f","elianto","#3366ff99"," "," ","1","+10","[2070.399999976158]","1","2","","","15347","129","8","1","win","go","0"
"pit-trial","251","1615991","0.0-134.0","battery-v0.2","","""event"",""trial"",""time""
""fullscreenenter"",""1"",""3411""
","
","
","""event"",""trial"",""time""
""fullscreenenter"",""1"",""3411""
","
","","","-1","","","10","15347","2225","t","elianto","#f73b6a7A","-1","-1","1","-10","[]","0","2","","","15347","130","7","4","lose","no-go","1"
"pit-trial","252","1619455","0.0-135.0","battery-v0.2","","""event"",""trial"",""time""
""fullscreenenter"",""1"",""3411""
","
","
","""event"",""trial"",""time""
""fullscreenenter"",""1"",""3411""
","
","","","610.8999999761581","","","10","15347","2225","n","elianto","#3366ff99"," "," ","1","+10","[1461.5]","1","2","","","15347","131","9","1","win","go","0"
"pit-trial","253","1624307","0.0-136.0","battery-v0.2","","""event"",""trial"",""time""
""fullscreenenter"",""1"",""3411""
","
","
","""event"",""trial"",""time""
""fullscreenenter"",""1"",""3411""
","
","","","-1","","","10","15347","2225","b","elianto","#f73b6a7A"," ","-1","0","0","[]","0","2","","","15347","132","6","3","lose","go","1"
"pit-trial","254","1627927","0.0-137.0","battery-v0.2","","""event"",""trial"",""time""
""fullscreenenter"",""1"",""3411""
","
","
","""event"",""trial"",""time""
""fullscreenenter"",""1"",""3411""
","
","","","766.6000000238419","","","10","15347","2225","n","elianto","#3366ff99"," "," ","1","+10","[1617.5]","1","2","","","15347","133","9","1","win","go","0"
"pit-trial","255","1632780","0.0-138.0","battery-v0.2","","""event"",""trial"",""time""
""fullscreenenter"",""1"",""3411""
","
","
","""event"",""trial"",""time""
""fullscreenenter"",""1"",""3411""
","
","","","-1","","","10","15347","2225","b","elianto","#f73b6a7A"," ","-1","0","-10","[]","0","2","","","15347","134","6","3","lose","go","0"
"pit-trial","256","1637632","0.0-139.0","battery-v0.2","","""event"",""trial"",""time""
""fullscreenenter"",""1"",""3411""
","
","
","""event"",""trial"",""time""
""fullscreenenter"",""1"",""3411""
","
","","","-1","","","10","15347","2225","t","elianto","#f73b6a7A","-1","-1","1","0","[]","0","2","","","15347","135","7","4","lose","no-go","0"
"pit-trial","257","1641108","0.0-140.0","battery-v0.2","","""event"",""trial"",""time""
""fullscreenenter"",""1"",""3411""
","
","
","""event"",""trial"",""time""
""fullscreenenter"",""1"",""3411""
","
","","","623.8000000119209","","","10","15347","2225","f","elianto","#3366ff99"," "," ","1","+10","[1474.800000011921]","1","2","","","15347","136","8","1","win","go","0"
"pit-trial","258","1645210","0.0-141.0","battery-v0.2","","""event"",""trial"",""time""
""fullscreenenter"",""1"",""3411""
","
","
","""event"",""trial"",""time""
""fullscreenenter"",""1"",""3411""
","
","","","1249.1000000238419","","","10","15347","2225","f","elianto","#3366ff99"," "," ","1","+10","[2099.399999976158]","1","2","","","15347","137","8","1","win","go","0"
"pit-trial","259","1650062","0.0-142.0","battery-v0.2","","""event"",""trial"",""time""
""fullscreenenter"",""1"",""3411""
","
","
","""event"",""trial"",""time""
""fullscreenenter"",""1"",""3411""
","
","","","-1","","","10","15347","2225","t","elianto","#f73b6a7A","-1","-1","1","0","[]","0","2","","","15347","138","7","4","lose","no-go","0"
"pit-trial","260","1654915","0.0-143.0","battery-v0.2","","""event"",""trial"",""time""
""fullscreenenter"",""1"",""3411""
","
","
","""event"",""trial"",""time""
""fullscreenenter"",""1"",""3411""
","
","","","-1","","","10","15347","2225","b","elianto","#f73b6a7A"," ","-1","0","-10","[]","0","2","","","15347","139","6","3","lose","go","0"
"pit-trial","261","1658426","0.0-144.0","battery-v0.2","","""event"",""trial"",""time""
""fullscreenenter"",""1"",""3411""
","
","
","""event"",""trial"",""time""
""fullscreenenter"",""1"",""3411""
","
","","","658.1000000238419","","","10","15347","2225","n","elianto","#3366ff99"," "," ","1","+10","[1508.4000000357628]","1","2","","","15347","140","9","1","win","go","0"
"pit-instructions","262","1809880","0.0-145.0","battery-v0.2","","""event"",""trial"",""time""
""fullscreenenter"",""1"",""3411""
","
","
","""event"",""trial"",""time""
""fullscreenenter"",""1"",""3411""
","
","","[{""page_index"":0,""viewing_time"":142913.10000002384},{""page_index"":1,""viewing_time"":8539.5}]","151452.90000003576","","","","","","","","","","","","","","","","","","","","","","","",""
"pit-trial","263","1813745","0.0-146.0","battery-v0.2","","""event"",""trial"",""time""
""fullscreenenter"",""1"",""3411""
","
","
","""event"",""trial"",""time""
""fullscreenenter"",""1"",""3411""
","
","","","991.6999999880791","","","10","15347","2225","l","elianto","#3366ff99"," "," ","1","+10","[1845.1000000238419]","1","3","","","15347","141","1","1","win","go","0"
"pit-trial","264","1817764","0.0-147.0","battery-v0.2","","""event"",""trial"",""time""
""fullscreenenter"",""1"",""3411""
","
","
","""event"",""trial"",""time""
""fullscreenenter"",""1"",""3411""
","
","","","1161.4000000357628","","","10","15347","2225","a","elianto","#f73b6a7A","-1"," ","0","-10","[2011.800000011921]","1","3","","","15347","142","2","4","lose","no-go","0"
"pit-trial","265","1822626","0.0-148.0","battery-v0.2","","""event"",""trial"",""time""
""fullscreenenter"",""1"",""3411""
","
","
","""event"",""trial"",""time""
""fullscreenenter"",""1"",""3411""
","
","","","-1","","","10","15347","2225","g","elianto","#f73b6a7A"," ","-1","0","-10","[]","0","3","","","15347","143","3","3","lose","go","0"
"pit-trial","266","1826891","0.0-149.0","battery-v0.2","","""event"",""trial"",""time""
""fullscreenenter"",""1"",""3411""
","
","
","""event"",""trial"",""time""
""fullscreenenter"",""1"",""3411""
","
","","","1407.300000011921","","","10","15347","2225","u","elianto","#f73b6a7A","-1"," ","0","-10","[2260.800000011921]","1","3","","","15347","144","0","4","lose","no-go","0"
