"trial_type","trial_index","time_elapsed","internal_node_id","task_version","subject_id","interactions","blur_events","focus_events","fullscreenenter_events","fullscreenexit_events","success","view_history","rt","responses","num_errors","age","subject","participantId","rune","rune_set","hex","correct","choice","accuracy","outcome","keys","total_keys","block","practice","value","sub","trial","stimulus","robot","valence","action","sham"
"pavlovia","0","7","0.0-0.0","battery-v0.2","","""event"",""trial"",""time""
""fullscreenenter"",""1"",""1703""
","
","
","""event"",""trial"",""time""
""fullscreenenter"",""1"",""1703""
","
","","","","","","","","","","","","","","","","","","","","","","","","","","",""
"fullscreen","1","2703","0.0-1.0","battery-v0.2","","""event"",""trial"",""time""
""fullscreenenter"",""1"",""1703""
","
","
","""event"",""trial"",""time""
""fullscreenenter"",""1"",""1703""
","
","true","","","","","","","","","","","","","","","","","","","","","","","","","",""
"pit-instructions","2","7558","0.0-2.0-0.0","battery-v0.2","","""event"",""trial"",""time""
""fullscreenenter"",""1"",""1703""
","
","
","""event"",""trial"",""time""
""fullscreenenter"",""1"",""1703""
","
","","[{""page_index"":0,""viewing_time"":4852.300000071526}]","4852.899999976158","","","","","","","","","","","","","","","","","","","","","","","",""
"pit-comprehension","3","11242","0.0-2.0-1.0-0.0","battery-v0.2","","""event"",""trial"",""time""
""fullscreenenter"",""1"",""1703""
","
","
","""event"",""trial"",""time""
""fullscreenenter"",""1"",""1703""
","
","","","3680.399999976158","[""shark""]","0","13","6144","727","","","","","","","","","","","","","","","","","","",""
"pit-instructions","4","12441","0.0-2.0-1.0-1.0","battery-v0.2","","""event"",""trial"",""time""
""fullscreenenter"",""1"",""1703""
","
","
","""event"",""trial"",""time""
""fullscreenenter"",""1"",""1703""
","
","","[{""page_index"":0,""viewing_time"":1193.2000000476837}]","1193.5","","","","","","","","","","","","","","","","","","","","","","","",""
"pit-comprehension","5","16192","0.0-2.0-2.0-0.0","battery-v0.2","","""event"",""trial"",""time""
""fullscreenenter"",""1"",""1703""
","
","
","""event"",""trial"",""time""
""fullscreenenter"",""1"",""1703""
","
","","","3747.2000000476837","[""tiger""]","0","13","6144","727","","","","","","","","","","","","","","","","","","",""
"pit-instructions","6","17025","0.0-2.0-2.0-1.0","battery-v0.2","","""event"",""trial"",""time""
""fullscreenenter"",""1"",""1703""
""blur"",""7"",""47253""
""focus"",""7"",""50343""
""blur"",""7"",""103589""
""focus"",""7"",""104275""
","""event"",""trial"",""time""
""blur"",""7"",""47253""
""blur"",""7"",""103589""
","""event"",""trial"",""time""
""focus"",""7"",""50343""
""focus"",""7"",""104275""
","""event"",""trial"",""time""
""fullscreenenter"",""1"",""1703""
","
","","[{""page_index"":0,""viewing_time"":829.7000000476837}]","830.1000000238419","","","","","","","","","","","","","","","","","","","","","","","",""
"pit-instructions","7","123290","0.0-2.0-3.0","battery-v0.2","","""event"",""trial"",""time""
""fullscreenenter"",""1"",""1703""
""blur"",""7"",""47253""
""focus"",""7"",""50343""
""blur"",""7"",""103589""
""focus"",""7"",""104275""
","""event"",""trial"",""time""
""blur"",""7"",""47253""
""blur"",""7"",""103589""
","""event"",""trial"",""time""
""focus"",""7"",""50343""
""focus"",""7"",""104275""
","""event"",""trial"",""time""
""fullscreenenter"",""1"",""1703""
","
","","[{""page_index"":0,""viewing_time"":8280.399999976158},{""page_index"":1,""viewing_time"":6583.300000071526},{""page_index"":2,""viewing_time"":6484.199999928474},{""page_index"":3,""viewing_time"":8999.399999976158},{""page_index"":4,""viewing_time"":7466.300000071526},{""page_index"":5,""viewing_time"":7483.399999976158},{""page_index"":6,""viewing_time"":11050.899999976158},{""page_index"":7,""viewing_time"":8249.300000071526},{""page_index"":8,""viewing_time"":7567.799999952316},{""page_index"":9,""viewing_time"":7098.899999976158},{""page_index"":10,""viewing_time"":7317.100000023842},{""page_index"":11,""viewing_time"":8099.600000023842},{""page_index"":12,""viewing_time"":6284},{""page_index"":13,""viewing_time"":5299.799999952316}]","106265","","","","","","","","","","","","","","","","","","","","","","","",""
"pit-trial","8","126753","0.0-2.0-4.0-0.0","battery-v0.2","","""event"",""trial"",""time""
""fullscreenenter"",""1"",""1703""
""blur"",""7"",""47253""
""focus"",""7"",""50343""
""blur"",""7"",""103589""
""focus"",""7"",""104275""
","""event"",""trial"",""time""
""blur"",""7"",""47253""
""blur"",""7"",""103589""
","""event"",""trial"",""time""
""focus"",""7"",""50343""
""focus"",""7"",""104275""
","""event"",""trial"",""time""
""fullscreenenter"",""1"",""1703""
","
","","","603.6000000238419","","","13","6144","727","&#9784;","elianto","#FFFFF080"," "," ","1","&#10004","[1455.2000000476837]","1","0","0","","","","","","","",""
"pit-trial","9","130292","0.0-2.0-4.1-0.1","battery-v0.2","","""event"",""trial"",""time""
""fullscreenenter"",""1"",""1703""
""blur"",""7"",""47253""
""focus"",""7"",""50343""
""blur"",""7"",""103589""
""focus"",""7"",""104275""
","""event"",""trial"",""time""
""blur"",""7"",""47253""
""blur"",""7"",""103589""
","""event"",""trial"",""time""
""focus"",""7"",""50343""
""focus"",""7"",""104275""
","""event"",""trial"",""time""
""fullscreenenter"",""1"",""1703""
","
","","","678","","","13","6144","727","&#9784;","elianto","#FFFFF080"," "," ","1","&#10004","[1530.5999999046326]","1","0","0","","","","","","","",""
"pit-trial","10","133848","0.0-2.0-4.2-0.2","battery-v0.2","","""event"",""trial"",""time""
""fullscreenenter"",""1"",""1703""
""blur"",""7"",""47253""
""focus"",""7"",""50343""
""blur"",""7"",""103589""
""focus"",""7"",""104275""
","""event"",""trial"",""time""
""blur"",""7"",""47253""
""blur"",""7"",""103589""
","""event"",""trial"",""time""
""focus"",""7"",""50343""
""focus"",""7"",""104275""
","""event"",""trial"",""time""
""fullscreenenter"",""1"",""1703""
","
","","","694","","","13","6144","727","&#9784;","elianto","#FFFFF080"," "," ","1","&#10004","[1550.7999999523163]","1","0","0","","","","","","","",""
"pit-trial","11","137304","0.0-2.0-4.3-0.3","battery-v0.2","","""event"",""trial"",""time""
""fullscreenenter"",""1"",""1703""
""blur"",""7"",""47253""
""focus"",""7"",""50343""
""blur"",""7"",""103589""
""focus"",""7"",""104275""
","""event"",""trial"",""time""
""blur"",""7"",""47253""
""blur"",""7"",""103589""
","""event"",""trial"",""time""
""focus"",""7"",""50343""
""focus"",""7"",""104275""
","""event"",""trial"",""time""
""fullscreenenter"",""1"",""1703""
","
","","","599.1000000238419","","","13","6144","727","&#9784;","elianto","#FFFFF080"," "," ","1","&#10004","[1450.6999999284744]","1","0","0","","","","","","","",""
"pit-trial","12","140892","0.0-2.0-4.4-0.4","battery-v0.2","","""event"",""trial"",""time""
""fullscreenenter"",""1"",""1703""
""blur"",""7"",""47253""
""focus"",""7"",""50343""
""blur"",""7"",""103589""
""focus"",""7"",""104275""
","""event"",""trial"",""time""
""blur"",""7"",""47253""
""blur"",""7"",""103589""
","""event"",""trial"",""time""
""focus"",""7"",""50343""
""focus"",""7"",""104275""
","""event"",""trial"",""time""
""fullscreenenter"",""1"",""1703""
","
","","","721.7999999523163","","","13","6144","727","&#9784;","elianto","#FFFFF080"," "," ","1","&#10004","[1576]","1","0","0","","","","","","","",""
"pit-instructions","13","164222","0.0-2.0-5.0","battery-v0.2","","""event"",""trial"",""time""
""fullscreenenter"",""1"",""1703""
""blur"",""7"",""47253""
""focus"",""7"",""50343""
""blur"",""7"",""103589""
""focus"",""7"",""104275""
","""event"",""trial"",""time""
""blur"",""7"",""47253""
""blur"",""7"",""103589""
","""event"",""trial"",""time""
""focus"",""7"",""50343""
""focus"",""7"",""104275""
","""event"",""trial"",""time""
""fullscreenenter"",""1"",""1703""
","
","","[{""page_index"":0,""viewing_time"":6394.5},{""page_index"":1,""viewing_time"":5133.600000023842},{""page_index"":2,""viewing_time"":5016.799999952316},{""page_index"":3,""viewing_time"":6783.200000047684}]","23328.600000023842","","","","","","","","","","","","","","","","","","","","","","","",""
"pit-trial","14","169091","0.0-2.0-6.0-0.0","battery-v0.2","","""event"",""trial"",""time""
""fullscreenenter"",""1"",""1703""
""blur"",""7"",""47253""
""focus"",""7"",""50343""
""blur"",""7"",""103589""
""focus"",""7"",""104275""
","""event"",""trial"",""time""
""blur"",""7"",""47253""
""blur"",""7"",""103589""
","""event"",""trial"",""time""
""focus"",""7"",""50343""
""focus"",""7"",""104275""
","""event"",""trial"",""time""
""fullscreenenter"",""1"",""1703""
","
","","","-1","","","13","6144","727","&#9854;","elianto","#FFFFF080","-1","-1","1","&#10004","[]","0","0","1","","","","","","","",""
"pit-trial","15","173959","0.0-2.0-6.1-0.1","battery-v0.2","","""event"",""trial"",""time""
""fullscreenenter"",""1"",""1703""
""blur"",""7"",""47253""
""focus"",""7"",""50343""
""blur"",""7"",""103589""
""focus"",""7"",""104275""
","""event"",""trial"",""time""
""blur"",""7"",""47253""
""blur"",""7"",""103589""
","""event"",""trial"",""time""
""focus"",""7"",""50343""
""focus"",""7"",""104275""
","""event"",""trial"",""time""
""fullscreenenter"",""1"",""1703""
","
","","","-1","","","13","6144","727","&#9854;","elianto","#FFFFF080","-1","-1","1","&#10004","[]","0","0","1","","","","","","","",""
"pit-trial","16","178827","0.0-2.0-6.2-0.2","battery-v0.2","","""event"",""trial"",""time""
""fullscreenenter"",""1"",""1703""
""blur"",""7"",""47253""
""focus"",""7"",""50343""
""blur"",""7"",""103589""
""focus"",""7"",""104275""
","""event"",""trial"",""time""
""blur"",""7"",""47253""
""blur"",""7"",""103589""
","""event"",""trial"",""time""
""focus"",""7"",""50343""
""focus"",""7"",""104275""
","""event"",""trial"",""time""
""fullscreenenter"",""1"",""1703""
","
","","","-1","","","13","6144","727","&#9854;","elianto","#FFFFF080","-1","-1","1","&#10004","[]","0","0","1","","","","","","","",""
"pit-trial","17","183699","0.0-2.0-6.3-0.3","battery-v0.2","","""event"",""trial"",""time""
""fullscreenenter"",""1"",""1703""
""blur"",""7"",""47253""
""focus"",""7"",""50343""
""blur"",""7"",""103589""
""focus"",""7"",""104275""
","""event"",""trial"",""time""
""blur"",""7"",""47253""
""blur"",""7"",""103589""
","""event"",""trial"",""time""
""focus"",""7"",""50343""
""focus"",""7"",""104275""
","""event"",""trial"",""time""
""fullscreenenter"",""1"",""1703""
","
","","","-1","","","13","6144","727","&#9854;","elianto","#FFFFF080","-1","-1","1","&#10004","[]","0","0","1","","","","","","","",""
"pit-trial","18","188567","0.0-2.0-6.4-0.4","battery-v0.2","","""event"",""trial"",""time""
""fullscreenenter"",""1"",""1703""
""blur"",""7"",""47253""
""focus"",""7"",""50343""
""blur"",""7"",""103589""
""focus"",""7"",""104275""
","""event"",""trial"",""time""
""blur"",""7"",""47253""
""blur"",""7"",""103589""
","""event"",""trial"",""time""
""focus"",""7"",""50343""
""focus"",""7"",""104275""
","""event"",""trial"",""time""
""fullscreenenter"",""1"",""1703""
","
","","","-1","","","13","6144","727","&#9854;","elianto","#FFFFF080","-1","-1","1","&#10004","[]","0","0","1","","","","","","","",""
"pit-instructions","19","326602","0.0-2.0-7.0","battery-v0.2","","""event"",""trial"",""time""
""fullscreenenter"",""1"",""1703""
""blur"",""7"",""47253""
""focus"",""7"",""50343""
""blur"",""7"",""103589""
""focus"",""7"",""104275""
","""event"",""trial"",""time""
""blur"",""7"",""47253""
""blur"",""7"",""103589""
","""event"",""trial"",""time""
""focus"",""7"",""50343""
""focus"",""7"",""104275""
","""event"",""trial"",""time""
""fullscreenenter"",""1"",""1703""
","
","","[{""page_index"":0,""viewing_time"":10784.600000023842},{""page_index"":1,""viewing_time"":7550.399999976158},{""page_index"":2,""viewing_time"":5717.600000023842},{""page_index"":3,""viewing_time"":6215.700000047684},{""page_index"":4,""viewing_time"":8083.399999976158},{""page_index"":5,""viewing_time"":5733.100000023842},{""page_index"":6,""viewing_time"":4400.299999952316},{""page_index"":7,""viewing_time"":7683.700000047684},{""page_index"":8,""viewing_time"":9850.600000023842},{""page_index"":9,""viewing_time"":7865.699999928474},{""page_index"":10,""viewing_time"":8383.5},{""page_index"":11,""viewing_time"":6316.600000023842},{""page_index"":12,""viewing_time"":10667.600000023842},{""page_index"":13,""viewing_time"":10182.399999976158},{""page_index"":14,""viewing_time"":7000},{""page_index"":15,""viewing_time"":7867.600000023842},{""page_index"":16,""viewing_time"":6632.5},{""page_index"":17,""viewing_time"":7100.100000023842}]","138035.90000009537","","","","","","","","","","","","","","","","","","","","","","","",""
"pit-trial","20","330087","0.0-2.0-8.0-0.0","battery-v0.2","","""event"",""trial"",""time""
""fullscreenenter"",""1"",""1703""
""blur"",""7"",""47253""
""focus"",""7"",""50343""
""blur"",""7"",""103589""
""focus"",""7"",""104275""
","""event"",""trial"",""time""
""blur"",""7"",""47253""
""blur"",""7"",""103589""
","""event"",""trial"",""time""
""focus"",""7"",""50343""
""focus"",""7"",""104275""
","""event"",""trial"",""time""
""fullscreenenter"",""1"",""1703""
","
","","","618.5","","","13","6144","727","&#9776;","elianto","#3366ff99"," "," ","1","+10","[1473.6000000238419]","1","0","1","","","","","","","",""
"pit-trial","21","333552","0.0-2.0-8.0-1.0","battery-v0.2","","""event"",""trial"",""time""
""fullscreenenter"",""1"",""1703""
""blur"",""7"",""47253""
""focus"",""7"",""50343""
""blur"",""7"",""103589""
""focus"",""7"",""104275""
","""event"",""trial"",""time""
""blur"",""7"",""47253""
""blur"",""7"",""103589""
","""event"",""trial"",""time""
""focus"",""7"",""50343""
""focus"",""7"",""104275""
","""event"",""trial"",""time""
""fullscreenenter"",""1"",""1703""
","
","","","595.2000000476837","","","13","6144","727","&#9776;","elianto","#3366ff99"," "," ","1","+10","[1453.1000000238419]","1","0","1","","","","","","","",""
"pit-trial","22","336811","0.0-2.0-8.0-2.0","battery-v0.2","","""event"",""trial"",""time""
""fullscreenenter"",""1"",""1703""
""blur"",""7"",""47253""
""focus"",""7"",""50343""
""blur"",""7"",""103589""
""focus"",""7"",""104275""
","""event"",""trial"",""time""
""blur"",""7"",""47253""
""blur"",""7"",""103589""
","""event"",""trial"",""time""
""focus"",""7"",""50343""
""focus"",""7"",""104275""
","""event"",""trial"",""time""
""fullscreenenter"",""1"",""1703""
","
","","","392.89999997615814","","","13","6144","727","&#9776;","elianto","#3366ff99"," "," ","1","+10","[1252.7999999523163]","1","0","1","","","","","","","",""
"pit-trial","23","340123","0.0-2.0-8.0-3.0","battery-v0.2","","""event"",""trial"",""time""
""fullscreenenter"",""1"",""1703""
""blur"",""7"",""47253""
""focus"",""7"",""50343""
""blur"",""7"",""103589""
""focus"",""7"",""104275""
","""event"",""trial"",""time""
""blur"",""7"",""47253""
""blur"",""7"",""103589""
","""event"",""trial"",""time""
""focus"",""7"",""50343""
""focus"",""7"",""104275""
","""event"",""trial"",""time""
""fullscreenenter"",""1"",""1703""
","
","","","450","","","13","6144","727","&#9776;","elianto","#3366ff99"," "," ","1","0","[1301.7000000476837]","1","0","1","","","","","","","",""
"pit-trial","24","343456","0.0-2.0-8.0-4.0","battery-v0.2","","""event"",""trial"",""time""
""fullscreenenter"",""1"",""1703""
""blur"",""7"",""47253""
""focus"",""7"",""50343""
""blur"",""7"",""103589""
""focus"",""7"",""104275""
","""event"",""trial"",""time""
""blur"",""7"",""47253""
""blur"",""7"",""103589""
","""event"",""trial"",""time""
""focus"",""7"",""50343""
""focus"",""7"",""104275""
","""event"",""trial"",""time""
""fullscreenenter"",""1"",""1703""
","
","","","466.90000009536743","","","13","6144","727","&#9776;","elianto","#3366ff99"," "," ","1","+10","[1322.4000000953674]","1","0","1","","","","","","","",""
"pit-trial","25","346611","0.0-2.0-8.1-0.1","battery-v0.2","","""event"",""trial"",""time""
""fullscreenenter"",""1"",""1703""
""blur"",""7"",""47253""
""focus"",""7"",""50343""
""blur"",""7"",""103589""
""focus"",""7"",""104275""
","""event"",""trial"",""time""
""blur"",""7"",""47253""
""blur"",""7"",""103589""
","""event"",""trial"",""time""
""focus"",""7"",""50343""
""focus"",""7"",""104275""
","""event"",""trial"",""time""
""fullscreenenter"",""1"",""1703""
","
","","","290","","","13","6144","727","&#9776;","elianto","#3366ff99"," "," ","1","+10","[1144.5]","1","0","1","","","","","","","",""
"pit-trial","26","349915","0.0-2.0-8.1-1.1","battery-v0.2","","""event"",""trial"",""time""
""fullscreenenter"",""1"",""1703""
""blur"",""7"",""47253""
""focus"",""7"",""50343""
""blur"",""7"",""103589""
""focus"",""7"",""104275""
","""event"",""trial"",""time""
""blur"",""7"",""47253""
""blur"",""7"",""103589""
","""event"",""trial"",""time""
""focus"",""7"",""50343""
""focus"",""7"",""104275""
","""event"",""trial"",""time""
""fullscreenenter"",""1"",""1703""
","
","","","448.59999990463257","","","13","6144","727","&#9776;","elianto","#3366ff99"," "," ","1","+10","[1301.3000000715256]","1","0","1","","","","","","","",""
"pit-trial","27","353199","0.0-2.0-8.1-2.1","battery-v0.2","","""event"",""trial"",""time""
""fullscreenenter"",""1"",""1703""
""blur"",""7"",""47253""
""focus"",""7"",""50343""
""blur"",""7"",""103589""
""focus"",""7"",""104275""
","""event"",""trial"",""time""
""blur"",""7"",""47253""
""blur"",""7"",""103589""
","""event"",""trial"",""time""
""focus"",""7"",""50343""
""focus"",""7"",""104275""
","""event"",""trial"",""time""
""fullscreenenter"",""1"",""1703""
","
","","","417.60000002384186","","","13","6144","727","&#9776;","elianto","#3366ff99"," "," ","1","+10","[1272.2000000476837]","1","0","1","","","","","","","",""
"pit-trial","28","356470","0.0-2.0-8.1-3.1","battery-v0.2","","""event"",""trial"",""time""
""fullscreenenter"",""1"",""1703""
""blur"",""7"",""47253""
""focus"",""7"",""50343""
""blur"",""7"",""103589""
""focus"",""7"",""104275""
","""event"",""trial"",""time""
""blur"",""7"",""47253""
""blur"",""7"",""103589""
","""event"",""trial"",""time""
""focus"",""7"",""50343""
""focus"",""7"",""104275""
","""event"",""trial"",""time""
""fullscreenenter"",""1"",""1703""
","
","","","398.2000000476837","","","13","6144","727","&#9776;","elianto","#3366ff99"," "," ","1","0","[1260.2000000476837]","1","0","1","","","","","","","",""
"pit-trial","29","359835","0.0-2.0-8.1-4.1","battery-v0.2","","""event"",""trial"",""time""
""fullscreenenter"",""1"",""1703""
""blur"",""7"",""47253""
""focus"",""7"",""50343""
""blur"",""7"",""103589""
""focus"",""7"",""104275""
","""event"",""trial"",""time""
""blur"",""7"",""47253""
""blur"",""7"",""103589""
","""event"",""trial"",""time""
""focus"",""7"",""50343""
""focus"",""7"",""104275""
","""event"",""trial"",""time""
""fullscreenenter"",""1"",""1703""
","
","","","504.7999999523163","","","13","6144","727","&#9776;","elianto","#3366ff99"," "," ","1","+10","[1357]","1","0","1","","","","","","","",""
"pit-trial","30","363526","0.0-2.0-8.2-0.2","battery-v0.2","","""event"",""trial"",""time""
""fullscreenenter"",""1"",""1703""
""blur"",""7"",""47253""
""focus"",""7"",""50343""
""blur"",""7"",""103589""
""focus"",""7"",""104275""
","""event"",""trial"",""time""
""blur"",""7"",""47253""
""blur"",""7"",""103589""
","""event"",""trial"",""time""
""focus"",""7"",""50343""
""focus"",""7"",""104275""
","""event"",""trial"",""time""
""fullscreenenter"",""1"",""1703""
","
","","","826.2999999523163","","","13","6144","727","&#9776;","elianto","#3366ff99"," "," ","1","+10","[1683.3999999761581]","1","0","1","","","","","","","",""
"pit-trial","31","367718","0.0-2.0-8.2-1.2","battery-v0.2","","""event"",""trial"",""time""
""fullscreenenter"",""1"",""1703""
""blur"",""7"",""47253""
""focus"",""7"",""50343""
""blur"",""7"",""103589""
""focus"",""7"",""104275""
","""event"",""trial"",""time""
""blur"",""7"",""47253""
""blur"",""7"",""103589""
","""event"",""trial"",""time""
""focus"",""7"",""50343""
""focus"",""7"",""104275""
","""event"",""trial"",""time""
""fullscreenenter"",""1"",""1703""
","
","","","1324.6000000238419","","","13","6144","727","&#9776;","elianto","#3366ff99"," "," ","1","+10","[2179.2999999523163]","1","0","1","","","","","","","",""
"pit-trial","32","371166","0.0-2.0-8.2-2.2","battery-v0.2","","""event"",""trial"",""time""
""fullscreenenter"",""1"",""1703""
""blur"",""7"",""47253""
""focus"",""7"",""50343""
""blur"",""7"",""103589""
""focus"",""7"",""104275""
","""event"",""trial"",""time""
""blur"",""7"",""47253""
""blur"",""7"",""103589""
","""event"",""trial"",""time""
""focus"",""7"",""50343""
""focus"",""7"",""104275""
","""event"",""trial"",""time""
""fullscreenenter"",""1"",""1703""
","
","","","589.6000000238419","","","13","6144","727","&#9776;","elianto","#3366ff99"," "," ","1","+10","[1441.3000000715256]","1","0","1","","","","","","","",""
"pit-trial","33","374811","0.0-2.0-8.2-3.2","battery-v0.2","","""event"",""trial"",""time""
""fullscreenenter"",""1"",""1703""
""blur"",""7"",""47253""
""focus"",""7"",""50343""
""blur"",""7"",""103589""
""focus"",""7"",""104275""
","""event"",""trial"",""time""
""blur"",""7"",""47253""
""blur"",""7"",""103589""
","""event"",""trial"",""time""
""focus"",""7"",""50343""
""focus"",""7"",""104275""
","""event"",""trial"",""time""
""fullscreenenter"",""1"",""1703""
","
","","","783.6999999284744","","","13","6144","727","&#9776;","elianto","#3366ff99"," "," ","1","0","[1638.0999999046326]","1","0","1","","","","","","","",""
"pit-trial","34","379675","0.0-2.0-8.2-4.2","battery-v0.2","","""event"",""trial"",""time""
""fullscreenenter"",""1"",""1703""
""blur"",""7"",""47253""
""focus"",""7"",""50343""
""blur"",""7"",""103589""
""focus"",""7"",""104275""
","""event"",""trial"",""time""
""blur"",""7"",""47253""
""blur"",""7"",""103589""
","""event"",""trial"",""time""
""focus"",""7"",""50343""
""focus"",""7"",""104275""
","""event"",""trial"",""time""
""fullscreenenter"",""1"",""1703""
","
","","","-1","","","13","6144","727","&#9776;","elianto","#3366ff99"," ","-1","0","0","[]","0","0","1","","","","","","","",""
"call-function","35","379676","0.0-2.0-9.0","battery-v0.2","","""event"",""trial"",""time""
""fullscreenenter"",""1"",""1703""
""blur"",""7"",""47253""
""focus"",""7"",""50343""
""blur"",""7"",""103589""
""focus"",""7"",""104275""
","""event"",""trial"",""time""
""blur"",""7"",""47253""
""blur"",""7"",""103589""
","""event"",""trial"",""time""
""focus"",""7"",""50343""
""focus"",""7"",""104275""
","""event"",""trial"",""time""
""fullscreenenter"",""1"",""1703""
","
","","","","","","","","","","","","","","","","","","","","","","","","","","",""
"pit-instructions","36","424418","0.0-2.0-10.0","battery-v0.2","","""event"",""trial"",""time""
""fullscreenenter"",""1"",""1703""
""blur"",""7"",""47253""
""focus"",""7"",""50343""
""blur"",""7"",""103589""
""focus"",""7"",""104275""
","""event"",""trial"",""time""
""blur"",""7"",""47253""
""blur"",""7"",""103589""
","""event"",""trial"",""time""
""focus"",""7"",""50343""
""focus"",""7"",""104275""
","""event"",""trial"",""time""
""fullscreenenter"",""1"",""1703""
","
","","[{""page_index"":0,""viewing_time"":6107.599999904633},{""page_index"":1,""viewing_time"":7150.100000023842},{""page_index"":2,""viewing_time"":13150.300000071526},{""page_index"":3,""viewing_time"":10349.699999928474},{""page_index"":4,""viewing_time"":7983.899999976158}]","44742.199999928474","","","","","","","","","","","","","","","","","","","","","","","",""
"pit-trial","37","429285","0.0-2.0-11.0-0.0","battery-v0.2","","""event"",""trial"",""time""
""fullscreenenter"",""1"",""1703""
""blur"",""7"",""47253""
""focus"",""7"",""50343""
""blur"",""7"",""103589""
""focus"",""7"",""104275""
","""event"",""trial"",""time""
""blur"",""7"",""47253""
""blur"",""7"",""103589""
","""event"",""trial"",""time""
""focus"",""7"",""50343""
""focus"",""7"",""104275""
","""event"",""trial"",""time""
""fullscreenenter"",""1"",""1703""
","
","","","-1","","","13","6144","727","&#9761;","elianto","#3366ff99","-1","-1","1","+10","[]","0","0","2","","","","","","","",""
"pit-trial","38","434153","0.0-2.0-11.0-1.0","battery-v0.2","","""event"",""trial"",""time""
""fullscreenenter"",""1"",""1703""
""blur"",""7"",""47253""
""focus"",""7"",""50343""
""blur"",""7"",""103589""
""focus"",""7"",""104275""
","""event"",""trial"",""time""
""blur"",""7"",""47253""
""blur"",""7"",""103589""
","""event"",""trial"",""time""
""focus"",""7"",""50343""
""focus"",""7"",""104275""
","""event"",""trial"",""time""
""fullscreenenter"",""1"",""1703""
","
","","","-1","","","13","6144","727","&#9761;","elianto","#3366ff99","-1","-1","1","+10","[]","0","0","2","","","","","","","",""
"pit-trial","39","439021","0.0-2.0-11.0-2.0","battery-v0.2","","""event"",""trial"",""time""
""fullscreenenter"",""1"",""1703""
""blur"",""7"",""47253""
""focus"",""7"",""50343""
""blur"",""7"",""103589""
""focus"",""7"",""104275""
","""event"",""trial"",""time""
""blur"",""7"",""47253""
""blur"",""7"",""103589""
","""event"",""trial"",""time""
""focus"",""7"",""50343""
""focus"",""7"",""104275""
","""event"",""trial"",""time""
""fullscreenenter"",""1"",""1703""
","
","","","-1","","","13","6144","727","&#9761;","elianto","#3366ff99","-1","-1","1","+10","[]","0","0","2","","","","","","","",""
"pit-trial","40","443893","0.0-2.0-11.0-3.0","battery-v0.2","","""event"",""trial"",""time""
""fullscreenenter"",""1"",""1703""
""blur"",""7"",""47253""
""focus"",""7"",""50343""
""blur"",""7"",""103589""
""focus"",""7"",""104275""
","""event"",""trial"",""time""
""blur"",""7"",""47253""
""blur"",""7"",""103589""
","""event"",""trial"",""time""
""focus"",""7"",""50343""
""focus"",""7"",""104275""
","""event"",""trial"",""time""
""fullscreenenter"",""1"",""1703""
","
","","","-1","","","13","6144","727","&#9761;","elianto","#3366ff99","-1","-1","1","0","[]","0","0","2","","","","","","","",""
"pit-trial","41","448764","0.0-2.0-11.0-4.0","battery-v0.2","","""event"",""trial"",""time""
""fullscreenenter"",""1"",""1703""
""blur"",""7"",""47253""
""focus"",""7"",""50343""
""blur"",""7"",""103589""
""focus"",""7"",""104275""
","""event"",""trial"",""time""
""blur"",""7"",""47253""
""blur"",""7"",""103589""
","""event"",""trial"",""time""
""focus"",""7"",""50343""
""focus"",""7"",""104275""
","""event"",""trial"",""time""
""fullscreenenter"",""1"",""1703""
","
","","","-1","","","13","6144","727","&#9761;","elianto","#3366ff99","-1","-1","1","+10","[]","0","0","2","","","","","","","",""
"pit-trial","42","453633","0.0-2.0-11.1-0.1","battery-v0.2","","""event"",""trial"",""time""
""fullscreenenter"",""1"",""1703""
""blur"",""7"",""47253""
""focus"",""7"",""50343""
""blur"",""7"",""103589""
""focus"",""7"",""104275""
","""event"",""trial"",""time""
""blur"",""7"",""47253""
""blur"",""7"",""103589""
","""event"",""trial"",""time""
""focus"",""7"",""50343""
""focus"",""7"",""104275""
","""event"",""trial"",""time""
""fullscreenenter"",""1"",""1703""
","
","","","-1","","","13","6144","727","&#9761;","elianto","#3366ff99","-1","-1","1","+10","[]","0","0","2","","","","","","","",""
"pit-trial","43","458498","0.0-2.0-11.1-1.1","battery-v0.2","","""event"",""trial"",""time""
""fullscreenenter"",""1"",""1703""
""blur"",""7"",""47253""
""focus"",""7"",""50343""
""blur"",""7"",""103589""
""focus"",""7"",""104275""
","""event"",""trial"",""time""
""blur"",""7"",""47253""
""blur"",""7"",""103589""
","""event"",""trial"",""time""
""focus"",""7"",""50343""
""focus"",""7"",""104275""
","""event"",""trial"",""time""
""fullscreenenter"",""1"",""1703""
","
","","","-1","","","13","6144","727","&#9761;","elianto","#3366ff99","-1","-1","1","+10","[]","0","0","2","","","","","","","",""
"pit-trial","44","463362","0.0-2.0-11.1-2.1","battery-v0.2","","""event"",""trial"",""time""
""fullscreenenter"",""1"",""1703""
""blur"",""7"",""47253""
""focus"",""7"",""50343""
""blur"",""7"",""103589""
""focus"",""7"",""104275""
","""event"",""trial"",""time""
""blur"",""7"",""47253""
""blur"",""7"",""103589""
","""event"",""trial"",""time""
""focus"",""7"",""50343""
""focus"",""7"",""104275""
","""event"",""trial"",""time""
""fullscreenenter"",""1"",""1703""
","
","","","-1","","","13","6144","727","&#9761;","elianto","#3366ff99","-1","-1","1","+10","[]","0","0","2","","","","","","","",""
"pit-trial","45","468226","0.0-2.0-11.1-3.1","battery-v0.2","","""event"",""trial"",""time""
""fullscreenenter"",""1"",""1703""
""blur"",""7"",""47253""
""focus"",""7"",""50343""
""blur"",""7"",""103589""
""focus"",""7"",""104275""
","""event"",""trial"",""time""
""blur"",""7"",""47253""
""blur"",""7"",""103589""
","""event"",""trial"",""time""
""focus"",""7"",""50343""
""focus"",""7"",""104275""
","""event"",""trial"",""time""
""fullscreenenter"",""1"",""1703""
","
","","","-1","","","13","6144","727","&#9761;","elianto","#3366ff99","-1","-1","1","0","[]","0","0","2","","","","","","","",""
"pit-trial","46","473090","0.0-2.0-11.1-4.1","battery-v0.2","","""event"",""trial"",""time""
""fullscreenenter"",""1"",""1703""
""blur"",""7"",""47253""
""focus"",""7"",""50343""
""blur"",""7"",""103589""
""focus"",""7"",""104275""
","""event"",""trial"",""time""
""blur"",""7"",""47253""
""blur"",""7"",""103589""
","""event"",""trial"",""time""
""focus"",""7"",""50343""
""focus"",""7"",""104275""
","""event"",""trial"",""time""
""fullscreenenter"",""1"",""1703""
","
","","","-1","","","13","6144","727","&#9761;","elianto","#3366ff99","-1","-1","1","+10","[]","0","0","2","","","","","","","",""
"pit-trial","47","477953","0.0-2.0-11.2-0.2","battery-v0.2","","""event"",""trial"",""time""
""fullscreenenter"",""1"",""1703""
""blur"",""7"",""47253""
""focus"",""7"",""50343""
""blur"",""7"",""103589""
""focus"",""7"",""104275""
","""event"",""trial"",""time""
""blur"",""7"",""47253""
""blur"",""7"",""103589""
","""event"",""trial"",""time""
""focus"",""7"",""50343""
""focus"",""7"",""104275""
","""event"",""trial"",""time""
""fullscreenenter"",""1"",""1703""
","
","","","-1","","","13","6144","727","&#9761;","elianto","#3366ff99","-1","-1","1","+10","[]","0","0","2","","","","","","","",""
"pit-trial","48","482817","0.0-2.0-11.2-1.2","battery-v0.2","","""event"",""trial"",""time""
""fullscreenenter"",""1"",""1703""
""blur"",""7"",""47253""
""focus"",""7"",""50343""
""blur"",""7"",""103589""
""focus"",""7"",""104275""
","""event"",""trial"",""time""
""blur"",""7"",""47253""
""blur"",""7"",""103589""
","""event"",""trial"",""time""
""focus"",""7"",""50343""
""focus"",""7"",""104275""
","""event"",""trial"",""time""
""fullscreenenter"",""1"",""1703""
","
","","","-1","","","13","6144","727","&#9761;","elianto","#3366ff99","-1","-1","1","+10","[]","0","0","2","","","","","","","",""
"pit-trial","49","487684","0.0-2.0-11.2-2.2","battery-v0.2","","""event"",""trial"",""time""
""fullscreenenter"",""1"",""1703""
""blur"",""7"",""47253""
""focus"",""7"",""50343""
""blur"",""7"",""103589""
""focus"",""7"",""104275""
","""event"",""trial"",""time""
""blur"",""7"",""47253""
""blur"",""7"",""103589""
","""event"",""trial"",""time""
""focus"",""7"",""50343""
""focus"",""7"",""104275""
","""event"",""trial"",""time""
""fullscreenenter"",""1"",""1703""
","
","","","-1","","","13","6144","727","&#9761;","elianto","#3366ff99","-1","-1","1","+10","[]","0","0","2","","","","","","","",""
"pit-trial","50","492556","0.0-2.0-11.2-3.2","battery-v0.2","","""event"",""trial"",""time""
""fullscreenenter"",""1"",""1703""
""blur"",""7"",""47253""
""focus"",""7"",""50343""
""blur"",""7"",""103589""
""focus"",""7"",""104275""
","""event"",""trial"",""time""
""blur"",""7"",""47253""
""blur"",""7"",""103589""
","""event"",""trial"",""time""
""focus"",""7"",""50343""
""focus"",""7"",""104275""
","""event"",""trial"",""time""
""fullscreenenter"",""1"",""1703""
","
","","","-1","","","13","6144","727","&#9761;","elianto","#3366ff99","-1","-1","1","0","[]","0","0","2","","","","","","","",""
"pit-trial","51","497425","0.0-2.0-11.2-4.2","battery-v0.2","","""event"",""trial"",""time""
""fullscreenenter"",""1"",""1703""
""blur"",""7"",""47253""
""focus"",""7"",""50343""
""blur"",""7"",""103589""
""focus"",""7"",""104275""
","""event"",""trial"",""time""
""blur"",""7"",""47253""
""blur"",""7"",""103589""
","""event"",""trial"",""time""
""focus"",""7"",""50343""
""focus"",""7"",""104275""
","""event"",""trial"",""time""
""fullscreenenter"",""1"",""1703""
","
","","","-1","","","13","6144","727","&#9761;","elianto","#3366ff99","-1","-1","1","+10","[]","0","0","2","","","","","","","",""
"pit-trial","52","502289","0.0-2.0-11.3-0.3","battery-v0.2","","""event"",""trial"",""time""
""fullscreenenter"",""1"",""1703""
""blur"",""7"",""47253""
""focus"",""7"",""50343""
""blur"",""7"",""103589""
""focus"",""7"",""104275""
","""event"",""trial"",""time""
""blur"",""7"",""47253""
""blur"",""7"",""103589""
","""event"",""trial"",""time""
""focus"",""7"",""50343""
""focus"",""7"",""104275""
","""event"",""trial"",""time""
""fullscreenenter"",""1"",""1703""
","
","","","-1","","","13","6144","727","&#9761;","elianto","#3366ff99","-1","-1","1","+10","[]","0","0","2","","","","","","","",""
"pit-trial","53","507153","0.0-2.0-11.3-1.3","battery-v0.2","","""event"",""trial"",""time""
""fullscreenenter"",""1"",""1703""
""blur"",""7"",""47253""
""focus"",""7"",""50343""
""blur"",""7"",""103589""
""focus"",""7"",""104275""
","""event"",""trial"",""time""
""blur"",""7"",""47253""
""blur"",""7"",""103589""
","""event"",""trial"",""time""
""focus"",""7"",""50343""
""focus"",""7"",""104275""
","""event"",""trial"",""time""
""fullscreenenter"",""1"",""1703""
","
","","","-1","","","13","6144","727","&#9761;","elianto","#3366ff99","-1","-1","1","+10","[]","0","0","2","","","","","","","",""
"pit-trial","54","512017","0.0-2.0-11.3-2.3","battery-v0.2","","""event"",""trial"",""time""
""fullscreenenter"",""1"",""1703""
""blur"",""7"",""47253""
""focus"",""7"",""50343""
""blur"",""7"",""103589""
""focus"",""7"",""104275""
","""event"",""trial"",""time""
""blur"",""7"",""47253""
""blur"",""7"",""103589""
","""event"",""trial"",""time""
""focus"",""7"",""50343""
""focus"",""7"",""104275""
","""event"",""trial"",""time""
""fullscreenenter"",""1"",""1703""
","
","","","-1","","","13","6144","727","&#9761;","elianto","#3366ff99","-1","-1","1","+10","[]","0","0","2","","","","","","","",""
"pit-trial","55","516883","0.0-2.0-11.3-3.3","battery-v0.2","","""event"",""trial"",""time""
""fullscreenenter"",""1"",""1703""
""blur"",""7"",""47253""
""focus"",""7"",""50343""
""blur"",""7"",""103589""
""focus"",""7"",""104275""
","""event"",""trial"",""time""
""blur"",""7"",""47253""
""blur"",""7"",""103589""
","""event"",""trial"",""time""
""focus"",""7"",""50343""
""focus"",""7"",""104275""
","""event"",""trial"",""time""
""fullscreenenter"",""1"",""1703""
","
","","","-1","","","13","6144","727","&#9761;","elianto","#3366ff99","-1","-1","1","0","[]","0","0","2","","","","","","","",""
"pit-trial","56","521755","0.0-2.0-11.3-4.3","battery-v0.2","","""event"",""trial"",""time""
""fullscreenenter"",""1"",""1703""
""blur"",""7"",""47253""
""focus"",""7"",""50343""
""blur"",""7"",""103589""
""focus"",""7"",""104275""
","""event"",""trial"",""time""
""blur"",""7"",""47253""
""blur"",""7"",""103589""
","""event"",""trial"",""time""
""focus"",""7"",""50343""
""focus"",""7"",""104275""
","""event"",""trial"",""time""
""fullscreenenter"",""1"",""1703""
","
","","","-1","","","13","6144","727","&#9761;","elianto","#3366ff99","-1","-1","1","+10","[]","0","0","2","","","","","","","",""
"call-function","57","521757","0.0-2.0-12.0","battery-v0.2","","""event"",""trial"",""time""
""fullscreenenter"",""1"",""1703""
""blur"",""7"",""47253""
""focus"",""7"",""50343""
""blur"",""7"",""103589""
""focus"",""7"",""104275""
","""event"",""trial"",""time""
""blur"",""7"",""47253""
""blur"",""7"",""103589""
","""event"",""trial"",""time""
""focus"",""7"",""50343""
""focus"",""7"",""104275""
","""event"",""trial"",""time""
""fullscreenenter"",""1"",""1703""
","
","","","","","","","","","","","","","","","","","","","","","","","","","","",""
"pit-instructions","58","562115","0.0-2.0-13.0","battery-v0.2","","""event"",""trial"",""time""
""fullscreenenter"",""1"",""1703""
""blur"",""7"",""47253""
""focus"",""7"",""50343""
""blur"",""7"",""103589""
""focus"",""7"",""104275""
","""event"",""trial"",""time""
""blur"",""7"",""47253""
""blur"",""7"",""103589""
","""event"",""trial"",""time""
""focus"",""7"",""50343""
""focus"",""7"",""104275""
","""event"",""trial"",""time""
""fullscreenenter"",""1"",""1703""
","
","","[{""page_index"":0,""viewing_time"":8808},{""page_index"":1,""viewing_time"":8650.900000095367},{""page_index"":2,""viewing_time"":6332.599999904633},{""page_index"":3,""viewing_time"":10500.100000023842},{""page_index"":4,""viewing_time"":6066.5}]","40358.700000047684","","","","","","","","","","","","","","","","","","","","","","","",""
"pit-trial","59","565410","0.0-2.0-14.0-0.0","battery-v0.2","","""event"",""trial"",""time""
""fullscreenenter"",""1"",""1703""
""blur"",""7"",""47253""
""focus"",""7"",""50343""
""blur"",""7"",""103589""
""focus"",""7"",""104275""
","""event"",""trial"",""time""
""blur"",""7"",""47253""
""blur"",""7"",""103589""
","""event"",""trial"",""time""
""focus"",""7"",""50343""
""focus"",""7"",""104275""
","""event"",""trial"",""time""
""fullscreenenter"",""1"",""1703""
","
","","","423.3000000715256","","","13","6144","727","&#9826;","elianto","#f73b6a7A","-1"," ","0","-10","[1282.3000000715256]","1","0","3","","","","","","","",""
"pit-trial","60","570282","0.0-2.0-14.0-1.0","battery-v0.2","","""event"",""trial"",""time""
""fullscreenenter"",""1"",""1703""
""blur"",""7"",""47253""
""focus"",""7"",""50343""
""blur"",""7"",""103589""
""focus"",""7"",""104275""
","""event"",""trial"",""time""
""blur"",""7"",""47253""
""blur"",""7"",""103589""
","""event"",""trial"",""time""
""focus"",""7"",""50343""
""focus"",""7"",""104275""
","""event"",""trial"",""time""
""fullscreenenter"",""1"",""1703""
","
","","","-1","","","13","6144","727","&#9826;","elianto","#f73b6a7A","-1","-1","1","0","[]","0","0","3","","","","","","","",""
"pit-trial","61","575150","0.0-2.0-14.0-2.0","battery-v0.2","","""event"",""trial"",""time""
""fullscreenenter"",""1"",""1703""
""blur"",""7"",""47253""
""focus"",""7"",""50343""
""blur"",""7"",""103589""
""focus"",""7"",""104275""
","""event"",""trial"",""time""
""blur"",""7"",""47253""
""blur"",""7"",""103589""
","""event"",""trial"",""time""
""focus"",""7"",""50343""
""focus"",""7"",""104275""
","""event"",""trial"",""time""
""fullscreenenter"",""1"",""1703""
","
","","","-1","","","13","6144","727","&#9826;","elianto","#f73b6a7A","-1","-1","1","0","[]","0","0","3","","","","","","","",""
"pit-trial","62","580017","0.0-2.0-14.0-3.0","battery-v0.2","","""event"",""trial"",""time""
""fullscreenenter"",""1"",""1703""
""blur"",""7"",""47253""
""focus"",""7"",""50343""
""blur"",""7"",""103589""
""focus"",""7"",""104275""
","""event"",""trial"",""time""
""blur"",""7"",""47253""
""blur"",""7"",""103589""
","""event"",""trial"",""time""
""focus"",""7"",""50343""
""focus"",""7"",""104275""
","""event"",""trial"",""time""
""fullscreenenter"",""1"",""1703""
","
","","","-1","","","13","6144","727","&#9826;","elianto","#f73b6a7A","-1","-1","1","-10","[]","0","0","3","","","","","","","",""
"pit-trial","63","584881","0.0-2.0-14.0-4.0","battery-v0.2","","""event"",""trial"",""time""
""fullscreenenter"",""1"",""1703""
""blur"",""7"",""47253""
""focus"",""7"",""50343""
""blur"",""7"",""103589""
""focus"",""7"",""104275""
","""event"",""trial"",""time""
""blur"",""7"",""47253""
""blur"",""7"",""103589""
","""event"",""trial"",""time""
""focus"",""7"",""50343""
""focus"",""7"",""104275""
","""event"",""trial"",""time""
""fullscreenenter"",""1"",""1703""
","
","","","-1","","","13","6144","727","&#9826;","elianto","#f73b6a7A","-1","-1","1","0","[]","0","0","3","","","","","","","",""
"pit-trial","64","589754","0.0-2.0-14.1-0.1","battery-v0.2","","""event"",""trial"",""time""
""fullscreenenter"",""1"",""1703""
""blur"",""7"",""47253""
""focus"",""7"",""50343""
""blur"",""7"",""103589""
""focus"",""7"",""104275""
","""event"",""trial"",""time""
""blur"",""7"",""47253""
""blur"",""7"",""103589""
","""event"",""trial"",""time""
""focus"",""7"",""50343""
""focus"",""7"",""104275""
","""event"",""trial"",""time""
""fullscreenenter"",""1"",""1703""
","
","","","-1","","","13","6144","727","&#9826;","elianto","#f73b6a7A","-1","-1","1","0","[]","0","0","3","","","","","","","",""
"pit-trial","65","594624","0.0-2.0-14.1-1.1","battery-v0.2","","""event"",""trial"",""time""
""fullscreenenter"",""1"",""1703""
""blur"",""7"",""47253""
""focus"",""7"",""50343""
""blur"",""7"",""103589""
""focus"",""7"",""104275""
","""event"",""trial"",""time""
""blur"",""7"",""47253""
""blur"",""7"",""103589""
","""event"",""trial"",""time""
""focus"",""7"",""50343""
""focus"",""7"",""104275""
","""event"",""trial"",""time""
""fullscreenenter"",""1"",""1703""
","
","","","-1","","","13","6144","727","&#9826;","elianto","#f73b6a7A","-1","-1","1","0","[]","0","0","3","","","","","","","",""
"pit-trial","66","599488","0.0-2.0-14.1-2.1","battery-v0.2","","""event"",""trial"",""time""
""fullscreenenter"",""1"",""1703""
""blur"",""7"",""47253""
""focus"",""7"",""50343""
""blur"",""7"",""103589""
""focus"",""7"",""104275""
","""event"",""trial"",""time""
""blur"",""7"",""47253""
""blur"",""7"",""103589""
","""event"",""trial"",""time""
""focus"",""7"",""50343""
""focus"",""7"",""104275""
","""event"",""trial"",""time""
""fullscreenenter"",""1"",""1703""
","
","","","-1","","","13","6144","727","&#9826;","elianto","#f73b6a7A","-1","-1","1","0","[]","0","0","3","","","","","","","",""
"pit-trial","67","604351","0.0-2.0-14.1-3.1","battery-v0.2","","""event"",""trial"",""time""
""fullscreenenter"",""1"",""1703""
""blur"",""7"",""47253""
""focus"",""7"",""50343""
""blur"",""7"",""103589""
""focus"",""7"",""104275""
","""event"",""trial"",""time""
""blur"",""7"",""47253""
""blur"",""7"",""103589""
","""event"",""trial"",""time""
""focus"",""7"",""50343""
""focus"",""7"",""104275""
","""event"",""trial"",""time""
""fullscreenenter"",""1"",""1703""
","
","","","-1","","","13","6144","727","&#9826;","elianto","#f73b6a7A","-1","-1","1","-10","[]","0","0","3","","","","","","","",""
"pit-trial","68","609216","0.0-2.0-14.1-4.1","battery-v0.2","","""event"",""trial"",""time""
""fullscreenenter"",""1"",""1703""
""blur"",""7"",""47253""
""focus"",""7"",""50343""
""blur"",""7"",""103589""
""focus"",""7"",""104275""
","""event"",""trial"",""time""
""blur"",""7"",""47253""
""blur"",""7"",""103589""
","""event"",""trial"",""time""
""focus"",""7"",""50343""
""focus"",""7"",""104275""
","""event"",""trial"",""time""
""fullscreenenter"",""1"",""1703""
","
","","","-1","","","13","6144","727","&#9826;","elianto","#f73b6a7A","-1","-1","1","0","[]","0","0","3","","","","","","","",""
"pit-trial","69","614085","0.0-2.0-14.2-0.2","battery-v0.2","","""event"",""trial"",""time""
""fullscreenenter"",""1"",""1703""
""blur"",""7"",""47253""
""focus"",""7"",""50343""
""blur"",""7"",""103589""
""focus"",""7"",""104275""
","""event"",""trial"",""time""
""blur"",""7"",""47253""
""blur"",""7"",""103589""
","""event"",""trial"",""time""
""focus"",""7"",""50343""
""focus"",""7"",""104275""
","""event"",""trial"",""time""
""fullscreenenter"",""1"",""1703""
","
","","","-1","","","13","6144","727","&#9826;","elianto","#f73b6a7A","-1","-1","1","0","[]","0","0","3","","","","","","","",""
"pit-trial","70","618948","0.0-2.0-14.2-1.2","battery-v0.2","","""event"",""trial"",""time""
""fullscreenenter"",""1"",""1703""
""blur"",""7"",""47253""
""focus"",""7"",""50343""
""blur"",""7"",""103589""
""focus"",""7"",""104275""
","""event"",""trial"",""time""
""blur"",""7"",""47253""
""blur"",""7"",""103589""
","""event"",""trial"",""time""
""focus"",""7"",""50343""
""focus"",""7"",""104275""
","""event"",""trial"",""time""
""fullscreenenter"",""1"",""1703""
","
","","","-1","","","13","6144","727","&#9826;","elianto","#f73b6a7A","-1","-1","1","0","[]","0","0","3","","","","","","","",""
"pit-trial","71","623812","0.0-2.0-14.2-2.2","battery-v0.2","","""event"",""trial"",""time""
""fullscreenenter"",""1"",""1703""
""blur"",""7"",""47253""
""focus"",""7"",""50343""
""blur"",""7"",""103589""
""focus"",""7"",""104275""
","""event"",""trial"",""time""
""blur"",""7"",""47253""
""blur"",""7"",""103589""
","""event"",""trial"",""time""
""focus"",""7"",""50343""
""focus"",""7"",""104275""
","""event"",""trial"",""time""
""fullscreenenter"",""1"",""1703""
","
","","","-1","","","13","6144","727","&#9826;","elianto","#f73b6a7A","-1","-1","1","0","[]","0","0","3","","","","","","","",""
"pit-trial","72","628681","0.0-2.0-14.2-3.2","battery-v0.2","","""event"",""trial"",""time""
""fullscreenenter"",""1"",""1703""
""blur"",""7"",""47253""
""focus"",""7"",""50343""
""blur"",""7"",""103589""
""focus"",""7"",""104275""
","""event"",""trial"",""time""
""blur"",""7"",""47253""
""blur"",""7"",""103589""
","""event"",""trial"",""time""
""focus"",""7"",""50343""
""focus"",""7"",""104275""
","""event"",""trial"",""time""
""fullscreenenter"",""1"",""1703""
","
","","","-1","","","13","6144","727","&#9826;","elianto","#f73b6a7A","-1","-1","1","-10","[]","0","0","3","","","","","","","",""
"pit-trial","73","633551","0.0-2.0-14.2-4.2","battery-v0.2","","""event"",""trial"",""time""
""fullscreenenter"",""1"",""1703""
""blur"",""7"",""47253""
""focus"",""7"",""50343""
""blur"",""7"",""103589""
""focus"",""7"",""104275""
","""event"",""trial"",""time""
""blur"",""7"",""47253""
""blur"",""7"",""103589""
","""event"",""trial"",""time""
""focus"",""7"",""50343""
""focus"",""7"",""104275""
","""event"",""trial"",""time""
""fullscreenenter"",""1"",""1703""
","
","","","-1","","","13","6144","727","&#9826;","elianto","#f73b6a7A","-1","-1","1","0","[]","0","0","3","","","","","","","",""
"pit-trial","74","638425","0.0-2.0-14.3-0.3","battery-v0.2","","""event"",""trial"",""time""
""fullscreenenter"",""1"",""1703""
""blur"",""7"",""47253""
""focus"",""7"",""50343""
""blur"",""7"",""103589""
""focus"",""7"",""104275""
","""event"",""trial"",""time""
""blur"",""7"",""47253""
""blur"",""7"",""103589""
","""event"",""trial"",""time""
""focus"",""7"",""50343""
""focus"",""7"",""104275""
","""event"",""trial"",""time""
""fullscreenenter"",""1"",""1703""
","
","","","-1","","","13","6144","727","&#9826;","elianto","#f73b6a7A","-1","-1","1","0","[]","0","0","3","","","","","","","",""
"pit-trial","75","643295","0.0-2.0-14.3-1.3","battery-v0.2","","""event"",""trial"",""time""
""fullscreenenter"",""1"",""1703""
""blur"",""7"",""47253""
""focus"",""7"",""50343""
""blur"",""7"",""103589""
""focus"",""7"",""104275""
","""event"",""trial"",""time""
""blur"",""7"",""47253""
""blur"",""7"",""103589""
","""event"",""trial"",""time""
""focus"",""7"",""50343""
""focus"",""7"",""104275""
","""event"",""trial"",""time""
""fullscreenenter"",""1"",""1703""
","
","","","-1","","","13","6144","727","&#9826;","elianto","#f73b6a7A","-1","-1","1","0","[]","0","0","3","","","","","","","",""
"pit-trial","76","648166","0.0-2.0-14.3-2.3","battery-v0.2","","""event"",""trial"",""time""
""fullscreenenter"",""1"",""1703""
""blur"",""7"",""47253""
""focus"",""7"",""50343""
""blur"",""7"",""103589""
""focus"",""7"",""104275""
","""event"",""trial"",""time""
""blur"",""7"",""47253""
""blur"",""7"",""103589""
","""event"",""trial"",""time""
""focus"",""7"",""50343""
""focus"",""7"",""104275""
","""event"",""trial"",""time""
""fullscreenenter"",""1"",""1703""
","
","","","-1","","","13","6144","727","&#9826;","elianto","#f73b6a7A","-1","-1","1","0","[]","0","0","3","","","","","","","",""
"pit-trial","77","653028","0.0-2.0-14.3-3.3","battery-v0.2","","""event"",""trial"",""time""
""fullscreenenter"",""1"",""1703""
""blur"",""7"",""47253""
""focus"",""7"",""50343""
""blur"",""7"",""103589""
""focus"",""7"",""104275""
","""event"",""trial"",""time""
""blur"",""7"",""47253""
""blur"",""7"",""103589""
","""event"",""trial"",""time""
""focus"",""7"",""50343""
""focus"",""7"",""104275""
","""event"",""trial"",""time""
""fullscreenenter"",""1"",""1703""
","
","","","-1","","","13","6144","727","&#9826;","elianto","#f73b6a7A","-1","-1","1","-10","[]","0","0","3","","","","","","","",""
"pit-trial","78","657892","0.0-2.0-14.3-4.3","battery-v0.2","","""event"",""trial"",""time""
""fullscreenenter"",""1"",""1703""
""blur"",""7"",""47253""
""focus"",""7"",""50343""
""blur"",""7"",""103589""
""focus"",""7"",""104275""
","""event"",""trial"",""time""
""blur"",""7"",""47253""
""blur"",""7"",""103589""
","""event"",""trial"",""time""
""focus"",""7"",""50343""
""focus"",""7"",""104275""
","""event"",""trial"",""time""
""fullscreenenter"",""1"",""1703""
","
","","","-1","","","13","6144","727","&#9826;","elianto","#f73b6a7A","-1","-1","1","0","[]","0","0","3","","","","","","","",""
"call-function","79","657894","0.0-2.0-15.0","battery-v0.2","","""event"",""trial"",""time""
""fullscreenenter"",""1"",""1703""
""blur"",""7"",""47253""
""focus"",""7"",""50343""
""blur"",""7"",""103589""
""focus"",""7"",""104275""
","""event"",""trial"",""time""
""blur"",""7"",""47253""
""blur"",""7"",""103589""
","""event"",""trial"",""time""
""focus"",""7"",""50343""
""focus"",""7"",""104275""
","""event"",""trial"",""time""
""fullscreenenter"",""1"",""1703""
","
","","","","","","","","","","","","","","","","","","","","","","","","","","",""
"pit-instructions","80","686569","0.0-2.0-16.0","battery-v0.2","","""event"",""trial"",""time""
""fullscreenenter"",""1"",""1703""
""blur"",""7"",""47253""
""focus"",""7"",""50343""
""blur"",""7"",""103589""
""focus"",""7"",""104275""
","""event"",""trial"",""time""
""blur"",""7"",""47253""
""blur"",""7"",""103589""
","""event"",""trial"",""time""
""focus"",""7"",""50343""
""focus"",""7"",""104275""
","""event"",""trial"",""time""
""fullscreenenter"",""1"",""1703""
","
","","[{""page_index"":0,""viewing_time"":6702.700000047684},{""page_index"":1,""viewing_time"":9907.799999952316},{""page_index"":2,""viewing_time"":7901},{""page_index"":3,""viewing_time"":4163.5}]","28675.400000095367","","","","","","","","","","","","","","","","","","","","","","","",""
"pit-trial","81","689542","0.0-2.0-17.0-0.0","battery-v0.2","","""event"",""trial"",""time""
""fullscreenenter"",""1"",""1703""
""blur"",""7"",""47253""
""focus"",""7"",""50343""
""blur"",""7"",""103589""
""focus"",""7"",""104275""
","""event"",""trial"",""time""
""blur"",""7"",""47253""
""blur"",""7"",""103589""
","""event"",""trial"",""time""
""focus"",""7"",""50343""
""focus"",""7"",""104275""
","""event"",""trial"",""time""
""fullscreenenter"",""1"",""1703""
","
","","","109.60000002384186","","","13","6144","727","&#9789;","elianto","#f73b6a7A"," "," ","1","0","[223.60000002384186,963.6000000238419]","2","0","4","","","","","","","",""
"pit-trial","82","692691","0.0-2.0-17.0-1.0","battery-v0.2","","""event"",""trial"",""time""
""fullscreenenter"",""1"",""1703""
""blur"",""7"",""47253""
""focus"",""7"",""50343""
""blur"",""7"",""103589""
""focus"",""7"",""104275""
","""event"",""trial"",""time""
""blur"",""7"",""47253""
""blur"",""7"",""103589""
","""event"",""trial"",""time""
""focus"",""7"",""50343""
""focus"",""7"",""104275""
","""event"",""trial"",""time""
""fullscreenenter"",""1"",""1703""
","
","","","282.5","","","13","6144","727","&#9789;","elianto","#f73b6a7A"," "," ","1","0","[1145.1999999284744]","1","0","4","","","","","","","",""
"pit-trial","83","695623","0.0-2.0-17.0-2.0","battery-v0.2","","""event"",""trial"",""time""
""fullscreenenter"",""1"",""1703""
""blur"",""7"",""47253""
""focus"",""7"",""50343""
""blur"",""7"",""103589""
""focus"",""7"",""104275""
","""event"",""trial"",""time""
""blur"",""7"",""47253""
""blur"",""7"",""103589""
","""event"",""trial"",""time""
""focus"",""7"",""50343""
""focus"",""7"",""104275""
","""event"",""trial"",""time""
""fullscreenenter"",""1"",""1703""
","
","","","70.10000002384186","","","13","6144","727","&#9789;","elianto","#f73b6a7A"," "," ","1","0","[920.7999999523163]","1","0","4","","","","","","","",""
"pit-trial","84","700435","0.0-2.0-17.0-3.0","battery-v0.2","","""event"",""trial"",""time""
""fullscreenenter"",""1"",""1703""
""blur"",""7"",""47253""
""focus"",""7"",""50343""
""blur"",""7"",""103589""
""focus"",""7"",""104275""
","""event"",""trial"",""time""
""blur"",""7"",""47253""
""blur"",""7"",""103589""
","""event"",""trial"",""time""
""focus"",""7"",""50343""
""focus"",""7"",""104275""
","""event"",""trial"",""time""
""fullscreenenter"",""1"",""1703""
","
","","","1952.6000000238419","","","13","6144","727","&#9789;","elianto","#f73b6a7A"," "," ","1","-10","[2803]","1","0","4","","","","","","","",""
"pit-trial","85","703544","0.0-2.0-17.0-4.0","battery-v0.2","","""event"",""trial"",""time""
""fullscreenenter"",""1"",""1703""
""blur"",""7"",""47253""
""focus"",""7"",""50343""
""blur"",""7"",""103589""
""focus"",""7"",""104275""
","""event"",""trial"",""time""
""blur"",""7"",""47253""
""blur"",""7"",""103589""
","""event"",""trial"",""time""
""focus"",""7"",""50343""
""focus"",""7"",""104275""
","""event"",""trial"",""time""
""fullscreenenter"",""1"",""1703""
","
","","","243.39999997615814","","","13","6144","727","&#9789;","elianto","#f73b6a7A"," "," ","1","0","[1096.5]","1","0","4","","","","","","","",""
"pit-trial","86","706575","0.0-2.0-17.1-0.1","battery-v0.2","","""event"",""trial"",""time""
""fullscreenenter"",""1"",""1703""
""blur"",""7"",""47253""
""focus"",""7"",""50343""
""blur"",""7"",""103589""
""focus"",""7"",""104275""
","""event"",""trial"",""time""
""blur"",""7"",""47253""
""blur"",""7"",""103589""
","""event"",""trial"",""time""
""focus"",""7"",""50343""
""focus"",""7"",""104275""
","""event"",""trial"",""time""
""fullscreenenter"",""1"",""1703""
","
","","","158.39999997615814","","","13","6144","727","&#9789;","elianto","#f73b6a7A"," "," ","1","0","[1015.5999999046326]","1","0","4","","","","","","","",""
"pit-trial","87","709572","0.0-2.0-17.1-1.1","battery-v0.2","","""event"",""trial"",""time""
""fullscreenenter"",""1"",""1703""
""blur"",""7"",""47253""
""focus"",""7"",""50343""
""blur"",""7"",""103589""
""focus"",""7"",""104275""
","""event"",""trial"",""time""
""blur"",""7"",""47253""
""blur"",""7"",""103589""
","""event"",""trial"",""time""
""focus"",""7"",""50343""
""focus"",""7"",""104275""
","""event"",""trial"",""time""
""fullscreenenter"",""1"",""1703""
","
","","","133.10000002384186","","","13","6144","727","&#9789;","elianto","#f73b6a7A"," "," ","1","0","[991.8000000715256]","1","0","4","","","","","","","",""
"pit-trial","88","712863","0.0-2.0-17.1-2.1","battery-v0.2","","""event"",""trial"",""time""
""fullscreenenter"",""1"",""1703""
""blur"",""7"",""47253""
""focus"",""7"",""50343""
""blur"",""7"",""103589""
""focus"",""7"",""104275""
","""event"",""trial"",""time""
""blur"",""7"",""47253""
""blur"",""7"",""103589""
","""event"",""trial"",""time""
""focus"",""7"",""50343""
""focus"",""7"",""104275""
","""event"",""trial"",""time""
""fullscreenenter"",""1"",""1703""
","
","","","428.7999999523163","","","13","6144","727","&#9789;","elianto","#f73b6a7A"," "," ","1","0","[1279.3999999761581]","1","0","4","","","","","","","",""
"pit-trial","89","716135","0.0-2.0-17.1-3.1","battery-v0.2","","""event"",""trial"",""time""
""fullscreenenter"",""1"",""1703""
""blur"",""7"",""47253""
""focus"",""7"",""50343""
""blur"",""7"",""103589""
""focus"",""7"",""104275""
","""event"",""trial"",""time""
""blur"",""7"",""47253""
""blur"",""7"",""103589""
","""event"",""trial"",""time""
""focus"",""7"",""50343""
""focus"",""7"",""104275""
","""event"",""trial"",""time""
""fullscreenenter"",""1"",""1703""
","
","","","405.5","","","13","6144","727","&#9789;","elianto","#f73b6a7A"," "," ","1","-10","[1264.2000000476837]","1","0","4","","","","","","","",""
"pit-trial","90","719267","0.0-2.0-17.1-4.1","battery-v0.2","","""event"",""trial"",""time""
""fullscreenenter"",""1"",""1703""
""blur"",""7"",""47253""
""focus"",""7"",""50343""
""blur"",""7"",""103589""
""focus"",""7"",""104275""
","""event"",""trial"",""time""
""blur"",""7"",""47253""
""blur"",""7"",""103589""
","""event"",""trial"",""time""
""focus"",""7"",""50343""
""focus"",""7"",""104275""
","""event"",""trial"",""time""
""fullscreenenter"",""1"",""1703""
","
","","","274.6999999284744","","","13","6144","727","&#9789;","elianto","#f73b6a7A"," "," ","1","0","[1128.2999999523163]","1","0","4","","","","","","","",""
"pit-trial","91","723307","0.0-2.0-17.2-0.2","battery-v0.2","","""event"",""trial"",""time""
""fullscreenenter"",""1"",""1703""
""blur"",""7"",""47253""
""focus"",""7"",""50343""
""blur"",""7"",""103589""
""focus"",""7"",""104275""
","""event"",""trial"",""time""
""blur"",""7"",""47253""
""blur"",""7"",""103589""
","""event"",""trial"",""time""
""focus"",""7"",""50343""
""focus"",""7"",""104275""
","""event"",""trial"",""time""
""fullscreenenter"",""1"",""1703""
","
","","","1173.7999999523163","","","13","6144","727","&#9789;","elianto","#f73b6a7A"," "," ","1","0","[792.5,2028.3999999761581]","2","0","4","","","","","","","",""
"pit-trial","92","726578","0.0-2.0-17.2-1.2","battery-v0.2","","""event"",""trial"",""time""
""fullscreenenter"",""1"",""1703""
""blur"",""7"",""47253""
""focus"",""7"",""50343""
""blur"",""7"",""103589""
""focus"",""7"",""104275""
","""event"",""trial"",""time""
""blur"",""7"",""47253""
""blur"",""7"",""103589""
","""event"",""trial"",""time""
""focus"",""7"",""50343""
""focus"",""7"",""104275""
","""event"",""trial"",""time""
""fullscreenenter"",""1"",""1703""
","
","","","412.10000002384186","","","13","6144","727","&#9789;","elianto","#f73b6a7A"," "," ","1","0","[1266.7999999523163]","1","0","4","","","","","","","",""
"pit-trial","93","729965","0.0-2.0-17.2-2.2","battery-v0.2","","""event"",""trial"",""time""
""fullscreenenter"",""1"",""1703""
""blur"",""7"",""47253""
""focus"",""7"",""50343""
""blur"",""7"",""103589""
""focus"",""7"",""104275""
","""event"",""trial"",""time""
""blur"",""7"",""47253""
""blur"",""7"",""103589""
","""event"",""trial"",""time""
""focus"",""7"",""50343""
""focus"",""7"",""104275""
","""event"",""trial"",""time""
""fullscreenenter"",""1"",""1703""
","
","","","518.5","","","13","6144","727","&#9789;","elianto","#f73b6a7A"," "," ","1","0","[1376]","1","0","4","","","","","","","",""
"pit-trial","94","733123","0.0-2.0-17.2-3.2","battery-v0.2","","""event"",""trial"",""time""
""fullscreenenter"",""1"",""1703""
""blur"",""7"",""47253""
""focus"",""7"",""50343""
""blur"",""7"",""103589""
""focus"",""7"",""104275""
","""event"",""trial"",""time""
""blur"",""7"",""47253""
""blur"",""7"",""103589""
","""event"",""trial"",""time""
""focus"",""7"",""50343""
""focus"",""7"",""104275""
","""event"",""trial"",""time""
""fullscreenenter"",""1"",""1703""
","
","","","301.5","","","13","6144","727","&#9789;","elianto","#f73b6a7A"," "," ","1","-10","[1153.3999999761581]","1","0","4","","","","","","","",""
"pit-trial","95","736365","0.0-2.0-17.2-4.2","battery-v0.2","","""event"",""trial"",""time""
""fullscreenenter"",""1"",""1703""
""blur"",""7"",""47253""
""focus"",""7"",""50343""
""blur"",""7"",""103589""
""focus"",""7"",""104275""
","""event"",""trial"",""time""
""blur"",""7"",""47253""
""blur"",""7"",""103589""
","""event"",""trial"",""time""
""focus"",""7"",""50343""
""focus"",""7"",""104275""
","""event"",""trial"",""time""
""fullscreenenter"",""1"",""1703""
","
","","","382.60000002384186","","","13","6144","727","&#9789;","elianto","#f73b6a7A"," "," ","1","0","[1232.8999999761581]","1","0","4","","","","","","","",""
"pit-trial","96","739426","0.0-2.0-17.3-0.3","battery-v0.2","","""event"",""trial"",""time""
""fullscreenenter"",""1"",""1703""
""blur"",""7"",""47253""
""focus"",""7"",""50343""
""blur"",""7"",""103589""
""focus"",""7"",""104275""
","""event"",""trial"",""time""
""blur"",""7"",""47253""
""blur"",""7"",""103589""
","""event"",""trial"",""time""
""focus"",""7"",""50343""
""focus"",""7"",""104275""
","""event"",""trial"",""time""
""fullscreenenter"",""1"",""1703""
","
","","","200.20000004768372","","","13","6144","727","&#9789;","elianto","#f73b6a7A"," "," ","1","0","[1056.4000000953674]","1","0","4","","","","","","","",""
"pit-trial","97","742770","0.0-2.0-17.3-1.3","battery-v0.2","","""event"",""trial"",""time""
""fullscreenenter"",""1"",""1703""
""blur"",""7"",""47253""
""focus"",""7"",""50343""
""blur"",""7"",""103589""
""focus"",""7"",""104275""
","""event"",""trial"",""time""
""blur"",""7"",""47253""
""blur"",""7"",""103589""
","""event"",""trial"",""time""
""focus"",""7"",""50343""
""focus"",""7"",""104275""
","""event"",""trial"",""time""
""fullscreenenter"",""1"",""1703""
","
","","","482.2999999523163","","","13","6144","727","&#9789;","elianto","#f73b6a7A"," "," ","1","0","[1339.7000000476837]","1","0","4","","","","","","","",""
"pit-trial","98","745786","0.0-2.0-17.3-2.3","battery-v0.2","","""event"",""trial"",""time""
""fullscreenenter"",""1"",""1703""
""blur"",""7"",""47253""
""focus"",""7"",""50343""
""blur"",""7"",""103589""
""focus"",""7"",""104275""
","""event"",""trial"",""time""
""blur"",""7"",""47253""
""blur"",""7"",""103589""
","""event"",""trial"",""time""
""focus"",""7"",""50343""
""focus"",""7"",""104275""
","""event"",""trial"",""time""
""fullscreenenter"",""1"",""1703""
","
","","","156","","","13","6144","727","&#9789;","elianto","#f73b6a7A"," "," ","1","0","[1007.2999999523163]","1","0","4","","","","","","","",""
"pit-trial","99","748658","0.0-2.0-17.3-3.3","battery-v0.2","","""event"",""trial"",""time""
""fullscreenenter"",""1"",""1703""
""blur"",""7"",""47253""
""focus"",""7"",""50343""
""blur"",""7"",""103589""
""focus"",""7"",""104275""
","""event"",""trial"",""time""
""blur"",""7"",""47253""
""blur"",""7"",""103589""
","""event"",""trial"",""time""
""focus"",""7"",""50343""
""focus"",""7"",""104275""
","""event"",""trial"",""time""
""fullscreenenter"",""1"",""1703""
","
","","","16.899999976158142","","","13","6144","727","&#9789;","elianto","#f73b6a7A"," "," ","1","-10","[868.3999999761581]","1","0","4","","","","","","","",""
"pit-trial","100","751794","0.0-2.0-17.3-4.3","battery-v0.2","","""event"",""trial"",""time""
""fullscreenenter"",""1"",""1703""
""blur"",""7"",""47253""
""focus"",""7"",""50343""
""blur"",""7"",""103589""
""focus"",""7"",""104275""
","""event"",""trial"",""time""
""blur"",""7"",""47253""
""blur"",""7"",""103589""
","""event"",""trial"",""time""
""focus"",""7"",""50343""
""focus"",""7"",""104275""
","""event"",""trial"",""time""
""fullscreenenter"",""1"",""1703""
","
","","","270.2999999523163","","","13","6144","727","&#9789;","elianto","#f73b6a7A"," "," ","1","0","[1126.8999999761581]","1","0","4","","","","","","","",""
"call-function","101","751796","0.0-2.0-18.0","battery-v0.2","","""event"",""trial"",""time""
""fullscreenenter"",""1"",""1703""
""blur"",""7"",""47253""
""focus"",""7"",""50343""
""blur"",""7"",""103589""
""focus"",""7"",""104275""
","""event"",""trial"",""time""
""blur"",""7"",""47253""
""blur"",""7"",""103589""
","""event"",""trial"",""time""
""focus"",""7"",""50343""
""focus"",""7"",""104275""
","""event"",""trial"",""time""
""fullscreenenter"",""1"",""1703""
","
","","","","","","","","","","","","","","","","","","","","","","","","","","",""
"pit-instructions","102","991308","0.0-2.0-19.0","battery-v0.2","","""event"",""trial"",""time""
""fullscreenenter"",""1"",""1703""
""blur"",""7"",""47253""
""focus"",""7"",""50343""
""blur"",""7"",""103589""
""focus"",""7"",""104275""
","""event"",""trial"",""time""
""blur"",""7"",""47253""
""blur"",""7"",""103589""
","""event"",""trial"",""time""
""focus"",""7"",""50343""
""focus"",""7"",""104275""
","""event"",""trial"",""time""
""fullscreenenter"",""1"",""1703""
","
","","[{""page_index"":0,""viewing_time"":9931.799999952316},{""page_index"":1,""viewing_time"":162519.79999995232},{""page_index"":2,""viewing_time"":25964.700000047684},{""page_index"":3,""viewing_time"":9102.200000047684},{""page_index"":4,""viewing_time"":7213.899999976158},{""page_index"":5,""viewing_time"":10800.5},{""page_index"":6,""viewing_time"":5782.799999952316},{""page_index"":7,""viewing_time"":4367},{""page_index"":8,""viewing_time"":3833.3000000715256}]","239516.5","","","","","","","","","","","","","","","","","","","","","","","",""
"pit-comprehension","103","996492","0.0-2.0-20.0-0.0","battery-v0.2","","""event"",""trial"",""time""
""fullscreenenter"",""1"",""1703""
""blur"",""7"",""47253""
""focus"",""7"",""50343""
""blur"",""7"",""103589""
""focus"",""7"",""104275""
","""event"",""trial"",""time""
""blur"",""7"",""47253""
""blur"",""7"",""103589""
","""event"",""trial"",""time""
""focus"",""7"",""50343""
""focus"",""7"",""104275""
","""event"",""trial"",""time""
""fullscreenenter"",""1"",""1703""
","
","","","5180.299999952316","[""SPACE""]","0","13","6144","727","","","","","","","","","","","","","","","","","","",""
"pit-instructions","104","998524","0.0-2.0-20.0-1.0","battery-v0.2","","""event"",""trial"",""time""
""fullscreenenter"",""1"",""1703""
""blur"",""7"",""47253""
""focus"",""7"",""50343""
""blur"",""7"",""103589""
""focus"",""7"",""104275""
","""event"",""trial"",""time""
""blur"",""7"",""47253""
""blur"",""7"",""103589""
","""event"",""trial"",""time""
""focus"",""7"",""50343""
""focus"",""7"",""104275""
","""event"",""trial"",""time""
""fullscreenenter"",""1"",""1703""
","
","","[{""page_index"":0,""viewing_time"":2011.6000000238419}]","2011.8999999761581","","","","","","","","","","","","","","","","","","","","","","","",""
"pit-comprehension","105","1002825","0.0-2.0-21.0-0.0","battery-v0.2","","""event"",""trial"",""time""
""fullscreenenter"",""1"",""1703""
""blur"",""7"",""47253""
""focus"",""7"",""50343""
""blur"",""7"",""103589""
""focus"",""7"",""104275""
","""event"",""trial"",""time""
""blur"",""7"",""47253""
""blur"",""7"",""103589""
","""event"",""trial"",""time""
""focus"",""7"",""50343""
""focus"",""7"",""104275""
","""event"",""trial"",""time""
""fullscreenenter"",""1"",""1703""
","
","","","4296.5","[""10""]","0","13","6144","727","","","","","","","","","","","","","","","","","","",""
"pit-instructions","106","1004324","0.0-2.0-21.0-1.0","battery-v0.2","","""event"",""trial"",""time""
""fullscreenenter"",""1"",""1703""
""blur"",""7"",""47253""
""focus"",""7"",""50343""
""blur"",""7"",""103589""
""focus"",""7"",""104275""
","""event"",""trial"",""time""
""blur"",""7"",""47253""
""blur"",""7"",""103589""
","""event"",""trial"",""time""
""focus"",""7"",""50343""
""focus"",""7"",""104275""
","""event"",""trial"",""time""
""fullscreenenter"",""1"",""1703""
","
","","[{""page_index"":0,""viewing_time"":1479}]","1479.3999999761581","","","","","","","","","","","","","","","","","","","","","","","",""
"pit-comprehension","107","1010492","0.0-2.0-22.0-0.0","battery-v0.2","","""event"",""trial"",""time""
""fullscreenenter"",""1"",""1703""
""blur"",""7"",""47253""
""focus"",""7"",""50343""
""blur"",""7"",""103589""
""focus"",""7"",""104275""
","""event"",""trial"",""time""
""blur"",""7"",""47253""
""blur"",""7"",""103589""
","""event"",""trial"",""time""
""focus"",""7"",""50343""
""focus"",""7"",""104275""
","""event"",""trial"",""time""
""fullscreenenter"",""1"",""1703""
","
","","","6163.600000023842","[""0""]","0","13","6144","727","","","","","","","","","","","","","","","","","","",""
"pit-instructions","108","1011608","0.0-2.0-22.0-1.0","battery-v0.2","","""event"",""trial"",""time""
""fullscreenenter"",""1"",""1703""
""blur"",""7"",""47253""
""focus"",""7"",""50343""
""blur"",""7"",""103589""
""focus"",""7"",""104275""
","""event"",""trial"",""time""
""blur"",""7"",""47253""
""blur"",""7"",""103589""
","""event"",""trial"",""time""
""focus"",""7"",""50343""
""focus"",""7"",""104275""
","""event"",""trial"",""time""
""fullscreenenter"",""1"",""1703""
","
","","[{""page_index"":0,""viewing_time"":1096.6000000238419}]","1097","","","","","","","","","","","","","","","","","","","","","","","",""
"pit-comprehension","109","1020791","0.0-2.0-23.0-0.0","battery-v0.2","","""event"",""trial"",""time""
""fullscreenenter"",""1"",""1703""
""blur"",""7"",""47253""
""focus"",""7"",""50343""
""blur"",""7"",""103589""
""focus"",""7"",""104275""
","""event"",""trial"",""time""
""blur"",""7"",""47253""
""blur"",""7"",""103589""
","""event"",""trial"",""time""
""focus"",""7"",""50343""
""focus"",""7"",""104275""
","""event"",""trial"",""time""
""fullscreenenter"",""1"",""1703""
","
","","","9180.700000047684","[""True""]","0","13","6144","727","","","","","","","","","","","","","","","","","","",""
"pit-instructions","110","1024325","0.0-2.0-23.0-1.0","battery-v0.2","","""event"",""trial"",""time""
""fullscreenenter"",""1"",""1703""
""blur"",""7"",""47253""
""focus"",""7"",""50343""
""blur"",""7"",""103589""
""focus"",""7"",""104275""
","""event"",""trial"",""time""
""blur"",""7"",""47253""
""blur"",""7"",""103589""
","""event"",""trial"",""time""
""focus"",""7"",""50343""
""focus"",""7"",""104275""
","""event"",""trial"",""time""
""fullscreenenter"",""1"",""1703""
","
","","[{""page_index"":0,""viewing_time"":3512.100000023842}]","3512.899999976158","","","","","","","","","","","","","","","","","","","","","","","",""
"pit-comprehension","111","1031357","0.0-2.0-24.0-0.0","battery-v0.2","","""event"",""trial"",""time""
""fullscreenenter"",""1"",""1703""
""blur"",""7"",""47253""
""focus"",""7"",""50343""
""blur"",""7"",""103589""
""focus"",""7"",""104275""
","""event"",""trial"",""time""
""blur"",""7"",""47253""
""blur"",""7"",""103589""
","""event"",""trial"",""time""
""focus"",""7"",""50343""
""focus"",""7"",""104275""
","""event"",""trial"",""time""
""fullscreenenter"",""1"",""1703""
","
","","","7027.300000071526","[""True""]","0","13","6144","727","","","","","","","","","","","","","","","","","","",""
"pit-instructions","112","1038123","0.0-2.0-24.0-1.0","battery-v0.2","","""event"",""trial"",""time""
""fullscreenenter"",""1"",""1703""
""blur"",""7"",""47253""
""focus"",""7"",""50343""
""blur"",""7"",""103589""
""focus"",""7"",""104275""
","""event"",""trial"",""time""
""blur"",""7"",""47253""
""blur"",""7"",""103589""
","""event"",""trial"",""time""
""focus"",""7"",""50343""
""focus"",""7"",""104275""
","""event"",""trial"",""time""
""fullscreenenter"",""1"",""1703""
","
","","[{""page_index"":0,""viewing_time"":6748}]","6748.199999928474","","","","","","","","","","","","","","","","","","","","","","","",""
"pit-comprehension","113","1044343","0.0-2.0-25.0-0.0","battery-v0.2","","""event"",""trial"",""time""
""fullscreenenter"",""1"",""1703""
""blur"",""7"",""47253""
""focus"",""7"",""50343""
""blur"",""7"",""103589""
""focus"",""7"",""104275""
","""event"",""trial"",""time""
""blur"",""7"",""47253""
""blur"",""7"",""103589""
","""event"",""trial"",""time""
""focus"",""7"",""50343""
""focus"",""7"",""104275""
","""event"",""trial"",""time""
""fullscreenenter"",""1"",""1703""
","
","","","6216.400000095367","[""True""]","0","13","6144","727","","","","","","","","","","","","","","","","","","",""
"pit-instructions","114","1045406","0.0-2.0-25.0-1.0","battery-v0.2","","""event"",""trial"",""time""
""fullscreenenter"",""1"",""1703""
""blur"",""7"",""47253""
""focus"",""7"",""50343""
""blur"",""7"",""103589""
""focus"",""7"",""104275""
","""event"",""trial"",""time""
""blur"",""7"",""47253""
""blur"",""7"",""103589""
","""event"",""trial"",""time""
""focus"",""7"",""50343""
""focus"",""7"",""104275""
","""event"",""trial"",""time""
""fullscreenenter"",""1"",""1703""
","
","","[{""page_index"":0,""viewing_time"":1030.1000000238419}]","1030.2999999523163","","","","","","","","","","","","","","","","","","","","","","","",""
"pit-comprehension","115","1049841","0.0-2.0-26.0-0.0","battery-v0.2","","""event"",""trial"",""time""
""fullscreenenter"",""1"",""1703""
""blur"",""7"",""47253""
""focus"",""7"",""50343""
""blur"",""7"",""103589""
""focus"",""7"",""104275""
","""event"",""trial"",""time""
""blur"",""7"",""47253""
""blur"",""7"",""103589""
","""event"",""trial"",""time""
""focus"",""7"",""50343""
""focus"",""7"",""104275""
","""event"",""trial"",""time""
""fullscreenenter"",""1"",""1703""
","
","","","4431.899999976158","[""False""]","0","13","6144","727","","","","","","","","","","","","","","","","","","",""
"pit-instructions","116","1050906","0.0-2.0-26.0-1.0","battery-v0.2","","""event"",""trial"",""time""
""fullscreenenter"",""1"",""1703""
""blur"",""7"",""47253""
""focus"",""7"",""50343""
""blur"",""7"",""103589""
""focus"",""7"",""104275""
","""event"",""trial"",""time""
""blur"",""7"",""47253""
""blur"",""7"",""103589""
","""event"",""trial"",""time""
""focus"",""7"",""50343""
""focus"",""7"",""104275""
","""event"",""trial"",""time""
""fullscreenenter"",""1"",""1703""
","
","","[{""page_index"":0,""viewing_time"":1044.2000000476837}]","1044.4000000953674","","","","","","","","","","","","","","","","","","","","","","","",""
"pit-instructions","117","1066641","0.0-3.0","battery-v0.2","","""event"",""trial"",""time""
""fullscreenenter"",""1"",""1703""
""blur"",""7"",""47253""
""focus"",""7"",""50343""
""blur"",""7"",""103589""
""focus"",""7"",""104275""
","""event"",""trial"",""time""
""blur"",""7"",""47253""
""blur"",""7"",""103589""
","""event"",""trial"",""time""
""focus"",""7"",""50343""
""focus"",""7"",""104275""
","""event"",""trial"",""time""
""fullscreenenter"",""1"",""1703""
","
","","[{""page_index"":0,""viewing_time"":3881.399999976158},{""page_index"":1,""viewing_time"":5516.800000071526},{""page_index"":2,""viewing_time"":6335.199999928474}]","15733.800000071526","","","","","","","","","","","","","","","","","","","","","","","",""
"pit-trial","118","1070309","0.0-4.0","battery-v0.2","","""event"",""trial"",""time""
""fullscreenenter"",""1"",""1703""
""blur"",""7"",""47253""
""focus"",""7"",""50343""
""blur"",""7"",""103589""
""focus"",""7"",""104275""
","""event"",""trial"",""time""
""blur"",""7"",""47253""
""blur"",""7"",""103589""
","""event"",""trial"",""time""
""focus"",""7"",""50343""
""focus"",""7"",""104275""
","""event"",""trial"",""time""
""fullscreenenter"",""1"",""1703""
","
","","","801.3999999761581","","","13","6144","727","&#9752;","elianto","#f73b6a7A"," "," ","1","0","[1656.5]","1","1","","","6144","1","3","3","lose","go","0"
"pit-trial","119","1073847","0.0-5.0","battery-v0.2","","""event"",""trial"",""time""
""fullscreenenter"",""1"",""1703""
""blur"",""7"",""47253""
""focus"",""7"",""50343""
""blur"",""7"",""103589""
""focus"",""7"",""104275""
","""event"",""trial"",""time""
""blur"",""7"",""47253""
""blur"",""7"",""103589""
","""event"",""trial"",""time""
""focus"",""7"",""50343""
""focus"",""7"",""104275""
","""event"",""trial"",""time""
""fullscreenenter"",""1"",""1703""
","
","","","673.2999999523163","","","13","6144","727","&#9730;","elianto","#3366ff99"," "," ","1","+10","[1529.3999999761581]","1","1","","","6144","2","1","1","win","go","0"
"pit-trial","120","1077491","0.0-6.0","battery-v0.2","","""event"",""trial"",""time""
""fullscreenenter"",""1"",""1703""
""blur"",""7"",""47253""
""focus"",""7"",""50343""
""blur"",""7"",""103589""
""focus"",""7"",""104275""
","""event"",""trial"",""time""
""blur"",""7"",""47253""
""blur"",""7"",""103589""
","""event"",""trial"",""time""
""focus"",""7"",""50343""
""focus"",""7"",""104275""
","""event"",""trial"",""time""
""fullscreenenter"",""1"",""1703""
","
","","","780.6000000238419","","","13","6144","727","&#9733;","elianto","#3366ff99","-1"," ","0","0","[1633.2999999523163]","1","1","","","6144","3","2","2","win","no-go","0"
"pit-trial","121","1082359","0.0-7.0","battery-v0.2","","""event"",""trial"",""time""
""fullscreenenter"",""1"",""1703""
""blur"",""7"",""47253""
""focus"",""7"",""50343""
""blur"",""7"",""103589""
""focus"",""7"",""104275""
","""event"",""trial"",""time""
""blur"",""7"",""47253""
""blur"",""7"",""103589""
","""event"",""trial"",""time""
""focus"",""7"",""50343""
""focus"",""7"",""104275""
","""event"",""trial"",""time""
""fullscreenenter"",""1"",""1703""
","
","","","-1","","","13","6144","727","&#9728;","elianto","#f73b6a7A","-1","-1","1","0","[]","0","1","","","6144","4","0","4","lose","no-go","0"
"pit-trial","122","1087227","0.0-8.0","battery-v0.2","","""event"",""trial"",""time""
""fullscreenenter"",""1"",""1703""
""blur"",""7"",""47253""
""focus"",""7"",""50343""
""blur"",""7"",""103589""
""focus"",""7"",""104275""
","""event"",""trial"",""time""
""blur"",""7"",""47253""
""blur"",""7"",""103589""
","""event"",""trial"",""time""
""focus"",""7"",""50343""
""focus"",""7"",""104275""
","""event"",""trial"",""time""
""fullscreenenter"",""1"",""1703""
","
","","","-1","","","13","6144","727","&#9728;","elianto","#f73b6a7A","-1","-1","1","-10","[]","0","1","","","6144","5","0","4","lose","no-go","1"
"pit-trial","123","1090914","0.0-9.0","battery-v0.2","","""event"",""trial"",""time""
""fullscreenenter"",""1"",""1703""
""blur"",""7"",""47253""
""focus"",""7"",""50343""
""blur"",""7"",""103589""
""focus"",""7"",""104275""
","""event"",""trial"",""time""
""blur"",""7"",""47253""
""blur"",""7"",""103589""
","""event"",""trial"",""time""
""focus"",""7"",""50343""
""focus"",""7"",""104275""
","""event"",""trial"",""time""
""fullscreenenter"",""1"",""1703""
","
","","","823.9000000953674","","","13","6144","727","&#9752;","elianto","#f73b6a7A"," "," ","1","0","[1679.5]","1","1","","","6144","6","3","3","lose","go","0"
"pit-trial","124","1095778","0.0-10.0","battery-v0.2","","""event"",""trial"",""time""
""fullscreenenter"",""1"",""1703""
""blur"",""7"",""47253""
""focus"",""7"",""50343""
""blur"",""7"",""103589""
""focus"",""7"",""104275""
","""event"",""trial"",""time""
""blur"",""7"",""47253""
""blur"",""7"",""103589""
","""event"",""trial"",""time""
""focus"",""7"",""50343""
""focus"",""7"",""104275""
","""event"",""trial"",""time""
""fullscreenenter"",""1"",""1703""
","
","","","-1","","","13","6144","727","&#9733;","elianto","#3366ff99","-1","-1","1","+10","[]","0","1","","","6144","7","2","2","win","no-go","0"
"pit-trial","125","1099317","0.0-11.0","battery-v0.2","","""event"",""trial"",""time""
""fullscreenenter"",""1"",""1703""
""blur"",""7"",""47253""
""focus"",""7"",""50343""
""blur"",""7"",""103589""
""focus"",""7"",""104275""
","""event"",""trial"",""time""
""blur"",""7"",""47253""
""blur"",""7"",""103589""
","""event"",""trial"",""time""
""focus"",""7"",""50343""
""focus"",""7"",""104275""
","""event"",""trial"",""time""
""fullscreenenter"",""1"",""1703""
","
","","","677.6000000238419","","","13","6144","727","&#9730;","elianto","#3366ff99"," "," ","1","+10","[1531.3999999761581]","1","1","","","6144","8","1","1","win","go","0"
"pit-trial","126","1102789","0.0-12.0","battery-v0.2","","""event"",""trial"",""time""
""fullscreenenter"",""1"",""1703""
""blur"",""7"",""47253""
""focus"",""7"",""50343""
""blur"",""7"",""103589""
""focus"",""7"",""104275""
","""event"",""trial"",""time""
""blur"",""7"",""47253""
""blur"",""7"",""103589""
","""event"",""trial"",""time""
""focus"",""7"",""50343""
""focus"",""7"",""104275""
","""event"",""trial"",""time""
""fullscreenenter"",""1"",""1703""
","
","","","608.2000000476837","","","13","6144","727","&#9730;","elianto","#3366ff99"," "," ","1","+10","[1459.1000000238419]","1","1","","","6144","9","1","1","win","go","0"
"pit-trial","127","1107653","0.0-13.0","battery-v0.2","","""event"",""trial"",""time""
""fullscreenenter"",""1"",""1703""
""blur"",""7"",""47253""
""focus"",""7"",""50343""
""blur"",""7"",""103589""
""focus"",""7"",""104275""
","""event"",""trial"",""time""
""blur"",""7"",""47253""
""blur"",""7"",""103589""
","""event"",""trial"",""time""
""focus"",""7"",""50343""
""focus"",""7"",""104275""
","""event"",""trial"",""time""
""fullscreenenter"",""1"",""1703""
","
","","","-1","","","13","6144","727","&#9733;","elianto","#3366ff99","-1","-1","1","+10","[]","0","1","","","6144","10","2","2","win","no-go","0"
"pit-trial","128","1111524","0.0-14.0","battery-v0.2","","""event"",""trial"",""time""
""fullscreenenter"",""1"",""1703""
""blur"",""7"",""47253""
""focus"",""7"",""50343""
""blur"",""7"",""103589""
""focus"",""7"",""104275""
","""event"",""trial"",""time""
""blur"",""7"",""47253""
""blur"",""7"",""103589""
","""event"",""trial"",""time""
""focus"",""7"",""50343""
""focus"",""7"",""104275""
","""event"",""trial"",""time""
""fullscreenenter"",""1"",""1703""
","
","","","1012.1000000238419","","","13","6144","727","&#9752;","elianto","#f73b6a7A"," "," ","1","-10","[1865.1000000238419]","1","1","","","6144","11","3","3","lose","go","1"
"pit-trial","129","1115641","0.0-15.0","battery-v0.2","","""event"",""trial"",""time""
""fullscreenenter"",""1"",""1703""
""blur"",""7"",""47253""
""focus"",""7"",""50343""
""blur"",""7"",""103589""
""focus"",""7"",""104275""
","""event"",""trial"",""time""
""blur"",""7"",""47253""
""blur"",""7"",""103589""
","""event"",""trial"",""time""
""focus"",""7"",""50343""
""focus"",""7"",""104275""
","""event"",""trial"",""time""
""fullscreenenter"",""1"",""1703""
","
","","","1262.6000000238419","","","13","6144","727","&#9728;","elianto","#f73b6a7A","-1"," ","0","-10","[2114.5]","1","1","","","6144","12","0","4","lose","no-go","0"
"pit-trial","130","1120506","0.0-16.0","battery-v0.2","","""event"",""trial"",""time""
""fullscreenenter"",""1"",""1703""
""blur"",""7"",""47253""
""focus"",""7"",""50343""
""blur"",""7"",""103589""
""focus"",""7"",""104275""
","""event"",""trial"",""time""
""blur"",""7"",""47253""
""blur"",""7"",""103589""
","""event"",""trial"",""time""
""focus"",""7"",""50343""
""focus"",""7"",""104275""
","""event"",""trial"",""time""
""fullscreenenter"",""1"",""1703""
","
","","","-1","","","13","6144","727","&#9733;","elianto","#3366ff99","-1","-1","1","+10","[]","0","1","","","6144","13","2","2","win","no-go","0"
"pit-trial","131","1124538","0.0-17.0","battery-v0.2","","""event"",""trial"",""time""
""fullscreenenter"",""1"",""1703""
""blur"",""7"",""47253""
""focus"",""7"",""50343""
""blur"",""7"",""103589""
""focus"",""7"",""104275""
","""event"",""trial"",""time""
""blur"",""7"",""47253""
""blur"",""7"",""103589""
","""event"",""trial"",""time""
""focus"",""7"",""50343""
""focus"",""7"",""104275""
","""event"",""trial"",""time""
""fullscreenenter"",""1"",""1703""
","
","","","1164.2999999523163","","","13","6144","727","&#9728;","elianto","#f73b6a7A","-1"," ","0","-10","[2021.2999999523163]","1","1","","","6144","14","0","4","lose","no-go","0"
"pit-trial","132","1129405","0.0-18.0","battery-v0.2","","""event"",""trial"",""time""
""fullscreenenter"",""1"",""1703""
""blur"",""7"",""47253""
""focus"",""7"",""50343""
""blur"",""7"",""103589""
""focus"",""7"",""104275""
","""event"",""trial"",""time""
""blur"",""7"",""47253""
""blur"",""7"",""103589""
","""event"",""trial"",""time""
""focus"",""7"",""50343""
""focus"",""7"",""104275""
","""event"",""trial"",""time""
""fullscreenenter"",""1"",""1703""
","
","","","-1","","","13","6144","727","&#9752;","elianto","#f73b6a7A"," ","-1","0","-10","[]","0","1","","","6144","15","3","3","lose","go","0"
"pit-trial","133","1133050","0.0-19.0","battery-v0.2","","""event"",""trial"",""time""
""fullscreenenter"",""1"",""1703""
""blur"",""7"",""47253""
""focus"",""7"",""50343""
""blur"",""7"",""103589""
""focus"",""7"",""104275""
","""event"",""trial"",""time""
""blur"",""7"",""47253""
""blur"",""7"",""103589""
","""event"",""trial"",""time""
""focus"",""7"",""50343""
""focus"",""7"",""104275""
","""event"",""trial"",""time""
""fullscreenenter"",""1"",""1703""
","
","","","780.2999999523163","","","13","6144","727","&#9730;","elianto","#3366ff99"," "," ","1","+10","[1639.1999999284744]","1","1","","","6144","16","1","1","win","go","0"
"pit-trial","134","1137817","0.0-20.0","battery-v0.2","","""event"",""trial"",""time""
""fullscreenenter"",""1"",""1703""
""blur"",""7"",""47253""
""focus"",""7"",""50343""
""blur"",""7"",""103589""
""focus"",""7"",""104275""
","""event"",""trial"",""time""
""blur"",""7"",""47253""
""blur"",""7"",""103589""
","""event"",""trial"",""time""
""focus"",""7"",""50343""
""focus"",""7"",""104275""
","""event"",""trial"",""time""
""fullscreenenter"",""1"",""1703""
","
","","","1908","","","13","6144","727","&#9728;","elianto","#f73b6a7A","-1"," ","0","-10","[2758.2000000476837]","1","1","","","6144","17","0","4","lose","no-go","0"
"pit-trial","135","1141780","0.0-21.0","battery-v0.2","","""event"",""trial"",""time""
""fullscreenenter"",""1"",""1703""
""blur"",""7"",""47253""
""focus"",""7"",""50343""
""blur"",""7"",""103589""
""focus"",""7"",""104275""
","""event"",""trial"",""time""
""blur"",""7"",""47253""
""blur"",""7"",""103589""
","""event"",""trial"",""time""
""focus"",""7"",""50343""
""focus"",""7"",""104275""
","""event"",""trial"",""time""
""fullscreenenter"",""1"",""1703""
","
","","","1099.8000000715256","","","13","6144","727","&#9752;","elianto","#f73b6a7A"," "," ","1","0","[1950.1000000238419]","1","1","","","6144","18","3","3","lose","go","0"
"pit-trial","136","1145492","0.0-22.0","battery-v0.2","","""event"",""trial"",""time""
""fullscreenenter"",""1"",""1703""
""blur"",""7"",""47253""
""focus"",""7"",""50343""
""blur"",""7"",""103589""
""focus"",""7"",""104275""
","""event"",""trial"",""time""
""blur"",""7"",""47253""
""blur"",""7"",""103589""
","""event"",""trial"",""time""
""focus"",""7"",""50343""
""focus"",""7"",""104275""
","""event"",""trial"",""time""
""fullscreenenter"",""1"",""1703""
","
","","","853","","","13","6144","727","&#9730;","elianto","#3366ff99"," "," ","1","+10","[1704.2999999523163]","1","1","","","6144","19","1","1","win","go","0"
"pit-trial","137","1150356","0.0-23.0","battery-v0.2","","""event"",""trial"",""time""
""fullscreenenter"",""1"",""1703""
""blur"",""7"",""47253""
""focus"",""7"",""50343""
""blur"",""7"",""103589""
""focus"",""7"",""104275""
","""event"",""trial"",""time""
""blur"",""7"",""47253""
""blur"",""7"",""103589""
","""event"",""trial"",""time""
""focus"",""7"",""50343""
""focus"",""7"",""104275""
","""event"",""trial"",""time""
""fullscreenenter"",""1"",""1703""
","
","","","-1","","","13","6144","727","&#9733;","elianto","#3366ff99","-1","-1","1","+10","[]","0","1","","","6144","20","2","2","win","no-go","0"
"pit-instructions","138","1171271","0.0-24.0","battery-v0.2","","""event"",""trial"",""time""
""fullscreenenter"",""1"",""1703""
""blur"",""7"",""47253""
""focus"",""7"",""50343""
""blur"",""7"",""103589""
""focus"",""7"",""104275""
","""event"",""trial"",""time""
""blur"",""7"",""47253""
""blur"",""7"",""103589""
","""event"",""trial"",""time""
""focus"",""7"",""50343""
""focus"",""7"",""104275""
","""event"",""trial"",""time""
""fullscreenenter"",""1"",""1703""
","
","","[{""page_index"":0,""viewing_time"":9247.199999928474},{""page_index"":1,""viewing_time"":11666.700000047684}]","20914.299999952316","","","","","","","","","","","","","","","","","","","","","","","",""
"pit-trial","139","1175101","0.0-25.0","battery-v0.2","","""event"",""trial"",""time""
""fullscreenenter"",""1"",""1703""
""blur"",""7"",""47253""
""focus"",""7"",""50343""
""blur"",""7"",""103589""
""focus"",""7"",""104275""
","""event"",""trial"",""time""
""blur"",""7"",""47253""
""blur"",""7"",""103589""
","""event"",""trial"",""time""
""focus"",""7"",""50343""
""focus"",""7"",""104275""
","""event"",""trial"",""time""
""fullscreenenter"",""1"",""1703""
","
","","","955.1999999284744","","","13","6144","727","b","elianto","#f73b6a7A"," "," ","1","0","[1814.1000000238419]","1","2","","","6144","21","3","3","lose","go","0"
"pit-trial","140","1179968","0.0-26.0","battery-v0.2","","""event"",""trial"",""time""
""fullscreenenter"",""1"",""1703""
""blur"",""7"",""47253""
""focus"",""7"",""50343""
""blur"",""7"",""103589""
""focus"",""7"",""104275""
","""event"",""trial"",""time""
""blur"",""7"",""47253""
""blur"",""7"",""103589""
","""event"",""trial"",""time""
""focus"",""7"",""50343""
""focus"",""7"",""104275""
","""event"",""trial"",""time""
""fullscreenenter"",""1"",""1703""
","
","","","-1","","","13","6144","727","n","elianto","#f73b6a7A","-1","-1","1","-10","[]","0","2","","","6144","22","0","4","lose","no-go","1"
"pit-trial","141","1183745","0.0-27.0","battery-v0.2","","""event"",""trial"",""time""
""fullscreenenter"",""1"",""1703""
""blur"",""7"",""47253""
""focus"",""7"",""50343""
""blur"",""7"",""103589""
""focus"",""7"",""104275""
","""event"",""trial"",""time""
""blur"",""7"",""47253""
""blur"",""7"",""103589""
","""event"",""trial"",""time""
""focus"",""7"",""50343""
""focus"",""7"",""104275""
","""event"",""trial"",""time""
""fullscreenenter"",""1"",""1703""
","
","","","918.3999999761581","","","13","6144","727","t","elianto","#f73b6a7A","-1"," ","0","-10","[1772.5]","1","2","","","6144","23","2","4","lose","no-go","0"
"pit-trial","142","1187956","0.0-28.0","battery-v0.2","","""event"",""trial"",""time""
""fullscreenenter"",""1"",""1703""
""blur"",""7"",""47253""
""focus"",""7"",""50343""
""blur"",""7"",""103589""
""focus"",""7"",""104275""
","""event"",""trial"",""time""
""blur"",""7"",""47253""
""blur"",""7"",""103589""
","""event"",""trial"",""time""
""focus"",""7"",""50343""
""focus"",""7"",""104275""
","""event"",""trial"",""time""
""fullscreenenter"",""1"",""1703""
","
","","","1349.6000000238419","","","13","6144","727","f","elianto","#3366ff99"," "," ","1","0","[2200.2999999523163]","1","2","","","6144","24","1","1","win","go","1"
"pit-trial","143","1192828","0.0-29.0","battery-v0.2","","""event"",""trial"",""time""
""fullscreenenter"",""1"",""1703""
""blur"",""7"",""47253""
""focus"",""7"",""50343""
""blur"",""7"",""103589""
""focus"",""7"",""104275""
","""event"",""trial"",""time""
""blur"",""7"",""47253""
""blur"",""7"",""103589""
","""event"",""trial"",""time""
""focus"",""7"",""50343""
""focus"",""7"",""104275""
","""event"",""trial"",""time""
""fullscreenenter"",""1"",""1703""
","
","","","-1","","","13","6144","727","t","elianto","#f73b6a7A","-1","-1","1","0","[]","0","2","","","6144","25","2","4","lose","no-go","0"
"pit-trial","144","1196432","0.0-30.0","battery-v0.2","","""event"",""trial"",""time""
""fullscreenenter"",""1"",""1703""
""blur"",""7"",""47253""
""focus"",""7"",""50343""
""blur"",""7"",""103589""
""focus"",""7"",""104275""
","""event"",""trial"",""time""
""blur"",""7"",""47253""
""blur"",""7"",""103589""
","""event"",""trial"",""time""
""focus"",""7"",""50343""
""focus"",""7"",""104275""
","""event"",""trial"",""time""
""fullscreenenter"",""1"",""1703""
","
","","","743.5","","","13","6144","727","b","elianto","#f73b6a7A"," "," ","1","0","[1596.3999999761581]","1","2","","","6144","26","3","3","lose","go","0"
"pit-trial","145","1201298","0.0-31.0","battery-v0.2","","""event"",""trial"",""time""
""fullscreenenter"",""1"",""1703""
""blur"",""7"",""47253""
""focus"",""7"",""50343""
""blur"",""7"",""103589""
""focus"",""7"",""104275""
","""event"",""trial"",""time""
""blur"",""7"",""47253""
""blur"",""7"",""103589""
","""event"",""trial"",""time""
""focus"",""7"",""50343""
""focus"",""7"",""104275""
","""event"",""trial"",""time""
""fullscreenenter"",""1"",""1703""
","
","","","-1","","","13","6144","727","n","elianto","#f73b6a7A","-1","-1","1","0","[]","0","2","","","6144","27","0","4","lose","no-go","0"
"pit-trial","146","1205234","0.0-32.0","battery-v0.2","","""event"",""trial"",""time""
""fullscreenenter"",""1"",""1703""
""blur"",""7"",""47253""
""focus"",""7"",""50343""
""blur"",""7"",""103589""
""focus"",""7"",""104275""
","""event"",""trial"",""time""
""blur"",""7"",""47253""
""blur"",""7"",""103589""
","""event"",""trial"",""time""
""focus"",""7"",""50343""
""focus"",""7"",""104275""
","""event"",""trial"",""time""
""fullscreenenter"",""1"",""1703""
","
","","","1077.7000000476837","","","13","6144","727","f","elianto","#3366ff99"," "," ","1","+10","[1927.7999999523163]","1","2","","","6144","28","1","1","win","go","0"
"pit-trial","147","1209313","0.0-33.0","battery-v0.2","","""event"",""trial"",""time""
""fullscreenenter"",""1"",""1703""
""blur"",""7"",""47253""
""focus"",""7"",""50343""
""blur"",""7"",""103589""
""focus"",""7"",""104275""
","""event"",""trial"",""time""
""blur"",""7"",""47253""
""blur"",""7"",""103589""
","""event"",""trial"",""time""
""focus"",""7"",""50343""
""focus"",""7"",""104275""
","""event"",""trial"",""time""
""fullscreenenter"",""1"",""1703""
","
","","","1216","","","13","6144","727","b","elianto","#f73b6a7A"," "," ","1","0","[2070.100000023842]","1","2","","","6144","29","3","3","lose","go","0"
"pit-trial","148","1214178","0.0-34.0","battery-v0.2","","""event"",""trial"",""time""
""fullscreenenter"",""1"",""1703""
""blur"",""7"",""47253""
""focus"",""7"",""50343""
""blur"",""7"",""103589""
""focus"",""7"",""104275""
","""event"",""trial"",""time""
""blur"",""7"",""47253""
""blur"",""7"",""103589""
","""event"",""trial"",""time""
""focus"",""7"",""50343""
""focus"",""7"",""104275""
","""event"",""trial"",""time""
""fullscreenenter"",""1"",""1703""
","
","","","-1","","","13","6144","727","n","elianto","#f73b6a7A","-1","-1","1","0","[]","0","2","","","6144","30","0","4","lose","no-go","0"
"pit-trial","149","1219046","0.0-35.0","battery-v0.2","","""event"",""trial"",""time""
""fullscreenenter"",""1"",""1703""
""blur"",""7"",""47253""
""focus"",""7"",""50343""
""blur"",""7"",""103589""
""focus"",""7"",""104275""
","""event"",""trial"",""time""
""blur"",""7"",""47253""
""blur"",""7"",""103589""
","""event"",""trial"",""time""
""focus"",""7"",""50343""
""focus"",""7"",""104275""
","""event"",""trial"",""time""
""fullscreenenter"",""1"",""1703""
","
","","","-1","","","13","6144","727","t","elianto","#f73b6a7A","-1","-1","1","0","[]","0","2","","","6144","31","2","4","lose","no-go","0"
"pit-trial","150","1223175","0.0-36.0","battery-v0.2","","""event"",""trial"",""time""
""fullscreenenter"",""1"",""1703""
""blur"",""7"",""47253""
""focus"",""7"",""50343""
""blur"",""7"",""103589""
""focus"",""7"",""104275""
","""event"",""trial"",""time""
""blur"",""7"",""47253""
""blur"",""7"",""103589""
","""event"",""trial"",""time""
""focus"",""7"",""50343""
""focus"",""7"",""104275""
","""event"",""trial"",""time""
""fullscreenenter"",""1"",""1703""
","
","","","1274.6000000238419","","","13","6144","727","f","elianto","#3366ff99"," "," ","1","+10","[2125.399999976158]","1","2","","","6144","32","1","1","win","go","0"
"pit-trial","151","1227073","0.0-37.0","battery-v0.2","","""event"",""trial"",""time""
""fullscreenenter"",""1"",""1703""
""blur"",""7"",""47253""
""focus"",""7"",""50343""
""blur"",""7"",""103589""
""focus"",""7"",""104275""
","""event"",""trial"",""time""
""blur"",""7"",""47253""
""blur"",""7"",""103589""
","""event"",""trial"",""time""
""focus"",""7"",""50343""
""focus"",""7"",""104275""
","""event"",""trial"",""time""
""fullscreenenter"",""1"",""1703""
","
","","","1030.3999999761581","","","13","6144","727","f","elianto","#3366ff99"," "," ","1","+10","[1886.2999999523163]","1","2","","","6144","33","1","1","win","go","0"
"pit-trial","152","1230867","0.0-38.0","battery-v0.2","","""event"",""trial"",""time""
""fullscreenenter"",""1"",""1703""
""blur"",""7"",""47253""
""focus"",""7"",""50343""
""blur"",""7"",""103589""
""focus"",""7"",""104275""
","""event"",""trial"",""time""
""blur"",""7"",""47253""
""blur"",""7"",""103589""
","""event"",""trial"",""time""
""focus"",""7"",""50343""
""focus"",""7"",""104275""
","""event"",""trial"",""time""
""fullscreenenter"",""1"",""1703""
","
","","","928.3999999761581","","","13","6144","727","b","elianto","#f73b6a7A"," "," ","1","0","[1784.5]","1","2","","","6144","34","3","3","lose","go","0"
"pit-trial","153","1235734","0.0-39.0","battery-v0.2","","""event"",""trial"",""time""
""fullscreenenter"",""1"",""1703""
""blur"",""7"",""47253""
""focus"",""7"",""50343""
""blur"",""7"",""103589""
""focus"",""7"",""104275""
","""event"",""trial"",""time""
""blur"",""7"",""47253""
""blur"",""7"",""103589""
","""event"",""trial"",""time""
""focus"",""7"",""50343""
""focus"",""7"",""104275""
","""event"",""trial"",""time""
""fullscreenenter"",""1"",""1703""
","
","","","-1","","","13","6144","727","t","elianto","#f73b6a7A","-1","-1","1","0","[]","0","2","","","6144","35","2","4","lose","no-go","0"
"pit-trial","154","1240598","0.0-40.0","battery-v0.2","","""event"",""trial"",""time""
""fullscreenenter"",""1"",""1703""
""blur"",""7"",""47253""
""focus"",""7"",""50343""
""blur"",""7"",""103589""
""focus"",""7"",""104275""
","""event"",""trial"",""time""
""blur"",""7"",""47253""
""blur"",""7"",""103589""
","""event"",""trial"",""time""
""focus"",""7"",""50343""
""focus"",""7"",""104275""
","""event"",""trial"",""time""
""fullscreenenter"",""1"",""1703""
","
","","","-1","","","13","6144","727","n","elianto","#f73b6a7A","-1","-1","1","0","[]","0","2","","","6144","36","0","4","lose","no-go","0"
"pit-trial","155","1245467","0.0-41.0","battery-v0.2","","""event"",""trial"",""time""
""fullscreenenter"",""1"",""1703""
""blur"",""7"",""47253""
""focus"",""7"",""50343""
""blur"",""7"",""103589""
""focus"",""7"",""104275""
","""event"",""trial"",""time""
""blur"",""7"",""47253""
""blur"",""7"",""103589""
","""event"",""trial"",""time""
""focus"",""7"",""50343""
""focus"",""7"",""104275""
","""event"",""trial"",""time""
""fullscreenenter"",""1"",""1703""
","
","","","-1","","","13","6144","727","t","elianto","#f73b6a7A","-1","-1","1","-10","[]","0","2","","","6144","37","2","4","lose","no-go","1"
"pit-trial","156","1249041","0.0-42.0","battery-v0.2","","""event"",""trial"",""time""
""fullscreenenter"",""1"",""1703""