"trial_type","trial_index","time_elapsed","internal_node_id","task_version","subject_id","interactions","blur_events","focus_events","fullscreenenter_events","fullscreenexit_events","success","view_history","rt","responses","num_errors","age","subject","participantId","rune","rune_set","hex","correct","choice","accuracy","outcome","keys","total_keys","block","practice","value","sub","trial","stimulus","robot","valence","action","sham"
"pavlovia","0","37","0.0-0.0","battery-v0.2","","""event"",""trial"",""time""
""fullscreenenter"",""1"",""3334""
","
","
","""event"",""trial"",""time""
""fullscreenenter"",""1"",""3334""
","
","","","","","","","","","","","","","","","","","","","","","","","","","","",""
"fullscreen","1","4331","0.0-1.0","battery-v0.2","","""event"",""trial"",""time""
""fullscreenenter"",""1"",""3334""
","
","
","""event"",""trial"",""time""
""fullscreenenter"",""1"",""3334""
","
","true","","","","","","","","","","","","","","","","","","","","","","","","","",""
"pit-instructions","2","11866","0.0-2.0-0.0","battery-v0.2","","""event"",""trial"",""time""
""fullscreenenter"",""1"",""3334""
","
","
","""event"",""trial"",""time""
""fullscreenenter"",""1"",""3334""
","
","","[{""page_index"":0,""viewing_time"":7525.800000190735}]","7526.200000047684","","","","","","","","","","","","","","","","","","","","","","","",""
"pit-comprehension","3","16184","0.0-2.0-1.0-0.0","battery-v0.2","","""event"",""trial"",""time""
""fullscreenenter"",""1"",""3334""
","
","
","""event"",""trial"",""time""
""fullscreenenter"",""1"",""3334""
","
","","","4312.799999952316","[""shark""]","0","25","3761","1826","","","","","","","","","","","","","","","","","","",""
"pit-instructions","4","17722","0.0-2.0-1.0-1.0","battery-v0.2","","""event"",""trial"",""time""
""fullscreenenter"",""1"",""3334""
","
","
","""event"",""trial"",""time""
""fullscreenenter"",""1"",""3334""
","
","","[{""page_index"":0,""viewing_time"":1518.1000001430511}]","1518.5","","","","","","","","","","","","","","","","","","","","","","","",""
"pit-comprehension","5","20254","0.0-2.0-2.0-0.0","battery-v0.2","","""event"",""trial"",""time""
""fullscreenenter"",""1"",""3334""
","
","
","""event"",""trial"",""time""
""fullscreenenter"",""1"",""3334""
","
","","","2527.7000000476837","[""tiger""]","0","25","3761","1826","","","","","","","","","","","","","","","","","","",""
"pit-instructions","6","24910","0.0-2.0-2.0-1.0","battery-v0.2","","""event"",""trial"",""time""
""fullscreenenter"",""1"",""3334""
","
","
","""event"",""trial"",""time""
""fullscreenenter"",""1"",""3334""
","
","","[{""page_index"":0,""viewing_time"":4649}]","4649.399999856949","","","","","","","","","","","","","","","","","","","","","","","",""
"pit-instructions","7","125821","0.0-2.0-3.0","battery-v0.2","","""event"",""trial"",""time""
""fullscreenenter"",""1"",""3334""
","
","
","""event"",""trial"",""time""
""fullscreenenter"",""1"",""3334""
","
","","[{""page_index"":0,""viewing_time"":10018.799999952316},{""page_index"":1,""viewing_time"":8602.600000143051},{""page_index"":2,""viewing_time"":6136.799999952316},{""page_index"":3,""viewing_time"":6475.200000047684},{""page_index"":4,""viewing_time"":5757.099999904633},{""page_index"":5,""viewing_time"":6665.400000095367},{""page_index"":6,""viewing_time"":7166.099999904633},{""page_index"":7,""viewing_time"":7266.400000095367},{""page_index"":8,""viewing_time"":6477.200000047684},{""page_index"":9,""viewing_time"":8215.199999809265},{""page_index"":10,""viewing_time"":8045.400000095367},{""page_index"":11,""viewing_time"":7696.400000095367},{""page_index"":12,""viewing_time"":7375.599999904633},{""page_index"":13,""viewing_time"":5007.400000095367}]","100906.29999995232","","","","","","","","","","","","","","","","","","","","","","","",""
"pit-trial","8","129318","0.0-2.0-4.0-0.0","battery-v0.2","","""event"",""trial"",""time""
""fullscreenenter"",""1"",""3334""
","
","
","""event"",""trial"",""time""
""fullscreenenter"",""1"",""3334""
","
","","","623.2999999523163","","","25","3761","1826","&#9784;","elianto","#FFFFF080"," "," ","1","&#10004","[1483.2000000476837]","1","0","0","","","","","","","",""
"pit-trial","9","132949","0.0-2.0-4.1-0.1","battery-v0.2","","""event"",""trial"",""time""
""fullscreenenter"",""1"",""3334""
","
","
","""event"",""trial"",""time""
""fullscreenenter"",""1"",""3334""
","
","","","744.7999999523163","","","25","3761","1826","&#9784;","elianto","#FFFFF080"," "," ","1","&#10004","[1604.1000001430511]","1","0","0","","","","","","","",""
"pit-trial","10","136108","0.0-2.0-4.2-0.2","battery-v0.2","","""event"",""trial"",""time""
""fullscreenenter"",""1"",""3334""
","
","
","""event"",""trial"",""time""
""fullscreenenter"",""1"",""3334""
","
","","","291.7000000476837","","","25","3761","1826","&#9784;","elianto","#FFFFF080"," "," ","1","&#10004","[1142.0999999046326]","1","0","0","","","","","","","",""
"pit-trial","11","139499","0.0-2.0-4.3-0.3","battery-v0.2","","""event"",""trial"",""time""
""fullscreenenter"",""1"",""3334""
","
","
","""event"",""trial"",""time""
""fullscreenenter"",""1"",""3334""
","
","","","513.7000000476837","","","25","3761","1826","&#9784;","elianto","#FFFFF080"," "," ","1","&#10004","[1366.7000000476837]","1","0","0","","","","","","","",""
"pit-trial","12","143099","0.0-2.0-4.4-0.4","battery-v0.2","","""event"",""trial"",""time""
""fullscreenenter"",""1"",""3334""
","
","
","""event"",""trial"",""time""
""fullscreenenter"",""1"",""3334""
","
","","","733.8000001907349","","","25","3761","1826","&#9784;","elianto","#FFFFF080"," "," ","1","&#10004","[1584.4000000953674]","1","0","0","","","","","","","",""
"pit-instructions","13","166959","0.0-2.0-5.0","battery-v0.2","","""event"",""trial"",""time""
""fullscreenenter"",""1"",""3334""
","
","
","""event"",""trial"",""time""
""fullscreenenter"",""1"",""3334""
","
","","[{""page_index"":0,""viewing_time"":5942},{""page_index"":1,""viewing_time"":7395.299999952316},{""page_index"":2,""viewing_time"":4777.400000095367},{""page_index"":3,""viewing_time"":5738.099999904633}]","23853.400000095367","","","","","","","","","","","","","","","","","","","","","","","",""
"pit-trial","14","171839","0.0-2.0-6.0-0.0","battery-v0.2","","""event"",""trial"",""time""
""fullscreenenter"",""1"",""3334""
","
","
","""event"",""trial"",""time""
""fullscreenenter"",""1"",""3334""
","
","","","-1","","","25","3761","1826","&#9854;","elianto","#FFFFF080","-1","-1","1","&#10004","[]","0","0","1","","","","","","","",""
"pit-trial","15","176719","0.0-2.0-6.1-0.1","battery-v0.2","","""event"",""trial"",""time""
""fullscreenenter"",""1"",""3334""
","
","
","""event"",""trial"",""time""
""fullscreenenter"",""1"",""3334""
","
","","","-1","","","25","3761","1826","&#9854;","elianto","#FFFFF080","-1","-1","1","&#10004","[]","0","0","1","","","","","","","",""
"pit-trial","16","181601","0.0-2.0-6.2-0.2","battery-v0.2","","""event"",""trial"",""time""
""fullscreenenter"",""1"",""3334""
","
","
","""event"",""trial"",""time""
""fullscreenenter"",""1"",""3334""
","
","","","-1","","","25","3761","1826","&#9854;","elianto","#FFFFF080","-1","-1","1","&#10004","[]","0","0","1","","","","","","","",""
"pit-trial","17","186479","0.0-2.0-6.3-0.3","battery-v0.2","","""event"",""trial"",""time""
""fullscreenenter"",""1"",""3334""
","
","
","""event"",""trial"",""time""
""fullscreenenter"",""1"",""3334""
","
","","","-1","","","25","3761","1826","&#9854;","elianto","#FFFFF080","-1","-1","1","&#10004","[]","0","0","1","","","","","","","",""
"pit-trial","18","191359","0.0-2.0-6.4-0.4","battery-v0.2","","""event"",""trial"",""time""
""fullscreenenter"",""1"",""3334""
","
","
","""event"",""trial"",""time""
""fullscreenenter"",""1"",""3334""
","
","","","-1","","","25","3761","1826","&#9854;","elianto","#FFFFF080","-1","-1","1","&#10004","[]","0","0","1","","","","","","","",""
"pit-instructions","19","316801","0.0-2.0-7.0","battery-v0.2","","""event"",""trial"",""time""
""fullscreenenter"",""1"",""3334""
","
","
","""event"",""trial"",""time""
""fullscreenenter"",""1"",""3334""
","
","","[{""page_index"":0,""viewing_time"":6079.5},{""page_index"":1,""viewing_time"":7826.599999904633},{""page_index"":2,""viewing_time"":6328.299999952316},{""page_index"":3,""viewing_time"":6746.799999952316},{""page_index"":4,""viewing_time"":6287.800000190735},{""page_index"":5,""viewing_time"":5628},{""page_index"":6,""viewing_time"":5468.099999904633},{""page_index"":7,""viewing_time"":8696.400000095367},{""page_index"":8,""viewing_time"":6647.899999856949},{""page_index"":9,""viewing_time"":6269.600000143051},{""page_index"":10,""viewing_time"":6938.5},{""page_index"":11,""viewing_time"":4529.699999809265},{""page_index"":12,""viewing_time"":12029.100000143051},{""page_index"":13,""viewing_time"":7480},{""page_index"":14,""viewing_time"":8200.299999952316},{""page_index"":15,""viewing_time"":6279.400000095367},{""page_index"":16,""viewing_time"":6530.399999856949},{""page_index"":17,""viewing_time"":7469.400000095367}]","125436.39999985695","","","","","","","","","","","","","","","","","","","","","","","",""
"pit-trial","20","320289","0.0-2.0-8.0-0.0","battery-v0.2","","""event"",""trial"",""time""
""fullscreenenter"",""1"",""3334""
","
","
","""event"",""trial"",""time""
""fullscreenenter"",""1"",""3334""
","
","","","618.9000000953674","","","25","3761","1826","&#9776;","elianto","#3366ff99"," "," ","1","+10","[1471.1000001430511]","1","0","1","","","","","","","",""
"pit-trial","21","323769","0.0-2.0-8.0-1.0","battery-v0.2","","""event"",""trial"",""time""
""fullscreenenter"",""1"",""3334""
","
","
","""event"",""trial"",""time""
""fullscreenenter"",""1"",""3334""
","
","","","605.9000000953674","","","25","3761","1826","&#9776;","elianto","#3366ff99"," "," ","1","+10","[1462.2000000476837]","1","0","1","","","","","","","",""
"pit-trial","22","327158","0.0-2.0-8.0-2.0","battery-v0.2","","""event"",""trial"",""time""
""fullscreenenter"",""1"",""3334""
","
","
","""event"",""trial"",""time""
""fullscreenenter"",""1"",""3334""
","
","","","509.19999980926514","","","25","3761","1826","&#9776;","elianto","#3366ff99"," "," ","1","+10","[1359.9000000953674]","1","0","1","","","","","","","",""
"pit-trial","23","330499","0.0-2.0-8.0-3.0","battery-v0.2","","""event"",""trial"",""time""
""fullscreenenter"",""1"",""3334""
","
","
","""event"",""trial"",""time""
""fullscreenenter"",""1"",""3334""
","
","","","470.09999990463257","","","25","3761","1826","&#9776;","elianto","#3366ff99"," "," ","1","0","[1326.1000001430511]","1","0","1","","","","","","","",""
"pit-trial","24","333778","0.0-2.0-8.0-4.0","battery-v0.2","","""event"",""trial"",""time""
""fullscreenenter"",""1"",""3334""
","
","
","""event"",""trial"",""time""
""fullscreenenter"",""1"",""3334""
","
","","","407.60000014305115","","","25","3761","1826","&#9776;","elianto","#3366ff99"," "," ","1","+10","[1259]","1","0","1","","","","","","","",""
"pit-trial","25","337428","0.0-2.0-8.1-0.1","battery-v0.2","","""event"",""trial"",""time""
""fullscreenenter"",""1"",""3334""
","
","
","""event"",""trial"",""time""
""fullscreenenter"",""1"",""3334""
","
","","","788.5","","","25","3761","1826","&#9776;","elianto","#3366ff99"," "," ","1","+10","[1641.1000001430511]","1","0","1","","","","","","","",""
"pit-trial","26","340838","0.0-2.0-8.1-1.1","battery-v0.2","","""event"",""trial"",""time""
""fullscreenenter"",""1"",""3334""
","
","
","""event"",""trial"",""time""
""fullscreenenter"",""1"",""3334""
","
","","","543.5999999046326","","","25","3761","1826","&#9776;","elianto","#3366ff99"," "," ","1","+10","[1394.9000000953674]","1","0","1","","","","","","","",""
"pit-trial","27","344089","0.0-2.0-8.1-2.1","battery-v0.2","","""event"",""trial"",""time""
""fullscreenenter"",""1"",""3334""
","
","
","""event"",""trial"",""time""
""fullscreenenter"",""1"",""3334""
","
","","","378.5","","","25","3761","1826","&#9776;","elianto","#3366ff99"," "," ","1","+10","[844.7000000476837,1234.7000000476837]","2","0","1","","","","","","","",""
"pit-trial","28","347655","0.0-2.0-8.1-3.1","battery-v0.2","","""event"",""trial"",""time""
""fullscreenenter"",""1"",""3334""
","
","
","""event"",""trial"",""time""
""fullscreenenter"",""1"",""3334""
","
","","","693.7999999523163","","","25","3761","1826","&#9776;","elianto","#3366ff99"," "," ","1","0","[1548.9000000953674]","1","0","1","","","","","","","",""
"pit-trial","29","350646","0.0-2.0-8.1-4.1","battery-v0.2","","""event"",""trial"",""time""
""fullscreenenter"",""1"",""3334""
","
","
","""event"",""trial"",""time""
""fullscreenenter"",""1"",""3334""
","
","","","124.29999995231628","","","25","3761","1826","&#9776;","elianto","#3366ff99"," "," ","1","+10","[979.9000000953674]","1","0","1","","","","","","","",""
"pit-trial","30","353818","0.0-2.0-8.2-0.2","battery-v0.2","","""event"",""trial"",""time""
""fullscreenenter"",""1"",""3334""
","
","
","""event"",""trial"",""time""
""fullscreenenter"",""1"",""3334""
","
","","","293.5","","","25","3761","1826","&#9776;","elianto","#3366ff99"," "," ","1","+10","[1156.9000000953674]","1","0","1","","","","","","","",""
"pit-trial","31","357326","0.0-2.0-8.2-1.2","battery-v0.2","","""event"",""trial"",""time""
""fullscreenenter"",""1"",""3334""
","
","
","""event"",""trial"",""time""
""fullscreenenter"",""1"",""3334""
","
","","","643.4000000953674","","","25","3761","1826","&#9776;","elianto","#3366ff99"," "," ","1","+10","[1498.6000001430511]","1","0","1","","","","","","","",""
"pit-trial","32","360906","0.0-2.0-8.2-2.2","battery-v0.2","","""event"",""trial"",""time""
""fullscreenenter"",""1"",""3334""
","
","
","""event"",""trial"",""time""
""fullscreenenter"",""1"",""3334""
","
","","","707.3000001907349","","","25","3761","1826","&#9776;","elianto","#3366ff99"," "," ","1","+10","[1558.8000001907349]","1","0","1","","","","","","","",""
"pit-trial","33","364103","0.0-2.0-8.2-3.2","battery-v0.2","","""event"",""trial"",""time""
""fullscreenenter"",""1"",""3334""
","
","
","""event"",""trial"",""time""
""fullscreenenter"",""1"",""3334""
","
","","","330.40000009536743","","","25","3761","1826","&#9776;","elianto","#3366ff99"," "," ","1","0","[1182.5]","1","0","1","","","","","","","",""
"pit-trial","34","367326","0.0-2.0-8.2-4.2","battery-v0.2","","""event"",""trial"",""time""
""fullscreenenter"",""1"",""3334""
","
","
","""event"",""trial"",""time""
""fullscreenenter"",""1"",""3334""
","
","","","354.40000009536743","","","25","3761","1826","&#9776;","elianto","#3366ff99"," "," ","1","+10","[1208.8999998569489]","1","0","1","","","","","","","",""
"call-function","35","367330","0.0-2.0-9.0","battery-v0.2","","""event"",""trial"",""time""
""fullscreenenter"",""1"",""3334""
","
","
","""event"",""trial"",""time""
""fullscreenenter"",""1"",""3334""
","
","","","","","","","","","","","","","","","","","","","","","","","","","","",""
"pit-instructions","36","410844","0.0-2.0-10.0","battery-v0.2","","""event"",""trial"",""time""
""fullscreenenter"",""1"",""3334""
","
","
","""event"",""trial"",""time""
""fullscreenenter"",""1"",""3334""
","
","","[{""page_index"":0,""viewing_time"":7060.600000143051},{""page_index"":1,""viewing_time"":8317.799999952316},{""page_index"":2,""viewing_time"":10936.799999952316},{""page_index"":3,""viewing_time"":9338.100000143051},{""page_index"":4,""viewing_time"":7858.199999809265}]","43512.200000047684","","","","","","","","","","","","","","","","","","","","","","","",""
"pit-trial","37","413854","0.0-2.0-11.0-0.0","battery-v0.2","","""event"",""trial"",""time""
""fullscreenenter"",""1"",""3334""
","
","
","""event"",""trial"",""time""
""fullscreenenter"",""1"",""3334""
","
","","","131.80000019073486","","","25","3761","1826","&#9761;","elianto","#3366ff99","-1"," ","0","0","[990.1000001430511]","1","0","2","","","","","","","",""
"pit-trial","38","417193","0.0-2.0-11.0-1.0","battery-v0.2","","""event"",""trial"",""time""
""fullscreenenter"",""1"",""3334""
","
","
","""event"",""trial"",""time""
""fullscreenenter"",""1"",""3334""
","
","","","463.90000009536743","","","25","3761","1826","&#9761;","elianto","#3366ff99","-1"," ","0","0","[1325.2999999523163]","1","0","2","","","","","","","",""
"pit-trial","39","422076","0.0-2.0-11.0-2.0","battery-v0.2","","""event"",""trial"",""time""
""fullscreenenter"",""1"",""3334""
","
","
","""event"",""trial"",""time""
""fullscreenenter"",""1"",""3334""
","
","","","-1","","","25","3761","1826","&#9761;","elianto","#3366ff99","-1","-1","1","+10","[]","0","0","2","","","","","","","",""
"pit-trial","40","426966","0.0-2.0-11.0-3.0","battery-v0.2","","""event"",""trial"",""time""
""fullscreenenter"",""1"",""3334""
","
","
","""event"",""trial"",""time""
""fullscreenenter"",""1"",""3334""
","
","","","-1","","","25","3761","1826","&#9761;","elianto","#3366ff99","-1","-1","1","0","[]","0","0","2","","","","","","","",""
"pit-trial","41","431856","0.0-2.0-11.0-4.0","battery-v0.2","","""event"",""trial"",""time""
""fullscreenenter"",""1"",""3334""
","
","
","""event"",""trial"",""time""
""fullscreenenter"",""1"",""3334""
","
","","","-1","","","25","3761","1826","&#9761;","elianto","#3366ff99","-1","-1","1","+10","[3595.800000190735]","1","0","2","","","","","","","",""
"pit-trial","42","435276","0.0-2.0-11.1-0.1","battery-v0.2","","""event"",""trial"",""time""
""fullscreenenter"",""1"",""3334""
","
","
","""event"",""trial"",""time""
""fullscreenenter"",""1"",""3334""
","
","","","548.5","","","25","3761","1826","&#9761;","elianto","#3366ff99","-1"," ","0","0","[1404.0999999046326]","1","0","2","","","","","","","",""
"pit-trial","43","438606","0.0-2.0-11.1-1.1","battery-v0.2","","""event"",""trial"",""time""
""fullscreenenter"",""1"",""3334""
","
","
","""event"",""trial"",""time""
""fullscreenenter"",""1"",""3334""
","
","","","452.5","","","25","3761","1826","&#9761;","elianto","#3366ff99","-1"," ","0","0","[1306.4000000953674]","1","0","2","","","","","","","",""
"pit-trial","44","443497","0.0-2.0-11.1-2.1","battery-v0.2","","""event"",""trial"",""time""
""fullscreenenter"",""1"",""3334""
","
","
","""event"",""trial"",""time""
""fullscreenenter"",""1"",""3334""
","
","","","-1","","","25","3761","1826","&#9761;","elianto","#3366ff99","-1","-1","1","+10","[]","0","0","2","","","","","","","",""
"pit-trial","45","448377","0.0-2.0-11.1-3.1","battery-v0.2","","""event"",""trial"",""time""
""fullscreenenter"",""1"",""3334""
","
","
","""event"",""trial"",""time""
""fullscreenenter"",""1"",""3334""
","
","","","-1","","","25","3761","1826","&#9761;","elianto","#3366ff99","-1","-1","1","0","[]","0","0","2","","","","","","","",""
"pit-trial","46","453254","0.0-2.0-11.1-4.1","battery-v0.2","","""event"",""trial"",""time""
""fullscreenenter"",""1"",""3334""
","
","
","""event"",""trial"",""time""
""fullscreenenter"",""1"",""3334""
","
","","","-1","","","25","3761","1826","&#9761;","elianto","#3366ff99","-1","-1","1","+10","[]","0","0","2","","","","","","","",""
"pit-trial","47","458123","0.0-2.0-11.2-0.2","battery-v0.2","","""event"",""trial"",""time""
""fullscreenenter"",""1"",""3334""
","
","
","""event"",""trial"",""time""
""fullscreenenter"",""1"",""3334""
","
","","","-1","","","25","3761","1826","&#9761;","elianto","#3366ff99","-1","-1","1","+10","[4394.5]","1","0","2","","","","","","","",""
"pit-trial","48","461627","0.0-2.0-11.2-1.2","battery-v0.2","","""event"",""trial"",""time""
""fullscreenenter"",""1"",""3334""
","
","
","""event"",""trial"",""time""
""fullscreenenter"",""1"",""3334""
","
","","","629.2999999523163","","","25","3761","1826","&#9761;","elianto","#3366ff99","-1"," ","0","0","[1481.2000000476837]","1","0","2","","","","","","","",""
"pit-trial","49","464914","0.0-2.0-11.2-2.2","battery-v0.2","","""event"",""trial"",""time""
""fullscreenenter"",""1"",""3334""
","
","
","""event"",""trial"",""time""
""fullscreenenter"",""1"",""3334""
","
","","","421.09999990463257","","","25","3761","1826","&#9761;","elianto","#3366ff99","-1"," ","0","0","[1272]","1","0","2","","","","","","","",""
"pit-trial","50","467935","0.0-2.0-11.2-3.2","battery-v0.2","","""event"",""trial"",""time""
""fullscreenenter"",""1"",""3334""
","
","
","""event"",""trial"",""time""
""fullscreenenter"",""1"",""3334""
","
","","","153.20000004768372","","","25","3761","1826","&#9761;","elianto","#3366ff99","-1"," ","0","+10","[1009]","1","0","2","","","","","","","",""
"pit-trial","51","471042","0.0-2.0-11.2-4.2","battery-v0.2","","""event"",""trial"",""time""
""fullscreenenter"",""1"",""3334""
","
","
","""event"",""trial"",""time""
""fullscreenenter"",""1"",""3334""
","
","","","240","","","25","3761","1826","&#9761;","elianto","#3366ff99","-1"," ","0","0","[1094.5999999046326]","1","0","2","","","","","","","",""
"pit-trial","52","474381","0.0-2.0-11.3-0.3","battery-v0.2","","""event"",""trial"",""time""
""fullscreenenter"",""1"",""3334""
","
","
","""event"",""trial"",""time""
""fullscreenenter"",""1"",""3334""
","
","","","464.59999990463257","","","25","3761","1826","&#9761;","elianto","#3366ff99","-1"," ","0","0","[1316.5]","1","0","2","","","","","","","",""
"pit-trial","53","477680","0.0-2.0-11.3-1.3","battery-v0.2","","""event"",""trial"",""time""
""fullscreenenter"",""1"",""3334""
","
","
","""event"",""trial"",""time""
""fullscreenenter"",""1"",""3334""
","
","","","424.2999999523163","","","25","3761","1826","&#9761;","elianto","#3366ff99","-1"," ","0","0","[1280.8999998569489]","1","0","2","","","","","","","",""
"pit-trial","54","480845","0.0-2.0-11.3-2.3","battery-v0.2","","""event"",""trial"",""time""
""fullscreenenter"",""1"",""3334""
","
","
","""event"",""trial"",""time""
""fullscreenenter"",""1"",""3334""
","
","","","299.2000000476837","","","25","3761","1826","&#9761;","elianto","#3366ff99","-1"," ","0","0","[1156]","1","0","2","","","","","","","",""
"pit-trial","55","485482","0.0-2.0-11.3-3.3","battery-v0.2","","""event"",""trial"",""time""
""fullscreenenter"",""1"",""3334""
","
","
","""event"",""trial"",""time""
""fullscreenenter"",""1"",""3334""
","
","","","1762","","","25","3761","1826","&#9761;","elianto","#3366ff99","-1"," ","0","+10","[2622.399999856949]","1","0","2","","","","","","","",""
"pit-trial","56","488747","0.0-2.0-11.3-4.3","battery-v0.2","","""event"",""trial"",""time""
""fullscreenenter"",""1"",""3334""
","
","
","""event"",""trial"",""time""
""fullscreenenter"",""1"",""3334""
","
","","","403","","","25","3761","1826","&#9761;","elianto","#3366ff99","-1"," ","0","0","[1255.0999999046326]","1","0","2","","","","","","","",""
"call-function","57","488751","0.0-2.0-12.0","battery-v0.2","","""event"",""trial"",""time""
""fullscreenenter"",""1"",""3334""
","
","
","""event"",""trial"",""time""
""fullscreenenter"",""1"",""3334""
","
","","","","","","","","","","","","","","","","","","","","","","","","","","",""
"pit-instructions","58","547670","0.0-2.0-13.0","battery-v0.2","","""event"",""trial"",""time""
""fullscreenenter"",""1"",""3334""
","
","
","""event"",""trial"",""time""
""fullscreenenter"",""1"",""3334""
","
","","[{""page_index"":0,""viewing_time"":7472},{""page_index"":1,""viewing_time"":13206.700000047684},{""page_index"":0,""viewing_time"":5318.799999952316},{""page_index"":1,""viewing_time"":9948.5},{""page_index"":2,""viewing_time"":4889.400000095367},{""page_index"":3,""viewing_time"":12709.200000047684},{""page_index"":4,""viewing_time"":5370.099999904633}]","58915.300000190735","","","","","","","","","","","","","","","","","","","","","","","",""
"pit-trial","59","551088","0.0-2.0-14.0-0.0","battery-v0.2","","""event"",""trial"",""time""
""fullscreenenter"",""1"",""3334""
","
","
","""event"",""trial"",""time""
""fullscreenenter"",""1"",""3334""
","
","","","539.5","","","25","3761","1826","&#9826;","elianto","#f73b6a7A","-1"," ","0","-10","[1399.3999998569489]","1","0","3","","","","","","","",""
"pit-trial","60","554168","0.0-2.0-14.0-1.0","battery-v0.2","","""event"",""trial"",""time""
""fullscreenenter"",""1"",""3334""
","
","
","""event"",""trial"",""time""
""fullscreenenter"",""1"",""3334""
","
","","","207","","","25","3761","1826","&#9826;","elianto","#f73b6a7A","-1"," ","0","-10","[1063.6999998092651]","1","0","3","","","","","","","",""
"pit-trial","61","557198","0.0-2.0-14.0-2.0","battery-v0.2","","""event"",""trial"",""time""
""fullscreenenter"",""1"",""3334""
","
","
","""event"",""trial"",""time""
""fullscreenenter"",""1"",""3334""
","
","","","158.69999980926514","","","25","3761","1826","&#9826;","elianto","#f73b6a7A","-1"," ","0","-10","[1014.5999999046326]","1","0","3","","","","","","","",""
"pit-trial","62","560198","0.0-2.0-14.0-3.0","battery-v0.2","","""event"",""trial"",""time""
""fullscreenenter"",""1"",""3334""
","
","
","""event"",""trial"",""time""
""fullscreenenter"",""1"",""3334""
","
","","","114.20000004768372","","","25","3761","1826","&#9826;","elianto","#f73b6a7A","-1"," ","0","0","[976.6999998092651]","1","0","3","","","","","","","",""
"pit-trial","63","563118","0.0-2.0-14.0-4.0","battery-v0.2","","""event"",""trial"",""time""
""fullscreenenter"",""1"",""3334""
","
","
","""event"",""trial"",""time""
""fullscreenenter"",""1"",""3334""
","
","","","49.90000009536743","","","25","3761","1826","&#9826;","elianto","#f73b6a7A","-1"," ","0","-10","[900.2999999523163]","1","0","3","","","","","","","",""
"pit-trial","64","567997","0.0-2.0-14.1-0.1","battery-v0.2","","""event"",""trial"",""time""
""fullscreenenter"",""1"",""3334""
","
","
","""event"",""trial"",""time""
""fullscreenenter"",""1"",""3334""
","
","","","-1","","","25","3761","1826","&#9826;","elianto","#f73b6a7A","-1","-1","1","0","[]","0","0","3","","","","","","","",""
"pit-trial","65","572886","0.0-2.0-14.1-1.1","battery-v0.2","","""event"",""trial"",""time""
""fullscreenenter"",""1"",""3334""
","
","
","""event"",""trial"",""time""
""fullscreenenter"",""1"",""3334""
","
","","","-1","","","25","3761","1826","&#9826;","elianto","#f73b6a7A","-1","-1","1","0","[]","0","0","3","","","","","","","",""
"pit-trial","66","577757","0.0-2.0-14.1-2.1","battery-v0.2","","""event"",""trial"",""time""
""fullscreenenter"",""1"",""3334""
","
","
","""event"",""trial"",""time""
""fullscreenenter"",""1"",""3334""
","
","","","-1","","","25","3761","1826","&#9826;","elianto","#f73b6a7A","-1","-1","1","0","[]","0","0","3","","","","","","","",""
"pit-trial","67","582632","0.0-2.0-14.1-3.1","battery-v0.2","","""event"",""trial"",""time""
""fullscreenenter"",""1"",""3334""
","
","
","""event"",""trial"",""time""
""fullscreenenter"",""1"",""3334""
","
","","","-1","","","25","3761","1826","&#9826;","elianto","#f73b6a7A","-1","-1","1","-10","[]","0","0","3","","","","","","","",""
"pit-trial","68","587516","0.0-2.0-14.1-4.1","battery-v0.2","","""event"",""trial"",""time""
""fullscreenenter"",""1"",""3334""
","
","
","""event"",""trial"",""time""
""fullscreenenter"",""1"",""3334""
","
","","","-1","","","25","3761","1826","&#9826;","elianto","#f73b6a7A","-1","-1","1","0","[]","0","0","3","","","","","","","",""
"pit-trial","69","592405","0.0-2.0-14.2-0.2","battery-v0.2","","""event"",""trial"",""time""
""fullscreenenter"",""1"",""3334""
","
","
","""event"",""trial"",""time""
""fullscreenenter"",""1"",""3334""
","
","","","-1","","","25","3761","1826","&#9826;","elianto","#f73b6a7A","-1","-1","1","0","[]","0","0","3","","","","","","","",""
"pit-trial","70","597278","0.0-2.0-14.2-1.2","battery-v0.2","","""event"",""trial"",""time""
""fullscreenenter"",""1"",""3334""
","
","
","""event"",""trial"",""time""
""fullscreenenter"",""1"",""3334""
","
","","","-1","","","25","3761","1826","&#9826;","elianto","#f73b6a7A","-1","-1","1","0","[]","0","0","3","","","","","","","",""
"pit-trial","71","602150","0.0-2.0-14.2-2.2","battery-v0.2","","""event"",""trial"",""time""
""fullscreenenter"",""1"",""3334""
","
","
","""event"",""trial"",""time""
""fullscreenenter"",""1"",""3334""
","
","","","-1","","","25","3761","1826","&#9826;","elianto","#f73b6a7A","-1","-1","1","0","[]","0","0","3","","","","","","","",""
"pit-trial","72","607021","0.0-2.0-14.2-3.2","battery-v0.2","","""event"",""trial"",""time""
""fullscreenenter"",""1"",""3334""
","
","
","""event"",""trial"",""time""
""fullscreenenter"",""1"",""3334""
","
","","","-1","","","25","3761","1826","&#9826;","elianto","#f73b6a7A","-1","-1","1","-10","[]","0","0","3","","","","","","","",""
"pit-trial","73","611897","0.0-2.0-14.2-4.2","battery-v0.2","","""event"",""trial"",""time""
""fullscreenenter"",""1"",""3334""
","
","
","""event"",""trial"",""time""
""fullscreenenter"",""1"",""3334""
","
","","","-1","","","25","3761","1826","&#9826;","elianto","#f73b6a7A","-1","-1","1","0","[]","0","0","3","","","","","","","",""
"pit-trial","74","616771","0.0-2.0-14.3-0.3","battery-v0.2","","""event"",""trial"",""time""
""fullscreenenter"",""1"",""3334""
","
","
","""event"",""trial"",""time""
""fullscreenenter"",""1"",""3334""
","
","","","-1","","","25","3761","1826","&#9826;","elianto","#f73b6a7A","-1","-1","1","0","[]","0","0","3","","","","","","","",""
"pit-trial","75","621638","0.0-2.0-14.3-1.3","battery-v0.2","","""event"",""trial"",""time""
""fullscreenenter"",""1"",""3334""
","
","
","""event"",""trial"",""time""
""fullscreenenter"",""1"",""3334""
","
","","","-1","","","25","3761","1826","&#9826;","elianto","#f73b6a7A","-1","-1","1","0","[3243.2999999523163]","1","0","3","","","","","","","",""
"pit-trial","76","626529","0.0-2.0-14.3-2.3","battery-v0.2","","""event"",""trial"",""time""
""fullscreenenter"",""1"",""3334""
","
","
","""event"",""trial"",""time""
""fullscreenenter"",""1"",""3334""
","
","","","-1","","","25","3761","1826","&#9826;","elianto","#f73b6a7A","-1","-1","1","0","[]","0","0","3","","","","","","","",""
"pit-trial","77","631398","0.0-2.0-14.3-3.3","battery-v0.2","","""event"",""trial"",""time""
""fullscreenenter"",""1"",""3334""
","
","
","""event"",""trial"",""time""
""fullscreenenter"",""1"",""3334""
","
","","","-1","","","25","3761","1826","&#9826;","elianto","#f73b6a7A","-1","-1","1","-10","[]","0","0","3","","","","","","","",""
"pit-trial","78","636279","0.0-2.0-14.3-4.3","battery-v0.2","","""event"",""trial"",""time""
""fullscreenenter"",""1"",""3334""
","
","
","""event"",""trial"",""time""
""fullscreenenter"",""1"",""3334""
","
","","","-1","","","25","3761","1826","&#9826;","elianto","#f73b6a7A","-1","-1","1","0","[]","0","0","3","","","","","","","",""
"call-function","79","636283","0.0-2.0-15.0","battery-v0.2","","""event"",""trial"",""time""
""fullscreenenter"",""1"",""3334""
""blur"",""80"",""642016""
""focus"",""80"",""644407""
","""event"",""trial"",""time""
""blur"",""80"",""642016""
","""event"",""trial"",""time""
""focus"",""80"",""644407""
","""event"",""trial"",""time""
""fullscreenenter"",""1"",""3334""
","
","","","","","","","","","","","","","","","","","","","","","","","","","","",""
"pit-instructions","80","668185","0.0-2.0-16.0","battery-v0.2","","""event"",""trial"",""time""
""fullscreenenter"",""1"",""3334""
""blur"",""80"",""642016""
""focus"",""80"",""644407""
","""event"",""trial"",""time""
""blur"",""80"",""642016""
","""event"",""trial"",""time""
""focus"",""80"",""644407""
","""event"",""trial"",""time""
""fullscreenenter"",""1"",""3334""
","
","","[{""page_index"":0,""viewing_time"":9767.900000095367},{""page_index"":1,""viewing_time"":10551.399999856949},{""page_index"":2,""viewing_time"":5999.200000047684},{""page_index"":3,""viewing_time"":5581.5}]","31900.799999952316","","","","","","","","","","","","","","","","","","","","","","","",""
"pit-trial","81","671461","0.0-2.0-17.0-0.0","battery-v0.2","","""event"",""trial"",""time""
""fullscreenenter"",""1"",""3334""
""blur"",""80"",""642016""
""focus"",""80"",""644407""
","""event"",""trial"",""time""
""blur"",""80"",""642016""
","""event"",""trial"",""time""
""focus"",""80"",""644407""
","""event"",""trial"",""time""
""fullscreenenter"",""1"",""3334""
","
","","","407.2999999523163","","","25","3761","1826","&#9789;","elianto","#f73b6a7A"," "," ","1","0","[1264.9000000953674]","1","0","4","","","","","","","",""
"pit-trial","82","674499","0.0-2.0-17.0-1.0","battery-v0.2","","""event"",""trial"",""time""
""fullscreenenter"",""1"",""3334""
""blur"",""80"",""642016""
""focus"",""80"",""644407""
","""event"",""trial"",""time""
""blur"",""80"",""642016""
","""event"",""trial"",""time""
""focus"",""80"",""644407""
","""event"",""trial"",""time""
""fullscreenenter"",""1"",""3334""
","
","","","180.79999995231628","","","25","3761","1826","&#9789;","elianto","#f73b6a7A"," "," ","1","0","[1031.1999998092651]","1","0","4","","","","","","","",""
"pit-trial","83","677489","0.0-2.0-17.0-2.0","battery-v0.2","","""event"",""trial"",""time""
""fullscreenenter"",""1"",""3334""
""blur"",""80"",""642016""
""focus"",""80"",""644407""
","""event"",""trial"",""time""
""blur"",""80"",""642016""
","""event"",""trial"",""time""
""focus"",""80"",""644407""
","""event"",""trial"",""time""
""fullscreenenter"",""1"",""3334""
","
","","","117.09999990463257","","","25","3761","1826","&#9789;","elianto","#f73b6a7A"," "," ","1","0","[972.7000000476837]","1","0","4","","","","","","","",""
"pit-trial","84","680569","0.0-2.0-17.0-3.0","battery-v0.2","","""event"",""trial"",""time""
""fullscreenenter"",""1"",""3334""
""blur"",""80"",""642016""
""focus"",""80"",""644407""
","""event"",""trial"",""time""
""blur"",""80"",""642016""
","""event"",""trial"",""time""
""focus"",""80"",""644407""
","""event"",""trial"",""time""
""fullscreenenter"",""1"",""3334""
","
","","","202.59999990463257","","","25","3761","1826","&#9789;","elianto","#f73b6a7A"," "," ","1","-10","[1053.7999999523163]","1","0","4","","","","","","","",""
"pit-trial","85","683539","0.0-2.0-17.0-4.0","battery-v0.2","","""event"",""trial"",""time""
""fullscreenenter"",""1"",""3334""
""blur"",""80"",""642016""
""focus"",""80"",""644407""
","""event"",""trial"",""time""
""blur"",""80"",""642016""
","""event"",""trial"",""time""
""focus"",""80"",""644407""
","""event"",""trial"",""time""
""fullscreenenter"",""1"",""3334""
","
","","","95.70000004768372","","","25","3761","1826","&#9789;","elianto","#f73b6a7A"," "," ","1","0","[949.5]","1","0","4","","","","","","","",""
"pit-trial","86","688429","0.0-2.0-17.1-0.1","battery-v0.2","","""event"",""trial"",""time""
""fullscreenenter"",""1"",""3334""
""blur"",""80"",""642016""
""focus"",""80"",""644407""
","""event"",""trial"",""time""
""blur"",""80"",""642016""
","""event"",""trial"",""time""
""focus"",""80"",""644407""
","""event"",""trial"",""time""
""fullscreenenter"",""1"",""3334""
","
","","","-1","","","25","3761","1826","&#9789;","elianto","#f73b6a7A"," ","-1","0","-10","[]","0","0","4","","","","","","","",""
"pit-trial","87","693319","0.0-2.0-17.1-1.1","battery-v0.2","","""event"",""trial"",""time""
""fullscreenenter"",""1"",""3334""
""blur"",""80"",""642016""
""focus"",""80"",""644407""
","""event"",""trial"",""time""
""blur"",""80"",""642016""
","""event"",""trial"",""time""
""focus"",""80"",""644407""
","""event"",""trial"",""time""
""fullscreenenter"",""1"",""3334""
","
","","","-1","","","25","3761","1826","&#9789;","elianto","#f73b6a7A"," ","-1","0","-10","[]","0","0","4","","","","","","","",""
"pit-trial","88","698209","0.0-2.0-17.1-2.1","battery-v0.2","","""event"",""trial"",""time""
""fullscreenenter"",""1"",""3334""
""blur"",""80"",""642016""
""focus"",""80"",""644407""
","""event"",""trial"",""time""
""blur"",""80"",""642016""
","""event"",""trial"",""time""
""focus"",""80"",""644407""
","""event"",""trial"",""time""
""fullscreenenter"",""1"",""3334""
","
","","","-1","","","25","3761","1826","&#9789;","elianto","#f73b6a7A"," ","-1","0","-10","[]","0","0","4","","","","","","","",""
"pit-trial","89","701894","0.0-2.0-17.1-3.1","battery-v0.2","","""event"",""trial"",""time""
""fullscreenenter"",""1"",""3334""
""blur"",""80"",""642016""
""focus"",""80"",""644407""
","""event"",""trial"",""time""
""blur"",""80"",""642016""
","""event"",""trial"",""time""
""focus"",""80"",""644407""
","""event"",""trial"",""time""
""fullscreenenter"",""1"",""3334""
","
","","","813.4000000953674","","","25","3761","1826","&#9789;","elianto","#f73b6a7A"," "," ","1","-10","[1672.6000001430511]","1","0","4","","","","","","","",""
"pit-trial","90","706775","0.0-2.0-17.1-4.1","battery-v0.2","","""event"",""trial"",""time""
""fullscreenenter"",""1"",""3334""
""blur"",""80"",""642016""
""focus"",""80"",""644407""
","""event"",""trial"",""time""
""blur"",""80"",""642016""
","""event"",""trial"",""time""
""focus"",""80"",""644407""
","""event"",""trial"",""time""
""fullscreenenter"",""1"",""3334""
","
","","","-1","","","25","3761","1826","&#9789;","elianto","#f73b6a7A"," ","-1","0","-10","[4056.5999999046326]","1","0","4","","","","","","","",""
"pit-trial","91","709729","0.0-2.0-17.2-0.2","battery-v0.2","","""event"",""trial"",""time""
""fullscreenenter"",""1"",""3334""
""blur"",""80"",""642016""
""focus"",""80"",""644407""
","""event"",""trial"",""time""
""blur"",""80"",""642016""
","""event"",""trial"",""time""
""focus"",""80"",""644407""
","""event"",""trial"",""time""
""fullscreenenter"",""1"",""3334""
","
","","","81.5","","","25","3761","1826","&#9789;","elianto","#f73b6a7A"," "," ","1","0","[941.3999998569489]","1","0","4","","","","","","","",""
"pit-trial","92","712624","0.0-2.0-17.2-1.2","battery-v0.2","","""event"",""trial"",""time""
""fullscreenenter"",""1"",""3334""
""blur"",""80"",""642016""
""focus"",""80"",""644407""
","""event"",""trial"",""time""
""blur"",""80"",""642016""
","""event"",""trial"",""time""
""focus"",""80"",""644407""
","""event"",""trial"",""time""
""fullscreenenter"",""1"",""3334""
","
","","","22.09999990463257","","","25","3761","1826","&#9789;","elianto","#f73b6a7A"," "," ","1","0","[878.3999998569489]","1","0","4","","","","","","","",""
"pit-trial","93","715665","0.0-2.0-17.2-2.2","battery-v0.2","","""event"",""trial"",""time""
""fullscreenenter"",""1"",""3334""
""blur"",""80"",""642016""
""focus"",""80"",""644407""
","""event"",""trial"",""time""
""blur"",""80"",""642016""
","""event"",""trial"",""time""
""focus"",""80"",""644407""
","""event"",""trial"",""time""
""fullscreenenter"",""1"",""3334""
","
","","","166.09999990463257","","","25","3761","1826","&#9789;","elianto","#f73b6a7A"," "," ","1","0","[1026.6000001430511]","1","0","4","","","","","","","",""
"pit-trial","94","718764","0.0-2.0-17.2-3.2","battery-v0.2","","""event"",""trial"",""time""
""fullscreenenter"",""1"",""3334""
""blur"",""80"",""642016""
""focus"",""80"",""644407""
","""event"",""trial"",""time""
""blur"",""80"",""642016""
","""event"",""trial"",""time""
""focus"",""80"",""644407""
","""event"",""trial"",""time""
""fullscreenenter"",""1"",""3334""
","
","","","232.70000004768372","","","25","3761","1826","&#9789;","elianto","#f73b6a7A"," "," ","1","-10","[1085.2000000476837]","1","0","4","","","","","","","",""
"pit-trial","95","721901","0.0-2.0-17.2-4.2","battery-v0.2","","""event"",""trial"",""time""
""fullscreenenter"",""1"",""3334""
""blur"",""80"",""642016""
""focus"",""80"",""644407""
","""event"",""trial"",""time""
""blur"",""80"",""642016""
","""event"",""trial"",""time""
""focus"",""80"",""644407""
","""event"",""trial"",""time""
""fullscreenenter"",""1"",""3334""
","
","","","266.69999980926514","","","25","3761","1826","&#9789;","elianto","#f73b6a7A"," "," ","1","0","[693.7000000476837,1120.2999999523163]","2","0","4","","","","","","","",""
"pit-trial","96","726418","0.0-2.0-17.3-0.3","battery-v0.2","","""event"",""trial"",""time""
""fullscreenenter"",""1"",""3334""
""blur"",""80"",""642016""
""focus"",""80"",""644407""
","""event"",""trial"",""time""
""blur"",""80"",""642016""
","""event"",""trial"",""time""
""focus"",""80"",""644407""
","""event"",""trial"",""time""
""fullscreenenter"",""1"",""3334""
","
","","","1649","","","25","3761","1826","&#9789;","elianto","#f73b6a7A"," "," ","1","0","[2502.2000000476837]","1","0","4","","","","","","","",""
"pit-trial","97","729553","0.0-2.0-17.3-1.3","battery-v0.2","","""event"",""trial"",""time""
""fullscreenenter"",""1"",""3334""
""blur"",""80"",""642016""
""focus"",""80"",""644407""
","""event"",""trial"",""time""
""blur"",""80"",""642016""
","""event"",""trial"",""time""
""focus"",""80"",""644407""
","""event"",""trial"",""time""
""fullscreenenter"",""1"",""3334""
","
","","","270.2000000476837","","","25","3761","1826","&#9789;","elianto","#f73b6a7A"," "," ","1","0","[1121.7999999523163]","1","0","4","","","","","","","",""
"pit-trial","98","733669","0.0-2.0-17.3-2.3","battery-v0.2","","""event"",""trial"",""time""
""fullscreenenter"",""1"",""3334""
""blur"",""80"",""642016""
""focus"",""80"",""644407""
","""event"",""trial"",""time""
""blur"",""80"",""642016""
","""event"",""trial"",""time""
""focus"",""80"",""644407""
","""event"",""trial"",""time""
""fullscreenenter"",""1"",""3334""
","
","","","1251.5","","","25","3761","1826","&#9789;","elianto","#f73b6a7A"," "," ","1","0","[2102.300000190735]","1","0","4","","","","","","","",""
"pit-trial","99","737465","0.0-2.0-17.3-3.3","battery-v0.2","","""event"",""trial"",""time""
""fullscreenenter"",""1"",""3334""
""blur"",""80"",""642016""
""focus"",""80"",""644407""
","""event"",""trial"",""time""
""blur"",""80"",""642016""
","""event"",""trial"",""time""
""focus"",""80"",""644407""
","""event"",""trial"",""time""
""fullscreenenter"",""1"",""3334""
","
","","","926.2999999523163","","","25","3761","1826","&#9789;","elianto","#f73b6a7A"," "," ","1","-10","[1777.7999999523163]","1","0","4","","","","","","","",""
"pit-trial","100","740498","0.0-2.0-17.3-4.3","battery-v0.2","","""event"",""trial"",""time""
""fullscreenenter"",""1"",""3334""
""blur"",""80"",""642016""
""focus"",""80"",""644407""
","""event"",""trial"",""time""
""blur"",""80"",""642016""
","""event"",""trial"",""time""
""focus"",""80"",""644407""
","""event"",""trial"",""time""
""fullscreenenter"",""1"",""3334""
","
","","","165.5","","","25","3761","1826","&#9789;","elianto","#f73b6a7A"," "," ","1","0","[1019.4000000953674]","1","0","4","","","","","","","",""
"call-function","101","740502","0.0-2.0-18.0","battery-v0.2","","""event"",""trial"",""time""
""fullscreenenter"",""1"",""3334""
""blur"",""80"",""642016""
""focus"",""80"",""644407""
","""event"",""trial"",""time""
""blur"",""80"",""642016""
","""event"",""trial"",""time""
""focus"",""80"",""644407""
","""event"",""trial"",""time""
""fullscreenenter"",""1"",""3334""
","
","","","","","","","","","","","","","","","","","","","","","","","","","","",""
"pit-instructions","102","819828","0.0-2.0-19.0","battery-v0.2","","""event"",""trial"",""time""
""fullscreenenter"",""1"",""3334""
""blur"",""80"",""642016""
""focus"",""80"",""644407""
","""event"",""trial"",""time""
""blur"",""80"",""642016""
","""event"",""trial"",""time""
""focus"",""80"",""644407""
","""event"",""trial"",""time""
""fullscreenenter"",""1"",""3334""
","
","","[{""page_index"":0,""viewing_time"":9098.5},{""page_index"":1,""viewing_time"":7989.199999809265},{""page_index"":2,""viewing_time"":16198},{""page_index"":3,""viewing_time"":7129.900000095367},{""page_index"":4,""viewing_time"":9470.099999904633},{""page_index"":5,""viewing_time"":9360.300000190735},{""page_index"":6,""viewing_time"":8430.599999904633},{""page_index"":7,""viewing_time"":7128},{""page_index"":8,""viewing_time"":4520.5}]","79325.59999990463","","","","","","","","","","","","","","","","","","","","","","","",""
"pit-comprehension","103","825108","0.0-2.0-20.0-0.0","battery-v0.2","","""event"",""trial"",""time""
""fullscreenenter"",""1"",""3334""
""blur"",""80"",""642016""
""focus"",""80"",""644407""
","""event"",""trial"",""time""
""blur"",""80"",""642016""
","""event"",""trial"",""time""
""focus"",""80"",""644407""
","""event"",""trial"",""time""
""fullscreenenter"",""1"",""3334""
","
","","","5275.299999952316","[""SPACE""]","0","25","3761","1826","","","","","","","","","","","","","","","","","","",""
"pit-instructions","104","829456","0.0-2.0-20.0-1.0","battery-v0.2","","""event"",""trial"",""time""
""fullscreenenter"",""1"",""3334""
""blur"",""80"",""642016""
""focus"",""80"",""644407""
","""event"",""trial"",""time""
""blur"",""80"",""642016""
","""event"",""trial"",""time""
""focus"",""80"",""644407""
","""event"",""trial"",""time""
""fullscreenenter"",""1"",""3334""
","
","","[{""page_index"":0,""viewing_time"":4263}]","4263.5","","","","","","","","","","","","","","","","","","","","","","","",""
"pit-comprehension","105","836947","0.0-2.0-21.0-0.0","battery-v0.2","","""event"",""trial"",""time""
""fullscreenenter"",""1"",""3334""
""blur"",""80"",""642016""
""focus"",""80"",""644407""
","""event"",""trial"",""time""
""blur"",""80"",""642016""
","""event"",""trial"",""time""
""focus"",""80"",""644407""
","""event"",""trial"",""time""
""fullscreenenter"",""1"",""3334""
","
","","","7486.099999904633","[""10""]","0","25","3761","1826","","","","","","","","","","","","","","","","","","",""
"pit-instructions","106","838887","0.0-2.0-21.0-1.0","battery-v0.2","","""event"",""trial"",""time""
""fullscreenenter"",""1"",""3334""
""blur"",""80"",""642016""
""focus"",""80"",""644407""
","""event"",""trial"",""time""
""blur"",""80"",""642016""
","""event"",""trial"",""time""
""focus"",""80"",""644407""
","""event"",""trial"",""time""
""fullscreenenter"",""1"",""3334""
","
","","[{""page_index"":0,""viewing_time"":1851.7999999523163}]","1852.2999999523163","","","","","","","","","","","","","","","","","","","","","","","",""
"pit-comprehension","107","846197","0.0-2.0-22.0-0.0","battery-v0.2","","""event"",""trial"",""time""
""fullscreenenter"",""1"",""3334""
""blur"",""80"",""642016""
""focus"",""80"",""644407""
","""event"",""trial"",""time""
""blur"",""80"",""642016""
","""event"",""trial"",""time""
""focus"",""80"",""644407""
","""event"",""trial"",""time""
""fullscreenenter"",""1"",""3334""
","
","","","7306.400000095367","[""0""]","0","25","3761","1826","","","","","","","","","","","","","","","","","","",""
"pit-instructions","108","849276","0.0-2.0-22.0-1.0","battery-v0.2","","""event"",""trial"",""time""
""fullscreenenter"",""1"",""3334""
""blur"",""80"",""642016""
""focus"",""80"",""644407""
","""event"",""trial"",""time""
""blur"",""80"",""642016""
","""event"",""trial"",""time""
""focus"",""80"",""644407""
","""event"",""trial"",""time""
""fullscreenenter"",""1"",""3334""
","
","","[{""page_index"":0,""viewing_time"":2995.7000000476837}]","2996.2999999523163","","","","","","","","","","","","","","","","","","","","","","","",""
"pit-comprehension","109","860227","0.0-2.0-23.0-0.0","battery-v0.2","","""event"",""trial"",""time""
""fullscreenenter"",""1"",""3334""
""blur"",""80"",""642016""
""focus"",""80"",""644407""
","""event"",""trial"",""time""
""blur"",""80"",""642016""
","""event"",""trial"",""time""
""focus"",""80"",""644407""
","""event"",""trial"",""time""
""fullscreenenter"",""1"",""3334""
","
","","","10946.5","[""True""]","0","25","3761","1826","","","","","","","","","","","","","","","","","","",""
"pit-instructions","110","862227","0.0-2.0-23.0-1.0","battery-v0.2","","""event"",""trial"",""time""
""fullscreenenter"",""1"",""3334""
""blur"",""80"",""642016""
""focus"",""80"",""644407""
","""event"",""trial"",""time""
""blur"",""80"",""642016""
","""event"",""trial"",""time""
""focus"",""80"",""644407""
","""event"",""trial"",""time""
""fullscreenenter"",""1"",""3334""
","
","","[{""page_index"":0,""viewing_time"":1912}]","1912.3999998569489","","","","","","","","","","","","","","","","","","","","","","","",""
"pit-comprehension","111","869947","0.0-2.0-24.0-0.0","battery-v0.2","","""event"",""trial"",""time""
""fullscreenenter"",""1"",""3334""
""blur"",""80"",""642016""
""focus"",""80"",""644407""
","""event"",""trial"",""time""
""blur"",""80"",""642016""
","""event"",""trial"",""time""
""focus"",""80"",""644407""
","""event"",""trial"",""time""
""fullscreenenter"",""1"",""3334""
","
","","","7716.199999809265","[""True""]","0","25","3761","1826","","","","","","","","","","","","","","","","","","",""
"pit-instructions","112","874456","0.0-2.0-24.0-1.0","battery-v0.2","","""event"",""trial"",""time""
""fullscreenenter"",""1"",""3334""
""blur"",""80"",""642016""
""focus"",""80"",""644407""
","""event"",""trial"",""time""
""blur"",""80"",""642016""
","""event"",""trial"",""time""
""focus"",""80"",""644407""
","""event"",""trial"",""time""
""fullscreenenter"",""1"",""3334""
","
","","[{""page_index"":0,""viewing_time"":4420.599999904633}]","4420.899999856949","","","","","","","","","","","","","","","","","","","","","","","",""
"pit-comprehension","113","881148","0.0-2.0-25.0-0.0","battery-v0.2","","""event"",""trial"",""time""
""fullscreenenter"",""1"",""3334""
""blur"",""80"",""642016""
""focus"",""80"",""644407""
","""event"",""trial"",""time""
""blur"",""80"",""642016""
","""event"",""trial"",""time""
""focus"",""80"",""644407""
","""event"",""trial"",""time""
""fullscreenenter"",""1"",""3334""
","
","","","6687.899999856949","[""True""]","0","25","3761","1826","","","","","","","","","","","","","","","","","","",""
"pit-instructions","114","885778","0.0-2.0-25.0-1.0","battery-v0.2","","""event"",""trial"",""time""
""fullscreenenter"",""1"",""3334""
""blur"",""80"",""642016""
""focus"",""80"",""644407""
","""event"",""trial"",""time""
""blur"",""80"",""642016""
","""event"",""trial"",""time""
""focus"",""80"",""644407""
","""event"",""trial"",""time""
""fullscreenenter"",""1"",""3334""
","
","","[{""page_index"":0,""viewing_time"":4540.799999952316}]","4541.200000047684","","","","","","","","","","","","","","","","","","","","","","","",""
"pit-comprehension","115","891527","0.0-2.0-26.0-0.0","battery-v0.2","","""event"",""trial"",""time""
""fullscreenenter"",""1"",""3334""
""blur"",""80"",""642016""
""focus"",""80"",""644407""
","""event"",""trial"",""time""
""blur"",""80"",""642016""
","""event"",""trial"",""time""
""focus"",""80"",""644407""
","""event"",""trial"",""time""
""fullscreenenter"",""1"",""3334""
","
","","","5744.899999856949","[""False""]","0","25","3761","1826","","","","","","","","","","","","","","","","","","",""
"pit-instructions","116","895116","0.0-2.0-26.0-1.0","battery-v0.2","","""event"",""trial"",""time""
""fullscreenenter"",""1"",""3334""
""blur"",""80"",""642016""
""focus"",""80"",""644407""
","""event"",""trial"",""time""
""blur"",""80"",""642016""
","""event"",""trial"",""time""
""focus"",""80"",""644407""
","""event"",""trial"",""time""
""fullscreenenter"",""1"",""3334""
","
","","[{""page_index"":0,""viewing_time"":3491}]","3491.4000000953674","","","","","","","","","","","","","","","","","","","","","","","",""
"pit-instructions","117","920173","0.0-3.0","battery-v0.2","","""event"",""trial"",""time""
""fullscreenenter"",""1"",""3334""
""blur"",""80"",""642016""
""focus"",""80"",""644407""
","""event"",""trial"",""time""
""blur"",""80"",""642016""
","""event"",""trial"",""time""
""focus"",""80"",""644407""
","""event"",""trial"",""time""
""fullscreenenter"",""1"",""3334""
","
","","[{""page_index"":0,""viewing_time"":5556.199999809265},{""page_index"":1,""viewing_time"":11509.400000095367},{""page_index"":2,""viewing_time"":7988.400000095367}]","25054.5","","","","","","","","","","","","","","","","","","","","","","","",""
"pit-trial","118","923521","0.0-4.0","battery-v0.2","","""event"",""trial"",""time""
""fullscreenenter"",""1"",""3334""
""blur"",""80"",""642016""
""focus"",""80"",""644407""
","""event"",""trial"",""time""
""blur"",""80"",""642016""
","""event"",""trial"",""time""
""focus"",""80"",""644407""
","""event"",""trial"",""time""
""fullscreenenter"",""1"",""3334""
","
","","","459.89999985694885","","","25","3761","1826","&#9728;","elianto","#f73b6a7A","-1"," ","0","-10","[1319]","1","1","","","3761","1","0","4","lose","no-go","0"
"pit-trial","119","926952","0.0-5.0","battery-v0.2","","""event"",""trial"",""time""
""fullscreenenter"",""1"",""3334""
""blur"",""80"",""642016""
""focus"",""80"",""644407""
","""event"",""trial"",""time""
""blur"",""80"",""642016""
","""event"",""trial"",""time""
""focus"",""80"",""644407""
","""event"",""trial"",""time""
""fullscreenenter"",""1"",""3334""
","
","","","569","","","25","3761","1826","&#9733;","elianto","#3366ff99","-1"," ","0","0","[1419.5]","1","1","","","3761","2","2","2","win","no-go","0"
"pit-trial","120","930633","0.0-6.0","battery-v0.2","","""event"",""trial"",""time""
""fullscreenenter"",""1"",""3334""
""blur"",""80"",""642016""
""focus"",""80"",""644407""
","""event"",""trial"",""time""
""blur"",""80"",""642016""
","""event"",""trial"",""time""
""focus"",""80"",""644407""
","""event"",""trial"",""time""
""fullscreenenter"",""1"",""3334""
","
","","","808.0999999046326","","","25","3761","1826","&#9752;","elianto","#f73b6a7A"," "," ","1","-10","[1659.5999999046326]","1","1","","","3761","3","3","3","lose","go","1"
"pit-trial","121","934222","0.0-7.0","battery-v0.2","","""event"",""trial"",""time""
""fullscreenenter"",""1"",""3334""
""blur"",""80"",""642016""
""focus"",""80"",""644407""
","""event"",""trial"",""time""
""blur"",""80"",""642016""
","""event"",""trial"",""time""
""focus"",""80"",""644407""
","""event"",""trial"",""time""
""fullscreenenter"",""1"",""3334""
","
","","","711.7999999523163","","","25","3761","1826","&#9730;","elianto","#3366ff99"," "," ","1","+10","[1564.7999999523163]","1","1","","","3761","4","1","1","win","go","0"
"pit-trial","122","937812","0.0-8.0","battery-v0.2","","""event"",""trial"",""time""
""fullscreenenter"",""1"",""3334""
""blur"",""80"",""642016""
""focus"",""80"",""644407""
","""event"",""trial"",""time""
""blur"",""80"",""642016""
","""event"",""trial"",""time""
""focus"",""80"",""644407""
","""event"",""trial"",""time""
""fullscreenenter"",""1"",""3334""
","
","","","710.1000001430511","","","25","3761","1826","&#9730;","elianto","#3366ff99"," "," ","1","0","[1569.8999998569489]","1","1","","","3761","5","1","1","win","go","1"
"pit-trial","123","942692","0.0-9.0","battery-v0.2","","""event"",""trial"",""time""
""fullscreenenter"",""1"",""3334""
""blur"",""80"",""642016""
""focus"",""80"",""644407""
","""event"",""trial"",""time""
""blur"",""80"",""642016""
","""event"",""trial"",""time""
""focus"",""80"",""644407""
","""event"",""trial"",""time""
""fullscreenenter"",""1"",""3334""
","
","","","-1","","","25","3761","1826","&#9728;","elianto","#f73b6a7A","-1","-1","1","0","[3671.600000143051]","1","1","","","3761","6","0","4","lose","no-go","0"
"pit-trial","124","947282","0.0-10.0","battery-v0.2","","""event"",""trial"",""time""
""fullscreenenter"",""1"",""3334""
""blur"",""80"",""642016""
""focus"",""80"",""644407""
","""event"",""trial"",""time""
""blur"",""80"",""642016""
","""event"",""trial"",""time""
""focus"",""80"",""644407""
","""event"",""trial"",""time""
""fullscreenenter"",""1"",""3334""
","
","","","1709.4000000953674","","","25","3761","1826","&#9733;","elianto","#3366ff99","-1"," ","0","0","[2564.600000143051]","1","1","","","3761","7","2","2","win","no-go","0"
"pit-trial","125","951155","0.0-11.0","battery-v0.2","","""event"",""trial"",""time""
""fullscreenenter"",""1"",""3334""
""blur"",""80"",""642016""
""focus"",""80"",""644407""
","""event"",""trial"",""time""
""blur"",""80"",""642016""
","""event"",""trial"",""time""
""focus"",""80"",""644407""
","""event"",""trial"",""time""
""fullscreenenter"",""1"",""3334""
","
","","","1014.7999999523163","","","25","3761","1826","&#9752;","elianto","#f73b6a7A"," "," ","1","-10","[1867.3999998569489]","1","1","","","3761","8","3","3","lose","go","1"
"pit-trial","126","954664","0.0-12.0","battery-v0.2","","""event"",""trial"",""time""
""fullscreenenter"",""1"",""3334""
""blur"",""80"",""642016""
""focus"",""80"",""644407""
","""event"",""trial"",""time""
""blur"",""80"",""642016""
","""event"",""trial"",""time""
""focus"",""80"",""644407""
","""event"",""trial"",""time""
""fullscreenenter"",""1"",""3334""
","
","","","636.3999998569489","","","25","3761","1826","&#9730;","elianto","#3366ff99"," "," ","1","0","[1491.0999999046326]","1","1","","","3761","9","1","1","win","go","1"
"pit-trial","127","958525","0.0-13.0","battery-v0.2","","""event"",""trial"",""time""
""fullscreenenter"",""1"",""3334""
""blur"",""80"",""642016""
""focus"",""80"",""644407""
","""event"",""trial"",""time""
""blur"",""80"",""642016""
","""event"",""trial"",""time""
""focus"",""80"",""644407""
","""event"",""trial"",""time""
""fullscreenenter"",""1"",""3334""
","
","","","996.5999999046326","","","25","3761","1826","&#9728;","elianto","#f73b6a7A","-1"," ","0","-10","[1848]","1","1","","","3761","10","0","4","lose","no-go","0"
"pit-trial","128","962145","0.0-14.0","battery-v0.2","","""event"",""trial"",""time""
""fullscreenenter"",""1"",""3334""
""blur"",""80"",""642016""
""focus"",""80"",""644407""
","""event"",""trial"",""time""
""blur"",""80"",""642016""
","""event"",""trial"",""time""
""focus"",""80"",""644407""
","""event"",""trial"",""time""
""fullscreenenter"",""1"",""3334""
","
","","","755.8999998569489","","","25","3761","1826","&#9752;","elianto","#f73b6a7A"," "," ","1","0","[1608.6000001430511]","1","1","","","3761","11","3","3","lose","go","0"
"pit-trial","129","966365","0.0-15.0","battery-v0.2","","""event"",""trial"",""time""
""fullscreenenter"",""1"",""3334""
""blur"",""80"",""642016""
""focus"",""80"",""644407""
","""event"",""trial"",""time""
""blur"",""80"",""642016""
","""event"",""trial"",""time""
""focus"",""80"",""644407""
","""event"",""trial"",""time""
""fullscreenenter"",""1"",""3334""
","
","","","1358.2999999523163","","","25","3761","1826","&#9733;","elianto","#3366ff99","-1"," ","0","0","[2210.100000143051]","1","1","","","3761","12","2","2","win","no-go","0"
"pit-trial","130","971248","0.0-16.0","battery-v0.2","","""event"",""trial"",""time""
""fullscreenenter"",""1"",""3334""
""blur"",""80"",""642016""
""focus"",""80"",""644407""
","""event"",""trial"",""time""
""blur"",""80"",""642016""
","""event"",""trial"",""time""
""focus"",""80"",""644407""
","""event"",""trial"",""time""
""fullscreenenter"",""1"",""3334""
","
","","","-1","","","25","3761","1826","&#9733;","elianto","#3366ff99","-1","-1","1","+10","[]","0","1","","","3761","13","2","2","win","no-go","0"
"pit-trial","131","976115","0.0-17.0","battery-v0.2","","""event"",""trial"",""time""
""fullscreenenter"",""1"",""3334""
""blur"",""80"",""642016""
""focus"",""80"",""644407""
","""event"",""trial"",""time""
""blur"",""80"",""642016""
","""event"",""trial"",""time""
""focus"",""80"",""644407""
","""event"",""trial"",""time""
""fullscreenenter"",""1"",""3334""
","
","","","-1","","","25","3761","1826","&#9728;","elianto","#f73b6a7A","-1","-1","1","0","[]","0","1","","","3761","14","0","4","lose","no-go","0"
"pit-trial","132","980590","0.0-18.0","battery-v0.2","","""event"",""trial"",""time""
""fullscreenenter"",""1"",""3334""
""blur"",""80"",""642016""
""focus"",""80"",""644407""
","""event"",""trial"",""time""
""blur"",""80"",""642016""
","""event"",""trial"",""time""
""focus"",""80"",""644407""
","""event"",""trial"",""time""
""fullscreenenter"",""1"",""3334""
","
","","","1610.2999999523163","","","25","3761","1826","&#9752;","elianto","#f73b6a7A"," "," ","1","0","[2462.2999999523163]","1","1","","","3761","15","3","3","lose","go","0"
"pit-trial","133","984315","0.0-19.0","battery-v0.2","","""event"",""trial"",""time""
""fullscreenenter"",""1"",""3334""
""blur"",""80"",""642016""
""focus"",""80"",""644407""
","""event"",""trial"",""time""
""blur"",""80"",""642016""
","""event"",""trial"",""time""
""focus"",""80"",""644407""
","""event"",""trial"",""time""
""fullscreenenter"",""1"",""3334""
","
","","","856.5","","","25","3761","1826","&#9730;","elianto","#3366ff99"," "," ","1","0","[1707.7000000476837]","1","1","","","3761","16","1","1","win","go","1"
"pit-trial","134","987845","0.0-20.0","battery-v0.2","","""event"",""trial"",""time""
""fullscreenenter"",""1"",""3334""
""blur"",""80"",""642016""
""focus"",""80"",""644407""
","""event"",""trial"",""time""
""blur"",""80"",""642016""
","""event"",""trial"",""time""
""focus"",""80"",""644407""
","""event"",""trial"",""time""
""fullscreenenter"",""1"",""3334""
","
","","","658.4000000953674","","","25","3761","1826","&#9730;","elianto","#3366ff99"," "," ","1","0","[1514.5999999046326]","1","1","","","3761","17","1","1","win","go","1"
"pit-trial","135","992714","0.0-21.0","battery-v0.2","","""event"",""trial"",""time""
""fullscreenenter"",""1"",""3334""
""blur"",""80"",""642016""
""focus"",""80"",""644407""
","""event"",""trial"",""time""
""blur"",""80"",""642016""
","""event"",""trial"",""time""
""focus"",""80"",""644407""
","""event"",""trial"",""time""
""fullscreenenter"",""1"",""3334""
","
","","","-1","","","25","3761","1826","&#9752;","elianto","#f73b6a7A"," ","-1","0","-10","[]","0","1","","","3761","18","3","3","lose","go","0"
"pit-trial","136","997584","0.0-22.0","battery-v0.2","","""event"",""trial"",""time""
""fullscreenenter"",""1"",""3334""
""blur"",""80"",""642016""
""focus"",""80"",""644407""
","""event"",""trial"",""time""
""blur"",""80"",""642016""
","""event"",""trial"",""time""
""focus"",""80"",""644407""
","""event"",""trial"",""time""
""fullscreenenter"",""1"",""3334""
","
","","","-1","","","25","3761","1826","&#9728;","elianto","#f73b6a7A","-1","-1","1","-10","[]","0","1","","","3761","19","0","4","lose","no-go","1"
"pit-trial","137","1002454","0.0-23.0","battery-v0.2","","""event"",""trial"",""time""
""fullscreenenter"",""1"",""3334""
""blur"",""80"",""642016""
""focus"",""80"",""644407""
","""event"",""trial"",""time""
""blur"",""80"",""642016""
","""event"",""trial"",""time""
""focus"",""80"",""644407""
","""event"",""trial"",""time""
""fullscreenenter"",""1"",""3334""
","
","","","-1","","","25","3761","1826","&#9733;","elianto","#3366ff99","-1","-1","1","0","[]","0","1","","","3761","20","2","2","win","no-go","1"
"pit-instructions","138","1015455","0.0-24.0","battery-v0.2","","""event"",""trial"",""time""
""fullscreenenter"",""1"",""3334""
""blur"",""80"",""642016""
""focus"",""80"",""644407""
","""event"",""trial"",""time""
""blur"",""80"",""642016""
","""event"",""trial"",""time""
""focus"",""80"",""644407""
","""event"",""trial"",""time""
""fullscreenenter"",""1"",""3334""
","
","","[{""page_index"":0,""viewing_time"":5548},{""page_index"":1,""viewing_time"":7448.699999809265}]","12997.399999856949","","","","","","","","","","","","","","","","","","","","","","","",""
"pit-trial","139","1019608","0.0-25.0","battery-v0.2","","""event"",""trial"",""time""
""fullscreenenter"",""1"",""3334""
""blur"",""80"",""642016""
""focus"",""80"",""644407""
","""event"",""trial"",""time""
""blur"",""80"",""642016""
","""event"",""trial"",""time""
""focus"",""80"",""644407""
","""event"",""trial"",""time""
""fullscreenenter"",""1"",""3334""
","
","","","1281.2000000476837","","","25","3761","1826","e","elianto","#f73b6a7A","-1"," ","0","-10","[2132.399999856949]","1","2","","","3761","21","2","4","lose","no-go","0"
"pit-trial","140","1023232","0.0-26.0","battery-v0.2","","""event"",""trial"",""time""
""fullscreenenter"",""1"",""3334""
""blur"",""80"",""642016""
""focus"",""80"",""644407""
","""event"",""trial"",""time""
""blur"",""80"",""642016""
","""event"",""trial"",""time""
""focus"",""80"",""644407""
","""event"",""trial"",""time""
""fullscreenenter"",""1"",""3334""
","
","","","747.2999999523163","","","25","3761","1826","w","elianto","#f73b6a7A"," "," ","1","-10","[1606.7000000476837]","1","2","","","3761","22","3","3","lose","go","1"
"pit-trial","141","1027231","0.0-27.0","battery-v0.2","","""event"",""trial"",""time""
""fullscreenenter"",""1"",""3334""
""blur"",""80"",""642016""
""focus"",""80"",""644407""
","""event"",""trial"",""time""
""blur"",""80"",""642016""
","""event"",""trial"",""time""
""focus"",""80"",""644407""
","""event"",""trial"",""time""
""fullscreenenter"",""1"",""3334""
","
","","","1125","","","25","3761","1826","j","elianto","#f73b6a7A","-1"," ","0","-10","[1976.3000001907349]","1","2","","","3761","23","0","4","lose","no-go","0"
"pit-trial","142","1030572","0.0-28.0","battery-v0.2","","""event"",""trial"",""time""
""fullscreenenter"",""1"",""3334""
""blur"",""80"",""642016""
""focus"",""80"",""644407""
","""event"",""trial"",""time""
""blur"",""80"",""642016""
","""event"",""trial"",""time""
""focus"",""80"",""644407""
","""event"",""trial"",""time""
""fullscreenenter"",""1"",""3334""
","
","","","470.40000009536743","","","25","3761","1826","d","elianto","#3366ff99"," "," ","1","+10","[1322.2999999523163]","1","2","","","3761","24","1","1","win","go","0"
"pit-trial","143","1035462","0.0-29.0","battery-v0.2","","""event"",""trial"",""time""
""fullscreenenter"",""1"",""3334""
""blur"",""80"",""642016""
""focus"",""80"",""644407""
","""event"",""trial"",""time""
""blur"",""80"",""642016""
","""event"",""trial"",""time""
""focus"",""80"",""644407""
","""event"",""trial"",""time""
""fullscreenenter"",""1"",""3334""
","
","","","-1","","","25","3761","1826","e","elianto","#f73b6a7A","-1","-1","1","0","[]","0","2","","","3761","25","2","4","lose","no-go","0"
"pit-trial","144","1039512","0.0-30.0","battery-v0.2","","""event"",""trial"",""time""
""fullscreenenter"",""1"",""3334""
""blur"",""80"",""642016""
""focus"",""80"",""644407""
","""event"",""trial"",""time""
""blur"",""80"",""642016""
","""event"",""trial"",""time""
""focus"",""80"",""644407""
","""event"",""trial"",""time""
""fullscreenenter"",""1"",""3334""
","
","","","1179.2999999523163","","","25","3761","1826","j","elianto","#f73b6a7A","-1"," ","0","-10","[2032.2999999523163]","1","2","","","3761","26","0","4","lose","no-go","0"
"pit-trial","145","1043002","0.0-31.0","battery-v0.2","","""event"",""trial"",""time""
""fullscreenenter"",""1"",""3334""
""blur"",""80"",""642016""
""focus"",""80"",""644407""
","""event"",""trial"",""time""
""blur"",""80"",""642016""
","""event"",""trial"",""time""
""focus"",""80"",""644407""
","""event"",""trial"",""time""
""fullscreenenter"",""1"",""3334""
","
","","","621","","","25","3761","1826","w","elianto","#f73b6a7A"," "," ","1","0","[1473.2999999523163]","1","2","","","3761","27","3","3","lose","go","0"
"pit-trial","146","1046589","0.0-32.0","battery-v0.2","","""event"",""trial"",""time""
""fullscreenenter"",""1"",""3334""
""blur"",""80"",""642016""
""focus"",""80"",""644407""
","""event"",""trial"",""time""
""blur"",""80"",""642016""
","""event"",""trial"",""time""
""focus"",""80"",""644407""
","""event"",""trial"",""time""
""fullscreenenter"",""1"",""3334""
","
","","","710","","","25","3761","1826","d","elianto","#3366ff99"," "," ","1","+10","[1571.5999999046326]","1","2","","","3761","28","1","1","win","go","0"
"pit-trial","147","1050252","0.0-33.0","battery-v0.2","","""event"",""trial"",""time""
""fullscreenenter"",""1"",""3334""
""blur"",""80"",""642016""
""focus"",""80"",""644407""
","""event"",""trial"",""time""
""blur"",""80"",""642016""
","""event"",""trial"",""time""
""focus"",""80"",""644407""
","""event"",""trial"",""time""
""fullscreenenter"",""1"",""3334""
","
","","","794.5","","","25","3761","1826","w","elianto","#f73b6a7A"," "," ","1","0","[1652.2000000476837]","1","2","","","3761","29","3","3","lose","go","0"
"pit-trial","148","1055131","0.0-34.0","battery-v0.2","","""event"",""trial"",""time""
""fullscreenenter"",""1"",""3334""
""blur"",""80"",""642016""
""focus"",""80"",""644407""
","""event"",""trial"",""time""
""blur"",""80"",""642016""
","""event"",""trial"",""time""
""focus"",""80"",""644407""
","""event"",""trial"",""time""
""fullscreenenter"",""1"",""3334""
","
","","","-1","","","25","3761","1826","j","elianto","#f73b6a7A","-1","-1","1","0","[]","0","2","","","3761","30","0","4","lose","no-go","0"
"pit-trial","149","1058770","0.0-35.0","battery-v0.2","","""event"",""trial"",""time""
""fullscreenenter"",""1"",""3334""
""blur"",""80"",""642016""
""focus"",""80"",""644407""
","""event"",""trial"",""time""
""blur"",""80"",""642016""
","""event"",""trial"",""time""
""focus"",""80"",""644407""
","""event"",""trial"",""time""
""fullscreenenter"",""1"",""3334""
","
","","","770.7000000476837","","","25","3761","1826","d","elianto","#3366ff99"," "," ","1","+10","[1622.2000000476837]","1","2","","","3761","31","1","1","win","go","0"
"pit-trial","150","1063650","0.0-36.0","battery-v0.2","","""event"",""trial"",""time""
""fullscreenenter"",""1"",""3334""
""blur"",""80"",""642016""
""focus"",""80"",""644407""
","""event"",""trial"",""time""
""blur"",""80"",""642016""
","""event"",""trial"",""time""
""focus"",""80"",""644407""
","""event"",""trial"",""time""
""fullscreenenter"",""1"",""3334""
","
","","","-1","","","25","3761","1826","e","elianto","#f73b6a7A","-1","-1","1","0","[]","0","2","","","3761","32","2","4","lose","no-go","0"
"pit-trial","151","1067402","0.0-37.0","battery-v0.2","","""event"",""trial"",""time""
""fullscreenenter"",""1"",""3334""
""blur"",""80"",""642016""
""focus"",""80"",""644407""
","""event"",""trial"",""time""
""blur"",""80"",""642016""
","""event"",""trial"",""time""
""focus"",""80"",""644407""
","""event"",""trial"",""time""
""fullscreenenter"",""1"",""3334""
","
","","","880.6999998092651","","","25","3761","1826","w","elianto","#f73b6a7A"," "," ","1","0","[1739.0999999046326]","1","2","","","3761","33","3","3","lose","go","0"
"pit-trial","152","1070963","0.0-38.0","battery-v0.2","","""event"",""trial"",""time""
""fullscreenenter"",""1"",""3334""
""blur"",""80"",""642016""
""focus"",""80"",""644407""
","""event"",""trial"",""time""
""blur"",""80"",""642016""
","""event"",""trial"",""time""
""focus"",""80"",""644407""
","""event"",""trial"",""time""
""fullscreenenter"",""1"",""3334""
","
","","","685.7999999523163","","","25","3761","1826","d","elianto","#3366ff99"," "," ","1","+10","[1542.5]","1","2","","","3761","34","1","1","win","go","0"
"pit-trial","153","1075843","0.0-39.0","battery-v0.2","","""event"",""trial"",""time""
""fullscreenenter"",""1"",""3334""
""blur"",""80"",""642016""
""focus"",""80"",""644407""
","""event"",""trial"",""time""
""blur"",""80"",""642016""
","""event"",""trial"",""time""
""focus"",""80"",""644407""
","""event"",""trial"",""time""
""fullscreenenter"",""1"",""3334""
","
","","","-1","","","25","3761","1826","e","elianto","#f73b6a7A","-1","-1","1","0","[]","0","2","","","3761","35","2","4","lose","no-go","0"
"pit-trial","154","1080723","0.0-40.0","battery-v0.2","","""event"",""trial"",""time""
""fullscreenenter"",""1"",""3334""
""blur"",""80"",""642016""
""focus"",""80"",""644407""
","""event"",""trial"",""time""
""blur"",""80"",""642016""
","""event"",""trial"",""time""
""focus"",""80"",""644407""
","""event"",""trial"",""time""
""fullscreenenter"",""1"",""3334""
","
","","","-1","","","25","3761","1826","j","elianto","#f73b6a7A","-1","-1","1","0","[]","0","2","","","3761","36","0","4","lose","no-go","0"
"pit-trial","155","1085593","0.0-41.0","battery-v0.2","","""event"",""trial"",""time""
""fullscreenenter"",""1"",""3334""
""blur"",""80"",""642016""
""focus"",""80"",""644407""
","""event"",""trial"",""time""
""blur"",""80"",""642016""
","""event"",""trial"",""time""
""focus"",""80"",""644407""
","""event"",""trial"",""time""
""fullscreenenter"",""1"",""3334""
","
","","","-1","","","25","3761","1826","j","elianto","#f73b6a7A","-1","-1","1","0","[]","0","2","","","3761","37","0","4","lose","no-go","0"
"pit-trial","156","1090473","0.0-42.0","battery-v0.2","","""event"",""trial"",""time""
""fullscreenenter"",""1"",""3334""
""blur"",""80"",""642016""
""focus"",""80"",""644407""
","""event"",""trial"",""time""
""blur"",""80"",""642016""
","""event"",""trial"",""time""
""focus"",""80"",""644407""
","""event"",""trial"",""time""
""fullscreenenter"",""1"",""3334""
","
","","","-1","","","25","3761","1826","e","elianto","#f73b6a7A","-1","-1","1","-10","[]","0","2","","","3761","38","2","4","lose","no-go","1"
"pit-trial","157","1094023","0.0-43.0","battery-v0.2","","""event"",""trial"",""time""
""fullscreenenter"",""1"",""3334""
""blur"",""80"",""642016""
""focus"",""80"",""644407""
","""event"",""trial"",""time""
""blur"",""80"",""642016""
","""event"",""trial"",""time""
""focus"",""80"",""644407""
","""event"",""trial"",""time""
""fullscreenenter"",""1"",""3334""
","
","","","685","","","25","3761","1826","d","elianto","#3366ff99"," "," ","1","+10","[1538.1999998092651]","1","2","","","3761","39","1","1","win","go","0"
"pit-trial","158","1097783","0.0-44.0","battery-v0.2","","""event"",""trial"",""time""
""fullscreenenter"",""1"",""3334""
""blur"",""80"",""642016""
""focus"",""80"",""644407""
","""event"",""trial"",""time""
""blur"",""80"",""642016""
","""event"",""trial"",""time""
""focus"",""80"",""644407""
","""event"",""trial"",""time""
""fullscreenenter"",""1"",""3334""
","
","","","890.4000000953674","","","25","3761","1826","w","elianto","#f73b6a7A"," "," ","1","0","[1743]","1","2","","","3761","40","3","3","lose","go","0"
"pit-trial","159","1102654","0.0-45.0","battery-v0.2","","""event"",""trial"",""time""
""fullscreenenter"",""1"",""3334""
""blur"",""80"",""642016""
""focus"",""80"",""644407""
","""event"",""trial"",""time""
""blur"",""80"",""642016""
","""event"",""trial"",""time""
""focus"",""80"",""644407""
","""event"",""trial"",""time""
""fullscreenenter"",""1"",""3334""
","
","","","-1","","","25","3761","1826","j","elianto","#f73b6a7A","-1","-1","1","-10","[]","0","2","","","3761","41","0","4","lose","no-go","1"
"pit-trial","160","1106114","0.0-46.0","battery-v0.2","","""event"",""trial"",""time""
""fullscreenenter"",""1"",""3334""
""blur"",""80"",""642016""
""focus"",""80"",""644407""
","""event"",""trial"",""time""
""blur"",""80"",""642016""
","""event"",""trial"",""time""
""focus"",""80"",""644407""
","""event"",""trial"",""time""
""fullscreenenter"",""1"",""3334""
","
","","","588.9000000953674","","","25","3761","1826","d","elianto","#3366ff99"," "," ","1","+10","[1442.2999999523163]","1","2","","","3761","42","1","1","win","go","0"
"pit-trial","161","1109700","0.0-47.0","battery-v0.2","","""event"",""trial"",""time""
""fullscreenenter"",""1"",""3334""
""blur"",""80"",""642016""
""focus"",""80"",""644407""
","""event"",""trial"",""time""
""blur"",""80"",""642016""
","""event"",""trial"",""time""
""focus"",""80"",""644407""
","""event"",""trial"",""time""
""fullscreenenter"",""1"",""3334""
","
","","","718.2999999523163","","","25","3761","1826","w","elianto","#f73b6a7A"," "," ","1","0","[1572.2999999523163]","1","2","","","3761","43","3","3","lose","go","0"
"pit-trial","162","1114570","0.0-48.0","battery-v0.2","","""event"",""trial"",""time""
""fullscreenenter"",""1"",""3334""
""blur"",""80"",""642016""
""focus"",""80"",""644407""
","""event"",""trial"",""time""
""blur"",""80"",""642016""
","""event"",""trial"",""time""
""focus"",""80"",""644407""
","""event"",""trial"",""time""
""fullscreenenter"",""1"",""3334""
","
","","","-1","","","25","3761","1826","e","elianto","#f73b6a7A","-1","-1","1","-10","[]","0","2","","","3761","44","2","4","lose","no-go","1"
"pit-trial","163","1119444","0.0-49.0","battery-v0.2","","""event"",""trial"",""time""
""fullscreenenter"",""1"",""3334""
""blur"",""80"",""642016""
""focus"",""80"",""644407""
","""event"",""trial"",""time""
""blur"",""80"",""642016""
","""event"",""trial"",""time""
""focus"",""80"",""644407""
","""event"",""trial"",""time""
""fullscreenenter"",""1"",""3334""
","
","","","-1","","","25","3761","1826","e","elianto","#f73b6a7A","-1","-1","1","0","[]","0","2","","","3761","45","2","4","lose","no-go","0"
"pit-trial","164","1122875","0.0-50.0","battery-v0.2","","""event"",""trial"",""time""
""fullscreenenter"",""1"",""3334""
""blur"",""80"",""642016""
""focus"",""80"",""644407""
","""event"",""trial"",""time""
""blur"",""80"",""642016""
","""event"",""trial"",""time""
""focus"",""80"",""644407""
","""event"",""trial"",""time""
""fullscreenenter"",""1"",""3334""
","
","","","560.3999998569489","","","25","3761","1826","s","elianto","#3366ff99","-1"," ","0","0","[1417.6999998092651]","1","2","","","3761","46","4","2","win","no-go","0"
"pit-trial","165","1126522","0.0-51.0","battery-v0.2","","""event"",""trial"",""time""
""fullscreenenter"",""1"",""3334""
""blur"",""80"",""642016""
""focus"",""80"",""644407""
","""event"",""trial"",""time""
""blur"",""80"",""642016""
","""event"",""trial"",""time""
""focus"",""80"",""644407""
","""event"",""trial"",""time""
""fullscreenenter"",""1"",""3334""
","
","","","773.2000000476837","","","25","3761","1826","w","elianto","#f73b6a7A"," "," ","1","0","[1629.3999998569489]","1","2","","","3761","47","3","3","lose","go","0"
"pit-trial","166","1131403","0.0-52.0","battery-v0.2","","""event"",""trial"",""time""
""fullscreenenter"",""1"",""3334""
""blur"",""80"",""642016""
""focus"",""80"",""644407""
","""event"",""trial"",""time""
""blur"",""80"",""642016""
","""event"",""trial"",""time""
""focus"",""80"",""644407""
","""event"",""trial"",""time""
""fullscreenenter"",""1"",""3334""
","
","","","-1","","","25","3761","1826","j","elianto","#f73b6a7A","-1","-1","1","0","[]","0","2","","","3761","48","0","4","lose","no-go","0"
"pit-trial","167","1134689","0.0-53.0","battery-v0.2","","""event"",""trial"",""time""
""fullscreenenter"",""1"",""3334""
""blur"",""80"",""642016""
""focus"",""80"",""644407""
","""event"",""trial"",""time""
""blur"",""80"",""642016""
","""event"",""trial"",""time""
""focus"",""80"",""644407""
","""event"",""trial"",""time""
""fullscreenenter"",""1"",""3334""
","
","","","422.59999990463257","","","25","3761","1826","s","elianto","#3366ff99","-1"," ","0","0","[1273.5999999046326]","1","2","","","3761","49","4","2","win","no-go","0"
"pit-trial","168","1138242","0.0-54.0","battery-v0.2","","""event"",""trial"",""time""
""fullscreenenter"",""1"",""3334""
""blur"",""80"",""642016""
""focus"",""80"",""644407""
","""event"",""trial"",""time""
""blur"",""80"",""642016""
","""event"",""trial"",""time""
""focus"",""80"",""644407""
","""event"",""trial"",""time""
""fullscreenenter"",""1"",""3334""
","
","","","679.5999999046326","","","25","3761","1826","d","elianto","#3366ff99"," "," ","1","+10","[1537.7000000476837]","1","2","","","3761","50","1","1","win","go","0"
"pit-trial","169","1141736","0.0-55.0","battery-v0.2","","""event"",""trial"",""time""
""fullscreenenter"",""1"",""3334""
""blur"",""80"",""642016""
""focus"",""80"",""644407""
","""event"",""trial"",""time""
""blur"",""80"",""642016""
","""event"",""trial"",""time""
""focus"",""80"",""644407""
","""event"",""trial"",""time""
""fullscreenenter"",""1"",""3334""
","
","","","626.5","","","25","3761","1826","w","elianto","#f73b6a7A"," "," ","1","0","[1480.5]","1","2","","","3761","51","3","3","lose","go","0"
"pit-trial","170","1146613","0.0-56.0","battery-v0.2","","""event"",""trial"",""time""
""fullscreenenter"",""1"",""3334""
""blur"",""80"",""642016""
""focus"",""80"",""644407""
","""event"",""trial"",""time""
""blur"",""80"",""642016""
","""event"",""trial"",""time""
""focus"",""80"",""644407""
","""event"",""trial"",""time""
""fullscreenenter"",""1"",""3334""
","
","","","-1","","","25","3761","1826","j","elianto","#f73b6a7A","-1","-1","1","0","[]","0","2","","","3761","52","0","4","lose","no-go","0"
"pit-trial","171","1151495","0.0-57.0","battery-v0.2","","""event"",""trial"",""time""
""fullscreenenter"",""1"",""3334""
""blur"",""80"",""642016""
""focus"",""80"",""644407""
","""event"",""trial"",""time""
""blur"",""80"",""642016""
","""event"",""trial"",""time""
""focus"",""80"",""644407""
","""event"",""trial"",""time""
""fullscreenenter"",""1"",""3334""
","
","","","-1","","","25","3761","1826","s","elianto","#3366ff99","-1","-1","1","+10","[]","0","2","","","3761","53","4","2","win","no-go","0"
"pit-trial","172","1156364","0.0-58.0","battery-v0.2","","""event"",""trial"",""time""
""fullscreenenter"",""1"",""3334""
""blur"",""80"",""642016""
""focus"",""80"",""644407""
","""event"",""trial"",""time""
""blur"",""80"",""642016""
","""event"",""trial"",""time""
""focus"",""80"",""644407""
","""event"",""trial"",""time""
""fullscreenenter"",""1"",""3334""
","
","","","-1","","","25","3761","1826","j","elianto","#f73b6a7A","-1","-1","1","0","[]","0","2","","","3761","54","0","4","lose","no-go","0"
"pit-trial","173","1159998","0.0-59.0","battery-v0.2","","""event"",""trial"",""time""
""fullscreenenter"",""1"",""3334""
""blur"",""80"",""642016""
""focus"",""80"",""644407""
","""event"",""trial"",""time""
""blur"",""80"",""642016""
","""event"",""trial"",""time""
""focus"",""80"",""644407""
","""event"",""trial"",""time""
""fullscreenenter"",""1"",""3334""
","
","","","769.7999999523163","","","25","3761","1826","d","elianto","#3366ff99"," "," ","1","+10","[1621.1999998092651]","1","2","","","3761","55","1","1","win","go","0"
"pit-trial","174","1164880","0.0-60.0","battery-v0.2","","""event"",""trial"",""time""
""fullscreenenter"",""1"",""3334""
""blur"",""80"",""642016""
""focus"",""80"",""644407""
","""event"",""trial"",""time""
""blur"",""80"",""642016""
","""event"",""trial"",""time""
""focus"",""80"",""644407""
","""event"",""trial"",""time""
""fullscreenenter"",""1"",""3334""
","
","","","-1","","","25","3761","1826","e","elianto","#f73b6a7A","-1","-1","1","0","[]","0","2","","","3761","56","2","4","lose","no-go","0"
"pit-trial","175","1169749","0.0-61.0","battery-v0.2","","""event"",""trial"",""time""
""fullscreenenter"",""1"",""3334""
""blur"",""80"",""642016""
""focus"",""80"",""644407""
","""event"",""trial"",""time""
""blur"",""80"",""642016""
","""event"",""trial"",""time""
""focus"",""80"",""644407""
","""event"",""trial"",""time""
""fullscreenenter"",""1"",""3334""
","
","","","-1","","","25","3761","1826","j","elianto","#f73b6a7A","-1","-1","1","0","[]","0","2","","","3761","57","0","4","lose","no-go","0"
"pit-trial","176","1173264","0.0-62.0","battery-v0.2","","""event"",""trial"",""time""
""fullscreenenter"",""1"",""3334""
""blur"",""80"",""642016""
""focus"",""80"",""644407""
","""event"",""trial"",""time""
""blur"",""80"",""642016""
","""event"",""trial"",""time""
""focus"",""80"",""644407""
","""event"",""trial"",""time""
""fullscreenenter"",""1"",""3334""
","
","","","640.7000000476837","","","25","3761","1826","s","elianto","#3366ff99","-1"," ","0","0","[1500.5]","1","2","","","3761","58","4","2","win","no-go","0"
"pit-trial","177","1176823","0.0-63.0","battery-v0.2","","""event"",""trial"",""time""
""fullscreenenter"",""1"",""3334""
""blur"",""80"",""642016""
""focus"",""80"",""644407""
","""event"",""trial"",""time""
""blur"",""80"",""642016""
","""event"",""trial"",""time""
""focus"",""80"",""644407""
","""event"",""trial"",""time""
""fullscreenenter"",""1"",""3334""
","
","","","680.5","","","25","3761","1826","d","elianto","#3366ff99"," "," ","1","0","[1541.7000000476837]","1","2","","","3761","59","1","1","win","go","1"
"pit-trial","178","1180512","0.0-64.0","battery-v0.2","","""event"",""trial"",""time""
""fullscreenenter"",""1"",""3334""
""blur"",""80"",""642016""
""focus"",""80"",""644407""
","""event"",""trial"",""time""
""blur"",""80"",""642016""
","""event"",""trial"",""time""
""focus"",""80"",""644407""
","""event"",""trial"",""time""
""fullscreenenter"",""1"",""3334""
","
","","","817.5999999046326","","","25","3761","1826","w","elianto","#f73b6a7A"," "," ","1","0","[1669.5]","1","2","","","3761","60","3","3","lose","go","0"
"pit-trial","179","1184152","0.0-65.0","battery-v0.2","","""event"",""trial"",""time""
""fullscreenenter"",""1"",""3334""
""blur"",""80"",""642016""
""focus"",""80"",""644407""
","""event"",""trial"",""time""
""blur"",""80"",""642016""
","""event"",""trial"",""time""
""focus"",""80"",""644407""
","""event"",""trial"",""time""
""fullscreenenter"",""1"",""3334""
","
","","","777","","","25","3761","1826","w","elianto","#f73b6a7A"," "," ","1","0","[1628.6000001430511]","1","2","","","3761","61","3","3","lose","go","0"
"pit-trial","180","1189029","0.0-66.0","battery-v0.2","","""event"",""trial"",""time""
""fullscreenenter"",""1"",""3334""
""blur"",""80"",""642016""
""focus"",""80"",""644407""
","""event"",""trial"",""time""
""blur"",""80"",""642016""
","""event"",""trial"",""time""
""focus"",""80"",""644407""
","""event"",""trial"",""time""
""fullscreenenter"",""1"",""3334""
","
","","","-1","","","25","3761","1826","s","elianto","#3366ff99","-1","-1","1","0","[]","0","2","","","3761","62","4","2","win","no-go","1"
"pit-trial","181","1193910","0.0-67.0","battery-v0.2","","""event"",""trial"",""time""
""fullscreenenter"",""1"",""3334""
""blur"",""80"",""642016""
""focus"",""80"",""644407""
","""event"",""trial"",""time""
""blur"",""80"",""642016""
","""event"",""trial"",""time""
""focus"",""80"",""644407""
","""event"",""trial"",""time""
""fullscreenenter"",""1"",""3334""
","
","","","-1","","","25","3761","1826","e","elianto","#f73b6a7A","-1","-1","1","0","[]","0","2","","","3761","63","2","4","lose","no-go","0"
"pit-trial","182","1197606","0.0-68.0","battery-v0.2","","""event"",""trial"",""time""
""fullscreenenter"",""1"",""3334""
""blur"",""80"",""642016""
""focus"",""80"",""644407""
","""event"",""trial"",""time""
""blur"",""80"",""642016""
","""event"",""trial"",""time""
""focus"",""80"",""644407""
","""event"",""trial"",""time""
""fullscreenenter"",""1"",""3334""
","
","","","832.4000000953674","","","25","3761","1826","d","elianto","#3366ff99"," "," ","1","0","[1683.2999999523163]","1","2","","","3761","64","1","1","win","go","1"
"pit-trial","183","1202484","0.0-69.0","battery-v0.2","","""event"",""trial"",""time""
""fullscreenenter"",""1"",""3334""
""blur"",""80"",""642016""
""focus"",""80"",""644407""
","""event"",""trial"",""time""
""blur"",""80"",""642016""
","""event"",""trial"",""time""
""focus"",""80"",""644407""
","""event"",""trial"",""time""
""fullscreenenter"",""1"",""3334""
","
","","","-1","","","25","3761","1826","e","elianto","#f73b6a7A","-1","-1","1","-10","[]","0","2","","","3761","65","2","4","lose","no-go","1"
"pit-trial","184","1206195","0.0-70.0","battery-v0.2","","""event"",""trial"",""time""
""fullscreenenter"",""1"",""3334""
""blur"",""80"",""642016""
""focus"",""80"",""644407""
","""event"",""trial"",""time""
""blur"",""80"",""642016""
","""event"",""trial"",""time""
""focus"",""80"",""644407""
","""event"",""trial"",""time""
""fullscreenenter"",""1"",""3334""
","
","","","853","","","25","3761","1826","w","elianto","#f73b6a7A"," "," ","1","-10","[1704.4000000953674]","1","2","","","3761","66","3","3","lose","go","1"
"pit-trial","185","1211075","0.0-71.0","battery-v0.2","","""event"",""trial"",""time""
""fullscreenenter"",""1"",""3334""
""blur"",""80"",""642016""
""focus"",""80"",""644407""
","""event"",""trial"",""time""
""blur"",""80"",""642016""
","""event"",""trial"",""time""
""focus"",""80"",""644407""
","""event"",""trial"",""time""
""fullscreenenter"",""1"",""3334""
","
","","","-1","","","25","3761","1826","s","elianto","#3366ff99","-1","-1","1","+10","[]","0","2","","","3761","67","4","2","win","no-go","0"
"pit-trial","186","1214683","0.0-72.0","battery-v0.2","","""event"",""trial"",""time""
""fullscreenenter"",""1"",""3334""
""blur"",""80"",""642016""
""focus"",""80"",""644407""
","""event"",""trial"",""time""
""blur"",""80"",""642016""
","""event"",""trial"",""time""
""focus"",""80"",""644407""
","""event"",""trial"",""time""
""fullscreenenter"",""1"",""3334""
","
","","","719.8999998569489","","","25","3761","1826","d","elianto","#3366ff99"," "," ","1","+10","[1579.7999999523163]","1","2","","","3761","68","1","1","win","go","0"
"pit-trial","187","1219552","0.0-73.0","battery-v0.2","","""event"",""trial"",""time""
""fullscreenenter"",""1"",""3334""
""blur"",""80"",""642016""
""focus"",""80"",""644407""
","""event"",""trial"",""time""
""blur"",""80"",""642016""
","""event"",""trial"",""time""
""focus"",""80"",""644407""
","""event"",""trial"",""time""
""fullscreenenter"",""1"",""3334""
","
","","","-1","","","25","3761","1826","s","elianto","#3366ff99","-1","-1","1","+10","[]","0","2","","","3761","69","4","2","win","no-go","0"
"pit-trial","188","1223241","0.0-74.0","battery-v0.2","","""event"",""trial"",""time""
""fullscreenenter"",""1"",""3334""
""blur"",""80"",""642016""
""focus"",""80"",""644407""
","""event"",""trial"",""time""
""blur"",""80"",""642016""
","""event"",""trial"",""time""
""focus"",""80"",""644407""
","""event"",""trial"",""time""
""fullscreenenter"",""1"",""3334""
","
","","","816","","","25","3761","1826","w","elianto","#f73b6a7A"," "," ","1","0","[1669.3999998569489]","1","2","","","3761","70","3","3","lose","go","0"
"pit-trial","189","1227130","0.0-75.0","battery-v0.2","","""event"",""trial"",""time""
""fullscreenenter"",""1"",""3334""
""blur"",""80"",""642016""
""focus"",""80"",""644407""
","""event"",""trial"",""time""
""blur"",""80"",""642016""
","""event"",""trial"",""time""
""focus"",""80"",""644407""
","""event"",""trial"",""time""
""fullscreenenter"",""1"",""3334""
","
","","","1013.2000000476837","","","25","3761","1826","p","elianto","#3366ff99"," "," ","1","+10","[1870.7999999523163]","1","2","","","3761","71","5","1","win","go","0"
"pit-trial","190","1231193","0.0-76.0","battery-v0.2","","""event"",""trial"",""time""
""fullscreenenter"",""1"",""3334""
""blur"",""80"",""642016""
""focus"",""80"",""644407""
","""event"",""trial"",""time""
""blur"",""80"",""642016""
","""event"",""trial"",""time""
""focus"",""80"",""644407""
","""event"",""trial"",""time""
""fullscreenenter"",""1"",""3334""
","
","","","1193.9000000953674","","","25","3761","1826","d","elianto","#3366ff99"," "," ","1","+10","[2046.7000000476837]","1","2","","","3761","72","1","1","win","go","0"
"pit-trial","191","1236065","0.0-77.0","battery-v0.2","","""event"",""trial"",""time""
""fullscreenenter"",""1"",""3334""
""blur"",""80"",""642016""
""focus"",""80"",""644407""
","""event"",""trial"",""time""
""blur"",""80"",""642016""
","""event"",""trial"",""time""
""focus"",""80"",""644407""
","""event"",""trial"",""time""
""fullscreenenter"",""1"",""3334""
","
","","","-1","","","25","3761","1826","s","elianto","#3366ff99","-1","-1","1","+10","[]","0","2","","","3761","73","4","2","win","no-go","0"
"pit-trial","192","1239763","0.0-78.0","battery-v0.2","","""event"",""trial"",""time""
""fullscreenenter"",""1"",""3334""
""blur"",""80"",""642016""
""focus"",""80"",""644407""
","""event"",""trial"",""time""
""blur"",""80"",""642016""
","""event"",""trial"",""time""
""focus"",""80"",""644407""
","""event"",""trial"",""time""
""fullscreenenter"",""1"",""3334""
","
","","","821.8999998569489","","","25","3761","1826","w","elianto","#f73b6a7A"," "," ","1","0","[1675.7000000476837]","1","2","","","3761","74","3","3","lose","go","0"
"pit-trial","193","1243571","0.0-79.0","battery-v0.2","","""event"",""trial"",""time""
""fullscreenenter"",""1"",""3334""
""blur"",""80"",""642016""
""focus"",""80"",""644407""
","""event"",""trial"",""time""
""blur"",""80"",""642016""
","""event"",""trial"",""time""
""focus"",""80"",""644407""
","""event"",""trial"",""time""
""fullscreenenter"",""1"",""3334""
","
","","","947.3999998569489","","","25","3761","1826","d","elianto","#3366ff99"," "," ","1","+10","[1798.6000001430511]","1","2","","","3761","75","1","1","win","go","0"
"pit-trial","194","1246953","0.0-80.0","battery-v0.2","","""event"",""trial"",""time""
""fullscreenenter"",""1"",""3334""
""blur"",""80"",""642016""
""focus"",""80"",""644407""
","""event"",""trial"",""time""
""blur"",""80"",""642016""
","""event"",""trial"",""time""
""focus"",""80"",""644407""
","""event"",""trial"",""time""
""fullscreenenter"",""1"",""3334""
","
","","","511.7999999523163","","","25","3761","1826","p","elianto","#3366ff99"," "," ","1","+10","[1369.5]","1","2","","","3761","76","5","1","win","go","0"
"pit-trial","195","1251833","0.0-81.0","battery-v0.2","","""event"",""trial"",""time""
""fullscreenenter"",""1"",""3334""
""blur"",""80"",""642016""
""focus"",""80"",""644407""
","""event"",""trial"",""time""
""blur"",""80"",""642016""
","""event"",""trial"",""time""
""focus"",""80"",""644407""
","""event"",""trial"",""time""
""fullscreenenter"",""1"",""3334""
","
","","","-1","","","25","3761","1826","s","elianto","#3366ff99","-1","-1","1","+10","[]","0","2","","","3761","77","4","2","win","no-go","0"
"pit-trial","196","1255835","0.0-82.0","battery-v0.2","","""event"",""trial"",""time""
""fullscreenenter"",""1"",""3334""
""blur"",""80"",""642016""
""focus"",""80"",""644407""
","""event"",""trial"",""time""
""blur"",""80"",""642016""
","""event"",""trial"",""time""
""focus"",""80"",""644407""
","""event"",""trial"",""time""
""fullscreenenter"",""1"",""3334""
","
","","","1134.4000000953674","","","25","3761","1826","g","elianto","#f73b6a7A","-1"," ","0","-10","[1985.3000001907349]","1","2","","","3761","78","6","4","lose","no-go","0"
"pit-trial","197","1259610","0.0-83.0","battery-v0.2","","""event"",""trial"",""time""
""fullscreenenter"",""1"",""3334""
""blur"",""80"",""642016""
""focus"",""80"",""644407""
","""event"",""trial"",""time""
""blur"",""80"",""642016""
","""event"",""trial"",""time""
""focus"",""80"",""644407""
","""event"",""trial"",""time""
""fullscreenenter"",""1"",""3334""
","
","","","908.5","","","25","3761","1826","p","elianto","#3366ff99"," "," ","1","+10","[1766]","1","2","","","3761","79","5","1","win","go","0"
"pit-trial","198","1263179","0.0-84.0","battery-v0.2","","""event"",""trial"",""time""
""fullscreenenter"",""1"",""3334""
""blur"",""80"",""642016""
""focus"",""80"",""644407""
","""event"",""trial"",""time""
""blur"",""80"",""642016""
","""event"",""trial"",""time""
""focus"",""80"",""644407""
","""event"",""trial"",""time""
""fullscreenenter"",""1"",""3334""
","
","","","700.3999998569489","","","25","3761","1826","w","elianto","#f73b6a7A"," "," ","1","0","[1553.5]","1","2","","","3761","80","3","3","lose","go","0"
"pit-trial","199","1268042","0.0-85.0","battery-v0.2","","""event"",""trial"",""time""
""fullscreenenter"",""1"",""3334""
""blur"",""80"",""642016""
""focus"",""80"",""644407""
","""event"",""trial"",""time""
""blur"",""80"",""642016""
","""event"",""trial"",""time""
""focus"",""80"",""644407""
","""event"",""trial"",""time""
""fullscreenenter"",""1"",""3334""
","
","","","-1","","","25","3761","1826","g","elianto","#f73b6a7A","-1","-1","1","-10","[]","0","2","","","3761","81","6","4","lose","no-go","1"
"pit-trial","200","1271973","0.0-86.0","battery-v0.2","","""event"",""trial"",""time""
""fullscreenenter"",""1"",""3334""
""blur"",""80"",""642016""
""focus"",""80"",""644407""
","""event"",""trial"",""time""
""blur"",""80"",""642016""
","""event"",""trial"",""time""
""focus"",""80"",""644407""
","""event"",""trial"",""time""
""fullscreenenter"",""1"",""3334""
","
","","","1067.2999999523163","","","25","3761","1826","a","elianto","#f73b6a7A"," "," ","1","0","[1918.7000000476837]","1","2","","","3761","82","7","3","lose","go","0"
"pit-trial","201","1276853","0.0-87.0","battery-v0.2","","""event"",""trial"",""time""
""fullscreenenter"",""1"",""3334""
""blur"",""80"",""642016""
""focus"",""80"",""644407""
","""event"",""trial"",""time""
""blur"",""80"",""642016""
","""event"",""trial"",""time""
""focus"",""80"",""644407""
","""event"",""trial"",""time""
""fullscreenenter"",""1"",""3334""
","
","","","-1","","","25","3761","1826","s","elianto","#3366ff99","-1","-1","1","0","[]","0","2","","","3761","83","4","2","win","no-go","1"
"pit-trial","202","1280433","0.0-88.0","battery-v0.2","","""event"",""trial"",""time""
""fullscreenenter"",""1"",""3334""
""blur"",""80"",""642016""
""focus"",""80"",""644407""
","""event"",""trial"",""time""
""blur"",""80"",""642016""
","""event"",""trial"",""time""
""focus"",""80"",""644407""
","""event"",""trial"",""time""
""fullscreenenter"",""1"",""3334""
","
","","","708.9000000953674","","","25","3761","1826","p","elianto","#3366ff99"," "," ","1","+10","[1566]","1","2","","","3761","84","5","1","win","go","0"
"pit-trial","203","1284473","0.0-89.0","battery-v0.2","","""event"",""trial"",""time""
""fullscreenenter"",""1"",""3334""
""blur"",""80"",""642016""
""focus"",""80"",""644407""
","""event"",""trial"",""time""
""blur"",""80"",""642016""
","""event"",""trial"",""time""
""focus"",""80"",""644407""
","""event"",""trial"",""time""
""fullscreenenter"",""1"",""3334""
","
","","","1165.2999999523163","","","25","3761","1826","p","elianto","#3366ff99"," "," ","1","+10","[2021.9000000953674]","1","2","","","3761","85","5","1","win","go","0"
"pit-trial","204","1289013","0.0-90.0","battery-v0.2","","""event"",""trial"",""time""
""fullscreenenter"",""1"",""3334""
""blur"",""80"",""642016""
""focus"",""80"",""644407""
","""event"",""trial"",""time""
""blur"",""80"",""642016""
","""event"",""trial"",""time""
""focus"",""80"",""644407""
","""event"",""trial"",""time""
""fullscreenenter"",""1"",""3334""
","
","","","1678","","","25","3761","1826","g","elianto","#f73b6a7A","-1"," ","0","0","[2530]","1","2","","","3761","86","6","4","lose","no-go","1"
"pit-trial","205","1293150","0.0-91.0","battery-v0.2","","""event"",""trial"",""time""
""fullscreenenter"",""1"",""3334""
""blur"",""80"",""642016""
""focus"",""80"",""644407""
","""event"",""trial"",""time""
""blur"",""80"",""642016""
","""event"",""trial"",""time""
""focus"",""80"",""644407""
","""event"",""trial"",""time""
""fullscreenenter"",""1"",""3334""
","
","","","1265.0999999046326","","","25","3761","1826","a","elianto","#f73b6a7A"," "," ","1","-10","[2124.100000143051]","1","2","","","3761","87","7","3","lose","go","1"
"pit-trial","206","1298029","0.0-92.0","battery-v0.2","","""event"",""trial"",""time""
""fullscreenenter"",""1"",""3334""
""blur"",""80"",""642016""
""focus"",""80"",""644407""
","""event"",""trial"",""time""
""blur"",""80"",""642016""
","""event"",""trial"",""time""
""focus"",""80"",""644407""
","""event"",""trial"",""time""
""fullscreenenter"",""1"",""3334""
","
