"trial_type","trial_index","time_elapsed","internal_node_id","task_version","subject_id","interactions","blur_events","focus_events","fullscreenenter_events","fullscreenexit_events","success","view_history","rt","responses","num_errors","age","subject","participantId","rune","rune_set","hex","correct","choice","accuracy","outcome","keys","total_keys","block","practice","value","sub","trial","stimulus","robot","valence","action","sham"
"pavlovia","0","12","0.0-0.0","battery-v0.2","","""event"",""trial"",""time""
""fullscreenenter"",""1"",""1892""
","
","
","""event"",""trial"",""time""
""fullscreenenter"",""1"",""1892""
","
","","","","","","","","","","","","","","","","","","","","","","","","","","",""
"fullscreen","1","2856","0.0-1.0","battery-v0.2","","""event"",""trial"",""time""
""fullscreenenter"",""1"",""1892""
","
","
","""event"",""trial"",""time""
""fullscreenenter"",""1"",""1892""
","
","true","","","","","","","","","","","","","","","","","","","","","","","","","",""
"pit-instructions","2","7947","0.0-2.0-0.0","battery-v0.2","","""event"",""trial"",""time""
""fullscreenenter"",""1"",""1892""
","
","
","""event"",""trial"",""time""
""fullscreenenter"",""1"",""1892""
","
","","[{""page_index"":0,""viewing_time"":5078.5}]","5079.10000000149","","","","","","","","","","","","","","","","","","","","","","","",""
"pit-comprehension","3","11206","0.0-2.0-1.0-0.0","battery-v0.2","","""event"",""trial"",""time""
""fullscreenenter"",""1"",""1892""
","
","
","""event"",""trial"",""time""
""fullscreenenter"",""1"",""1892""
","
","","","3254.60000000149","[""shark""]","0","10","3753","332","","","","","","","","","","","","","","","","","","",""
"pit-instructions","4","13605","0.0-2.0-1.0-1.0","battery-v0.2","","""event"",""trial"",""time""
""fullscreenenter"",""1"",""1892""
","
","
","""event"",""trial"",""time""
""fullscreenenter"",""1"",""1892""
","
","","[{""page_index"":0,""viewing_time"":2380.7999999970198}]","2381.2000000029802","","","","","","","","","","","","","","","","","","","","","","","",""
"pit-comprehension","5","16509","0.0-2.0-2.0-0.0","battery-v0.2","","""event"",""trial"",""time""
""fullscreenenter"",""1"",""1892""
","
","
","""event"",""trial"",""time""
""fullscreenenter"",""1"",""1892""
","
","","","2901.10000000149","[""tiger""]","0","10","3753","332","","","","","","","","","","","","","","","","","","",""
"pit-instructions","6","19293","0.0-2.0-2.0-1.0","battery-v0.2","","""event"",""trial"",""time""
""fullscreenenter"",""1"",""1892""
","
","
","""event"",""trial"",""time""
""fullscreenenter"",""1"",""1892""
","
","","[{""page_index"":0,""viewing_time"":2780.10000000149}]","2780.3000000044703","","","","","","","","","","","","","","","","","","","","","","","",""
"pit-instructions","7","171533","0.0-2.0-3.0","battery-v0.2","","""event"",""trial"",""time""
""fullscreenenter"",""1"",""1892""
","
","
","""event"",""trial"",""time""
""fullscreenenter"",""1"",""1892""
","
","","[{""page_index"":0,""viewing_time"":10836.20000000298},{""page_index"":1,""viewing_time"":10616.10000000149},{""page_index"":2,""viewing_time"":6379.89999999851},{""page_index"":3,""viewing_time"":8275.60000000149},{""page_index"":4,""viewing_time"":14311.79999999702},{""page_index"":5,""viewing_time"":6914.5},{""page_index"":6,""viewing_time"":7343.89999999851},{""page_index"":7,""viewing_time"":34339.80000000447},{""page_index"":8,""viewing_time"":7936.29999999702},{""page_index"":9,""viewing_time"":9381.5},{""page_index"":10,""viewing_time"":7034.80000000447},{""page_index"":11,""viewing_time"":10665.5},{""page_index"":12,""viewing_time"":7176},{""page_index"":13,""viewing_time"":11027.59999999404}]","152239.90000000596","","","","","","","","","","","","","","","","","","","","","","","",""
"pit-trial","8","175381","0.0-2.0-4.0-0.0","battery-v0.2","","""event"",""trial"",""time""
""fullscreenenter"",""1"",""1892""
","
","
","""event"",""trial"",""time""
""fullscreenenter"",""1"",""1892""
","
","","","970","","","10","3753","332","&#9784;","elianto","#FFFFF080"," "," ","1","&#10004","[1828.1000000014901]","1","0","0","","","","","","","",""
"pit-trial","9","179736","0.0-2.0-4.1-0.1","battery-v0.2","","""event"",""trial"",""time""
""fullscreenenter"",""1"",""1892""
","
","
","""event"",""trial"",""time""
""fullscreenenter"",""1"",""1892""
","
","","","1472.1999999955297","","","10","3753","332","&#9784;","elianto","#FFFFF080"," "," ","1","&#10004","[2328.89999999851]","1","0","0","","","","","","","",""
"pit-trial","10","183715","0.0-2.0-4.2-0.2","battery-v0.2","","""event"",""trial"",""time""
""fullscreenenter"",""1"",""1892""
","
","
","""event"",""trial"",""time""
""fullscreenenter"",""1"",""1892""
","
","","","1110","","","10","3753","332","&#9784;","elianto","#FFFFF080"," "," ","1","&#10004","[1964.4000000059605]","1","0","0","","","","","","","",""
"pit-trial","11","187471","0.0-2.0-4.3-0.3","battery-v0.2","","""event"",""trial"",""time""
""fullscreenenter"",""1"",""1892""
","
","
","""event"",""trial"",""time""
""fullscreenenter"",""1"",""1892""
","
","","","880.2999999970198","","","10","3753","332","&#9784;","elianto","#FFFFF080"," "," ","1","&#10004","[1734.7999999970198]","1","0","0","","","","","","","",""
"pit-trial","12","191824","0.0-2.0-4.4-0.4","battery-v0.2","","""event"",""trial"",""time""
""fullscreenenter"",""1"",""1892""
","
","
","""event"",""trial"",""time""
""fullscreenenter"",""1"",""1892""
","
","","","1469.9000000059605","","","10","3753","332","&#9784;","elianto","#FFFFF080"," "," ","1","&#10004","[2320.3000000044703]","1","0","0","","","","","","","",""
"pit-instructions","13","223605","0.0-2.0-5.0","battery-v0.2","","""event"",""trial"",""time""
""fullscreenenter"",""1"",""1892""
","
","
","""event"",""trial"",""time""
""fullscreenenter"",""1"",""1892""
","
","","[{""page_index"":0,""viewing_time"":7807.79999999702},{""page_index"":1,""viewing_time"":8290.20000000298},{""page_index"":2,""viewing_time"":8222.39999999851},{""page_index"":3,""viewing_time"":7451.10000000149}]","31771.89999999851","","","","","","","","","","","","","","","","","","","","","","","",""
"pit-trial","14","228494","0.0-2.0-6.0-0.0","battery-v0.2","","""event"",""trial"",""time""
""fullscreenenter"",""1"",""1892""
","
","
","""event"",""trial"",""time""
""fullscreenenter"",""1"",""1892""
","
","","","-1","","","10","3753","332","&#9854;","elianto","#FFFFF080","-1","-1","1","&#10004","[]","0","0","1","","","","","","","",""
"pit-trial","15","233385","0.0-2.0-6.1-0.1","battery-v0.2","","""event"",""trial"",""time""
""fullscreenenter"",""1"",""1892""
","
","
","""event"",""trial"",""time""
""fullscreenenter"",""1"",""1892""
","
","","","-1","","","10","3753","332","&#9854;","elianto","#FFFFF080","-1","-1","1","&#10004","[]","0","0","1","","","","","","","",""
"pit-trial","16","238276","0.0-2.0-6.2-0.2","battery-v0.2","","""event"",""trial"",""time""
""fullscreenenter"",""1"",""1892""
","
","
","""event"",""trial"",""time""
""fullscreenenter"",""1"",""1892""
","
","","","-1","","","10","3753","332","&#9854;","elianto","#FFFFF080","-1","-1","1","&#10004","[]","0","0","1","","","","","","","",""
"pit-trial","17","243145","0.0-2.0-6.3-0.3","battery-v0.2","","""event"",""trial"",""time""
""fullscreenenter"",""1"",""1892""
","
","
","""event"",""trial"",""time""
""fullscreenenter"",""1"",""1892""
","
","","","-1","","","10","3753","332","&#9854;","elianto","#FFFFF080","-1","-1","1","&#10004","[]","0","0","1","","","","","","","",""
"pit-trial","18","248037","0.0-2.0-6.4-0.4","battery-v0.2","","""event"",""trial"",""time""
""fullscreenenter"",""1"",""1892""
","
","
","""event"",""trial"",""time""
""fullscreenenter"",""1"",""1892""
","
","","","-1","","","10","3753","332","&#9854;","elianto","#FFFFF080","-1","-1","1","&#10004","[]","0","0","1","","","","","","","",""
"pit-instructions","19","454871","0.0-2.0-7.0","battery-v0.2","","""event"",""trial"",""time""
""fullscreenenter"",""1"",""1892""
","
","
","""event"",""trial"",""time""
""fullscreenenter"",""1"",""1892""
","
","","[{""page_index"":0,""viewing_time"":9463.29999999702},{""page_index"":1,""viewing_time"":8894},{""page_index"":2,""viewing_time"":7870},{""page_index"":3,""viewing_time"":7583.80000000447},{""page_index"":4,""viewing_time"":19727.69999999553},{""page_index"":5,""viewing_time"":9374.60000000149},{""page_index"":6,""viewing_time"":6192},{""page_index"":7,""viewing_time"":20907.60000000149},{""page_index"":8,""viewing_time"":12370.20000000298},{""page_index"":9,""viewing_time"":8904.19999999553},{""page_index"":10,""viewing_time"":6903.80000000447},{""page_index"":11,""viewing_time"":22302},{""page_index"":12,""viewing_time"":9957.89999999851},{""page_index"":13,""viewing_time"":22802.19999999553},{""page_index"":14,""viewing_time"":9453.80000000447},{""page_index"":15,""viewing_time"":10876},{""page_index"":16,""viewing_time"":6282.5},{""page_index"":17,""viewing_time"":6959.69999999553}]","206825.6000000015","","","","","","","","","","","","","","","","","","","","","","","",""
"pit-trial","20","458695","0.0-2.0-8.0-0.0","battery-v0.2","","""event"",""trial"",""time""
""fullscreenenter"",""1"",""1892""
","
","
","""event"",""trial"",""time""
""fullscreenenter"",""1"",""1892""
","
","","","945.5","","","10","3753","332","&#9776;","elianto","#3366ff99"," "," ","1","+10","[1797.8000000044703]","1","0","1","","","","","","","",""
"pit-trial","21","462166","0.0-2.0-8.0-1.0","battery-v0.2","","""event"",""trial"",""time""
""fullscreenenter"",""1"",""1892""
","
","
","""event"",""trial"",""time""
""fullscreenenter"",""1"",""1892""
","
","","","602.5999999940395","","","10","3753","332","&#9776;","elianto","#3366ff99"," "," ","1","+10","[1454.1000000014901]","1","0","1","","","","","","","",""
"pit-trial","22","465645","0.0-2.0-8.0-2.0","battery-v0.2","","""event"",""trial"",""time""
""fullscreenenter"",""1"",""1892""
","
","
","""event"",""trial"",""time""
""fullscreenenter"",""1"",""1892""
","
","","","601","","","10","3753","332","&#9776;","elianto","#3366ff99"," "," ","1","+10","[1462.1999999955297]","1","0","1","","","","","","","",""
"pit-trial","23","469087","0.0-2.0-8.0-3.0","battery-v0.2","","""event"",""trial"",""time""
""fullscreenenter"",""1"",""1892""
","
","
","""event"",""trial"",""time""
""fullscreenenter"",""1"",""1892""
","
","","","577.8000000044703","","","10","3753","332","&#9776;","elianto","#3366ff99"," "," ","1","0","[1429.7999999970198,2605.89999999851,3253.7999999970198]","3","0","1","","","","","","","",""
"pit-trial","24","472465","0.0-2.0-8.0-4.0","battery-v0.2","","""event"",""trial"",""time""
""fullscreenenter"",""1"",""1892""
","
","
","""event"",""trial"",""time""
""fullscreenenter"",""1"",""1892""
","
","","","513.5","","","10","3753","332","&#9776;","elianto","#3366ff99"," "," ","1","+10","[1365.5999999940395]","1","0","1","","","","","","","",""
"pit-trial","25","476095","0.0-2.0-8.1-0.1","battery-v0.2","","""event"",""trial"",""time""
""fullscreenenter"",""1"",""1892""
","
","
","""event"",""trial"",""time""
""fullscreenenter"",""1"",""1892""
","
","","","746.3999999985099","","","10","3753","332","&#9776;","elianto","#3366ff99"," "," ","1","+10","[1601.0999999940395]","1","0","1","","","","","","","",""
"pit-trial","26","479766","0.0-2.0-8.1-1.1","battery-v0.2","","""event"",""trial"",""time""
""fullscreenenter"",""1"",""1892""
","
","
","""event"",""trial"",""time""
""fullscreenenter"",""1"",""1892""
","
","","","800.2000000029802","","","10","3753","332","&#9776;","elianto","#3366ff99"," "," ","1","+10","[483.30000000447035,1652.8000000044703]","2","0","1","","","","","","","",""
"pit-trial","27","484455","0.0-2.0-8.1-2.1","battery-v0.2","","""event"",""trial"",""time""
""fullscreenenter"",""1"",""1892""
","
","
","""event"",""trial"",""time""
""fullscreenenter"",""1"",""1892""
","
","","","1824.1000000014901","","","10","3753","332","&#9776;","elianto","#3366ff99"," "," ","1","+10","[2677.10000000149]","1","0","1","","","","","","","",""
"pit-trial","28","488606","0.0-2.0-8.1-3.1","battery-v0.2","","""event"",""trial"",""time""
""fullscreenenter"",""1"",""1892""
","
","
","""event"",""trial"",""time""
""fullscreenenter"",""1"",""1892""
","
","","","1283.1000000014901","","","10","3753","332","&#9776;","elianto","#3366ff99"," "," ","1","0","[2140.60000000149]","1","0","1","","","","","","","",""
"pit-trial","29","492222","0.0-2.0-8.1-4.1","battery-v0.2","","""event"",""trial"",""time""
""fullscreenenter"",""1"",""1892""
","
","
","""event"",""trial"",""time""
""fullscreenenter"",""1"",""1892""
","
","","","755","","","10","3753","332","&#9776;","elianto","#3366ff99"," "," ","1","+10","[1605.6999999955297]","1","0","1","","","","","","","",""
"pit-trial","30","496745","0.0-2.0-8.2-0.2","battery-v0.2","","""event"",""trial"",""time""
""fullscreenenter"",""1"",""1892""
","
","
","""event"",""trial"",""time""
""fullscreenenter"",""1"",""1892""
","
","","","1655.3000000044703","","","10","3753","332","&#9776;","elianto","#3366ff99"," "," ","1","+10","[2508.89999999851]","1","0","1","","","","","","","",""
"pit-trial","31","500558","0.0-2.0-8.2-1.2","battery-v0.2","","""event"",""trial"",""time""
""fullscreenenter"",""1"",""1892""
","
","
","""event"",""trial"",""time""
""fullscreenenter"",""1"",""1892""
","
","","","947.7999999970198","","","10","3753","332","&#9776;","elianto","#3366ff99"," "," ","1","+10","[1804.9000000059605]","1","0","1","","","","","","","",""
"pit-trial","32","505422","0.0-2.0-8.2-2.2","battery-v0.2","","""event"",""trial"",""time""
""fullscreenenter"",""1"",""1892""
","
","
","""event"",""trial"",""time""
""fullscreenenter"",""1"",""1892""
","
","","","-1","","","10","3753","332","&#9776;","elianto","#3366ff99"," ","-1","0","0","[]","0","0","1","","","","","","","",""
"pit-trial","33","510294","0.0-2.0-8.2-3.2","battery-v0.2","","""event"",""trial"",""time""
""fullscreenenter"",""1"",""1892""
","
","
","""event"",""trial"",""time""
""fullscreenenter"",""1"",""1892""
","
","","","-1","","","10","3753","332","&#9776;","elianto","#3366ff99"," ","-1","0","+10","[]","0","0","1","","","","","","","",""
"pit-trial","34","515165","0.0-2.0-8.2-4.2","battery-v0.2","","""event"",""trial"",""time""
""fullscreenenter"",""1"",""1892""
","
","
","""event"",""trial"",""time""
""fullscreenenter"",""1"",""1892""
","
","","","-1","","","10","3753","332","&#9776;","elianto","#3366ff99"," ","-1","0","0","[2942.6999999955297]","1","0","1","","","","","","","",""
"call-function","35","515166","0.0-2.0-9.0","battery-v0.2","","""event"",""trial"",""time""
""fullscreenenter"",""1"",""1892""
","
","
","""event"",""trial"",""time""
""fullscreenenter"",""1"",""1892""
","
","","","","","","","","","","","","","","","","","","","","","","","","","","",""
"pit-instructions","36","602869","0.0-2.0-10.0","battery-v0.2","","""event"",""trial"",""time""
""fullscreenenter"",""1"",""1892""
","
","
","""event"",""trial"",""time""
""fullscreenenter"",""1"",""1892""
","
","","[{""page_index"":0,""viewing_time"":26660.19999999553},{""page_index"":1,""viewing_time"":10590},{""page_index"":2,""viewing_time"":23272.20000000298},{""page_index"":3,""viewing_time"":16908.20000000298},{""page_index"":4,""viewing_time"":10271.39999999851}]","87702.60000000149","","","","","","","","","","","","","","","","","","","","","","","",""
"pit-trial","37","606744","0.0-2.0-11.0-0.0","battery-v0.2","","""event"",""trial"",""time""
""fullscreenenter"",""1"",""1892""
","
","
","""event"",""trial"",""time""
""fullscreenenter"",""1"",""1892""
","
","","","1002.5","","","10","3753","332","&#9761;","elianto","#3366ff99","-1"," ","0","0","[1855.5]","1","0","2","","","","","","","",""
"pit-trial","38","610043","0.0-2.0-11.0-1.0","battery-v0.2","","""event"",""trial"",""time""
""fullscreenenter"",""1"",""1892""
","
","
","""event"",""trial"",""time""
""fullscreenenter"",""1"",""1892""
","
","","","418.79999999701977","","","10","3753","332","&#9761;","elianto","#3366ff99","-1"," ","0","0","[289.79999999701977,1275.6000000014901]","2","0","2","","","","","","","",""
"pit-trial","39","613129","0.0-2.0-11.0-2.0","battery-v0.2","","""event"",""trial"",""time""
""fullscreenenter"",""1"",""1892""
","
","
","""event"",""trial"",""time""
""fullscreenenter"",""1"",""1892""
","
","","","210.5","","","10","3753","332","&#9761;","elianto","#3366ff99","-1"," ","0","0","[1063.4000000059605]","1","0","2","","","","","","","",""
"pit-trial","40","618008","0.0-2.0-11.0-3.0","battery-v0.2","","""event"",""trial"",""time""
""fullscreenenter"",""1"",""1892""
","
","
","""event"",""trial"",""time""
""fullscreenenter"",""1"",""1892""
","
","","","-1","","","10","3753","332","&#9761;","elianto","#3366ff99","-1","-1","1","0","[]","0","0","2","","","","","","","",""
"pit-trial","41","622874","0.0-2.0-11.0-4.0","battery-v0.2","","""event"",""trial"",""time""
""fullscreenenter"",""1"",""1892""
","
","
","""event"",""trial"",""time""
""fullscreenenter"",""1"",""1892""
","
","","","-1","","","10","3753","332","&#9761;","elianto","#3366ff99","-1","-1","1","+10","[]","0","0","2","","","","","","","",""
"pit-trial","42","627743","0.0-2.0-11.1-0.1","battery-v0.2","","""event"",""trial"",""time""
""fullscreenenter"",""1"",""1892""
","
","
","""event"",""trial"",""time""
""fullscreenenter"",""1"",""1892""
","
","","","-1","","","10","3753","332","&#9761;","elianto","#3366ff99","-1","-1","1","+10","[]","0","0","2","","","","","","","",""
"pit-trial","43","632606","0.0-2.0-11.1-1.1","battery-v0.2","","""event"",""trial"",""time""
""fullscreenenter"",""1"",""1892""
","
","
","""event"",""trial"",""time""
""fullscreenenter"",""1"",""1892""
","
","","","-1","","","10","3753","332","&#9761;","elianto","#3366ff99","-1","-1","1","+10","[]","0","0","2","","","","","","","",""
"pit-trial","44","637485","0.0-2.0-11.1-2.1","battery-v0.2","","""event"",""trial"",""time""
""fullscreenenter"",""1"",""1892""
","
","
","""event"",""trial"",""time""
""fullscreenenter"",""1"",""1892""
","
","","","-1","","","10","3753","332","&#9761;","elianto","#3366ff99","-1","-1","1","+10","[]","0","0","2","","","","","","","",""
"pit-trial","45","642351","0.0-2.0-11.1-3.1","battery-v0.2","","""event"",""trial"",""time""
""fullscreenenter"",""1"",""1892""
","
","
","""event"",""trial"",""time""
""fullscreenenter"",""1"",""1892""
","
","","","-1","","","10","3753","332","&#9761;","elianto","#3366ff99","-1","-1","1","0","[]","0","0","2","","","","","","","",""
"pit-trial","46","647223","0.0-2.0-11.1-4.1","battery-v0.2","","""event"",""trial"",""time""
""fullscreenenter"",""1"",""1892""
","
","
","""event"",""trial"",""time""
""fullscreenenter"",""1"",""1892""
","
","","","-1","","","10","3753","332","&#9761;","elianto","#3366ff99","-1","-1","1","+10","[]","0","0","2","","","","","","","",""
"pit-trial","47","652094","0.0-2.0-11.2-0.2","battery-v0.2","","""event"",""trial"",""time""
""fullscreenenter"",""1"",""1892""
","
","
","""event"",""trial"",""time""
""fullscreenenter"",""1"",""1892""
","
","","","-1","","","10","3753","332","&#9761;","elianto","#3366ff99","-1","-1","1","+10","[]","0","0","2","","","","","","","",""
"pit-trial","48","656958","0.0-2.0-11.2-1.2","battery-v0.2","","""event"",""trial"",""time""
""fullscreenenter"",""1"",""1892""
","
","
","""event"",""trial"",""time""
""fullscreenenter"",""1"",""1892""
","
","","","-1","","","10","3753","332","&#9761;","elianto","#3366ff99","-1","-1","1","+10","[]","0","0","2","","","","","","","",""
"pit-trial","49","661821","0.0-2.0-11.2-2.2","battery-v0.2","","""event"",""trial"",""time""
""fullscreenenter"",""1"",""1892""
","
","
","""event"",""trial"",""time""
""fullscreenenter"",""1"",""1892""
","
","","","-1","","","10","3753","332","&#9761;","elianto","#3366ff99","-1","-1","1","+10","[]","0","0","2","","","","","","","",""
"pit-trial","50","666685","0.0-2.0-11.2-3.2","battery-v0.2","","""event"",""trial"",""time""
""fullscreenenter"",""1"",""1892""
","
","
","""event"",""trial"",""time""
""fullscreenenter"",""1"",""1892""
","
","","","-1","","","10","3753","332","&#9761;","elianto","#3366ff99","-1","-1","1","0","[]","0","0","2","","","","","","","",""
"pit-trial","51","671549","0.0-2.0-11.2-4.2","battery-v0.2","","""event"",""trial"",""time""
""fullscreenenter"",""1"",""1892""
","
","
","""event"",""trial"",""time""
""fullscreenenter"",""1"",""1892""
","
","","","-1","","","10","3753","332","&#9761;","elianto","#3366ff99","-1","-1","1","+10","[]","0","0","2","","","","","","","",""
"pit-trial","52","676414","0.0-2.0-11.3-0.3","battery-v0.2","","""event"",""trial"",""time""
""fullscreenenter"",""1"",""1892""
","
","
","""event"",""trial"",""time""
""fullscreenenter"",""1"",""1892""
","
","","","-1","","","10","3753","332","&#9761;","elianto","#3366ff99","-1","-1","1","+10","[]","0","0","2","","","","","","","",""
"pit-trial","53","681278","0.0-2.0-11.3-1.3","battery-v0.2","","""event"",""trial"",""time""
""fullscreenenter"",""1"",""1892""
","
","
","""event"",""trial"",""time""
""fullscreenenter"",""1"",""1892""
","
","","","-1","","","10","3753","332","&#9761;","elianto","#3366ff99","-1","-1","1","+10","[]","0","0","2","","","","","","","",""
"pit-trial","54","686149","0.0-2.0-11.3-2.3","battery-v0.2","","""event"",""trial"",""time""
""fullscreenenter"",""1"",""1892""
","
","
","""event"",""trial"",""time""
""fullscreenenter"",""1"",""1892""
","
","","","-1","","","10","3753","332","&#9761;","elianto","#3366ff99","-1","-1","1","+10","[]","0","0","2","","","","","","","",""
"pit-trial","55","691013","0.0-2.0-11.3-3.3","battery-v0.2","","""event"",""trial"",""time""
""fullscreenenter"",""1"",""1892""
","
","
","""event"",""trial"",""time""
""fullscreenenter"",""1"",""1892""
","
","","","-1","","","10","3753","332","&#9761;","elianto","#3366ff99","-1","-1","1","0","[]","0","0","2","","","","","","","",""
"pit-trial","56","695887","0.0-2.0-11.3-4.3","battery-v0.2","","""event"",""trial"",""time""
""fullscreenenter"",""1"",""1892""
","
","
","""event"",""trial"",""time""
""fullscreenenter"",""1"",""1892""
","
","","","-1","","","10","3753","332","&#9761;","elianto","#3366ff99","-1","-1","1","+10","[]","0","0","2","","","","","","","",""
"call-function","57","695889","0.0-2.0-12.0","battery-v0.2","","""event"",""trial"",""time""
""fullscreenenter"",""1"",""1892""
","
","
","""event"",""trial"",""time""
""fullscreenenter"",""1"",""1892""
","
","","","","","","","","","","","","","","","","","","","","","","","","","","",""
"pit-instructions","58","826929","0.0-2.0-13.0","battery-v0.2","","""event"",""trial"",""time""
""fullscreenenter"",""1"",""1892""
","
","
","""event"",""trial"",""time""
""fullscreenenter"",""1"",""1892""
","
","","[{""page_index"":0,""viewing_time"":7643.20000000298},{""page_index"":1,""viewing_time"":9242.10000000149},{""page_index"":2,""viewing_time"":21067.5},{""page_index"":3,""viewing_time"":24074.59999999404},{""page_index"":4,""viewing_time"":69012}]","131039.89999999851","","","","","","","","","","","","","","","","","","","","","","","",""
"pit-trial","59","831796","0.0-2.0-14.0-0.0","battery-v0.2","","""event"",""trial"",""time""
""fullscreenenter"",""1"",""1892""
","
","
","""event"",""trial"",""time""
""fullscreenenter"",""1"",""1892""
","
","","","-1","","","10","3753","332","&#9826;","elianto","#f73b6a7A","-1","-1","1","0","[]","0","0","3","","","","","","","",""
"pit-trial","60","836661","0.0-2.0-14.0-1.0","battery-v0.2","","""event"",""trial"",""time""
""fullscreenenter"",""1"",""1892""
","
","
","""event"",""trial"",""time""
""fullscreenenter"",""1"",""1892""
","
","","","-1","","","10","3753","332","&#9826;","elianto","#f73b6a7A","-1","-1","1","0","[]","0","0","3","","","","","","","",""
"pit-trial","61","841525","0.0-2.0-14.0-2.0","battery-v0.2","","""event"",""trial"",""time""
""fullscreenenter"",""1"",""1892""
","
","
","""event"",""trial"",""time""
""fullscreenenter"",""1"",""1892""
","
","","","-1","","","10","3753","332","&#9826;","elianto","#f73b6a7A","-1","-1","1","0","[]","0","0","3","","","","","","","",""
"pit-trial","62","846389","0.0-2.0-14.0-3.0","battery-v0.2","","""event"",""trial"",""time""
""fullscreenenter"",""1"",""1892""
","
","
","""event"",""trial"",""time""
""fullscreenenter"",""1"",""1892""
","
","","","-1","","","10","3753","332","&#9826;","elianto","#f73b6a7A","-1","-1","1","-10","[]","0","0","3","","","","","","","",""
"pit-trial","63","851253","0.0-2.0-14.0-4.0","battery-v0.2","","""event"",""trial"",""time""
""fullscreenenter"",""1"",""1892""
","
","
","""event"",""trial"",""time""
""fullscreenenter"",""1"",""1892""
","
","","","-1","","","10","3753","332","&#9826;","elianto","#f73b6a7A","-1","-1","1","0","[]","0","0","3","","","","","","","",""
"pit-trial","64","856126","0.0-2.0-14.1-0.1","battery-v0.2","","""event"",""trial"",""time""
""fullscreenenter"",""1"",""1892""
","
","
","""event"",""trial"",""time""
""fullscreenenter"",""1"",""1892""
","
","","","-1","","","10","3753","332","&#9826;","elianto","#f73b6a7A","-1","-1","1","0","[]","0","0","3","","","","","","","",""
"pit-trial","65","860989","0.0-2.0-14.1-1.1","battery-v0.2","","""event"",""trial"",""time""
""fullscreenenter"",""1"",""1892""
","
","
","""event"",""trial"",""time""
""fullscreenenter"",""1"",""1892""
","
","","","-1","","","10","3753","332","&#9826;","elianto","#f73b6a7A","-1","-1","1","0","[]","0","0","3","","","","","","","",""
"pit-trial","66","865853","0.0-2.0-14.1-2.1","battery-v0.2","","""event"",""trial"",""time""
""fullscreenenter"",""1"",""1892""
","
","
","""event"",""trial"",""time""
""fullscreenenter"",""1"",""1892""
","
","","","-1","","","10","3753","332","&#9826;","elianto","#f73b6a7A","-1","-1","1","0","[]","0","0","3","","","","","","","",""
"pit-trial","67","870717","0.0-2.0-14.1-3.1","battery-v0.2","","""event"",""trial"",""time""
""fullscreenenter"",""1"",""1892""
","
","
","""event"",""trial"",""time""
""fullscreenenter"",""1"",""1892""
","
","","","-1","","","10","3753","332","&#9826;","elianto","#f73b6a7A","-1","-1","1","-10","[]","0","0","3","","","","","","","",""
"pit-trial","68","875581","0.0-2.0-14.1-4.1","battery-v0.2","","""event"",""trial"",""time""
""fullscreenenter"",""1"",""1892""
","
","
","""event"",""trial"",""time""
""fullscreenenter"",""1"",""1892""
","
","","","-1","","","10","3753","332","&#9826;","elianto","#f73b6a7A","-1","-1","1","0","[]","0","0","3","","","","","","","",""
"pit-trial","69","880444","0.0-2.0-14.2-0.2","battery-v0.2","","""event"",""trial"",""time""
""fullscreenenter"",""1"",""1892""
","
","
","""event"",""trial"",""time""
""fullscreenenter"",""1"",""1892""
","
","","","-1","","","10","3753","332","&#9826;","elianto","#f73b6a7A","-1","-1","1","0","[]","0","0","3","","","","","","","",""
"pit-trial","70","885309","0.0-2.0-14.2-1.2","battery-v0.2","","""event"",""trial"",""time""
""fullscreenenter"",""1"",""1892""
","
","
","""event"",""trial"",""time""
""fullscreenenter"",""1"",""1892""
","
","","","-1","","","10","3753","332","&#9826;","elianto","#f73b6a7A","-1","-1","1","0","[]","0","0","3","","","","","","","",""
"pit-trial","71","890181","0.0-2.0-14.2-2.2","battery-v0.2","","""event"",""trial"",""time""
""fullscreenenter"",""1"",""1892""
","
","
","""event"",""trial"",""time""
""fullscreenenter"",""1"",""1892""
","
","","","-1","","","10","3753","332","&#9826;","elianto","#f73b6a7A","-1","-1","1","0","[]","0","0","3","","","","","","","",""
"pit-trial","72","895054","0.0-2.0-14.2-3.2","battery-v0.2","","""event"",""trial"",""time""
""fullscreenenter"",""1"",""1892""
","
","
","""event"",""trial"",""time""
""fullscreenenter"",""1"",""1892""
","
","","","-1","","","10","3753","332","&#9826;","elianto","#f73b6a7A","-1","-1","1","-10","[]","0","0","3","","","","","","","",""
"pit-trial","73","899918","0.0-2.0-14.2-4.2","battery-v0.2","","""event"",""trial"",""time""
""fullscreenenter"",""1"",""1892""
","
","
","""event"",""trial"",""time""
""fullscreenenter"",""1"",""1892""
","
","","","-1","","","10","3753","332","&#9826;","elianto","#f73b6a7A","-1","-1","1","0","[]","0","0","3","","","","","","","",""
"pit-trial","74","904790","0.0-2.0-14.3-0.3","battery-v0.2","","""event"",""trial"",""time""
""fullscreenenter"",""1"",""1892""
","
","
","""event"",""trial"",""time""
""fullscreenenter"",""1"",""1892""
","
","","","-1","","","10","3753","332","&#9826;","elianto","#f73b6a7A","-1","-1","1","0","[]","0","0","3","","","","","","","",""
"pit-trial","75","909661","0.0-2.0-14.3-1.3","battery-v0.2","","""event"",""trial"",""time""
""fullscreenenter"",""1"",""1892""
","
","
","""event"",""trial"",""time""
""fullscreenenter"",""1"",""1892""
","
","","","-1","","","10","3753","332","&#9826;","elianto","#f73b6a7A","-1","-1","1","0","[]","0","0","3","","","","","","","",""
"pit-trial","76","914525","0.0-2.0-14.3-2.3","battery-v0.2","","""event"",""trial"",""time""
""fullscreenenter"",""1"",""1892""
","
","
","""event"",""trial"",""time""
""fullscreenenter"",""1"",""1892""
","
","","","-1","","","10","3753","332","&#9826;","elianto","#f73b6a7A","-1","-1","1","0","[]","0","0","3","","","","","","","",""
"pit-trial","77","919389","0.0-2.0-14.3-3.3","battery-v0.2","","""event"",""trial"",""time""
""fullscreenenter"",""1"",""1892""
","
","
","""event"",""trial"",""time""
""fullscreenenter"",""1"",""1892""
","
","","","-1","","","10","3753","332","&#9826;","elianto","#f73b6a7A","-1","-1","1","-10","[]","0","0","3","","","","","","","",""
"pit-trial","78","924270","0.0-2.0-14.3-4.3","battery-v0.2","","""event"",""trial"",""time""
""fullscreenenter"",""1"",""1892""
","
","
","""event"",""trial"",""time""
""fullscreenenter"",""1"",""1892""
","
","","","-1","","","10","3753","332","&#9826;","elianto","#f73b6a7A","-1","-1","1","0","[]","0","0","3","","","","","","","",""
"call-function","79","924273","0.0-2.0-15.0","battery-v0.2","","""event"",""trial"",""time""
""fullscreenenter"",""1"",""1892""
","
","
","""event"",""trial"",""time""
""fullscreenenter"",""1"",""1892""
","
","","","","","","","","","","","","","","","","","","","","","","","","","","",""
"pit-instructions","80","977855","0.0-2.0-16.0","battery-v0.2","","""event"",""trial"",""time""
""fullscreenenter"",""1"",""1892""
","
","
","""event"",""trial"",""time""
""fullscreenenter"",""1"",""1892""
","
","","[{""page_index"":0,""viewing_time"":10699.79999999702},{""page_index"":1,""viewing_time"":26292},{""page_index"":2,""viewing_time"":10730.20000000298},{""page_index"":3,""viewing_time"":5857.70000000298}]","53580.29999999702","","","","","","","","","","","","","","","","","","","","","","","",""
"pit-trial","81","982742","0.0-2.0-17.0-0.0","battery-v0.2","","""event"",""trial"",""time""
""fullscreenenter"",""1"",""1892""
","
","
","""event"",""trial"",""time""
""fullscreenenter"",""1"",""1892""
","
","","","-1","","","10","3753","332","&#9789;","elianto","#f73b6a7A"," ","-1","0","-10","[]","0","0","4","","","","","","","",""
"pit-trial","82","985831","0.0-2.0-17.0-1.0","battery-v0.2","","""event"",""trial"",""time""
""fullscreenenter"",""1"",""1892""
","
","
","""event"",""trial"",""time""
""fullscreenenter"",""1"",""1892""
","
","","","215.19999999552965","","","10","3753","332","&#9789;","elianto","#f73b6a7A"," "," ","1","0","[1069.6999999955297]","1","0","4","","","","","","","",""
"pit-trial","83","988807","0.0-2.0-17.0-2.0","battery-v0.2","","""event"",""trial"",""time""
""fullscreenenter"",""1"",""1892""
","
","
","""event"",""trial"",""time""
""fullscreenenter"",""1"",""1892""
","
","","","115","","","10","3753","332","&#9789;","elianto","#f73b6a7A"," "," ","1","0","[965.5]","1","0","4","","","","","","","",""
"pit-trial","84","993692","0.0-2.0-17.0-3.0","battery-v0.2","","""event"",""trial"",""time""
""fullscreenenter"",""1"",""1892""
","
","
","""event"",""trial"",""time""
""fullscreenenter"",""1"",""1892""
","
","","","-1","","","10","3753","332","&#9789;","elianto","#f73b6a7A"," ","-1","0","0","[4758.19999999553]","1","0","4","","","","","","","",""
"pit-trial","85","996971","0.0-2.0-17.0-4.0","battery-v0.2","","""event"",""trial"",""time""
""fullscreenenter"",""1"",""1892""
","
","
","""event"",""trial"",""time""
""fullscreenenter"",""1"",""1892""
","
","","","406","","","10","3753","332","&#9789;","elianto","#f73b6a7A"," "," ","1","0","[375.59999999403954,1263.2999999970198,2167.5999999940395]","3","0","4","","","","","","","",""
"pit-trial","86","1000186","0.0-2.0-17.1-0.1","battery-v0.2","","""event"",""trial"",""time""
""fullscreenenter"",""1"",""1892""
","
","
","""event"",""trial"",""time""
""fullscreenenter"",""1"",""1892""
","
","","","349.5","","","10","3753","332","&#9789;","elianto","#f73b6a7A"," "," ","1","0","[39.900000005960464,1199.8000000044703,2295.60000000149]","3","0","4","","","","","","","",""
"pit-trial","87","1003521","0.0-2.0-17.1-1.1","battery-v0.2","","""event"",""trial"",""time""
""fullscreenenter"",""1"",""1892""
","
","
","""event"",""trial"",""time""
""fullscreenenter"",""1"",""1892""
","
","","","461.20000000298023","","","10","3753","332","&#9789;","elianto","#f73b6a7A"," "," ","1","0","[1313.3999999985099]","1","0","4","","","","","","","",""
"pit-trial","88","1006921","0.0-2.0-17.1-2.1","battery-v0.2","","""event"",""trial"",""time""
""fullscreenenter"",""1"",""1892""
","
","
","""event"",""trial"",""time""
""fullscreenenter"",""1"",""1892""
","
","","","519.3999999985099","","","10","3753","332","&#9789;","elianto","#f73b6a7A"," "," ","1","0","[1378.7999999970198,1986.5,2586.60000000149,3203.7999999970198]","4","0","4","","","","","","","",""
"pit-trial","89","1010110","0.0-2.0-17.1-3.1","battery-v0.2","","""event"",""trial"",""time""
""fullscreenenter"",""1"",""1892""
","
","
","""event"",""trial"",""time""
""fullscreenenter"",""1"",""1892""
","
","","","319.5","","","10","3753","332","&#9789;","elianto","#f73b6a7A"," "," ","1","-10","[474.5,1178.6000000014901,1916,2578.5]","4","0","4","","","","","","","",""
"pit-trial","90","1014974","0.0-2.0-17.1-4.1","battery-v0.2","","""event"",""trial"",""time""
""fullscreenenter"",""1"",""1892""
","
","
","""event"",""trial"",""time""
""fullscreenenter"",""1"",""1892""
","
","","","-1","","","10","3753","332","&#9789;","elianto","#f73b6a7A"," ","-1","0","-10","[101.60000000149012,854.8000000044703,3181.5,3429.5,3669.8000000044703,3925.60000000149,4173.5,4461.5,4751.89999999851]","9","0","4","","","","","","","",""
"pit-trial","91","1018045","0.0-2.0-17.2-0.2","battery-v0.2","","""event"",""trial"",""time""
""fullscreenenter"",""1"",""1892""
","
","
","""event"",""trial"",""time""
""fullscreenenter"",""1"",""1892""
","
","","","208.5","","","10","3753","332","&#9789;","elianto","#f73b6a7A"," "," ","1","0","[157.60000000149012,438.6000000014901,757.2999999970198,1060.8999999985099,1340.8999999985099,1580.8999999985099,2093,2357,2708.7999999970198,2998.2999999970198]","10","0","4","","","","","","","",""
"pit-trial","92","1021025","0.0-2.0-17.2-1.2","battery-v0.2","","""event"",""trial"",""time""
""fullscreenenter"",""1"",""1892""
","
","
","""event"",""trial"",""time""
""fullscreenenter"",""1"",""1892""
","
","","","112.79999999701977","","","10","3753","332","&#9789;","elianto","#f73b6a7A"," "," ","1","0","[629.8999999985099,965.7999999970198,1228.6999999955297,1500.7999999970198,1788.8999999985099,2038.8999999985099,2676.7999999970198]","7","0","4","","","","","","","",""
"pit-trial","93","1024133","0.0-2.0-17.2-2.2","battery-v0.2","","""event"",""trial"",""time""
""fullscreenenter"",""1"",""1892""
","
","
","""event"",""trial"",""time""
""fullscreenenter"",""1"",""1892""
","
","","","241.5","","","10","3753","332","&#9789;","elianto","#f73b6a7A"," "," ","1","0","[72.19999999552965,368.1000000014901,608,848.3999999985099,1097.5]","5","0","4","","","","","","","",""
"pit-trial","94","1028997","0.0-2.0-17.2-3.2","battery-v0.2","","""event"",""trial"",""time""
""fullscreenenter"",""1"",""1892""
","
","
","""event"",""trial"",""time""
""fullscreenenter"",""1"",""1892""
","
","","","-1","","","10","3753","332","&#9789;","elianto","#f73b6a7A"," ","-1","0","0","[]","0","0","4","","","","","","","",""
"pit-trial","95","1033872","0.0-2.0-17.2-4.2","battery-v0.2","","""event"",""trial"",""time""
""fullscreenenter"",""1"",""1892""
","
","
","""event"",""trial"",""time""
""fullscreenenter"",""1"",""1892""
","
","","","-1","","","10","3753","332","&#9789;","elianto","#f73b6a7A"," ","-1","0","-10","[]","0","0","4","","","","","","","",""
"pit-trial","96","1038740","0.0-2.0-17.3-0.3","battery-v0.2","","""event"",""trial"",""time""
""fullscreenenter"",""1"",""1892""
","
","
","""event"",""trial"",""time""
""fullscreenenter"",""1"",""1892""
","
","","","-1","","","10","3753","332","&#9789;","elianto","#f73b6a7A"," ","-1","0","-10","[]","0","0","4","","","","","","","",""
"pit-trial","97","1043604","0.0-2.0-17.3-1.3","battery-v0.2","","""event"",""trial"",""time""
""fullscreenenter"",""1"",""1892""
","
","
","""event"",""trial"",""time""
""fullscreenenter"",""1"",""1892""
","
","","","-1","","","10","3753","332","&#9789;","elianto","#f73b6a7A"," ","-1","0","-10","[]","0","0","4","","","","","","","",""
"pit-trial","98","1048478","0.0-2.0-17.3-2.3","battery-v0.2","","""event"",""trial"",""time""
""fullscreenenter"",""1"",""1892""
","
","
","""event"",""trial"",""time""
""fullscreenenter"",""1"",""1892""
","
","","","-1","","","10","3753","332","&#9789;","elianto","#f73b6a7A"," ","-1","0","-10","[]","0","0","4","","","","","","","",""
"pit-trial","99","1053340","0.0-2.0-17.3-3.3","battery-v0.2","","""event"",""trial"",""time""
""fullscreenenter"",""1"",""1892""
","
","
","""event"",""trial"",""time""
""fullscreenenter"",""1"",""1892""
","
","","","-1","","","10","3753","332","&#9789;","elianto","#f73b6a7A"," ","-1","0","0","[]","0","0","4","","","","","","","",""
"pit-trial","100","1058205","0.0-2.0-17.3-4.3","battery-v0.2","","""event"",""trial"",""time""
""fullscreenenter"",""1"",""1892""
","
","
","""event"",""trial"",""time""
""fullscreenenter"",""1"",""1892""
","
","","","-1","","","10","3753","332","&#9789;","elianto","#f73b6a7A"," ","-1","0","-10","[]","0","0","4","","","","","","","",""
"call-function","101","1058207","0.0-2.0-18.0","battery-v0.2","","""event"",""trial"",""time""
""fullscreenenter"",""1"",""1892""
","
","
","""event"",""trial"",""time""
""fullscreenenter"",""1"",""1892""
","
","","","","","","","","","","","","","","","","","","","","","","","","","","",""
"pit-instructions","102","1221990","0.0-2.0-19.0","battery-v0.2","","""event"",""trial"",""time""
""fullscreenenter"",""1"",""1892""
","
","
","""event"",""trial"",""time""
""fullscreenenter"",""1"",""1892""
","
","","[{""page_index"":0,""viewing_time"":41964.90000000596},{""page_index"":1,""viewing_time"":11032},{""page_index"":2,""viewing_time"":31380.59999999404},{""page_index"":3,""viewing_time"":32183.90000000596},{""page_index"":4,""viewing_time"":19871.89999999851},{""page_index"":5,""viewing_time"":9948.10000000149},{""page_index"":6,""viewing_time"":6353.5999999940395},{""page_index"":7,""viewing_time"":6270.20000000298},{""page_index"":8,""viewing_time"":4776.29999999702}]","163781.90000000596","","","","","","","","","","","","","","","","","","","","","","","",""
"pit-comprehension","103","1229261","0.0-2.0-20.0-0.0","battery-v0.2","","""event"",""trial"",""time""
""fullscreenenter"",""1"",""1892""
","
","
","""event"",""trial"",""time""
""fullscreenenter"",""1"",""1892""
","
","","","7267.5","[""SPACE""]","0","10","3753","332","","","","","","","","","","","","","","","","","","",""
"pit-instructions","104","1235069","0.0-2.0-20.0-1.0","battery-v0.2","","""event"",""trial"",""time""
""fullscreenenter"",""1"",""1892""
","
","
","""event"",""trial"",""time""
""fullscreenenter"",""1"",""1892""
","
","","[{""page_index"":0,""viewing_time"":5752.5}]","5752.89999999851","","","","","","","","","","","","","","","","","","","","","","","",""
"pit-comprehension","105","1243135","0.0-2.0-21.0-0.0","battery-v0.2","","""event"",""trial"",""time""
""fullscreenenter"",""1"",""1892""
","
","
","""event"",""trial"",""time""
""fullscreenenter"",""1"",""1892""
","
","","","8061.60000000149","[""10""]","0","10","3753","332","","","","","","","","","","","","","","","","","","",""
"pit-instructions","106","1245153","0.0-2.0-21.0-1.0","battery-v0.2","","""event"",""trial"",""time""
""fullscreenenter"",""1"",""1892""
","
","
","""event"",""trial"",""time""
""fullscreenenter"",""1"",""1892""
","
","","[{""page_index"":0,""viewing_time"":1961.7999999970198}]","1962.2000000029802","","","","","","","","","","","","","","","","","","","","","","","",""
"pit-comprehension","107","1254279","0.0-2.0-22.0-0.0","battery-v0.2","","""event"",""trial"",""time""
""fullscreenenter"",""1"",""1892""
","
","
","""event"",""trial"",""time""
""fullscreenenter"",""1"",""1892""
","
","","","9123.60000000149","[""0""]","0","10","3753","332","","","","","","","","","","","","","","","","","","",""
"pit-instructions","108","1256373","0.0-2.0-22.0-1.0","battery-v0.2","","""event"",""trial"",""time""
""fullscreenenter"",""1"",""1892""
","
","
","""event"",""trial"",""time""
""fullscreenenter"",""1"",""1892""
","
","","[{""page_index"":0,""viewing_time"":2042.8999999985099}]","2043.2999999970198","","","","","","","","","","","","","","","","","","","","","","","",""
"pit-comprehension","109","1270906","0.0-2.0-23.0-0.0","battery-v0.2","","""event"",""trial"",""time""
""fullscreenenter"",""1"",""1892""
","
","
","""event"",""trial"",""time""
""fullscreenenter"",""1"",""1892""
","
","","","14529.20000000298","[""True""]","0","10","3753","332","","","","","","","","","","","","","","","","","","",""
"pit-instructions","110","1272973","0.0-2.0-23.0-1.0","battery-v0.2","","""event"",""trial"",""time""
""fullscreenenter"",""1"",""1892""
","
","
","""event"",""trial"",""time""
""fullscreenenter"",""1"",""1892""
","
","","[{""page_index"":0,""viewing_time"":2013.5999999940395}]","2014","","","","","","","","","","","","","","","","","","","","","","","",""
"pit-comprehension","111","1284192","0.0-2.0-24.0-0.0","battery-v0.2","","""event"",""trial"",""time""
""fullscreenenter"",""1"",""1892""
","
","
","""event"",""trial"",""time""
""fullscreenenter"",""1"",""1892""
","
","","","11216.20000000298","[""True""]","0","10","3753","332","","","","","","","","","","","","","","","","","","",""
"pit-instructions","112","1285965","0.0-2.0-24.0-1.0","battery-v0.2","","""event"",""trial"",""time""
""fullscreenenter"",""1"",""1892""
","
","
","""event"",""trial"",""time""
""fullscreenenter"",""1"",""1892""
","
","","[{""page_index"":0,""viewing_time"":1714.6000000014901}]","1714.8999999985099","","","","","","","","","","","","","","","","","","","","","","","",""
"pit-comprehension","113","1292839","0.0-2.0-25.0-0.0","battery-v0.2","","""event"",""trial"",""time""
""fullscreenenter"",""1"",""1892""
","
","
","""event"",""trial"",""time""
""fullscreenenter"",""1"",""1892""
","
","","","6871.39999999851","[""True""]","0","10","3753","332","","","","","","","","","","","","","","","","","","",""
"pit-instructions","114","1295603","0.0-2.0-25.0-1.0","battery-v0.2","","""event"",""trial"",""time""
""fullscreenenter"",""1"",""1892""
","
","
","""event"",""trial"",""time""
""fullscreenenter"",""1"",""1892""
","
","","[{""page_index"":0,""viewing_time"":2710.39999999851}]","2710.7999999970198","","","","","","","","","","","","","","","","","","","","","","","",""
"pit-comprehension","115","1304280","0.0-2.0-26.0-0.0","battery-v0.2","","""event"",""trial"",""time""
""fullscreenenter"",""1"",""1892""
","
","
","""event"",""trial"",""time""
""fullscreenenter"",""1"",""1892""
","
","","","8673.30000000447","[""False""]","0","10","3753","332","","","","","","","","","","","","","","","","","","",""
"pit-instructions","116","1306118","0.0-2.0-26.0-1.0","battery-v0.2","","""event"",""trial"",""time""
""fullscreenenter"",""1"",""1892""
","
","
","""event"",""trial"",""time""
""fullscreenenter"",""1"",""1892""
","
","","[{""page_index"":0,""viewing_time"":1783.5999999940395}]","1783.7999999970198","","","","","","","","","","","","","","","","","","","","","","","",""
"pit-instructions","117","1323208","0.0-3.0","battery-v0.2","","""event"",""trial"",""time""
""fullscreenenter"",""1"",""1892""
","
","
","""event"",""trial"",""time""
""fullscreenenter"",""1"",""1892""
","
","","[{""page_index"":0,""viewing_time"":4332.0999999940395},{""page_index"":1,""viewing_time"":6345.80000000447},{""page_index"":2,""viewing_time"":6410}]","17088.29999999702","","","","","","","","","","","","","","","","","","","","","","","",""
"pit-trial","118","1328072","0.0-4.0","battery-v0.2","","""event"",""trial"",""time""
""fullscreenenter"",""1"",""1892""
","
","
","""event"",""trial"",""time""
""fullscreenenter"",""1"",""1892""
","
","","","-1","","","10","3753","332","&#9733;","elianto","#3366ff99","-1","-1","1","+10","[]","0","1","","","3753","1","2","2","win","no-go","0"
"pit-trial","119","1332961","0.0-5.0","battery-v0.2","","""event"",""trial"",""time""
""fullscreenenter"",""1"",""1892""
","
","
","""event"",""trial"",""time""
""fullscreenenter"",""1"",""1892""
","
","","","-1","","","10","3753","332","&#9730;","elianto","#3366ff99"," ","-1","0","0","[]","0","1","","","3753","2","1","1","win","go","0"
"pit-trial","120","1337852","0.0-6.0","battery-v0.2","","""event"",""trial"",""time""
""fullscreenenter"",""1"",""1892""
","
","
","""event"",""trial"",""time""
""fullscreenenter"",""1"",""1892""
","
","","","-1","","","10","3753","332","&#9752;","elianto","#f73b6a7A"," ","-1","0","-10","[]","0","1","","","3753","3","3","3","lose","go","0"
"pit-trial","121","1342169","0.0-7.0","battery-v0.2","","""event"",""trial"",""time""
""fullscreenenter"",""1"",""1892""
","
","
","""event"",""trial"",""time""
""fullscreenenter"",""1"",""1892""
","
","","","1454.6000000014901","","","10","3753","332","&#9728;","elianto","#f73b6a7A","-1"," ","0","0","[2305.8000000044703]","1","1","","","3753","4","0","4","lose","no-go","1"
"pit-trial","122","1346370","0.0-8.0","battery-v0.2","","""event"",""trial"",""time""
""fullscreenenter"",""1"",""1892""
","
","
","""event"",""trial"",""time""
""fullscreenenter"",""1"",""1892""
","
","","","1333.1999999955297","","","10","3753","332","&#9752;","elianto","#f73b6a7A"," "," ","1","0","[2185.5]","1","1","","","3753","5","3","3","lose","go","0"
"pit-trial","123","1349815","0.0-9.0","battery-v0.2","","""event"",""trial"",""time""
""fullscreenenter"",""1"",""1892""
","
","
","""event"",""trial"",""time""
""fullscreenenter"",""1"",""1892""
","
","","","582.5","","","10","3753","332","&#9730;","elianto","#3366ff99"," "," ","1","0","[1434.3999999985099]","1","1","","","3753","6","1","1","win","go","1"
"pit-trial","124","1353240","0.0-10.0","battery-v0.2","","""event"",""trial"",""time""
""fullscreenenter"",""1"",""1892""
","
","
","""event"",""trial"",""time""
""fullscreenenter"",""1"",""1892""
","
","","","536.2000000029802","","","10","3753","332","&#9733;","elianto","#3366ff99","-1"," ","0","0","[1394.1000000014901]","1","1","","","3753","7","2","2","win","no-go","0"
"pit-trial","125","1358110","0.0-11.0","battery-v0.2","","""event"",""trial"",""time""
""fullscreenenter"",""1"",""1892""
","
","
","""event"",""trial"",""time""
""fullscreenenter"",""1"",""1892""
","
","","","-1","","","10","3753","332","&#9728;","elianto","#f73b6a7A","-1","-1","1","-10","[]","0","1","","","3753","8","0","4","lose","no-go","1"
"pit-trial","126","1361749","0.0-12.0","battery-v0.2","","""event"",""trial"",""time""
""fullscreenenter"",""1"",""1892""
","
","
","""event"",""trial"",""time""
""fullscreenenter"",""1"",""1892""
","
","","","775.2000000029802","","","10","3753","332","&#9752;","elianto","#f73b6a7A"," "," ","1","0","[1627]","1","1","","","3753","9","3","3","lose","go","0"
"pit-trial","127","1365317","0.0-13.0","battery-v0.2","","""event"",""trial"",""time""
""fullscreenenter"",""1"",""1892""
","
","
","""event"",""trial"",""time""
""fullscreenenter"",""1"",""1892""
","
","","","703.1000000014901","","","10","3753","332","&#9733;","elianto","#3366ff99","-1"," ","0","+10","[1558.6000000014901]","1","1","","","3753","10","2","2","win","no-go","1"
"pit-trial","128","1369053","0.0-14.0","battery-v0.2","","""event"",""trial"",""time""
""fullscreenenter"",""1"",""1892""
","
","
","""event"",""trial"",""time""
""fullscreenenter"",""1"",""1892""
","
","","","872.9000000059605","","","10","3753","332","&#9728;","elianto","#f73b6a7A","-1"," ","0","-10","[1726.3000000044703]","1","1","","","3753","11","0","4","lose","no-go","0"
"pit-trial","129","1372381","0.0-15.0","battery-v0.2","","""event"",""trial"",""time""
""fullscreenenter"",""1"",""1892""
","
","
","""event"",""trial"",""time""
""fullscreenenter"",""1"",""1892""
","
","","","465.80000000447035","","","10","3753","332","&#9730;","elianto","#3366ff99"," "," ","1","+10","[1319.3999999985099]","1","1","","","3753","12","1","1","win","go","0"
"pit-trial","130","1377245","0.0-16.0","battery-v0.2","","""event"",""trial"",""time""
""fullscreenenter"",""1"",""1892""
","
","
","""event"",""trial"",""time""
""fullscreenenter"",""1"",""1892""
","
","","","-1","","","10","3753","332","&#9752;","elianto","#f73b6a7A"," ","-1","0","0","[]","0","1","","","3753","13","3","3","lose","go","1"
"pit-trial","131","1380661","0.0-17.0","battery-v0.2","","""event"",""trial"",""time""
""fullscreenenter"",""1"",""1892""
","
","
","""event"",""trial"",""time""
""fullscreenenter"",""1"",""1892""
","
","","","555.8999999985099","","","10","3753","332","&#9733;","elianto","#3366ff99","-1"," ","0","0","[1406.5]","1","1","","","3753","14","2","2","win","no-go","0"
"pit-trial","132","1384053","0.0-18.0","battery-v0.2","","""event"",""trial"",""time""
""fullscreenenter"",""1"",""1892""
","
","
","""event"",""trial"",""time""
""fullscreenenter"",""1"",""1892""
","
","","","529.3999999985099","","","10","3753","332","&#9730;","elianto","#3366ff99"," "," ","1","0","[1381.8000000044703]","1","1","","","3753","15","1","1","win","go","1"
"pit-trial","133","1387582","0.0-19.0","battery-v0.2","","""event"",""trial"",""time""
""fullscreenenter"",""1"",""1892""
","
","
","""event"",""trial"",""time""
""fullscreenenter"",""1"",""1892""
","
","","","667","","","10","3753","332","&#9728;","elianto","#f73b6a7A","-1"," ","0","-10","[1522.2000000029802]","1","1","","","3753","16","0","4","lose","no-go","0"
"pit-trial","134","1390957","0.0-20.0","battery-v0.2","","""event"",""trial"",""time""
""fullscreenenter"",""1"",""1892""
","
","
","""event"",""trial"",""time""
""fullscreenenter"",""1"",""1892""
","
","","","511.8999999985099","","","10","3753","332","&#9730;","elianto","#3366ff99"," "," ","1","+10","[1363.7999999970198]","1","1","","","3753","17","1","1","win","go","0"
"pit-trial","135","1394379","0.0-21.0","battery-v0.2","","""event"",""trial"",""time""
""fullscreenenter"",""1"",""1892""
","
","
","""event"",""trial"",""time""
""fullscreenenter"",""1"",""1892""
","
","","","544","","","10","3753","332","&#9733;","elianto","#3366ff99","-1"," ","0","0","[1398.6000000014901]","1","1","","","3753","18","2","2","win","no-go","0"
"pit-trial","136","1399245","0.0-22.0","battery-v0.2","","""event"",""trial"",""time""
""fullscreenenter"",""1"",""1892""
","
","
","""event"",""trial"",""time""
""fullscreenenter"",""1"",""1892""
","
","","","-1","","","10","3753","332","&#9752;","elianto","#f73b6a7A"," ","-1","0","0","[]","0","1","","","3753","19","3","3","lose","go","1"
"pit-trial","137","1404109","0.0-23.0","battery-v0.2","","""event"",""trial"",""time""
""fullscreenenter"",""1"",""1892""
","
","
","""event"",""trial"",""time""
""fullscreenenter"",""1"",""1892""
","
","","","-1","","","10","3753","332","&#9728;","elianto","#f73b6a7A","-1","-1","1","0","[]","0","1","","","3753","20","0","4","lose","no-go","0"
"pit-instructions","138","1417013","0.0-24.0","battery-v0.2","","""event"",""trial"",""time""
""fullscreenenter"",""1"",""1892""
","
","
","""event"",""trial"",""time""
""fullscreenenter"",""1"",""1892""
","
","","[{""page_index"":0,""viewing_time"":5643.69999999553},{""page_index"":1,""viewing_time"":7258.70000000298}]","12902.69999999553","","","","","","","","","","","","","","","","","","","","","","","",""
"pit-trial","139","1421883","0.0-25.0","battery-v0.2","","""event"",""trial"",""time""
""fullscreenenter"",""1"",""1892""
","
","
","""event"",""trial"",""time""
""fullscreenenter"",""1"",""1892""
","
","","","-1","","","10","3753","332","m","elianto","#f73b6a7A"," ","-1","0","0","[]","0","2","","","3753","21","0","3","lose","go","1"
"pit-trial","140","1426773","0.0-26.0","battery-v0.2","","""event"",""trial"",""time""
""fullscreenenter"",""1"",""1892""
","
","
","""event"",""trial"",""time""
""fullscreenenter"",""1"",""1892""
","
","","","-1","","","10","3753","332","y","elianto","#f73b6a7A"," ","-1","0","-10","[]","0","2","","","3753","22","2","3","lose","go","0"
"pit-trial","141","1430483","0.0-27.0","battery-v0.2","","""event"",""trial"",""time""
""fullscreenenter"",""1"",""1892""
","
","
","""event"",""trial"",""time""
""fullscreenenter"",""1"",""1892""
","
","","","832.6000000014901","","","10","3753","332","r","elianto","#3366ff99","-1"," ","0","0","[1686.4000000059605]","1","2","","","3753","23","1","2","win","no-go","0"
"pit-trial","142","1434133","0.0-28.0","battery-v0.2","","""event"",""trial"",""time""
""fullscreenenter"",""1"",""1892""
","
","
","""event"",""trial"",""time""
""fullscreenenter"",""1"",""1892""
","
","","","772","","","10","3753","332","h","elianto","#f73b6a7A","-1"," ","0","-10","[1623.5]","1","2","","","3753","24","3","4","lose","no-go","0"
"pit-trial","143","1439008","0.0-29.0","battery-v0.2","","""event"",""trial"",""time""
""fullscreenenter"",""1"",""1892""
","
","
","""event"",""trial"",""time""
""fullscreenenter"",""1"",""1892""
","
","","","-1","","","10","3753","332","h","elianto","#f73b6a7A","-1","-1","1","0","[]","0","2","","","3753","25","3","4","lose","no-go","0"
"pit-trial","144","1443193","0.0-30.0","battery-v0.2","","""event"",""trial"",""time""
""fullscreenenter"",""1"",""1892""
","
","
","""event"",""trial"",""time""
""fullscreenenter"",""1"",""1892""
","
","","","1313","","","10","3753","332","r","elianto","#3366ff99","-1"," ","0","0","[2163.5]","1","2","","","3753","26","1","2","win","no-go","0"
"pit-trial","145","1446941","0.0-31.0","battery-v0.2","","""event"",""trial"",""time""
""fullscreenenter"",""1"",""1892""
","
","
","""event"",""trial"",""time""
""fullscreenenter"",""1"",""1892""
","
","","","879.6000000014901","","","10","3753","332","y","elianto","#f73b6a7A"," "," ","1","0","[1737.7999999970198]","1","2","","","3753","27","2","3","lose","go","0"
"pit-trial","146","1451806","0.0-32.0","battery-v0.2","","""event"",""trial"",""time""
""fullscreenenter"",""1"",""1892""
","
","
","""event"",""trial"",""time""
""fullscreenenter"",""1"",""1892""
","
","","","-1","","","10","3753","332","m","elianto","#f73b6a7A"," ","-1","0","0","[]","0","2","","","3753","28","0","3","lose","go","1"
"pit-trial","147","1456668","0.0-33.0","battery-v0.2","","""event"",""trial"",""time""
""fullscreenenter"",""1"",""1892""
","
","
","""event"",""trial"",""time""
""fullscreenenter"",""1"",""1892""
","
","","","-1","","","10","3753","332","h","elianto","#f73b6a7A","-1","-1","1","0","[]","0","2","","","3753","29","3","4","lose","no-go","0"
"pit-trial","148","1461533","0.0-34.0","battery-v0.2","","""event"",""trial"",""time""
""fullscreenenter"",""1"",""1892""
","
","
","""event"",""trial"",""time""
""fullscreenenter"",""1"",""1892""
","
","","","-1","","","10","3753","332","y","elianto","#f73b6a7A"," ","-1","0","-10","[]","0","2","","","3753","30","2","3","lose","go","0"
"pit-trial","149","1466397","0.0-35.0","battery-v0.2","","""event"",""trial"",""time""
""fullscreenenter"",""1"",""1892""
","
","
","""event"",""trial"",""time""
""fullscreenenter"",""1"",""1892""
","
","","","-1","","","10","3753","332","r","elianto","#3366ff99","-1","-1","1","+10","[]","0","2","","","3753","31","1","2","win","no-go","0"
"pit-trial","150","1471261","0.0-36.0","battery-v0.2","","""event"",""trial"",""time""
""fullscreenenter"",""1"",""1892""
","
","
","""event"",""trial"",""time""
""fullscreenenter"",""1"",""1892""
","
","","","-1","","","10","3753","332","m","elianto","#f73b6a7A"," ","-1","0","-10","[]","0","2","","","3753","32","0","3","lose","go","0"
"pit-trial","151","1474965","0.0-37.0","battery-v0.2","","""event"",""trial"",""time""
""fullscreenenter"",""1"",""1892""
","
","
","""event"",""trial"",""time""
""fullscreenenter"",""1"",""1892""
","
","","","840","","","10","3753","332","m","elianto","#f73b6a7A"," "," ","1","-10","[1694.3000000044703]","1","2","","","3753","33","0","3","lose","go","1"
"pit-trial","152","1479830","0.0-38.0","battery-v0.2","","""event"",""trial"",""time""
""fullscreenenter"",""1"",""1892""
","
","
","""event"",""trial"",""time""
""fullscreenenter"",""1"",""1892""
","
","","","-1","","","10","3753","332","r","elianto","#3366ff99","-1","-1","1","+10","[]","0","2","","","3753","34","1","2","win","no-go","0"
"pit-trial","153","1484693","0.0-39.0","battery-v0.2","","""event"",""trial"",""time""
""fullscreenenter"",""1"",""1892""
","
","
","""event"",""trial"",""time""
""fullscreenenter"",""1"",""1892""
","
","","","-1","","","10","3753","332","h","elianto","#f73b6a7A","-1","-1","1","0","[]","0","2","","","3753","35","3","4","lose","no-go","0"
"pit-trial","154","1488157","0.0-40.0","battery-v0.2","","""event"",""trial"",""time""
""fullscreenenter"",""1"",""1892""
","
","
","""event"",""trial"",""time""
""fullscreenenter"",""1"",""1892""
","
","","","603.6000000014901","","","10","3753","332","y","elianto","#f73b6a7A"," "," ","1","0","[1454.7999999970198]","1","2","","","3753","36","2","3","lose","go","0"
"pit-trial","155","1491763","0.0-41.0","battery-v0.2","","""event"",""trial"",""time""
""fullscreenenter"",""1"",""1892""
","
","
","""event"",""trial"",""time""
""fullscreenenter"",""1"",""1892""
","
","","","730.6000000014901","","","10","3753","332","y","elianto","#f73b6a7A"," "," ","1","-10","[1582]","1","2","","","3753","37","2","3","lose","go","1"
"pit-trial","156","1496630","0.0-42.0","battery-v0.2","","""event"",""trial"",""time""
""fullscreenenter"",""1"",""1892""
","
","
","""event"",""trial"",""time""
""fullscreenenter"",""1"",""1892""
","
","","","-1","","","10","3753","332","h","elianto","#f73b6a7A","-1","-1","1","0","[]","0","2","","","3753","38","3","4","lose","no-go","0"
"pit-trial","157","1500812","0.0-43.0","battery-v0.2","","""event"",""trial"",""time""
""fullscreenenter"",""1"",""1892""
","
","
","""event"",""trial"",""time""
""fullscreenenter"",""1"",""1892""
","
","","","1320.5","","","10","3753","332","m","elianto","#f73b6a7A"," "," ","1","0","[2174.2000000029802]","1","2","","","3753","39","0","3","lose","go","0"
"pit-trial","158","1505686","0.0-44.0","battery-v0.2","","""event"",""trial"",""time""
""fullscreenenter"",""1"",""1892""
","
","
","""event"",""trial"",""time""
""fullscreenenter"",""1"",""1892""
","
","","","-1","","","10","3753","332","r","elianto","#3366ff99","-1","-1","1","0","[]","0","2","","","3753","40","1","2","win","no-go","1"
"pit-trial","159","1510557","0.0-45.0","battery-v0.2","","""event"",""trial"",""time""
""fullscreenenter"",""1"",""1892""
","
","
","""event"",""trial"",""time""
""fullscreenenter"",""1"",""1892""
","
","","","-1","","","10","3753","332","h","elianto","#f73b6a7A","-1","-1","1","0","[]","0","2","","","3753","41","3","4","lose","no-go","0"
"pit-trial","160","1515421","0.0-46.0","battery-v0.2","","""event"",""trial"",""time""
""fullscreenenter"",""1"",""1892""
","
","
","""event"",""trial"",""time""
""fullscreenenter"",""1"",""1892""
","
","","","-1","","","10","3753","332","r","elianto","#3366ff99","-1","-1","1","+10","[]","0","2","","","3753","42","1","2","win","no-go","0"
"pit-trial","161","1519573","0.0-47.0","battery-v0.2","","""event"",""trial"",""time""
""fullscreenenter"",""1"",""1892""
","
","
","""event"",""trial"",""time""
""fullscreenenter"",""1"",""1892""
","
","","","1289.2000000029802","","","10","3753","332","m","elianto","#f73b6a7A"," "," ","1","-10","[2143.2000000029802]","1","2","","","3753","43","0","3","lose","go","1"
"pit-trial","162","1523078","0.0-48.0","battery-v0.2","","""event"",""trial"",""time""
""fullscreenenter"",""1"",""1892""
","
","
","""event"",""trial"",""time""
""fullscreenenter"",""1"",""1892""
","
","","","642","","","10","3753","332","y","elianto","#f73b6a7A"," "," ","1","0","[1493.8999999985099]","1","2","","","3753","44","2","3","lose","go","0"
"pit-trial","163","1526941","0.0-49.0","battery-v0.2","","""event"",""trial"",""time""
""fullscreenenter"",""1"",""1892""
","
","
","""event"",""trial"",""time""
""fullscreenenter"",""1"",""1892""
","
","","","1001","","","10","3753","332","m","elianto","#f73b6a7A"," "," ","1","0","[1855.2000000029802]","1","2","","","3753","45","0","3","lose","go","0"
"pit-trial","164","1531805","0.0-50.0","battery-v0.2","","""event"",""trial"",""time""
""fullscreenenter"",""1"",""1892""
","
","
","""event"",""trial"",""time""
""fullscreenenter"",""1"",""1892""
","
","","","-1","","","10","3753","332","y","elianto","#f73b6a7A"," ","-1","0","-10","[]","0","2","","","3753","46","2","3","lose","go","0"
"pit-trial","165","1536669","0.0-51.0","battery-v0.2","","""event"",""trial"",""time""
""fullscreenenter"",""1"",""1892""
","
","
","""event"",""trial"",""time""
""fullscreenenter"",""1"",""1892""
","
","","","-1","","","10","3753","332","r","elianto","#3366ff99","-1","-1","1","+10","[]","0","2","","","3753","47","1","2","win","no-go","0"
"pit-trial","166","1541533","0.0-52.0","battery-v0.2","","""event"",""trial"",""time""
""fullscreenenter"",""1"",""1892""
","
","
","""event"",""trial"",""time""
""fullscreenenter"",""1"",""1892""
","
","","","-1","","","10","3753","332","h","elianto","#f73b6a7A","-1","-1","1","0","[]","0","2","","","3753","48","3","4","lose","no-go","0"
"pit-trial","167","1545206","0.0-53.0","battery-v0.2","","""event"",""trial"",""time""
""fullscreenenter"",""1"",""1892""
","
","
","""event"",""trial"",""time""
""fullscreenenter"",""1"",""1892""
","
","","","810.1000000014901","","","10","3753","332","m","elianto","#f73b6a7A"," "," ","1","-10","[1664.7999999970198]","1","2","","","3753","49","0","3","lose","go","1"
"pit-trial","168","1550078","0.0-54.0","battery-v0.2","","""event"",""trial"",""time""
""fullscreenenter"",""1"",""1892""
","
","
","""event"",""trial"",""time""
""fullscreenenter"",""1"",""1892""
","
","","","-1","","","10","3753","332","r","elianto","#3366ff99","-1","-1","1","+10","[]","0","2","","","3753","50","1","2","win","no-go","0"
"pit-trial","169","1554941","0.0-55.0","battery-v0.2","","""event"",""trial"",""time""
""fullscreenenter"",""1"",""1892""
","
","
","""event"",""trial"",""time""
""fullscreenenter"",""1"",""1892""
","
","","","-1","","","10","3753","332","y","elianto","#f73b6a7A"," ","-1","0","-10","[3672.2000000029802]","1","2","","","3753","51","2","3","lose","go","0"
"pit-trial","170","1559805","0.0-56.0","battery-v0.2","","""event"",""trial"",""time""
""fullscreenenter"",""1"",""1892""
","
","
","""event"",""trial"",""time""
""fullscreenenter"",""1"",""1892""
","
","","","-1","","","10","3753","332","h","elianto","#f73b6a7A","-1","-1","1","0","[]","0","2","","","3753","52","3","4","lose","no-go","0"
"pit-trial","171","1564670","0.0-57.0","battery-v0.2","","""event"",""trial"",""time""
""fullscreenenter"",""1"",""1892""
","
","
","""event"",""trial"",""time""
""fullscreenenter"",""1"",""1892""
","
","","","-1","","","10","3753","332","m","elianto","#f73b6a7A"," ","-1","0","-10","[]","0","2","","","3753","53","0","3","lose","go","0"
"pit-trial","172","1568813","0.0-58.0","battery-v0.2","","""event"",""trial"",""time""
""fullscreenenter"",""1"",""1892""
","
","
","""event"",""trial"",""time""
""fullscreenenter"",""1"",""1892""
","
","","","1279.5","","","10","3753","332","y","elianto","#f73b6a7A"," "," ","1","0","[2133.7999999970198]","1","2","","","3753","54","2","3","lose","go","0"
"pit-trial","173","1573678","0.0-59.0","battery-v0.2","","""event"",""trial"",""time""
""fullscreenenter"",""1"",""1892""
","
","
","""event"",""trial"",""time""
""fullscreenenter"",""1"",""1892""
","
","","","-1","","","10","3753","332","h","elianto","#f73b6a7A","-1","-1","1","-10","[]","0","2","","","3753","55","3","4","lose","no-go","1"
"pit-trial","174","1578541","0.0-60.0","battery-v0.2","","""event"",""trial"",""time""
""fullscreenenter"",""1"",""1892""
","
","
","""event"",""trial"",""time""
""fullscreenenter"",""1"",""1892""
","
","","","-1","","","10","3753","332","r","elianto","#3366ff99","-1","-1","1","+10","[]","0","2","","","3753","56","1","2","win","no-go","0"
"pit-trial","175","1583406","0.0-61.0","battery-v0.2","","""event"",""trial"",""time""
""fullscreenenter"",""1"",""1892""
","
","
","""event"",""trial"",""time""
""fullscreenenter"",""1"",""1892""
","
","","","-1","","","10","3753","332","h","elianto","#f73b6a7A","-1","-1","1","0","[]","0","2","","","3753","57","3","4","lose","no-go","0"
"pit-trial","176","1588271","0.0-62.0","battery-v0.2","","""event"",""trial"",""time""
""fullscreenenter"",""1"",""1892""
","
","
","""event"",""trial"",""time""
""fullscreenenter"",""1"",""1892""
","
","","","-1","","","10","3753","332","y","elianto","#f73b6a7A"," ","-1","0","-10","[]","0","2","","","3753","58","2","3","lose","go","0"
"pit-trial","177","1593133","0.0-63.0","battery-v0.2","","""event"",""trial"",""time""
""fullscreenenter"",""1"",""1892""
","
","
","""event"",""trial"",""time""
""fullscreenenter"",""1"",""1892""
","
","","","-1","","","10","3753","332","z","elianto","#3366ff99"," ","-1","0","0","[]","0","2","","","3753","59","4","1","win","go","0"
"pit-trial","178","1597998","0.0-64.0","battery-v0.2","","""event"",""trial"",""time""
""fullscreenenter"",""1"",""1892""
","
","
","""event"",""trial"",""time""
""fullscreenenter"",""1"",""1892""
","
","","","-1","","","10","3753","332","m","elianto","#f73b6a7A"," ","-1","0","0","[]","0","2","","","3753","60","0","3","lose","go","1"
"pit-trial","179","1602861","0.0-65.0","battery-v0.2","","""event"",""trial"",""time""
""fullscreenenter"",""1"",""1892""
","
","
","""event"",""trial"",""time""
""fullscreenenter"",""1"",""1892""
","
","","","-1","","","10","3753","332","r","elianto","#3366ff99","-1","-1","1","+10","[]","0","2","","","3753","61","1","2","win","no-go","0"
"pit-trial","180","1607732","0.0-66.0","battery-v0.2","","""event"",""trial"",""time""
""fullscreenenter"",""1"",""1892""
","
","
","""event"",""trial"",""time""
""fullscreenenter"",""1"",""1892""
","
","","","-1","","","10","3753","332","y","elianto","#f73b6a7A"," ","-1","0","-10","[]","0","2","","","3753","62","2","3","lose","go","0"
"pit-trial","181","1612596","0.0-67.0","battery-v0.2","","""event"",""trial"",""time""
""fullscreenenter"",""1"",""1892""
","
","
","""event"",""trial"",""time""
""fullscreenenter"",""1"",""1892""
","
","","","-1","","","10","3753","332","z","elianto","#3366ff99"," ","-1","0","0","[]","0","2","","","3753","63","4","1","win","go","0"
"pit-trial","182","1617461","0.0-68.0","battery-v0.2","","""event"",""trial"",""time""
""fullscreenenter"",""1"",""1892""
","
","
","""event"",""trial"",""time""
""fullscreenenter"",""1"",""1892""
","
","","","-1","","","10","3753","332","h","elianto","#f73b6a7A","-1","-1","1","0","[]","0","2","","","3753","64","3","4","lose","no-go","0"
"pit-trial","183","1621142","0.0-69.0","battery-v0.2","","""event"",""trial"",""time""
""fullscreenenter"",""1"",""1892""
","
","
","""event"",""trial"",""time""
""fullscreenenter"",""1"",""1892""
","
","","","815.0999999940395","","","10","3753","332","z","elianto","#3366ff99"," "," ","1","+10","[1670]","1","2","","","3753","65","4","1","win","go","0"
"pit-trial","184","1624733","0.0-70.0","battery-v0.2","","""event"",""trial"",""time""
""fullscreenenter"",""1"",""1892""
","
","
","""event"",""trial"",""time""
""fullscreenenter"",""1"",""1892""
","
","","","729.8999999985099","","","10","3753","332","c","elianto","#3366ff99","-1"," ","0","+10","[1581.2000000029802]","1","2","","","3753","66","5","2","win","no-go","1"
"pit-trial","185","1628101","0.0-71.0","battery-v0.2","","""event"",""trial"",""time""
""fullscreenenter"",""1"",""1892""
","
","
","""event"",""trial"",""time""
""fullscreenenter"",""1"",""1892""
","
","","","503","","","10","3753","332","r","elianto","#3366ff99","-1"," ","0","0","[1357.8999999985099]","1","2","","","3753","67","1","2","win","no-go","0"
"pit-trial","186","1632964","0.0-72.0","battery-v0.2","","""event"",""trial"",""time""
""fullscreenenter"",""1"",""1892""
","
","
","""event"",""trial"",""time""
""fullscreenenter"",""1"",""1892""
","
","","","-1","","","10","3753","332","h","elianto","#f73b6a7A","-1","-1","1","0","[]","0","2","","","3753","68","3","4","lose","no-go","0"
"pit-trial","187","1636900","0.0-73.0","battery-v0.2","","""event"",""trial"",""time""
""fullscreenenter"",""1"",""1892""
","
","
","""event"",""trial"",""time""
""fullscreenenter"",""1"",""1892""
","
","","","1074.9000000059605","","","10","3753","332","y","elianto","#f73b6a7A"," "," ","1","-10","[1926.8000000044703]","1","2","","","3753","69","2","3","lose","go","1"
"pit-trial","188","1641060","0.0-74.0","battery-v0.2","","""event"",""trial"",""time""
""fullscreenenter"",""1"",""1892""
","
","
","""event"",""trial"",""time""
""fullscreenenter"",""1"",""1892""
","
","","","1296.2999999970198","","","10","3753","332","r","elianto","#3366ff99","-1"," ","0","0","[2150.1999999955297]","1","2","","","3753","70","1","2","win","no-go","0"
"pit-trial","189","1644517","0.0-75.0","battery-v0.2","","""event"",""trial"",""time""
""fullscreenenter"",""1"",""1892""
","
","
","""event"",""trial"",""time""
""fullscreenenter"",""1"",""1892""
","
","","","595.7999999970198","","","10","3753","332","z","elianto","#3366ff99"," "," ","1","+10","[1446.3999999985099]","1","2","","","3753","71","4","1","win","go","0"
"pit-trial","190","1648021","0.0-76.0","battery-v0.2","","""event"",""trial"",""time""
""fullscreenenter"",""1"",""1892""
","
","
","""event"",""trial"",""time""
""fullscreenenter"",""1"",""1892""
","
","","","640.3000000044703","","","10","3753","332","c","elianto","#3366ff99","-1"," ","0","0","[1494.2000000029802]","1","2","","","3753","72","5","2","win","no-go","0"
"pit-trial","191","1651533","0.0-77.0","battery-v0.2","","""event"",""trial"",""time""
""fullscreenenter"",""1"",""1892""
","
","
","""event"",""trial"",""time""
""fullscreenenter"",""1"",""1892""
","
","","","649.3999999985099","","","10","3753","332","z","elianto","#3366ff99"," "," ","1","+10","[1501.7000000029802]","1","2","","","3753","73","4","1","win","go","0"
"pit-trial","192","1655160","0.0-78.0","battery-v0.2","","""event"",""trial"",""time""
""fullscreenenter"",""1"",""1892""
","
","
","""event"",""trial"",""time""
""fullscreenenter"",""1"",""1892""
","
","","","759.3000000044703","","","10","3753","332","r","elianto","#3366ff99","-1"," ","0","0","[1614]","1","2","","","3753","74","1","2","win","no-go","0"
"pit-trial","193","1660021","0.0-79.0","battery-v0.2","","""event"",""trial"",""time""
""fullscreenenter"",""1"",""1892""
","
","
","""event"",""trial"",""time""
""fullscreenenter"",""1"",""1892""
","
","","","-1","","","10","3753","332","h","elianto","#f73b6a7A","-1","-1","1","0","[]","0","2","","","3753","75","3","4","lose","no-go","0"
"pit-trial","194","1663789","0.0-80.0","battery-v0.2","","""event"",""trial"",""time""
""fullscreenenter"",""1"",""1892""
","
","
","""event"",""trial"",""time""
""fullscreenenter"",""1"",""1892""
","
","","","902.5999999940395","","","10","3753","332","c","elianto","#3366ff99","-1"," ","0","0","[1755.7999999970198]","1","2","","","3753","76","5","2","win","no-go","0"
"pit-trial","195","1668654","0.0-81.0","battery-v0.2","","""event"",""trial"",""time""
""fullscreenenter"",""1"",""1892""
","
","
","""event"",""trial"",""time""
""fullscreenenter"",""1"",""1892""
","
","","","-1","","","10","3753","332","c","elianto","#3366ff99","-1","-1","1","+10","[]","0","2","","","3753","77","5","2","win","no-go","0"
"pit-trial","196","1672303","0.0-82.0","battery-v0.2","","""event"",""trial"",""time""
""fullscreenenter"",""1"",""1892""
","
","
","""event"",""trial"",""time""
""fullscreenenter"",""1"",""1892""
","
","","","784.6000000014901","","","10","3753","332","z","elianto","#3366ff99"," "," ","1","+10","[1638.1000000014901]","1","2","","","3753","78","4","1","win","go","0"
"pit-trial","197","1677166","0.0-83.0","battery-v0.2","","""event"",""trial"",""time""
""fullscreenenter"",""1"",""1892""
","
","
","""event"",""trial"",""time""
""fullscreenenter"",""1"",""1892""
","
","","","-1","","","10","3753","332","h","elianto","#f73b6a7A","-1","-1","1","0","[]","0","2","","","3753","79","3","4","lose","no-go","0"
"pit-trial","198","1680838","0.0-84.0","battery-v0.2","","""event"",""trial"",""time""
""fullscreenenter"",""1"",""1892""
","
","
","""event"",""trial"",""time""
""fullscreenenter"",""1"",""1892""
","
","","","807.0999999940395","","","10","3753","332","z","elianto","#3366ff99"," "," ","1","0","[1660.7999999970198]","1","2","","","3753","80","4","1","win","go","1"
"pit-trial","199","1684374","0.0-85.0","battery-v0.2","","""event"",""trial"",""time""
""fullscreenenter"",""1"",""1892""
","
","
","""event"",""trial"",""time""
""fullscreenenter"",""1"",""1892""
","
","","","675.8000000044703","","","10","3753","332","c","elianto","#3366ff99","-1"," ","0","0","[1525.8999999985099]","1","2","","","3753","81","5","2","win","no-go","0"
"pit-trial","200","1689238","0.0-86.0","battery-v0.2","","""event"",""trial"",""time""
""fullscreenenter"",""1"",""1892""
","
","
","""event"",""trial"",""time""
""fullscreenenter"",""1"",""1892""
","
","","","-1","","","10","3753","332","t","elianto","#f73b6a7A","-1","-1","1","0","[]","0","2","","","3753","82","7","4","lose","no-go","0"
"pit-trial","201","1692853","0.0-87.0","battery-v0.2","","""event"",""trial"",""time""
""fullscreenenter"",""1"",""1892""
","
","
","""event"",""trial"",""time""
""fullscreenenter"",""1"",""1892""
","
","","","754.7999999970198","","","10","3753","332","z","elianto","#3366ff99"," "," ","1","0","[1606.8999999985099]","1","2","","","3753","83","4","1","win","go","1"
"pit-trial","202","1697718","0.0-88.0","battery-v0.2","","""event"",""trial"",""time""
""fullscreenenter"",""1"",""1892""
","
","
","""event"",""trial"",""time""
""fullscreenenter"",""1"",""1892""
","
","","","-1","","","10","3753","332","h","elianto","#f73b6a7A","-1","-1","1","0","[]","0","2","","","3753","84","3","4","lose","no-go","0"
"pit-trial","203","1702582","0.0-89.0","battery-v0.2","","""event"",""trial"",""time""
""fullscreenenter"",""1"",""1892""
","
","
","""event"",""trial"",""time""
""fullscreenenter"",""1"",""1892""
","
","","","-1","","","10","3753","332","t","elianto","#f73b6a7A","-1","-1","1","0","[]","0","2","","","3753","85","7","4","lose","no-go","0"
"pit-trial","204","1707445","0.0-90.0","battery-v0.2","","""event"",""trial"",""time""
""fullscreenenter"",""1"",""1892""
","
","
","""event"",""trial"",""time""
""fullscreenenter"",""1"",""1892""
","
","","","-1","","","10","3753","332","c","elianto","#3366ff99","-1","-1","1","0","[]","0","2","","","3753","86","5","2","win","no-go","1"
"pit-trial","205","1712312","0.0-91.0","battery-v0.2","","""event"",""trial"",""time""
""fullscreenenter"",""1"",""1892""
","
","
","""event"",""trial"",""time""
""fullscreenenter"",""1"",""1892""
","
","","","-1","","","10","3753","332","b","elianto","#f73b6a7A"," ","-1","0","-10","[]","0","2","","","3753","87","6","3","lose","go","0"
"pit-trial","206","1717190","0.0-92.0","battery-v0.2","","""event"",""trial"",""time""
""fullscreenenter"",""1"",""1892""
","
","
","""event"",""trial"",""time""
""fullscreenenter"",""1"",""1892""
","
","","","-1","","","10","3753","332","z","elianto","#3366ff99"," ","-1","0","0","[]","0","2","","","3753","88","4","1","win","go","0"
"pit-trial","207","1722054","0.0-93.0","battery-v0.2","","""event"",""trial"",""time""
""fullscreenenter"",""1"",""1892""
","
","
","""event"",""trial"",""time""
""fullscreenenter"",""1"",""1892""
","
","","","-1","","","10","3753","332","t","elianto","#f73b6a7A","-1","-1","1","0","[]","0","2","","","3753","89","7","4","lose","no-go","0"
"pit-trial","208","1726926","0.0-94.0","battery-v0.2","","""event"",""trial"",""time""
""fullscreenenter"",""1"",""1892""
","
","
","""event"",""trial"",""time""
""fullscreenenter"",""1"",""1892""
","
","","","-1","","","10","3753","332","b","elianto","#f73b6a7A"," ","-1","0","-10","[]","0","2","","","3753","90","6","3","lose","go","0"
"pit-trial","209","1730878","0.0-95.0","battery-v0.2","","""event"",""trial"",""time""
""fullscreenenter"",""1"",""1892""
","
","
","""event"",""trial"",""time""
""fullscreenenter"",""1"",""1892""
","
","","","1090.5","","","10","3753","332","z","elianto","#3366ff99"," "," ","1","+10","[1941.8999999985099]","1","2","","","3753","91","4","1","win","go","0"
"pit-trial","210","1735742","0.0-96.0","battery-v0.2","","""event"",""trial"",""time""
""fullscreenenter"",""1"",""1892""
","
","
","""event"",""trial"",""time""
""fullscreenenter"",""1"",""1892""
","
","","","-1","","","10","3753","332","c","elianto","#3366ff99","-1","-1","1","+10","[]","0","2","","","3753","92","5","2","win","no-go","0"
"pit-trial","211","1739542","0.0-97.0","battery-v0.2","","""event"",""trial"",""time""
""fullscreenenter"",""1"",""1892""
","
","
","""event"",""trial"",""time""
""fullscreenenter"",""1"",""1892""
","
","","","933.2000000029802","","","10","3753","332","f","elianto","#3366ff99"," "," ","1","+10","[1789]","1","2","","","3753","93","8","1","win","go","0"
"pit-trial","212","1744406","0.0-98.0","battery-v0.2","","""event"",""trial"",""time""
""fullscreenenter"",""1"",""1892""
","
","
","""event"",""trial"",""time""
""fullscreenenter"",""1"",""1892""
","
","","","-1","","","10","3753","332","t","elianto","#f73b6a7A","-1","-1","1","0","[]","0","2","","","3753","94","7","4","lose","no-go","0"
"pit-trial","213","1748094","0.0-99.0","battery-v0.2","","""event"",""trial"",""time""
""fullscreenenter"",""1"",""1892""
","
","
","""event"",""trial"",""time""
""fullscreenenter"",""1"",""1892""
","
","","","826","","","10","3753","332","c","elianto","#3366ff99","-1"," ","0","+10","[1678.9000000059605]","1","2","","","3753","95","5","2","win","no-go","1"
"pit-trial","214","1752966","0.0-100.0","battery-v0.2","","""event"",""trial"",""time""
""fullscreenenter"",""1"",""1892""
","
","
","""event"",""trial"",""time""
""fullscreenenter"",""1"",""1892""
","
","","","-1","","","10","3753","332","b","elianto","#f73b6a7A"," ","-1","0","-10","[]","0","2","","","3753","96","6","3","lose","go","0"
"pit-trial","215","1756663","0.0-101.0","battery-v0.2","","""event"",""trial"",""time""
""fullscreenenter"",""1"",""1892""
","
","
","""event"",""trial"",""time""
""fullscreenenter"",""1"",""1892""
","
","","","834.5","","","10","3753","332","f","elianto","#3366ff99"," "," ","1","0","[1685.6000000014901]","1","2","","","3753","97","8","1","win","go","1"
"pit-trial","216","1761534","0.0-102.0","battery-v0.2","","""event"",""trial"",""time""
""fullscreenenter"",""1"",""1892""
","
","
","""event"",""trial"",""time""
""fullscreenenter"",""1"",""1892""
","
","","","-1","","","10","3753","332","b","elianto","#f73b6a7A"," ","-1","0","0","[]","0","2","","","3753","98","6","3","lose","go","1"
"pit-trial","217","1766400","0.0-103.0","battery-v0.2","","""event"",""trial"",""time""
""fullscreenenter"",""1"",""1892""
","
","
","""event"",""trial"",""time""
""fullscreenenter"",""1"",""1892""
","
","","","-1","","","10","3753","332","t","elianto","#f73b6a7A","-1","-1","1","0","[]","0","2","","","3753","99","7","4","lose","no-go","0"
"pit-trial","218","1770239","0.0-104.0","battery-v0.2","","""event"",""trial"",""time""
""fullscreenenter"",""1"",""1892""
","
","
","""event"",""trial"",""time""
""fullscreenenter"",""1"",""1892""
","
","","","978.3999999985099","","","10","3753","332","c","elianto","#3366ff99","-1"," ","0","0","[1829.2000000029802]","1","2","","","3753","100","5","2","win","no-go","0"
"pit-trial","219","1775105","0.0-105.0","battery-v0.2","","""event"",""trial"",""time""
""fullscreenenter"",""1"",""1892""
","
","
","""event"",""trial"",""time""
""fullscreenenter"",""1"",""1892""
","
","","","-1","","","10","3753","332","t","elianto","#f73b6a7A","-1","-1","1","0","[]","0","2","","","3753","101","7","4","lose","no-go","0"
"pit-trial","220","1778739","0.0-106.0","battery-v0.2","","""event"",""trial"",""time""
""fullscreenenter"",""1"",""1892""
","
","
","""event"",""trial"",""time""
""fullscreenenter"",""1"",""1892""
","
","","","765.7999999970198","","","10","3753","332","f","elianto","#3366ff99"," "," ","1","0","[1616.5]","1","2","","","3753","102","8","1","win","go","1"
"pit-trial","221","1782365","0.0-107.0","battery-v0.2","","""event"",""trial"",""time""
""fullscreenenter"",""1"",""1892""
","
","
","""event"",""trial"",""time""
""fullscreenenter"",""1"",""1892""
","
","","","762.5","","","10","3753","332","c","elianto","#3366ff99","-1"," ","0","+10","[1617.5999999940395]","1","2","","","3753","103","5","2","win","no-go","1"
"pit-trial","222","1786086","0.0-108.0","battery-v0.2","","""event"",""trial"",""time""
""fullscreenenter"",""1"",""1892""
","
","
","""event"",""trial"",""time""
""fullscreenenter"",""1"",""1892""
","
","","","858.5","","","10","3753","332","n","elianto","#3366ff99"," "," ","1","+10","[1709.6000000014901]","1","2","","","3753","104","9","1","win","go","0"
"pit-trial","223","1789925","0.0-109.0","battery-v0.2","","""event"",""trial"",""time""
""fullscreenenter"",""1"",""1892""
","
","
","""event"",""trial"",""time""
""fullscreenenter"",""1"",""1892""
","
","","","976.1999999955297","","","10","3753","332","n","elianto","#3366ff99"," "," ","1","+10","[1828.6999999955297]","1","2","","","3753","105","9","1","win","go","0"
"pit-trial","224","1793574","0.0-110.0","battery-v0.2","","""event"",""trial"",""time""
""fullscreenenter"",""1"",""1892""
","
","
","""event"",""trial"",""time""
""fullscreenenter"",""1"",""1892""
","
","","","787.5","","","10","3753","332","z","elianto","#3366ff99"," "," ","1","+10","[1639.8999999985099]","1","2","","","3753","106","4","1","win","go","0"
"pit-trial","225","1797401","0.0-111.0","battery-v0.2","","""event"",""trial"",""time""
""fullscreenenter"",""1"",""1892""
","
","
","""event"",""trial"",""time""
""fullscreenenter"",""1"",""1892""
","
","","","961.6000000014901","","","10","3753","332","f","elianto","#3366ff99"," "," ","1","+10","[1813.3999999985099]","1","2","","","3753","107","8","1","win","go","0"
"pit-trial","226","1802271","0.0-112.0","battery-v0.2","","""event"",""trial"",""time""
""fullscreenenter"",""1"",""1892""
","
","
","""event"",""trial"",""time""
""fullscreenenter"",""1"",""1892""
","
","","","-1","","","10","3753","332","b","elianto","#f73b6a7A"," ","-1","0","-10","[]","0","2","","","3753","108","6","3","lose","go","0"
"pit-trial","227","1807134","0.0-113.0","battery-v0.2","","""event"",""trial"",""time""
""fullscreenenter"",""1"",""1892""
","
","
","""event"",""trial"",""time""
""fullscreenenter"",""1"",""1892""
","
","","","-1","","","10","3753","332","b","elianto","#f73b6a7A"," ","-1","0","-10","[]","0","2","","","3753","109","6","3","lose","go","0"
"pit-trial","228","1811046","0.0-114.0","battery-v0.2","","""event"",""trial"",""time""
""fullscreenenter"",""1"",""1892""
","
","
","""event"",""trial"",""time""
""fullscreenenter"",""1"",""1892""
","
","","","1049.1999999955297","","","10","3753","332","c","elianto","#3366ff99","-1"," ","0","0","[1902.2999999970198]","1","2","","","3753","110","5","2","win","no-go","0"
"pit-trial","229","1815911","0.0-115.0","battery-v0.2","","""event"",""trial"",""time""
""fullscreenenter"",""1"",""1892""
","
","
","""event"",""trial"",""time""
""fullscreenenter"",""1"",""1892""
","
","","","-1","","","10","3753","332","n","elianto","#3366ff99"," ","-1","0","+10","[3118]","1","2","","","3753","111","9","1","win","go","1"
"pit-trial","230","1819503","0.0-116.0","battery-v0.2","","""event"",""trial"",""time""
""fullscreenenter"",""1"",""1892""
","
","
","""event"",""trial"",""time""
""fullscreenenter"",""1"",""1892""
","
","","","726","","","10","3753","332","f","elianto","#3366ff99"," "," ","1","+10","[1580.1000000014901]","1","2","","","3753","112","8","1","win","go","0"
"pit-trial","231","1822989","0.0-117.0","battery-v0.2","","""event"",""trial"",""time""
""fullscreenenter"",""1"",""1892""
","
","
","""event"",""trial"",""time""
""fullscreenenter"",""1"",""1892""
","
","","","617.7000000029802","","","10","3753","332","f","elianto","#3366ff99"," "," ","1","+10","[1476.1000000014901]","1","2","","","3753","113","8","1","win","go","0"
"pit-trial","232","1826478","0.0-118.0","battery-v0.2","","""event"",""trial"",""time""
""fullscreenenter"",""1"",""1892""
","
","
","""event"",""trial"",""time""
""fullscreenenter"",""1"",""1892""
","
","","","625.8000000044703","","","10","3753","332","n","elianto","#3366ff99"," "," ","1","0","[1478.7000000029802]","1","2","","","3753","114","9","1","win","go","1"
"pit-trial","233","1831350","0.0-119.0","battery-v0.2","","""event"",""trial"",""time""
""fullscreenenter"",""1"",""1892""
","
","
","""event"",""trial"",""time""
""fullscreenenter"",""1"",""1892""
","
","","","-1","","","10","3753","332","b","elianto","#f73b6a7A"," ","-1","0","0","[]","0","2","","","3753","115","6","3","lose","go","1"
"pit-trial","234","1835255","0.0-120.0","battery-v0.2","","""event"",""trial"",""time""
""fullscreenenter"",""1"",""1892""
","
","
","""event"",""trial"",""time""
""fullscreenenter"",""1"",""1892""
","
","","","1041.9000000059605","","","10","3753","332","c","elianto","#3366ff99","-1"," ","0","0","[1894.2000000029802]","1","2","","","3753","116","5","2","win","no-go","0"
"pit-trial","235","1840126","0.0-121.0","battery-v0.2","","""event"",""trial"",""time""
""fullscreenenter"",""1"",""1892""
","
","
","""event"",""trial"",""time""
""fullscreenenter"",""1"",""1892""
","
","","","-1","","","10","3753","332","b","elianto","#f73b6a7A"," ","-1","0","-10","[]","0","2","","","3753","117","6","3","lose","go","0"
"pit-trial","236","1844014","0.0-122.0","battery-v0.2","","""event"",""trial"",""time""
""fullscreenenter"",""1"",""1892""
""blur"",""237"",""1846989""
","""event"",""trial"",""time""
""blur"",""237"",""1846989""
","
","""event"",""trial"",""time""
""fullscreenenter"",""1"",""1892""
","
","","","1023.8999999985099","","","10","3753","332","n","elianto","#3366ff99"," "," ","1","+10","[1875.2999999970198]","1","2","","","3753","118","9","1","win","go","0"
"pit-trial","237","1848885","0.0-123.0","battery-v0.2","","""event"",""trial"",""time""
""fullscreenenter"",""1"",""1892""
""blur"",""237"",""1846989""
","""event"",""trial"",""time""
""blur"",""237"",""1846989""
","
","""event"",""trial"",""time""
""fullscreenenter"",""1"",""1892""
","
","","","-1","","","10","3753","332","f","elianto","#3366ff99"," ","-1","0","+10","[]","0","2","","","3753","119","8","1","win","go","1"
"pit-trial","238","1853747","0.0-124.0","battery-v0.2","","""event"",""trial"",""time""
""fullscreenenter"",""1"",""1892""
""blur"",""237"",""1846989""
","""event"",""trial"",""time""
""blur"",""237"",""1846989""
","
","""event"",""trial"",""time""
""fullscreenenter"",""1"",""1892""
","
","","","-1","","","10","3753","332","c","elianto","#3366ff99","-1","-1","1","0","[]","0","2","","","3753","120","5","2","win","no-go","1"
"pit-trial","239","1858614","0.0-125.0","battery-v0.2","","""event"",""trial"",""time""
""fullscreenenter"",""1"",""1892""
""blur"",""237"",""1846989""
","""event"",""trial"",""time""
""blur"",""237"",""1846989""
","
","""event"",""trial"",""time""
""fullscreenenter"",""1"",""1892""
","
","","","-1","","","10","3753","332","b","elianto","#f73b6a7A"," ","-1","0","-10","[]","0","2","","","3753","121","6","3","lose","go","0"
"pit-trial","240","1863493","0.0-126.0","battery-v0.2","","""event"",""trial"",""time""
""fullscreenenter"",""1"",""1892""
""blur"",""237"",""1846989""
","""event"",""trial"",""time""
""blur"",""237"",""1846989""
","
","""event"",""trial"",""time""
""fullscreenenter"",""1"",""1892""
","
","","","-1","","","10","3753","332","t","elianto","#f73b6a7A","-1","-1","1","0","[]","0","2","","","3753","122","7","4","lose","no-go","0"
"pit-trial","241","1868357","0.0-127.0","battery-v0.2","","""event"",""trial"",""time""
""fullscreenenter"",""1"",""1892""
""blur"",""237"",""1846989""
","""event"",""trial"",""time""
""blur"",""237"",""1846989""
","
","""event"",""trial"",""time""
""fullscreenenter"",""1"",""1892""
","
","","","-1","","","10","3753","332","n","elianto","#3366ff99"," ","-1","0","0","[]","0","2","","","3753","123","9","1","win","go","0"
"pit-trial","242","1873221","0.0-128.0","battery-v0.2","","""event"",""trial"",""time""
""fullscreenenter"",""1"",""1892""
""blur"",""237"",""1846989""
""focus"",""243"",""1875006""
","""event"",""trial"",""time""
""blur"",""237"",""1846989""
","""event"",""trial"",""time""
""focus"",""243"",""1875006""
","""event"",""trial"",""time""
""fullscreenenter"",""1"",""1892""
","
","","","-1","","","10","3753","332","f","elianto","#3366ff99"," ","-1","0","0","[]","0","2","","","3753","124","8","1","win","go","0"
"pit-trial","243","1877855","0.0-129.0","battery-v0.2","","""event"",""trial"",""time""
""fullscreenenter"",""1"",""1892""
""blur"",""237"",""1846989""
""focus"",""243"",""1875006""
","""event"",""trial"",""time""
""blur"",""237"",""1846989""
","""event"",""trial"",""time""
""focus"",""243"",""1875006""
","""event"",""trial"",""time""
""fullscreenenter"",""1"",""1892""
","
","","","1770.5","","","10","3753","332","n","elianto","#3366ff99"," "," ","1","+10","[2625.0999999940395]","1","2","","","3753","125","9","1","win","go","0"
"pit-trial","244","1881820","0.0-130.0","battery-v0.2","","""event"",""trial"",""time""
""fullscreenenter"",""1"",""1892""
""blur"",""237"",""1846989""
""focus"",""243"",""1875006""
","""event"",""trial"",""time""
""blur"",""237"",""1846989""
","""event"",""trial"",""time""
""focus"",""243"",""1875006""
","""event"",""trial"",""time""
""fullscreenenter"",""1"",""1892""
","
","","","1097.8999999985099","","","10","3753","332","f","elianto","#3366ff99"," "," ","1","+10","[1956.2999999970198]","1","2","","","3753","126","8","1","win","go","0"
"pit-trial","245","1886684","0.0-131.0","battery-v0.2","","""event"",""trial"",""time""
""fullscreenenter"",""1"",""1892""
""blur"",""237"",""1846989""
""focus"",""243"",""1875006""
","""event"",""trial"",""time""
""blur"",""237"",""1846989""
","""event"",""trial"",""time""
""focus"",""243"",""1875006""
","""event"",""trial"",""time""
""fullscreenenter"",""1"",""1892""
","
","","","-1","","","10","3753","332","t","elianto","#f73b6a7A","-1","-1","1","0","[]","0","2","","","3753","127","7","4","lose","no-go","0"
"pit-trial","246","1891549","0.0-132.0","battery-v0.2","","""event"",""trial"",""time""
""fullscreenenter"",""1"",""1892""
""blur"",""237"",""1846989""
""focus"",""243"",""1875006""
","""event"",""trial"",""time""
""blur"",""237"",""1846989""
","""event"",""trial"",""time""
""focus"",""243"",""1875006""
","""event"",""trial"",""time""
""fullscreenenter"",""1"",""1892""
","
","","","-1","","","10","3753","332","b","elianto","#f73b6a7A"," ","-1","0","-10","[]","0","2","","","3753","128","6","3","lose","go","0"
"pit-trial","247","1895133","0.0-133.0","battery-v0.2","","""event"",""trial"",""time""
""fullscreenenter"",""1"",""1892""
""blur"",""237"",""1846989""
""focus"",""243"",""1875006""
","""event"",""trial"",""time""
""blur"",""237"",""1846989""
","""event"",""trial"",""time""
""focus"",""243"",""1875006""
","""event"",""trial"",""time""
""fullscreenenter"",""1"",""1892""
","
","","","724","","","10","3753","332","f","elianto","#3366ff99"," "," ","1","+10","[1575]","1","2","","","3753","129","8","1","win","go","0"
"pit-trial","248","1898750","0.0-134.0","battery-v0.2","","""event"",""trial"",""time""
""fullscreenenter"",""1"",""1892""
""blur"",""237"",""1846989""
""focus"",""243"",""1875006""
","""event"",""trial"",""time""
""blur"",""237"",""1846989""
","""event"",""trial"",""time""
""focus"",""243"",""1875006""
","""event"",""trial"",""time""
""fullscreenenter"",""1"",""1892""
","
","","","750.2000000029802","","","10","3753","332","n","elianto","#3366ff99"," "," ","1","+10","[1603]","1","2","","","3753","130","9","1","win","go","0"
"pit-trial","249","1903630","0.0-135.0","battery-v0.2","","""event"",""trial"",""time""
""fullscreenenter"",""1"",""1892""
""blur"",""237"",""1846989""
""focus"",""243"",""1875006""
","""event"",""trial"",""time""
""blur"",""237"",""1846989""
","""event"",""trial"",""time""
""focus"",""243"",""1875006""
","""event"",""trial"",""time""
""fullscreenenter"",""1"",""1892""
","
","","","-1","","","10","3753","332","t","elianto","#f73b6a7A","-1","-1","1","-10","[]","0","2","","","3753","131","7","4","lose","no-go","1"
"pit-trial","250","1908502","0.0-136.0","battery-v0.2","","""event"",""trial"",""time""
""fullscreenenter"",""1"",""1892""
""blur"",""237"",""1846989""
""focus"",""243"",""1875006""
","""event"",""trial"",""time""
""blur"",""237"",""1846989""
","""event"",""trial"",""time""
""focus"",""243"",""1875006""
","""event"",""trial"",""time""
""fullscreenenter"",""1"",""1892""
","
","","","-1","","","10","3753","332","b","elianto","#f73b6a7A"," ","-1","0","-10","[]","0","2","","","3753","132","6","3","lose","go","0"
"pit-trial","251","1911950","0.0-137.0","battery-v0.2","","""event"",""trial"",""time""
""fullscreenenter"",""1"",""1892""
""blur"",""237"",""1846989""
""focus"",""243"",""1875006""
","""event"",""trial"",""time""
""blur"",""237"",""1846989""
","""event"",""trial"",""time""
""focus"",""243"",""1875006""
","""event"",""trial"",""time""
""fullscreenenter"",""1"",""1892""
","
","","","585.1000000014901","","","10","3753","332","n","elianto","#3366ff99"," "," ","1","+10","[1437.3000000044703]","1","2","","","3753","133","9","1","win","go","0"
"pit-trial","252","1915704","0.0-138.0","battery-v0.2","","""event"",""trial"",""time""
""fullscreenenter"",""1"",""1892""
""blur"",""237"",""1846989""
""focus"",""243"",""1875006""
","""event"",""trial"",""time""
""blur"",""237"",""1846989""
","""event"",""trial"",""time""
""focus"",""243"",""1875006""
","""event"",""trial"",""time""
""fullscreenenter"",""1"",""1892""
","
","","","890.3999999985099","","","10","3753","332","b","elianto","#f73b6a7A"," "," ","1","0","[1741]","1","2","","","3753","134","6","3","lose","go","0"
"pit-trial","253","1919206","0.0-139.0","battery-v0.2","","""event"",""trial"",""time""
""fullscreenenter"",""1"",""1892""
""blur"",""237"",""1846989""
""focus"",""243"",""1875006""
","""event"",""trial"",""time""
""blur"",""237"",""1846989""
","""event"",""trial"",""time""
""focus"",""243"",""1875006""
","""event"",""trial"",""time""
""fullscreenenter"",""1"",""1892""
","
","","","639.3000000044703","","","10","3753","332","f","elianto","#3366ff99"," "," ","1","+10","[1489.8000000044703]","1","2","","","3753","135","8","1","win","go","0"
"pit-trial","254","1924070","0.0-140.0","battery-v0.2","","""event"",""trial"",""time""
""fullscreenenter"",""1"",""1892""
""blur"",""237"",""1846989""
""focus"",""243"",""1875006""
","""event"",""trial"",""time""
""blur"",""237"",""1846989""
","""event"",""trial"",""time""
""focus"",""243"",""1875006""
","""event"",""trial"",""time""
""fullscreenenter"",""1"",""1892""
","
","","","-1","","","10","3753","332","t","elianto","#f73b6a7A","-1","-1","1","0","[]","0","2","","","3753","136","7","4","lose","no-go","0"
"pit-trial","255","1927462","0.0-141.0","battery-v0.2","","""event"",""trial"",""time""
""fullscreenenter"",""1"",""1892""
""blur"",""237"",""1846989""
""focus"",""243"",""1875006""
","""event"",""trial"",""time""
""blur"",""237"",""1846989""
","""event"",""trial"",""time""
""focus"",""243"",""1875006""
","""event"",""trial"",""time""
""fullscreenenter"",""1"",""1892""
","
","","","529.8999999985099","","","10","3753","332","n","elianto","#3366ff99"," "," ","1","+10","[1381.5,2037.3999999985099]","2","2","","","3753","137","9","1","win","go","0"
"pit-trial","256","1930902","0.0-142.0","battery-v0.2","","""event"",""trial"",""time""
""fullscreenenter"",""1"",""1892""
""blur"",""237"",""1846989""
""focus"",""243"",""1875006""
","""event"",""trial"",""time""
""blur"",""237"",""1846989""
","""event"",""trial"",""time""
""focus"",""243"",""1875006""
","""event"",""trial"",""time""
""fullscreenenter"",""1"",""1892""
","
","","","575.1000000014901","","","10","3753","332","f","elianto","#3366ff99"," "," ","1","+10","[1429.1999999955297]","1","2","","","3753","138","8","1","win","go","0"
"pit-trial","257","1935766","0.0-143.0","battery-v0.2","","""event"",""trial"",""time""
""fullscreenenter"",""1"",""1892""
""blur"",""237"",""1846989""
""focus"",""243"",""1875006""
","""event"",""trial"",""time""
""blur"",""237"",""1846989""
","""event"",""trial"",""time""
""focus"",""243"",""1875006""
","""event"",""trial"",""time""
""fullscreenenter"",""1"",""1892""
","
","","","-1","","","10","3753","332","b","elianto","#f73b6a7A"," ","-1","0","-10","[844]","1","2","","","3753","139","6","3","lose","go","0"
"pit-trial","258","1940631","0.0-144.0","battery-v0.2","","""event"",""trial"",""time""
""fullscreenenter"",""1"",""1892""
""blur"",""237"",""1846989""
""focus"",""243"",""1875006""
","""event"",""trial"",""time""
""blur"",""237"",""1846989""
","""event"",""trial"",""time""
""focus"",""243"",""1875006""
","""event"",""trial"",""time""
""fullscreenenter"",""1"",""1892""
","
","","","-1","","","10","3753","332","t","elianto","#f73b6a7A","-1","-1","1","0","[]","0","2","","","3753","140","7","4","lose","no-go","0"
"pit-instructions","259","2120931","0.0-145.0","battery-v0.2","","""event"",""trial"",""time""
""fullscreenenter"",""1"",""1892""
""blur"",""237"",""1846989""
""focus"",""243"",""1875006""
","""event"",""trial"",""time""
