"trial_type","trial_index","time_elapsed","internal_node_id","task_version","subject_id","interactions","blur_events","focus_events","fullscreenenter_events","fullscreenexit_events","success","view_history","rt","responses","num_errors","age","subject","participantId","rune","rune_set","hex","correct","choice","accuracy","outcome","keys","total_keys","block","practice","value","sub","trial","stimulus","robot","valence","action","sham"
"pavlovia","0","9","0.0-0.0","battery-v0.2","","""event"",""trial"",""time""
""fullscreenenter"",""1"",""8000""
","
","
","""event"",""trial"",""time""
""fullscreenenter"",""1"",""8000""
","
","","","","","","","","","","","","","","","","","","","","","","","","","","",""
"fullscreen","1","8959","0.0-1.0","battery-v0.2","","""event"",""trial"",""time""
""fullscreenenter"",""1"",""8000""
","
","
","""event"",""trial"",""time""
""fullscreenenter"",""1"",""8000""
","
","true","","","","","","","","","","","","","","","","","","","","","","","","","",""
"pit-instructions","2","13146","0.0-2.0-0.0","battery-v0.2","","""event"",""trial"",""time""
""fullscreenenter"",""1"",""8000""
","
","
","""event"",""trial"",""time""
""fullscreenenter"",""1"",""8000""
","
","","[{""page_index"":0,""viewing_time"":4183.4000000059605}]","4183.9000000059605","","","","","","","","","","","","","","","","","","","","","","","",""
"pit-comprehension","3","15343","0.0-2.0-1.0-0.0","battery-v0.2","","""event"",""trial"",""time""
""fullscreenenter"",""1"",""8000""
","
","
","""event"",""trial"",""time""
""fullscreenenter"",""1"",""8000""
","
","","","2194.9000000059605","[""shark""]","0","12","4555","2500","","","","","","","","","","","","","","","","","","",""
"pit-instructions","4","18479","0.0-2.0-1.0-1.0","battery-v0.2","","""event"",""trial"",""time""
""fullscreenenter"",""1"",""8000""
","
","
","""event"",""trial"",""time""
""fullscreenenter"",""1"",""8000""
","
","","[{""page_index"":0,""viewing_time"":3125.6000000089407}]","3125.9000000059605","","","","","","","","","","","","","","","","","","","","","","","",""
"pit-comprehension","5","20660","0.0-2.0-2.0-0.0","battery-v0.2","","""event"",""trial"",""time""
""fullscreenenter"",""1"",""8000""
","
","
","""event"",""trial"",""time""
""fullscreenenter"",""1"",""8000""
","
","","","2177.699999988079","[""tiger""]","0","12","4555","2500","","","","","","","","","","","","","","","","","","",""
"pit-instructions","6","23001","0.0-2.0-2.0-1.0","battery-v0.2","","""event"",""trial"",""time""
""fullscreenenter"",""1"",""8000""
","
","
","""event"",""trial"",""time""
""fullscreenenter"",""1"",""8000""
","
","","[{""page_index"":0,""viewing_time"":2338.2999999970198}]","2338.5","","","","","","","","","","","","","","","","","","","","","","","",""
"pit-instructions","7","149032","0.0-2.0-3.0","battery-v0.2","","""event"",""trial"",""time""
""fullscreenenter"",""1"",""8000""
","
","
","""event"",""trial"",""time""
""fullscreenenter"",""1"",""8000""
","
","","[{""page_index"":0,""viewing_time"":11584.59999999404},{""page_index"":1,""viewing_time"":7119.800000011921},{""page_index"":2,""viewing_time"":7520.5},{""page_index"":3,""viewing_time"":7061.0999999940395},{""page_index"":4,""viewing_time"":8555.09999999404},{""page_index"":5,""viewing_time"":13990.60000000894},{""page_index"":6,""viewing_time"":10507.5},{""page_index"":7,""viewing_time"":12536.89999999106},{""page_index"":8,""viewing_time"":6933.100000008941},{""page_index"":9,""viewing_time"":12679.70000000298},{""page_index"":10,""viewing_time"":7080.5999999940395},{""page_index"":11,""viewing_time"":8412.59999999404},{""page_index"":12,""viewing_time"":6082},{""page_index"":13,""viewing_time"":5964.800000011921}]","126029.20000000298","","","","","","","","","","","","","","","","","","","","","","","",""
"pit-trial","8","152093","0.0-2.0-4.0-0.0","battery-v0.2","","""event"",""trial"",""time""
""fullscreenenter"",""1"",""8000""
","
","
","""event"",""trial"",""time""
""fullscreenenter"",""1"",""8000""
","
","","","194.5","","","12","4555","2500","&#9784;","elianto","#FFFFF080"," "," ","1","&#10004","[1047.0999999940395]","1","0","0","","","","","","","",""
"pit-trial","9","155781","0.0-2.0-4.1-0.1","battery-v0.2","","""event"",""trial"",""time""
""fullscreenenter"",""1"",""8000""
","
","
","""event"",""trial"",""time""
""fullscreenenter"",""1"",""8000""
","
","","","826.2000000029802","","","12","4555","2500","&#9784;","elianto","#FFFFF080"," "," ","1","&#10004","[1679]","1","0","0","","","","","","","",""
"pit-trial","10","158763","0.0-2.0-4.2-0.2","battery-v0.2","","""event"",""trial"",""time""
""fullscreenenter"",""1"",""8000""
","
","
","""event"",""trial"",""time""
""fullscreenenter"",""1"",""8000""
","
","","","103.69999998807907","","","12","4555","2500","&#9784;","elianto","#FFFFF080"," "," ","1","&#10004","[954.3999999910593]","1","0","0","","","","","","","",""
"pit-trial","11","161672","0.0-2.0-4.3-0.3","battery-v0.2","","""event"",""trial"",""time""
""fullscreenenter"",""1"",""8000""
","
","
","""event"",""trial"",""time""
""fullscreenenter"",""1"",""8000""
","
","","","32","","","12","4555","2500","&#9784;","elianto","#FFFFF080"," "," ","1","&#10004","[887.2000000029802]","1","0","0","","","","","","","",""
"pit-trial","12","164795","0.0-2.0-4.4-0.4","battery-v0.2","","""event"",""trial"",""time""
""fullscreenenter"",""1"",""8000""
","
","
","""event"",""trial"",""time""
""fullscreenenter"",""1"",""8000""
","
","","","259.70000000298023","","","12","4555","2500","&#9784;","elianto","#FFFFF080"," "," ","1","&#10004","[691.7000000029802,1110.0999999940395,2455.0999999940395]","3","0","0","","","","","","","",""
"pit-instructions","13","202461","0.0-2.0-5.0","battery-v0.2","","""event"",""trial"",""time""
""fullscreenenter"",""1"",""8000""
","
","
","""event"",""trial"",""time""
""fullscreenenter"",""1"",""8000""
","
","","[{""page_index"":0,""viewing_time"":16418.39999999106},{""page_index"":1,""viewing_time"":7074.29999999702},{""page_index"":2,""viewing_time"":8069},{""page_index"":3,""viewing_time"":6099.100000008941}]","37661","","","","","","","","","","","","","","","","","","","","","","","",""
"pit-trial","14","207039","0.0-2.0-6.0-0.0","battery-v0.2","","""event"",""trial"",""time""
""fullscreenenter"",""1"",""8000""
","
","
","""event"",""trial"",""time""
""fullscreenenter"",""1"",""8000""
","
","","","1709.4000000059605","","","12","4555","2500","&#9854;","elianto","#FFFFF080","-1"," ","0","&#10060","[2564.7000000029802]","1","0","1","","","","","","","",""
"pit-trial","15","211915","0.0-2.0-6.1-0.1","battery-v0.2","","""event"",""trial"",""time""
""fullscreenenter"",""1"",""8000""
","
","
","""event"",""trial"",""time""
""fullscreenenter"",""1"",""8000""
","
","","","-1","","","12","4555","2500","&#9854;","elianto","#FFFFF080","-1","-1","1","&#10004","[]","0","0","1","","","","","","","",""
"pit-trial","16","216788","0.0-2.0-6.2-0.2","battery-v0.2","","""event"",""trial"",""time""
""fullscreenenter"",""1"",""8000""
","
","
","""event"",""trial"",""time""
""fullscreenenter"",""1"",""8000""
","
","","","-1","","","12","4555","2500","&#9854;","elianto","#FFFFF080","-1","-1","1","&#10004","[]","0","0","1","","","","","","","",""
"pit-trial","17","221664","0.0-2.0-6.3-0.3","battery-v0.2","","""event"",""trial"",""time""
""fullscreenenter"",""1"",""8000""
","
","
","""event"",""trial"",""time""
""fullscreenenter"",""1"",""8000""
","
","","","-1","","","12","4555","2500","&#9854;","elianto","#FFFFF080","-1","-1","1","&#10004","[]","0","0","1","","","","","","","",""
"pit-trial","18","226544","0.0-2.0-6.4-0.4","battery-v0.2","","""event"",""trial"",""time""
""fullscreenenter"",""1"",""8000""
","
","
","""event"",""trial"",""time""
""fullscreenenter"",""1"",""8000""
","
","","","-1","","","12","4555","2500","&#9854;","elianto","#FFFFF080","-1","-1","1","&#10004","[]","0","0","1","","","","","","","",""
"pit-instructions","19","433993","0.0-2.0-7.0","battery-v0.2","","""event"",""trial"",""time""
""fullscreenenter"",""1"",""8000""
","
","
","""event"",""trial"",""time""
""fullscreenenter"",""1"",""8000""
","
","","[{""page_index"":0,""viewing_time"":7376.20000000298},{""page_index"":1,""viewing_time"":10632.79999999702},{""page_index"":2,""viewing_time"":8758.20000000298},{""page_index"":3,""viewing_time"":6737.0999999940395},{""page_index"":4,""viewing_time"":13709},{""page_index"":5,""viewing_time"":7263.9000000059605},{""page_index"":6,""viewing_time"":15507.09999999404},{""page_index"":7,""viewing_time"":9408.70000000298},{""page_index"":8,""viewing_time"":9332.20000000298},{""page_index"":9,""viewing_time"":47124.09999999404},{""page_index"":10,""viewing_time"":8831.90000000596},{""page_index"":11,""viewing_time"":8730.59999999404},{""page_index"":12,""viewing_time"":7300.5},{""page_index"":13,""viewing_time"":10007.79999999702},{""page_index"":14,""viewing_time"":9252.10000000894},{""page_index"":15,""viewing_time"":10531.89999999106},{""page_index"":16,""viewing_time"":7877},{""page_index"":17,""viewing_time"":9066.10000000894}]","207447.40000000596","","","","","","","","","","","","","","","","","","","","","","","",""
"pit-trial","20","438870","0.0-2.0-8.0-0.0","battery-v0.2","","""event"",""trial"",""time""
""fullscreenenter"",""1"",""8000""
","
","
","""event"",""trial"",""time""
""fullscreenenter"",""1"",""8000""
","
","","","-1","","","12","4555","2500","&#9776;","elianto","#3366ff99"," ","-1","0","0","[3811.2000000029802,4709]","2","0","1","","","","","","","",""
"pit-trial","21","442133","0.0-2.0-8.0-1.0","battery-v0.2","","""event"",""trial"",""time""
""fullscreenenter"",""1"",""8000""
","
","
","""event"",""trial"",""time""
""fullscreenenter"",""1"",""8000""
","
","","","394.79999999701977","","","12","4555","2500","&#9776;","elianto","#3366ff99"," "," ","1","+10","[234.1000000089407,1247.5]","2","0","1","","","","","","","",""
"pit-trial","22","445504","0.0-2.0-8.0-2.0","battery-v0.2","","""event"",""trial"",""time""
""fullscreenenter"",""1"",""8000""
","
","
","""event"",""trial"",""time""
""fullscreenenter"",""1"",""8000""
","
","","","495.40000000596046","","","12","4555","2500","&#9776;","elianto","#3366ff99"," "," ","1","+10","[1350.9000000059605]","1","0","1","","","","","","","",""
"pit-trial","23","448582","0.0-2.0-8.0-3.0","battery-v0.2","","""event"",""trial"",""time""
""fullscreenenter"",""1"",""8000""
","
","
","""event"",""trial"",""time""
""fullscreenenter"",""1"",""8000""
","
","","","215.90000000596046","","","12","4555","2500","&#9776;","elianto","#3366ff99"," "," ","1","0","[1068.3999999910593]","1","0","1","","","","","","","",""
"pit-trial","24","451608","0.0-2.0-8.0-4.0","battery-v0.2","","""event"",""trial"",""time""
""fullscreenenter"",""1"",""8000""
","
","
","""event"",""trial"",""time""
""fullscreenenter"",""1"",""8000""
","
","","","155.1000000089407","","","12","4555","2500","&#9776;","elianto","#3366ff99"," "," ","1","+10","[1009.4000000059605]","1","0","1","","","","","","","",""
"pit-trial","25","454907","0.0-2.0-8.1-0.1","battery-v0.2","","""event"",""trial"",""time""
""fullscreenenter"",""1"",""8000""
","
","
","""event"",""trial"",""time""
""fullscreenenter"",""1"",""8000""
","
","","","433.79999999701977","","","12","4555","2500","&#9776;","elianto","#3366ff99"," "," ","1","+10","[1285.5]","1","0","1","","","","","","","",""
"pit-trial","26","458379","0.0-2.0-8.1-1.1","battery-v0.2","","""event"",""trial"",""time""
""fullscreenenter"",""1"",""8000""
","
","
","""event"",""trial"",""time""
""fullscreenenter"",""1"",""8000""
","
","","","597.1000000089407","","","12","4555","2500","&#9776;","elianto","#3366ff99"," "," ","1","+10","[1454.9000000059605]","1","0","1","","","","","","","",""
"pit-trial","27","461709","0.0-2.0-8.1-2.1","battery-v0.2","","""event"",""trial"",""time""
""fullscreenenter"",""1"",""8000""
","
","
","""event"",""trial"",""time""
""fullscreenenter"",""1"",""8000""
","
","","","466.40000000596046","","","12","4555","2500","&#9776;","elianto","#3366ff99"," "," ","1","+10","[1322.800000011921]","1","0","1","","","","","","","",""
"pit-trial","28","465414","0.0-2.0-8.1-3.1","battery-v0.2","","""event"",""trial"",""time""
""fullscreenenter"",""1"",""8000""
","
","
","""event"",""trial"",""time""
""fullscreenenter"",""1"",""8000""
","
","","","844.7999999970198","","","12","4555","2500","&#9776;","elianto","#3366ff99"," "," ","1","0","[1694.8999999910593]","1","0","1","","","","","","","",""
"pit-trial","29","468677","0.0-2.0-8.1-4.1","battery-v0.2","","""event"",""trial"",""time""
""fullscreenenter"",""1"",""8000""
","
","
","""event"",""trial"",""time""
""fullscreenenter"",""1"",""8000""
","
","","","406.69999998807907","","","12","4555","2500","&#9776;","elianto","#3366ff99"," "," ","1","+10","[1259.5999999940395]","1","0","1","","","","","","","",""
"pit-trial","30","473542","0.0-2.0-8.2-0.2","battery-v0.2","","""event"",""trial"",""time""
""fullscreenenter"",""1"",""8000""
","
","
","""event"",""trial"",""time""
""fullscreenenter"",""1"",""8000""
","
","","","-1","","","12","4555","2500","&#9776;","elianto","#3366ff99"," ","-1","0","0","[]","0","0","1","","","","","","","",""
"pit-trial","31","478405","0.0-2.0-8.2-1.2","battery-v0.2","","""event"",""trial"",""time""
""fullscreenenter"",""1"",""8000""
","
","
","""event"",""trial"",""time""
""fullscreenenter"",""1"",""8000""
","
","","","-1","","","12","4555","2500","&#9776;","elianto","#3366ff99"," ","-1","0","0","[]","0","0","1","","","","","","","",""
"pit-trial","32","483277","0.0-2.0-8.2-2.2","battery-v0.2","","""event"",""trial"",""time""
""fullscreenenter"",""1"",""8000""
","
","
","""event"",""trial"",""time""
""fullscreenenter"",""1"",""8000""
","
","","","-1","","","12","4555","2500","&#9776;","elianto","#3366ff99"," ","-1","0","0","[3206.3999999910593]","1","0","1","","","","","","","",""
"pit-trial","33","486373","0.0-2.0-8.2-3.2","battery-v0.2","","""event"",""trial"",""time""
""fullscreenenter"",""1"",""8000""
","
","
","""event"",""trial"",""time""
""fullscreenenter"",""1"",""8000""
","
","","","238.79999999701977","","","12","4555","2500","&#9776;","elianto","#3366ff99"," "," ","1","0","[1093.7000000029802,2099.4000000059605,2401.2000000029802]","3","0","1","","","","","","","",""
"pit-trial","34","489254","0.0-2.0-8.2-4.2","battery-v0.2","","""event"",""trial"",""time""
""fullscreenenter"",""1"",""8000""
","
","
","""event"",""trial"",""time""
""fullscreenenter"",""1"",""8000""
","
","","","15","","","12","4555","2500","&#9776;","elianto","#3366ff99"," "," ","1","+10","[870]","1","0","1","","","","","","","",""
"call-function","35","489258","0.0-2.0-9.0","battery-v0.2","","""event"",""trial"",""time""
""fullscreenenter"",""1"",""8000""
","
","
","""event"",""trial"",""time""
""fullscreenenter"",""1"",""8000""
","
","","","","","","","","","","","","","","","","","","","","","","","","","","",""
"pit-instructions","36","539714","0.0-2.0-10.0","battery-v0.2","","""event"",""trial"",""time""
""fullscreenenter"",""1"",""8000""
","
","
","""event"",""trial"",""time""
""fullscreenenter"",""1"",""8000""
","
","","[{""page_index"":0,""viewing_time"":7952.70000000298},{""page_index"":1,""viewing_time"":8119.0999999940395},{""page_index"":2,""viewing_time"":11714.90000000596},{""page_index"":3,""viewing_time"":13529},{""page_index"":4,""viewing_time"":9139.09999999404}]","50455.20000000298","","","","","","","","","","","","","","","","","","","","","","","",""
"pit-trial","37","543375","0.0-2.0-11.0-0.0","battery-v0.2","","""event"",""trial"",""time""
""fullscreenenter"",""1"",""8000""
","
","
","""event"",""trial"",""time""
""fullscreenenter"",""1"",""8000""
","
","","","794","","","12","4555","2500","&#9761;","elianto","#3366ff99","-1"," ","0","0","[1647.7999999970198]","1","0","2","","","","","","","",""
"pit-trial","38","546659","0.0-2.0-11.0-1.0","battery-v0.2","","""event"",""trial"",""time""
""fullscreenenter"",""1"",""8000""
","
","
","""event"",""trial"",""time""
""fullscreenenter"",""1"",""8000""
","
","","","412.20000000298023","","","12","4555","2500","&#9761;","elianto","#3366ff99","-1"," ","0","0","[1269.2000000029802]","1","0","2","","","","","","","",""
"pit-trial","39","551551","0.0-2.0-11.0-2.0","battery-v0.2","","""event"",""trial"",""time""
""fullscreenenter"",""1"",""8000""
","
","
","""event"",""trial"",""time""
""fullscreenenter"",""1"",""8000""
","
","","","-1","","","12","4555","2500","&#9761;","elianto","#3366ff99","-1","-1","1","+10","[]","0","0","2","","","","","","","",""
"pit-trial","40","556424","0.0-2.0-11.0-3.0","battery-v0.2","","""event"",""trial"",""time""
""fullscreenenter"",""1"",""8000""
","
","
","""event"",""trial"",""time""
""fullscreenenter"",""1"",""8000""
","
","","","-1","","","12","4555","2500","&#9761;","elianto","#3366ff99","-1","-1","1","0","[]","0","0","2","","","","","","","",""
"pit-trial","41","559808","0.0-2.0-11.0-4.0","battery-v0.2","","""event"",""trial"",""time""
""fullscreenenter"",""1"",""8000""
","
","
","""event"",""trial"",""time""
""fullscreenenter"",""1"",""8000""
","
","","","517.7000000029802","","","12","4555","2500","&#9761;","elianto","#3366ff99","-1"," ","0","0","[1375.7000000029802]","1","0","2","","","","","","","",""
"pit-trial","42","564678","0.0-2.0-11.1-0.1","battery-v0.2","","""event"",""trial"",""time""
""fullscreenenter"",""1"",""8000""
","
","
","""event"",""trial"",""time""
""fullscreenenter"",""1"",""8000""
","
","","","-1","","","12","4555","2500","&#9761;","elianto","#3366ff99","-1","-1","1","+10","[]","0","0","2","","","","","","","",""
"pit-trial","43","569549","0.0-2.0-11.1-1.1","battery-v0.2","","""event"",""trial"",""time""
""fullscreenenter"",""1"",""8000""
","
","
","""event"",""trial"",""time""
""fullscreenenter"",""1"",""8000""
","
","","","-1","","","12","4555","2500","&#9761;","elianto","#3366ff99","-1","-1","1","+10","[]","0","0","2","","","","","","","",""
"pit-trial","44","574413","0.0-2.0-11.1-2.1","battery-v0.2","","""event"",""trial"",""time""
""fullscreenenter"",""1"",""8000""
","
","
","""event"",""trial"",""time""
""fullscreenenter"",""1"",""8000""
","
","","","-1","","","12","4555","2500","&#9761;","elianto","#3366ff99","-1","-1","1","+10","[]","0","0","2","","","","","","","",""
"pit-trial","45","579278","0.0-2.0-11.1-3.1","battery-v0.2","","""event"",""trial"",""time""
""fullscreenenter"",""1"",""8000""
","
","
","""event"",""trial"",""time""
""fullscreenenter"",""1"",""8000""
","
","","","-1","","","12","4555","2500","&#9761;","elianto","#3366ff99","-1","-1","1","0","[]","0","0","2","","","","","","","",""
"pit-trial","46","584142","0.0-2.0-11.1-4.1","battery-v0.2","","""event"",""trial"",""time""
""fullscreenenter"",""1"",""8000""
","
","
","""event"",""trial"",""time""
""fullscreenenter"",""1"",""8000""
","
","","","-1","","","12","4555","2500","&#9761;","elianto","#3366ff99","-1","-1","1","+10","[3037.9000000059605]","1","0","2","","","","","","","",""
"pit-trial","47","589006","0.0-2.0-11.2-0.2","battery-v0.2","","""event"",""trial"",""time""
""fullscreenenter"",""1"",""8000""
","
","
","""event"",""trial"",""time""
""fullscreenenter"",""1"",""8000""
","
","","","-1","","","12","4555","2500","&#9761;","elianto","#3366ff99","-1","-1","1","+10","[]","0","0","2","","","","","","","",""
"pit-trial","48","592395","0.0-2.0-11.2-1.2","battery-v0.2","","""event"",""trial"",""time""
""fullscreenenter"",""1"",""8000""
","
","
","""event"",""trial"",""time""
""fullscreenenter"",""1"",""8000""
","
","","","525.3000000119209","","","12","4555","2500","&#9761;","elianto","#3366ff99","-1"," ","0","0","[1376.800000011921,1967,2230.4000000059605]","3","0","2","","","","","","","",""
"pit-trial","49","595502","0.0-2.0-11.2-2.2","battery-v0.2","","""event"",""trial"",""time""
""fullscreenenter"",""1"",""8000""
","
","
","""event"",""trial"",""time""
""fullscreenenter"",""1"",""8000""
","
","","","240.09999999403954","","","12","4555","2500","&#9761;","elianto","#3366ff99","-1"," ","0","0","[1097.2999999970198,1489.7000000029802,1698.7000000029802]","3","0","2","","","","","","","",""
"pit-trial","50","599366","0.0-2.0-11.2-3.2","battery-v0.2","","""event"",""trial"",""time""
""fullscreenenter"",""1"",""8000""
","
","
","""event"",""trial"",""time""
""fullscreenenter"",""1"",""8000""
","
","","","1000.5999999940395","","","12","4555","2500","&#9761;","elianto","#3366ff99","-1"," ","0","+10","[1853.4000000059605,1971]","2","0","2","","","","","","","",""
"pit-trial","51","602526","0.0-2.0-11.2-4.2","battery-v0.2","","""event"",""trial"",""time""
""fullscreenenter"",""1"",""8000""
","
","
","""event"",""trial"",""time""
""fullscreenenter"",""1"",""8000""
","
","","","301.90000000596046","","","12","4555","2500","&#9761;","elianto","#3366ff99","-1"," ","0","0","[1156.7000000029802,1405.8999999910593,1596.3999999910593]","3","0","2","","","","","","","",""
"pit-trial","52","605621","0.0-2.0-11.3-0.3","battery-v0.2","","""event"",""trial"",""time""
""fullscreenenter"",""1"",""8000""
","
","
","""event"",""trial"",""time""
""fullscreenenter"",""1"",""8000""
","
","","","235.19999998807907","","","12","4555","2500","&#9761;","elianto","#3366ff99","-1"," ","0","0","[841.6999999880791,1087.699999988079,1287.699999988079,1548.5999999940395,1800.5999999940395]","5","0","2","","","","","","","",""
"pit-trial","53","610487","0.0-2.0-11.3-1.3","battery-v0.2","","""event"",""trial"",""time""
""fullscreenenter"",""1"",""8000""
","
","
","""event"",""trial"",""time""
""fullscreenenter"",""1"",""8000""
","
","","","-1","","","12","4555","2500","&#9761;","elianto","#3366ff99","-1","-1","1","+10","[]","0","0","2","","","","","","","",""
"pit-trial","54","613598","0.0-2.0-11.3-2.3","battery-v0.2","","""event"",""trial"",""time""
""fullscreenenter"",""1"",""8000""
","
","
","""event"",""trial"",""time""
""fullscreenenter"",""1"",""8000""
","
","","","253.69999998807907","","","12","4555","2500","&#9761;","elianto","#3366ff99","-1"," ","0","0","[1104.2999999970198,1304.5,1485.7999999970198,1670]","4","0","2","","","","","","","",""
"pit-trial","55","616567","0.0-2.0-11.3-3.3","battery-v0.2","","""event"",""trial"",""time""
""fullscreenenter"",""1"",""8000""
","
","
","""event"",""trial"",""time""
""fullscreenenter"",""1"",""8000""
","
","","","112.6000000089407","","","12","4555","2500","&#9761;","elianto","#3366ff99","-1"," ","0","+10","[124.80000001192093,350.70000000298023,963.6000000089407,1177.5,1360.800000011921]","5","0","2","","","","","","","",""
"pit-trial","56","619782","0.0-2.0-11.3-4.3","battery-v0.2","","""event"",""trial"",""time""
""fullscreenenter"",""1"",""8000""
","
","
","""event"",""trial"",""time""
""fullscreenenter"",""1"",""8000""
","
","","","355.5","","","12","4555","2500","&#9761;","elianto","#3366ff99","-1"," ","0","0","[1209.6000000089407,1453.9000000059605,1668.4000000059605]","3","0","2","","","","","","","",""
"call-function","57","619783","0.0-2.0-12.0","battery-v0.2","","""event"",""trial"",""time""
""fullscreenenter"",""1"",""8000""
","
","
","""event"",""trial"",""time""
""fullscreenenter"",""1"",""8000""
","
","","","","","","","","","","","","","","","","","","","","","","","","","","",""
"pit-instructions","58","654987","0.0-2.0-13.0","battery-v0.2","","""event"",""trial"",""time""
""fullscreenenter"",""1"",""8000""
","
","
","""event"",""trial"",""time""
""fullscreenenter"",""1"",""8000""
","
","","[{""page_index"":0,""viewing_time"":5766.5999999940395},{""page_index"":1,""viewing_time"":7737.5},{""page_index"":2,""viewing_time"":3625.4000000059605},{""page_index"":3,""viewing_time"":11005.5},{""page_index"":4,""viewing_time"":7068.79999999702}]","35204.09999999404","","","","","","","","","","","","","","","","","","","","","","","",""
"pit-trial","59","659876","0.0-2.0-14.0-0.0","battery-v0.2","","""event"",""trial"",""time""
""fullscreenenter"",""1"",""8000""
","
","
","""event"",""trial"",""time""
""fullscreenenter"",""1"",""8000""
","
","","","-1","","","12","4555","2500","&#9826;","elianto","#f73b6a7A","-1","-1","1","0","[]","0","0","3","","","","","","","",""
"pit-trial","60","663244","0.0-2.0-14.0-1.0","battery-v0.2","","""event"",""trial"",""time""
""fullscreenenter"",""1"",""8000""
","
","
","""event"",""trial"",""time""
""fullscreenenter"",""1"",""8000""
","
","","","495.09999999403954","","","12","4555","2500","&#9826;","elianto","#f73b6a7A","-1"," ","0","-10","[1350.4000000059605]","1","0","3","","","","","","","",""
"pit-trial","61","666289","0.0-2.0-14.0-2.0","battery-v0.2","","""event"",""trial"",""time""
""fullscreenenter"",""1"",""8000""
","
","
","""event"",""trial"",""time""
""fullscreenenter"",""1"",""8000""
","
","","","186.29999999701977","","","12","4555","2500","&#9826;","elianto","#f73b6a7A","-1"," ","0","-10","[1041.3999999910593,1331.0999999940395]","2","0","3","","","","","","","",""
"pit-trial","62","669623","0.0-2.0-14.0-3.0","battery-v0.2","","""event"",""trial"",""time""
""fullscreenenter"",""1"",""8000""
","
","
","""event"",""trial"",""time""
""fullscreenenter"",""1"",""8000""
","
","","","467.09999999403954","","","12","4555","2500","&#9826;","elianto","#f73b6a7A","-1"," ","0","0","[1318.9000000059605]","1","0","3","","","","","","","",""
"pit-trial","63","673654","0.0-2.0-14.0-4.0","battery-v0.2","","""event"",""trial"",""time""
""fullscreenenter"",""1"",""8000""
","
","
","""event"",""trial"",""time""
""fullscreenenter"",""1"",""8000""
","
","","","1164.199999988079","","","12","4555","2500","&#9826;","elianto","#f73b6a7A","-1"," ","0","-10","[744.1999999880791,2016.699999988079]","2","0","3","","","","","","","",""
"pit-trial","64","678521","0.0-2.0-14.1-0.1","battery-v0.2","","""event"",""trial"",""time""
""fullscreenenter"",""1"",""8000""
","
","
","""event"",""trial"",""time""
""fullscreenenter"",""1"",""8000""
","
","","","-1","","","12","4555","2500","&#9826;","elianto","#f73b6a7A","-1","-1","1","0","[]","0","0","3","","","","","","","",""
"pit-trial","65","683397","0.0-2.0-14.1-1.1","battery-v0.2","","""event"",""trial"",""time""
""fullscreenenter"",""1"",""8000""
","
","
","""event"",""trial"",""time""
""fullscreenenter"",""1"",""8000""
","
","","","-1","","","12","4555","2500","&#9826;","elianto","#f73b6a7A","-1","-1","1","0","[]","0","0","3","","","","","","","",""
"pit-trial","66","688262","0.0-2.0-14.1-2.1","battery-v0.2","","""event"",""trial"",""time""
""fullscreenenter"",""1"",""8000""
","
","
","""event"",""trial"",""time""
""fullscreenenter"",""1"",""8000""
","
","","","-1","","","12","4555","2500","&#9826;","elianto","#f73b6a7A","-1","-1","1","0","[]","0","0","3","","","","","","","",""
"pit-trial","67","693125","0.0-2.0-14.1-3.1","battery-v0.2","","""event"",""trial"",""time""
""fullscreenenter"",""1"",""8000""
","
","
","""event"",""trial"",""time""
""fullscreenenter"",""1"",""8000""
","
","","","-1","","","12","4555","2500","&#9826;","elianto","#f73b6a7A","-1","-1","1","-10","[]","0","0","3","","","","","","","",""
"pit-trial","68","697990","0.0-2.0-14.1-4.1","battery-v0.2","","""event"",""trial"",""time""
""fullscreenenter"",""1"",""8000""
","
","
","""event"",""trial"",""time""
""fullscreenenter"",""1"",""8000""
","
","","","-1","","","12","4555","2500","&#9826;","elianto","#f73b6a7A","-1","-1","1","0","[]","0","0","3","","","","","","","",""
"pit-trial","69","702853","0.0-2.0-14.2-0.2","battery-v0.2","","""event"",""trial"",""time""
""fullscreenenter"",""1"",""8000""
","
","
","""event"",""trial"",""time""
""fullscreenenter"",""1"",""8000""
","
","","","-1","","","12","4555","2500","&#9826;","elianto","#f73b6a7A","-1","-1","1","0","[]","0","0","3","","","","","","","",""
"pit-trial","70","707730","0.0-2.0-14.2-1.2","battery-v0.2","","""event"",""trial"",""time""
""fullscreenenter"",""1"",""8000""
","
","
","""event"",""trial"",""time""
""fullscreenenter"",""1"",""8000""
","
","","","-1","","","12","4555","2500","&#9826;","elianto","#f73b6a7A","-1","-1","1","0","[]","0","0","3","","","","","","","",""
"pit-trial","71","712597","0.0-2.0-14.2-2.2","battery-v0.2","","""event"",""trial"",""time""
""fullscreenenter"",""1"",""8000""
","
","
","""event"",""trial"",""time""
""fullscreenenter"",""1"",""8000""
","
","","","-1","","","12","4555","2500","&#9826;","elianto","#f73b6a7A","-1","-1","1","0","[]","0","0","3","","","","","","","",""
"pit-trial","72","717462","0.0-2.0-14.2-3.2","battery-v0.2","","""event"",""trial"",""time""
""fullscreenenter"",""1"",""8000""
","
","
","""event"",""trial"",""time""
""fullscreenenter"",""1"",""8000""
","
","","","-1","","","12","4555","2500","&#9826;","elianto","#f73b6a7A","-1","-1","1","-10","[]","0","0","3","","","","","","","",""
"pit-trial","73","722325","0.0-2.0-14.2-4.2","battery-v0.2","","""event"",""trial"",""time""
""fullscreenenter"",""1"",""8000""
","
","
","""event"",""trial"",""time""
""fullscreenenter"",""1"",""8000""
","
","","","-1","","","12","4555","2500","&#9826;","elianto","#f73b6a7A","-1","-1","1","0","[]","0","0","3","","","","","","","",""
"pit-trial","74","726613","0.0-2.0-14.3-0.3","battery-v0.2","","""event"",""trial"",""time""
""fullscreenenter"",""1"",""8000""
","
","
","""event"",""trial"",""time""
""fullscreenenter"",""1"",""8000""
","
","","","1423.7000000029802","","","12","4555","2500","&#9826;","elianto","#f73b6a7A","-1"," ","0","-10","[2278.199999988079]","1","0","3","","","","","","","",""
"pit-trial","75","729494","0.0-2.0-14.3-1.3","battery-v0.2","","""event"",""trial"",""time""
""fullscreenenter"",""1"",""8000""
","
","
","""event"",""trial"",""time""
""fullscreenenter"",""1"",""8000""
","
","","","23.400000005960464","","","12","4555","2500","&#9826;","elianto","#f73b6a7A","-1"," ","0","-10","[873.7000000029802,1115]","2","0","3","","","","","","","",""
"pit-trial","76","734357","0.0-2.0-14.3-2.3","battery-v0.2","","""event"",""trial"",""time""
""fullscreenenter"",""1"",""8000""
","
","
","""event"",""trial"",""time""
""fullscreenenter"",""1"",""8000""
","
","","","-1","","","12","4555","2500","&#9826;","elianto","#f73b6a7A","-1","-1","1","0","[842.6000000089407,2925.1000000089407]","2","0","3","","","","","","","",""
"pit-trial","77","739221","0.0-2.0-14.3-3.3","battery-v0.2","","""event"",""trial"",""time""
""fullscreenenter"",""1"",""8000""
","
","
","""event"",""trial"",""time""
""fullscreenenter"",""1"",""8000""
","
","","","-1","","","12","4555","2500","&#9826;","elianto","#f73b6a7A","-1","-1","1","-10","[]","0","0","3","","","","","","","",""
"pit-trial","78","744085","0.0-2.0-14.3-4.3","battery-v0.2","","""event"",""trial"",""time""
""fullscreenenter"",""1"",""8000""
","
","
","""event"",""trial"",""time""
""fullscreenenter"",""1"",""8000""
","
","","","-1","","","12","4555","2500","&#9826;","elianto","#f73b6a7A","-1","-1","1","0","[]","0","0","3","","","","","","","",""
"call-function","79","744088","0.0-2.0-15.0","battery-v0.2","","""event"",""trial"",""time""
""fullscreenenter"",""1"",""8000""
","
","
","""event"",""trial"",""time""
""fullscreenenter"",""1"",""8000""
","
","","","","","","","","","","","","","","","","","","","","","","","","","","",""
"pit-instructions","80","796741","0.0-2.0-16.0","battery-v0.2","","""event"",""trial"",""time""
""fullscreenenter"",""1"",""8000""
","
","
","""event"",""trial"",""time""
""fullscreenenter"",""1"",""8000""
","
","","[{""page_index"":0,""viewing_time"":20895.59999999404},{""page_index"":1,""viewing_time"":21189},{""page_index"":2,""viewing_time"":5306.0999999940395},{""page_index"":3,""viewing_time"":5260.100000008941}]","52651.09999999404","","","","","","","","","","","","","","","","","","","","","","","",""
"pit-trial","81","800622","0.0-2.0-17.0-0.0","battery-v0.2","","""event"",""trial"",""time""
""fullscreenenter"",""1"",""8000""
","
","
","""event"",""trial"",""time""
""fullscreenenter"",""1"",""8000""
","
","","","1016","","","12","4555","2500","&#9789;","elianto","#f73b6a7A"," "," ","1","0","[1870.7999999970198]","1","0","4","","","","","","","",""
"pit-trial","82","805482","0.0-2.0-17.0-1.0","battery-v0.2","","""event"",""trial"",""time""
""fullscreenenter"",""1"",""8000""
","
","
","""event"",""trial"",""time""
""fullscreenenter"",""1"",""8000""
","
","","","1984.699999988079","","","12","4555","2500","&#9789;","elianto","#f73b6a7A"," "," ","1","0","[771.7999999970198,2837.7000000029802]","2","0","4","","","","","","","",""
"pit-trial","83","808343","0.0-2.0-17.0-2.0","battery-v0.2","","""event"",""trial"",""time""
""fullscreenenter"",""1"",""8000""
","
","
","""event"",""trial"",""time""
""fullscreenenter"",""1"",""8000""
","
","","","3","","","12","4555","2500","&#9789;","elianto","#f73b6a7A"," "," ","1","0","[857.2000000029802]","1","0","4","","","","","","","",""
"pit-trial","84","813215","0.0-2.0-17.0-3.0","battery-v0.2","","""event"",""trial"",""time""
""fullscreenenter"",""1"",""8000""
","
","
","""event"",""trial"",""time""
""fullscreenenter"",""1"",""8000""
","
","","","-1","","","12","4555","2500","&#9789;","elianto","#f73b6a7A"," ","-1","0","0","[842.5999999940395]","1","0","4","","","","","","","",""
"pit-trial","85","817200","0.0-2.0-17.0-4.0","battery-v0.2","","""event"",""trial"",""time""
""fullscreenenter"",""1"",""8000""
","
","
","""event"",""trial"",""time""
""fullscreenenter"",""1"",""8000""
","
","","","1115.7999999970198","","","12","4555","2500","&#9789;","elianto","#f73b6a7A"," "," ","1","0","[395.3999999910593,700,1973.5999999940395,2192.8999999910593,2723.7999999970198,2994.5,3770.2999999970198,3963]","8","0","4","","","","","","","",""
"pit-trial","86","820231","0.0-2.0-17.1-0.1","battery-v0.2","","""event"",""trial"",""time""
""fullscreenenter"",""1"",""8000""
","
","
","""event"",""trial"",""time""
""fullscreenenter"",""1"",""8000""
","
","","","161.8999999910593","","","12","4555","2500","&#9789;","elianto","#f73b6a7A"," "," ","1","0","[187.6000000089407,395.40000000596046,611.7000000029802,820.9000000059605,1019.2000000029802,1213.1000000089407,1384.6000000089407,1582.5,1782.300000011921,1979.9000000059605,2163.1000000089407,2378.5,2577,2787.300000011921,2988.300000011921]","15","0","4","","","","","","","",""
"pit-trial","87","823170","0.0-2.0-17.1-1.1","battery-v0.2","","""event"",""trial"",""time""
""fullscreenenter"",""1"",""8000""
","
","
","""event"",""trial"",""time""
""fullscreenenter"",""1"",""8000""
","
","","","76.70000000298023","","","12","4555","2500","&#9789;","elianto","#f73b6a7A"," "," ","1","0","[172.70000000298023,378.90000000596046,569.7000000029802,761.7000000029802,931.7000000029802,1123.7999999970198,1310.9000000059605,1494.7999999970198,1679.4000000059605,1849.7999999970198,2025,2258]","12","0","4","","","","","","","",""
"pit-trial","88","828046","0.0-2.0-17.1-2.1","battery-v0.2","","""event"",""trial"",""time""
""fullscreenenter"",""1"",""8000""
","
","
","""event"",""trial"",""time""
""fullscreenenter"",""1"",""8000""
","
","","","-1","","","12","4555","2500","&#9789;","elianto","#f73b6a7A"," ","-1","0","-10","[]","0","0","4","","","","","","","",""
"pit-trial","89","830926","0.0-2.0-17.1-3.1","battery-v0.2","","""event"",""trial"",""time""
""fullscreenenter"",""1"",""8000""
","
","
","""event"",""trial"",""time""
""fullscreenenter"",""1"",""8000""
","
","","","22.100000008940697","","","12","4555","2500","&#9789;","elianto","#f73b6a7A"," "," ","1","-10","[876.2000000029802]","1","0","4","","","","","","","",""
"pit-trial","90","835798","0.0-2.0-17.1-4.1","battery-v0.2","","""event"",""trial"",""time""
""fullscreenenter"",""1"",""8000""
","
","
","""event"",""trial"",""time""
""fullscreenenter"",""1"",""8000""
","
","","","-1","","","12","4555","2500","&#9789;","elianto","#f73b6a7A"," ","-1","0","-10","[761.2000000029802]","1","0","4","","","","","","","",""
"pit-trial","91","840663","0.0-2.0-17.2-0.2","battery-v0.2","","""event"",""trial"",""time""
""fullscreenenter"",""1"",""8000""
","
","
","""event"",""trial"",""time""
""fullscreenenter"",""1"",""8000""
","
","","","-1","","","12","4555","2500","&#9789;","elianto","#f73b6a7A"," ","-1","0","-10","[]","0","0","4","","","","","","","",""
"pit-trial","92","845526","0.0-2.0-17.2-1.2","battery-v0.2","","""event"",""trial"",""time""
""fullscreenenter"",""1"",""8000""
","
","
","""event"",""trial"",""time""
""fullscreenenter"",""1"",""8000""
","
","","","-1","","","12","4555","2500","&#9789;","elianto","#f73b6a7A"," ","-1","0","-10","[]","0","0","4","","","","","","","",""
"pit-trial","93","850390","0.0-2.0-17.2-2.2","battery-v0.2","","""event"",""trial"",""time""
""fullscreenenter"",""1"",""8000""
","
","
","""event"",""trial"",""time""
""fullscreenenter"",""1"",""8000""
","
","","","-1","","","12","4555","2500","&#9789;","elianto","#f73b6a7A"," ","-1","0","-10","[]","0","0","4","","","","","","","",""
"pit-trial","94","855254","0.0-2.0-17.2-3.2","battery-v0.2","","""event"",""trial"",""time""
""fullscreenenter"",""1"",""8000""
","
","
","""event"",""trial"",""time""
""fullscreenenter"",""1"",""8000""
","
","","","-1","","","12","4555","2500","&#9789;","elianto","#f73b6a7A"," ","-1","0","0","[]","0","0","4","","","","","","","",""
"pit-trial","95","860118","0.0-2.0-17.2-4.2","battery-v0.2","","""event"",""trial"",""time""
""fullscreenenter"",""1"",""8000""
","
","
","""event"",""trial"",""time""
""fullscreenenter"",""1"",""8000""
","
","","","-1","","","12","4555","2500","&#9789;","elianto","#f73b6a7A"," ","-1","0","-10","[]","0","0","4","","","","","","","",""
"pit-trial","96","864982","0.0-2.0-17.3-0.3","battery-v0.2","","""event"",""trial"",""time""
""fullscreenenter"",""1"",""8000""
","
","
","""event"",""trial"",""time""
""fullscreenenter"",""1"",""8000""
","
","","","-1","","","12","4555","2500","&#9789;","elianto","#f73b6a7A"," ","-1","0","-10","[]","0","0","4","","","","","","","",""
"pit-trial","97","869845","0.0-2.0-17.3-1.3","battery-v0.2","","""event"",""trial"",""time""
""fullscreenenter"",""1"",""8000""
","
","
","""event"",""trial"",""time""
""fullscreenenter"",""1"",""8000""
","
","","","-1","","","12","4555","2500","&#9789;","elianto","#f73b6a7A"," ","-1","0","-10","[]","0","0","4","","","","","","","",""
"pit-trial","98","874710","0.0-2.0-17.3-2.3","battery-v0.2","","""event"",""trial"",""time""
""fullscreenenter"",""1"",""8000""
","
","
","""event"",""trial"",""time""
""fullscreenenter"",""1"",""8000""
","
","","","-1","","","12","4555","2500","&#9789;","elianto","#f73b6a7A"," ","-1","0","-10","[]","0","0","4","","","","","","","",""
"pit-trial","99","879574","0.0-2.0-17.3-3.3","battery-v0.2","","""event"",""trial"",""time""
""fullscreenenter"",""1"",""8000""
","
","
","""event"",""trial"",""time""
""fullscreenenter"",""1"",""8000""
","
","","","-1","","","12","4555","2500","&#9789;","elianto","#f73b6a7A"," ","-1","0","0","[]","0","0","4","","","","","","","",""
"pit-trial","100","884437","0.0-2.0-17.3-4.3","battery-v0.2","","""event"",""trial"",""time""
""fullscreenenter"",""1"",""8000""
","
","
","""event"",""trial"",""time""
""fullscreenenter"",""1"",""8000""
","
","","","-1","","","12","4555","2500","&#9789;","elianto","#f73b6a7A"," ","-1","0","-10","[]","0","0","4","","","","","","","",""
"call-function","101","884440","0.0-2.0-18.0","battery-v0.2","","""event"",""trial"",""time""
""fullscreenenter"",""1"",""8000""
","
","
","""event"",""trial"",""time""
""fullscreenenter"",""1"",""8000""
","
","","","","","","","","","","","","","","","","","","","","","","","","","","",""
"pit-instructions","102","964974","0.0-2.0-19.0","battery-v0.2","","""event"",""trial"",""time""
""fullscreenenter"",""1"",""8000""
","
","
","""event"",""trial"",""time""
""fullscreenenter"",""1"",""8000""
","
","","[{""page_index"":0,""viewing_time"":12259.20000000298},{""page_index"":1,""viewing_time"":7615.0999999940395},{""page_index"":2,""viewing_time"":11905.800000011921},{""page_index"":3,""viewing_time"":9255.79999999702},{""page_index"":4,""viewing_time"":10953},{""page_index"":5,""viewing_time"":8379},{""page_index"":6,""viewing_time"":9705.59999999404},{""page_index"":7,""viewing_time"":6450.20000000298},{""page_index"":8,""viewing_time"":4007.9000000059605}]","80531.90000000596","","","","","","","","","","","","","","","","","","","","","","","",""
"pit-comprehension","103","969048","0.0-2.0-20.0-0.0","battery-v0.2","","""event"",""trial"",""time""
""fullscreenenter"",""1"",""8000""
","
","
","""event"",""trial"",""time""
""fullscreenenter"",""1"",""8000""
","
","","","4071.2999999970198","[""SPACE""]","0","12","4555","2500","","","","","","","","","","","","","","","","","","",""
"pit-instructions","104","972142","0.0-2.0-20.0-1.0","battery-v0.2","","""event"",""trial"",""time""
""fullscreenenter"",""1"",""8000""
","
","
","""event"",""trial"",""time""
""fullscreenenter"",""1"",""8000""
","
","","[{""page_index"":0,""viewing_time"":3051.0999999940395}]","3051.3999999910593","","","","","","","","","","","","","","","","","","","","","","","",""
"pit-comprehension","105","976864","0.0-2.0-21.0-0.0","battery-v0.2","","""event"",""trial"",""time""
""fullscreenenter"",""1"",""8000""
","
","
","""event"",""trial"",""time""
""fullscreenenter"",""1"",""8000""
","
","","","4718.4000000059605","[""10""]","0","12","4555","2500","","","","","","","","","","","","","","","","","","",""
"pit-instructions","106","982327","0.0-2.0-21.0-1.0","battery-v0.2","","""event"",""trial"",""time""
""fullscreenenter"",""1"",""8000""
","
","
","""event"",""trial"",""time""
""fullscreenenter"",""1"",""8000""
","
","","[{""page_index"":0,""viewing_time"":5420.0999999940395}]","5420.399999991059","","","","","","","","","","","","","","","","","","","","","","","",""
"pit-comprehension","107","988487","0.0-2.0-22.0-0.0","battery-v0.2","","""event"",""trial"",""time""
""fullscreenenter"",""1"",""8000""
","
","
","""event"",""trial"",""time""
""fullscreenenter"",""1"",""8000""
","
","","","6156.79999999702","[""0""]","0","12","4555","2500","","","","","","","","","","","","","","","","","","",""
"pit-instructions","108","993070","0.0-2.0-22.0-1.0","battery-v0.2","","""event"",""trial"",""time""
""fullscreenenter"",""1"",""8000""
","
","
","""event"",""trial"",""time""
""fullscreenenter"",""1"",""8000""
","
","","[{""page_index"":0,""viewing_time"":4539.800000011921}]","4540","","","","","","","","","","","","","","","","","","","","","","","",""
"pit-comprehension","109","1003191","0.0-2.0-23.0-0.0","battery-v0.2","","""event"",""trial"",""time""
""fullscreenenter"",""1"",""8000""
","
","
","""event"",""trial"",""time""
""fullscreenenter"",""1"",""8000""
","
","","","10118.59999999404","[""True""]","0","12","4555","2500","","","","","","","","","","","","","","","","","","",""
"pit-instructions","110","1010906","0.0-2.0-23.0-1.0","battery-v0.2","","""event"",""trial"",""time""
""fullscreenenter"",""1"",""8000""
","
","
","""event"",""trial"",""time""
""fullscreenenter"",""1"",""8000""
","
","","[{""page_index"":0,""viewing_time"":7671.300000011921}]","7671.600000008941","","","","","","","","","","","","","","","","","","","","","","","",""
"pit-comprehension","111","1018762","0.0-2.0-24.0-0.0","battery-v0.2","","""event"",""trial"",""time""
""fullscreenenter"",""1"",""8000""
","
","
","""event"",""trial"",""time""
""fullscreenenter"",""1"",""8000""
","
","","","7853.20000000298","[""True""]","0","12","4555","2500","","","","","","","","","","","","","","","","","","",""
"pit-instructions","112","1025488","0.0-2.0-24.0-1.0","battery-v0.2","","""event"",""trial"",""time""
""fullscreenenter"",""1"",""8000""
","
","
","""event"",""trial"",""time""
""fullscreenenter"",""1"",""8000""
","
","","[{""page_index"":0,""viewing_time"":6692.199999988079}]","6692.399999991059","","","","","","","","","","","","","","","","","","","","","","","",""
"pit-comprehension","113","1032605","0.0-2.0-25.0-0.0","battery-v0.2","","""event"",""trial"",""time""
""fullscreenenter"",""1"",""8000""
","
","
","""event"",""trial"",""time""
""fullscreenenter"",""1"",""8000""
","
","","","7115","[""True""]","0","12","4555","2500","","","","","","","","","","","","","","","","","","",""
"pit-instructions","114","1036419","0.0-2.0-25.0-1.0","battery-v0.2","","""event"",""trial"",""time""
""fullscreenenter"",""1"",""8000""
","
","
","""event"",""trial"",""time""
""fullscreenenter"",""1"",""8000""
","
","","[{""page_index"":0,""viewing_time"":3770.300000011921}]","3770.6000000089407","","","","","","","","","","","","","","","","","","","","","","","",""
"pit-comprehension","115","1041146","0.0-2.0-26.0-0.0","battery-v0.2","","""event"",""trial"",""time""
""fullscreenenter"",""1"",""8000""
","
","
","""event"",""trial"",""time""
""fullscreenenter"",""1"",""8000""
","
","","","4724.20000000298","[""False""]","0","12","4555","2500","","","","","","","","","","","","","","","","","","",""
"pit-instructions","116","1045599","0.0-2.0-26.0-1.0","battery-v0.2","","""event"",""trial"",""time""
""fullscreenenter"",""1"",""8000""
","
","
","""event"",""trial"",""time""
""fullscreenenter"",""1"",""8000""
","
","","[{""page_index"":0,""viewing_time"":4416.0999999940395}]","4416.5","","","","","","","","","","","","","","","","","","","","","","","",""
"pit-instructions","117","1065105","0.0-3.0","battery-v0.2","","""event"",""trial"",""time""
""fullscreenenter"",""1"",""8000""
","
","
","""event"",""trial"",""time""
""fullscreenenter"",""1"",""8000""
","
","","[{""page_index"":0,""viewing_time"":7396.29999999702},{""page_index"":1,""viewing_time"":5328.4000000059605},{""page_index"":2,""viewing_time"":6780}]","19505.09999999404","","","","","","","","","","","","","","","","","","","","","","","",""
"pit-trial","118","1069988","0.0-4.0","battery-v0.2","","""event"",""trial"",""time""
""fullscreenenter"",""1"",""8000""
","
","
","""event"",""trial"",""time""
""fullscreenenter"",""1"",""8000""
","
","","","-1","","","12","4555","2500","&#9733;","elianto","#3366ff99","-1","-1","1","0","[4643.29999999702]","1","1","","","4555","1","2","2","win","no-go","1"
"pit-trial","119","1074868","0.0-5.0","battery-v0.2","","""event"",""trial"",""time""
""fullscreenenter"",""1"",""8000""
","
","
","""event"",""trial"",""time""
""fullscreenenter"",""1"",""8000""
","
","","","-1","","","12","4555","2500","&#9752;","elianto","#f73b6a7A"," ","-1","0","-10","[828.0999999940395]","1","1","","","4555","2","3","3","lose","go","0"
"pit-trial","120","1077853","0.0-6.0","battery-v0.2","","""event"",""trial"",""time""
""fullscreenenter"",""1"",""8000""
","
","
","""event"",""trial"",""time""
""fullscreenenter"",""1"",""8000""
","
","","","108.40000000596046","","","12","4555","2500","&#9730;","elianto","#3366ff99"," "," ","1","+10","[959.4000000059605]","1","1","","","4555","3","1","1","win","go","0"
"pit-trial","121","1080936","0.0-7.0","battery-v0.2","","""event"",""trial"",""time""
""fullscreenenter"",""1"",""8000""
","
","
","""event"",""trial"",""time""
""fullscreenenter"",""1"",""8000""
","
","","","216.40000000596046","","","12","4555","2500","&#9728;","elianto","#f73b6a7A","-1"," ","0","-10","[1069.5]","1","1","","","4555","4","0","4","lose","no-go","0"
"pit-trial","122","1084228","0.0-8.0","battery-v0.2","","""event"",""trial"",""time""
""fullscreenenter"",""1"",""8000""
","
","
","""event"",""trial"",""time""
""fullscreenenter"",""1"",""8000""
","
","","","416.40000000596046","","","12","4555","2500","&#9752;","elianto","#f73b6a7A"," "," ","1","0","[1268.2000000029802]","1","1","","","4555","5","3","3","lose","go","0"
"pit-trial","123","1087481","0.0-9.0","battery-v0.2","","""event"",""trial"",""time""
""fullscreenenter"",""1"",""8000""
","
","
","""event"",""trial"",""time""
""fullscreenenter"",""1"",""8000""
","
","","","386.90000000596046","","","12","4555","2500","&#9728;","elianto","#f73b6a7A","-1"," ","0","-10","[1241.3999999910593]","1","1","","","4555","6","0","4","lose","no-go","0"
"pit-trial","124","1090578","0.0-10.0","battery-v0.2","","""event"",""trial"",""time""
""fullscreenenter"",""1"",""8000""
","
","
","""event"",""trial"",""time""
""fullscreenenter"",""1"",""8000""
","
","","","229.40000000596046","","","12","4555","2500","&#9730;","elianto","#3366ff99"," "," ","1","+10","[1086.800000011921]","1","1","","","4555","7","1","1","win","go","0"
"pit-trial","125","1093852","0.0-11.0","battery-v0.2","","""event"",""trial"",""time""
""fullscreenenter"",""1"",""8000""
","
","
","""event"",""trial"",""time""
""fullscreenenter"",""1"",""8000""
","
","","","401.70000000298023","","","12","4555","2500","&#9733;","elianto","#3366ff99","-1"," ","0","0","[1260.9000000059605]","1","1","","","4555","8","2","2","win","no-go","0"
"pit-trial","126","1098718","0.0-12.0","battery-v0.2","","""event"",""trial"",""time""
""fullscreenenter"",""1"",""8000""
","
","
","""event"",""trial"",""time""
""fullscreenenter"",""1"",""8000""
","
","","","-1","","","12","4555","2500","&#9733;","elianto","#3366ff99","-1","-1","1","+10","[728.4000000059605]","1","1","","","4555","9","2","2","win","no-go","0"
"pit-trial","127","1101582","0.0-13.0","battery-v0.2","","""event"",""trial"",""time""
""fullscreenenter"",""1"",""8000""
","
","
","""event"",""trial"",""time""
""fullscreenenter"",""1"",""8000""
","
","","","5.5","","","12","4555","2500","&#9730;","elianto","#3366ff99"," "," ","1","0","[857.2999999970198]","1","1","","","4555","10","1","1","win","go","1"
"pit-trial","128","1104478","0.0-14.0","battery-v0.2","","""event"",""trial"",""time""
""fullscreenenter"",""1"",""8000""
","
","
","""event"",""trial"",""time""
""fullscreenenter"",""1"",""8000""
","
","","","33.20000000298023","","","12","4555","2500","&#9728;","elianto","#f73b6a7A","-1"," ","0","-10","[886.3000000119209]","1","1","","","4555","11","0","4","lose","no-go","0"
"pit-trial","129","1109349","0.0-15.0","battery-v0.2","","""event"",""trial"",""time""
""fullscreenenter"",""1"",""8000""
","
","
","""event"",""trial"",""time""
""fullscreenenter"",""1"",""8000""
","
","","","-1","","","12","4555","2500","&#9752;","elianto","#f73b6a7A"," ","-1","0","-10","[214,784]","2","1","","","4555","12","3","3","lose","go","0"
"pit-trial","130","1114214","0.0-16.0","battery-v0.2","","""event"",""trial"",""time""
""fullscreenenter"",""1"",""8000""
","
","
","""event"",""trial"",""time""
""fullscreenenter"",""1"",""8000""
","
","","","-1","","","12","4555","2500","&#9752;","elianto","#f73b6a7A"," ","-1","0","-10","[845]","1","1","","","4555","13","3","3","lose","go","0"
"pit-trial","131","1119078","0.0-17.0","battery-v0.2","","""event"",""trial"",""time""
""fullscreenenter"",""1"",""8000""
","
","
","""event"",""trial"",""time""
""fullscreenenter"",""1"",""8000""
","
","","","-1","","","12","4555","2500","&#9730;","elianto","#3366ff99"," ","-1","0","0","[716.9000000059605]","1","1","","","4555","14","1","1","win","go","0"
"pit-trial","132","1122030","0.0-18.0","battery-v0.2","","""event"",""trial"",""time""
""fullscreenenter"",""1"",""8000""
","
","
","""event"",""trial"",""time""
""fullscreenenter"",""1"",""8000""
","
","","","84.30000001192093","","","12","4555","2500","&#9728;","elianto","#f73b6a7A","-1"," ","0","-10","[934.5999999940395]","1","1","","","4555","15","0","4","lose","no-go","0"
"pit-trial","133","1125119","0.0-19.0","battery-v0.2","","""event"",""trial"",""time""
""fullscreenenter"",""1"",""8000""
","
","
","""event"",""trial"",""time""
""fullscreenenter"",""1"",""8000""
","
","","","230.29999999701977","","","12","4555","2500","&#9733;","elianto","#3366ff99","-1"," ","0","0","[1083.8999999910593]","1","1","","","4555","16","2","2","win","no-go","0"
"pit-trial","134","1128070","0.0-20.0","battery-v0.2","","""event"",""trial"",""time""
""fullscreenenter"",""1"",""8000""
","
","
","""event"",""trial"",""time""
""fullscreenenter"",""1"",""8000""
","
","","","92.40000000596046","","","12","4555","2500","&#9733;","elianto","#3366ff99","-1"," ","0","0","[944.2000000029802]","1","1","","","4555","17","2","2","win","no-go","0"
"pit-trial","135","1132933","0.0-21.0","battery-v0.2","","""event"",""trial"",""time""
""fullscreenenter"",""1"",""8000""
","
","
","""event"",""trial"",""time""
""fullscreenenter"",""1"",""8000""
","
","","","-1","","","12","4555","2500","&#9730;","elianto","#3366ff99"," ","-1","0","0","[828.7000000029802]","1","1","","","4555","18","1","1","win","go","0"
"pit-trial","136","1137799","0.0-22.0","battery-v0.2","","""event"",""trial"",""time""
""fullscreenenter"",""1"",""8000""
","
","
","""event"",""trial"",""time""
""fullscreenenter"",""1"",""8000""
","
","","","-1","","","12","4555","2500","&#9752;","elianto","#f73b6a7A"," ","-1","0","-10","[428.8999999910593]","1","1","","","4555","19","3","3","lose","go","0"
"pit-trial","137","1141141","0.0-23.0","battery-v0.2","","""event"",""trial"",""time""
""fullscreenenter"",""1"",""8000""
","
","
","""event"",""trial"",""time""
""fullscreenenter"",""1"",""8000""
","
","","","483.59999999403954","","","12","4555","2500","&#9728;","elianto","#f73b6a7A","-1"," ","0","0","[1335.7999999970198]","1","1","","","4555","20","0","4","lose","no-go","1"
"pit-instructions","138","1154956","0.0-24.0","battery-v0.2","","""event"",""trial"",""time""
""fullscreenenter"",""1"",""8000""
","
","
","""event"",""trial"",""time""
""fullscreenenter"",""1"",""8000""
","
","","[{""page_index"":0,""viewing_time"":7714.4000000059605},{""page_index"":1,""viewing_time"":6098.5999999940395}]","13813.300000011921","","","","","","","","","","","","","","","","","","","","","","","",""
"pit-trial","139","1159297","0.0-25.0","battery-v0.2","","""event"",""trial"",""time""
""fullscreenenter"",""1"",""8000""
","
","
","""event"",""trial"",""time""
""fullscreenenter"",""1"",""8000""
","
","","","1468.699999988079","","","12","4555","2500","j","elianto","#f73b6a7A"," "," ","1","0","[2322.699999988079]","1","2","","","4555","21","0","3","lose","go","0"
"pit-trial","140","1164168","0.0-26.0","battery-v0.2","","""event"",""trial"",""time""
""fullscreenenter"",""1"",""8000""
","
","
","""event"",""trial"",""time""
""fullscreenenter"",""1"",""8000""
","
","","","-1","","","12","4555","2500","d","elianto","#3366ff99","-1","-1","1","+10","[750.1000000089407]","1","2","","","4555","22","1","2","win","no-go","0"
"pit-trial","141","1169044","0.0-27.0","battery-v0.2","","""event"",""trial"",""time""
""fullscreenenter"",""1"",""8000""
","
","
","""event"",""trial"",""time""
""fullscreenenter"",""1"",""8000""
","
","","","-1","","","12","4555","2500","w","elianto","#f73b6a7A","-1","-1","1","0","[]","0","2","","","4555","23","3","4","lose","no-go","0"
"pit-trial","142","1172267","0.0-28.0","battery-v0.2","","""event"",""trial"",""time""
""fullscreenenter"",""1"",""8000""
","
","
","""event"",""trial"",""time""
""fullscreenenter"",""1"",""8000""
","
","","","358.20000000298023","","","12","4555","2500","e","elianto","#f73b6a7A"," "," ","1","0","[1209.8999999910593,2286.5999999940395,2510.7999999970198,2714.7999999970198,2972.5,3177.8999999910593]","6","2","","","4555","24","2","3","lose","go","0"
"pit-trial","143","1175614","0.0-29.0","battery-v0.2","","""event"",""trial"",""time""
""fullscreenenter"",""1"",""8000""
","
","
","""event"",""trial"",""time""
""fullscreenenter"",""1"",""8000""
","
","","","481.5","","","12","4555","2500","w","elianto","#f73b6a7A","-1"," ","0","0","[1338.5]","1","2","","","4555","25","3","4","lose","no-go","1"
"pit-trial","144","1180103","0.0-30.0","battery-v0.2","","""event"",""trial"",""time""
""fullscreenenter"",""1"",""8000""
","
","
","""event"",""trial"",""time""
""fullscreenenter"",""1"",""8000""
","
","","","1624.7999999970198","","","12","4555","2500","d","elianto","#3366ff99","-1"," ","0","0","[672.3000000119209,2477.7000000029802,3329.7000000029802]","3","2","","","4555","26","1","2","win","no-go","0"
"pit-trial","145","1184974","0.0-31.0","battery-v0.2","","""event"",""trial"",""time""
""fullscreenenter"",""1"",""8000""
","
","
","""event"",""trial"",""time""
""fullscreenenter"",""1"",""8000""
","
","","","-1","","","12","4555","2500","j","elianto","#f73b6a7A"," ","-1","0","-10","[846]","1","2","","","4555","27","0","3","lose","go","0"
"pit-trial","146","1188822","0.0-32.0","battery-v0.2","","""event"",""trial"",""time""
""fullscreenenter"",""1"",""8000""
","
","
","""event"",""trial"",""time""
""fullscreenenter"",""1"",""8000""
","
","","","991.5","","","12","4555","2500","e","elianto","#f73b6a7A"," "," ","1","0","[1844.7999999970198]","1","2","","","4555","28","2","3","lose","go","0"
"pit-trial","147","1192087","0.0-33.0","battery-v0.2","","""event"",""trial"",""time""
""fullscreenenter"",""1"",""8000""
","
","
","""event"",""trial"",""time""
""fullscreenenter"",""1"",""8000""
","
","","","400.90000000596046","","","12","4555","2500","w","elianto","#f73b6a7A","-1"," ","0","-10","[1254]","1","2","","","4555","29","3","4","lose","no-go","0"
"pit-trial","148","1196950","0.0-34.0","battery-v0.2","","""event"",""trial"",""time""
""fullscreenenter"",""1"",""8000""
","
","
","""event"",""trial"",""time""
""fullscreenenter"",""1"",""8000""
","
","","","-1","","","12","4555","2500","e","elianto","#f73b6a7A"," ","-1","0","0","[]","0","2","","","4555","30","2","3","lose","go","1"
"pit-trial","149","1200302","0.0-35.0","battery-v0.2","","""event"",""trial"",""time""
""fullscreenenter"",""1"",""8000""
","
","
","""event"",""trial"",""time""
""fullscreenenter"",""1"",""8000""
","
","","","494.29999999701977","","","12","4555","2500","d","elianto","#3366ff99","-1"," ","0","0","[1347,1523.7999999970198]","2","2","","","4555","31","1","2","win","no-go","0"
"pit-trial","150","1205165","0.0-36.0","battery-v0.2","","""event"",""trial"",""time""
""fullscreenenter"",""1"",""8000""
","
","
","""event"",""trial"",""time""
""fullscreenenter"",""1"",""8000""
","
","","","-1","","","12","4555","2500","j","elianto","#f73b6a7A"," ","-1","0","-10","[]","0","2","","","4555","32","0","3","lose","go","0"
"pit-trial","151","1208430","0.0-37.0","battery-v0.2","","""event"",""trial"",""time""
""fullscreenenter"",""1"",""8000""
","
","
","""event"",""trial"",""time""
""fullscreenenter"",""1"",""8000""
","
","","","406.69999998807907","","","12","4555","2500","j","elianto","#f73b6a7A"," "," ","1","0","[1257.3999999910593]","1","2","","","4555","33","0","3","lose","go","0"
"pit-trial","152","1211630","0.0-38.0","battery-v0.2","","""event"",""trial"",""time""
""fullscreenenter"",""1"",""8000""
","
","
","""event"",""trial"",""time""
""fullscreenenter"",""1"",""8000""
","
","","","342.6000000089407","","","12","4555","2500","w","elianto","#f73b6a7A","-1"," ","0","-10","[1195.5]","1","2","","","4555","34","3","4","lose","no-go","0"
"pit-trial","153","1214550","0.0-39.0","battery-v0.2","","""event"",""trial"",""time""
""fullscreenenter"",""1"",""8000""
","
","
","""event"",""trial"",""time""
""fullscreenenter"",""1"",""8000""
","
","","","59.29999999701977","","","12","4555","2500","e","elianto","#f73b6a7A"," "," ","1","0","[912.0999999940395,1269.2999999970198,1798.5999999940395]","3","2","","","4555","35","2","3","lose","go","0"
"pit-trial","154","1217518","0.0-40.0","battery-v0.2","","""event"",""trial"",""time""
""fullscreenenter"",""1"",""8000""
","
","
","""event"",""trial"",""time""
""fullscreenenter"",""1"",""8000""
","
","","","105.3999999910593","","","12","4555","2500","d","elianto","#3366ff99","-1"," ","0","0","[959.2000000029802,1111.0999999940395,1899.7999999970198,2100.4000000059605,2282.9000000059605,2466.0999999940395,2699.7999999970198]","7","2","","","4555","36","1","2","win","no-go","0"
"pit-trial","155","1220966","0.0-41.0","battery-v0.2","","""event"",""trial"",""time""
""fullscreenenter"",""1"",""8000""
","
","
","""event"",""trial"",""time""
""fullscreenenter"",""1"",""8000""
","
","","","591.6000000089407","","","12","4555","2500","d","elianto","#3366ff99","-1"," ","0","0","[1443.7999999970198,1634.5999999940395]","2","2","","","4555","37","1","2","win","no-go","0"
"pit-trial","156","1223959","0.0-42.0","battery-v0.2","","""event"",""trial"",""time""
""fullscreenenter"",""1"",""8000""
","
","
","""event"",""trial"",""time""
""fullscreenenter"",""1"",""8000""
","
","","","136.29999999701977","","","12","4555","2500","w","elianto","#f73b6a7A","-1"," ","0","-10","[820.2999999970198,987]","2","2","","","4555","38","3","4","lose","no-go","0"
"pit-trial","157","1227174","0.0-43.0","battery-v0.2","","""event"",""trial"",""time""
""fullscreenenter"",""1"",""8000""
","
","
","""event"",""trial"",""time""
""fullscreenenter"",""1"",""8000""
","
","","","351.90000000596046","","","12","4555","2500","j","elianto","#f73b6a7A"," "," ","1","0","[1205]","1","2","","","4555","39","0","3","lose","go","0"
"pit-trial","158","1232038","0.0-44.0","battery-v0.2","","""event"",""trial"",""time""
""fullscreenenter"",""1"",""8000""
","
","
","""event"",""trial"",""time""
""fullscreenenter"",""1"",""8000""
","
","","","-1","","","12","4555","2500","e","elianto","#f73b6a7A"," ","-1","0","-10","[]","0","2","","","4555","40","2","3","lose","go","0"
"pit-trial","159","1236902","0.0-45.0","battery-v0.2","","""event"",""trial"",""time""
""fullscreenenter"",""1"",""8000""
","
","
","""event"",""trial"",""time""
""fullscreenenter"",""1"",""8000""
","
","","","-1","","","12","4555","2500","w","elianto","#f73b6a7A","-1","-1","1","0","[]","0","2","","","4555","41","3","4","lose","no-go","0"
"pit-trial","160","1240391","0.0-46.0","battery-v0.2","","""event"",""trial"",""time""
""fullscreenenter"",""1"",""8000""
","
","
","""event"",""trial"",""time""
""fullscreenenter"",""1"",""8000""
","
","","","629.7999999970198","","","12","4555","2500","d","elianto","#3366ff99","-1"," ","0","0","[1482.6000000089407,1900.1000000089407,2094.300000011921,2279.5,2478.9000000059605,2677.5,2862.9000000059605,3032.9000000059605,3221.800000011921,3384.800000011921]","10","2","","","4555","42","1","2","win","no-go","0"
"pit-trial","161","1245253","0.0-47.0","battery-v0.2","","""event"",""trial"",""time""
""fullscreenenter"",""1"",""8000""
","
","
","""event"",""trial"",""time""
""fullscreenenter"",""1"",""8000""
","
","","","-1","","","12","4555","2500","j","elianto","#f73b6a7A"," ","-1","0","0","[]","0","2","","","4555","43","0","3","lose","go","1"
"pit-trial","162","1248367","0.0-48.0","battery-v0.2","","""event"",""trial"",""time""
""fullscreenenter"",""1"",""8000""
","
","
","""event"",""trial"",""time""
""fullscreenenter"",""1"",""8000""
","
","","","251.59999999403954","","","12","4555","2500","e","elianto","#f73b6a7A"," "," ","1","-10","[1106.6000000089407,1312.4000000059605]","2","2","","","4555","44","2","3","lose","go","1"
"pit-trial","163","1251550","0.0-49.0","battery-v0.2","","""event"",""trial"",""time""
""fullscreenenter"",""1"",""8000""
","
","
","""event"",""trial"",""time""
""fullscreenenter"",""1"",""8000""
","
","","","325.3999999910593","","","12","4555","2500","e","elianto","#f73b6a7A"," "," ","1","0","[1180.1000000089407]","1","2","","","4555","45","2","3","lose","go","0"
"pit-trial","164","1256381","0.0-50.0","battery-v0.2","","""event"",""trial"",""time""
""fullscreenenter"",""1"",""8000""
","
","
","""event"",""trial"",""time""
""fullscreenenter"",""1"",""8000""
","
","","","1974.699999988079","","","12","4555","2500","d","elianto","#3366ff99","-1"," ","0","+10","[2828.2000000029802]","1","2","","","4555","46","1","2","win","no-go","1"
"pit-trial","165","1261247","0.0-51.0","battery-v0.2","","""event"",""trial"",""time""
""fullscreenenter"",""1"",""8000""
","
","
","""event"",""trial"",""time""
""fullscreenenter"",""1"",""8000""
","
","","","-1","","","12","4555","2500","w","elianto","#f73b6a7A","-1","-1","1","0","[]","0","2","","","4555","47","3","4","lose","no-go","0"
"pit-trial","166","1266110","0.0-52.0","battery-v0.2","","""event"",""trial"",""time""
""fullscreenenter"",""1"",""8000""
","
","
","""event"",""trial"",""time""
""fullscreenenter"",""1"",""8000""
","
","","","-1","","","12","4555","2500","j","elianto","#f73b6a7A"," ","-1","0","-10","[]","0","2","","","4555","48","0","3","lose","go","0"
"pit-trial","167","1269310","0.0-53.0","battery-v0.2","","""event"",""trial"",""time""
""fullscreenenter"",""1"",""8000""
","
","
","""event"",""trial"",""time""
""fullscreenenter"",""1"",""8000""
","
","","","340.09999999403954","","","12","4555","2500","d","elianto","#3366ff99","-1"," ","0","0","[1194.4000000059605,1412.5,1576.6000000089407,2011.2000000029802,2197.300000011921,2367.1000000089407,2538,2716.4000000059605,2897.1000000089407]","9","2","","","4555","49","1","2","win","no-go","0"
"pit-trial","168","1272518","0.0-54.0","battery-v0.2","","""event"",""trial"",""time""
""fullscreenenter"",""1"",""8000""
","
","
","""event"",""trial"",""time""
""fullscreenenter"",""1"",""8000""
","
","","","345.5","","","12","4555","2500","e","elianto","#f73b6a7A"," "," ","1","0","[1199.2999999970198]","1","2","","","4555","50","2","3","lose","go","0"
"pit-trial","169","1275415","0.0-55.0","battery-v0.2","","""event"",""trial"",""time""
""fullscreenenter"",""1"",""8000""
","
","
","""event"",""trial"",""time""
""fullscreenenter"",""1"",""8000""
","
","","","35","","","12","4555","2500","j","elianto","#f73b6a7A"," "," ","1","0","[885.4000000059605,1101.7999999970198]","2","2","","","4555","51","0","3","lose","go","0"
"pit-trial","170","1278430","0.0-56.0","battery-v0.2","","""event"",""trial"",""time""
""fullscreenenter"",""1"",""8000""
","
","
","""event"",""trial"",""time""
""fullscreenenter"",""1"",""8000""
","
","","","159.6000000089407","","","12","4555","2500","w","elianto","#f73b6a7A","-1"," ","0","-10","[1010.7999999970198]","1","2","","","4555","52","3","4","lose","no-go","0"
"pit-trial","171","1283316","0.0-57.0","battery-v0.2","","""event"",""trial"",""time""
""fullscreenenter"",""1"",""8000""
","
","
","""event"",""trial"",""time""
""fullscreenenter"",""1"",""8000""
","
","","","-1","","","12","4555","2500","j","elianto","#f73b6a7A"," ","-1","0","-10","[]","0","2","","","4555","53","0","3","lose","go","0"
"pit-trial","172","1288182","0.0-58.0","battery-v0.2","","""event"",""trial"",""time""
""fullscreenenter"",""1"",""8000""
","
","
","""event"",""trial"",""time""
""fullscreenenter"",""1"",""8000""
","
","","","-1","","","12","4555","2500","e","elianto","#f73b6a7A"," ","-1","0","-10","[639.5,836.2000000029802]","2","2","","","4555","54","2","3","lose","go","0"
"pit-trial","173","1291078","0.0-59.0","battery-v0.2","","""event"",""trial"",""time""
""fullscreenenter"",""1"",""8000""
","
","
","""event"",""trial"",""time""
""fullscreenenter"",""1"",""8000""
","
","","","39.70000000298023","","","12","4555","2500","d","elianto","#3366ff99","-1"," ","0","0","[706.5999999940395,892.0999999940395,1685.0999999940395,1910.0999999940395]","4","2","","","4555","55","1","2","win","no-go","0"
"pit-trial","174","1294158","0.0-60.0","battery-v0.2","","""event"",""trial"",""time""
""fullscreenenter"",""1"",""8000""
","
","
","""event"",""trial"",""time""
""fullscreenenter"",""1"",""8000""
","
","","","219.5","","","12","4555","2500","w","elianto","#f73b6a7A","-1"," ","0","0","[1071.7000000029802]","1","2","","","4555","56","3","4","lose","no-go","1"
"pit-trial","175","1297534","0.0-61.0","battery-v0.2","","""event"",""trial"",""time""
""fullscreenenter"",""1"",""8000""
","
","
","""event"",""trial"",""time""
""fullscreenenter"",""1"",""8000""
","
","","","518.2000000029802","","","12","4555","2500","e","elianto","#f73b6a7A"," "," ","1","0","[1373]","1","2","","","4555","57","2","3","lose","go","0"
"pit-trial","176","1300583","0.0-62.0","battery-v0.2","","""event"",""trial"",""time""
""fullscreenenter"",""1"",""8000""
","
","
","""event"",""trial"",""time""
""fullscreenenter"",""1"",""8000""
","
","","","185.19999998807907","","","12","4555","2500","w","elianto","#f73b6a7A","-1"," ","0","-10","[1038.699999988079]","1","2","","","4555","58","3","4","lose","no-go","0"
"pit-trial","177","1305445","0.0-63.0","battery-v0.2","","""event"",""trial"",""time""
""fullscreenenter"",""1"",""8000""
","
","
","""event"",""trial"",""time""
""fullscreenenter"",""1"",""8000""
","
","","","-1","","","12","4555","2500","j","elianto","#f73b6a7A"," ","-1","0","0","[]","0","2","","","4555","59","0","3","lose","go","1"
"pit-trial","178","1310310","0.0-64.0","battery-v0.2","","""event"",""trial"",""time""
""fullscreenenter"",""1"",""8000""
","
","
","""event"",""trial"",""time""
""fullscreenenter"",""1"",""8000""
","
","","","-1","","","12","4555","2500","s","elianto","#3366ff99"," ","-1","0","0","[4851.79999999702]","1","2","","","4555","60","4","1","win","go","0"
"pit-trial","179","1313550","0.0-65.0","battery-v0.2","","""event"",""trial"",""time""
""fullscreenenter"",""1"",""8000""
","
","
","""event"",""trial"",""time""
""fullscreenenter"",""1"",""8000""
","
","","","375.8999999910593","","","12","4555","2500","s","elianto","#3366ff99"," "," ","1","+10","[1229.2999999970198,1501.8999999910593]","2","2","","","4555","61","4","1","win","go","0"
"pit-trial","180","1318413","0.0-66.0","battery-v0.2","","""event"",""trial"",""time""
""fullscreenenter"",""1"",""8000""
","
","
","""event"",""trial"",""time""
""fullscreenenter"",""1"",""8000""
","
","","","-1","","","12","4555","2500","e","elianto","#f73b6a7A"," ","-1","0","0","[677]","1","2","","","4555","62","2","3","lose","go","1"
"pit-trial","181","1321845","0.0-67.0","battery-v0.2","","""event"",""trial"",""time""
""fullscreenenter"",""1"",""8000""
","
","
","""event"",""trial"",""time""
""fullscreenenter"",""1"",""8000""
","
","","","572.8999999910593","","","12","4555","2500","d","elianto","#3366ff99","-1"," ","0","0","[214.79999999701977,490.09999999403954,729.5,1426.0999999940395,1613.9000000059605,2174.0999999940395,2358.2000000029802,2583,2807.4000000059605,2996.7000000029802,3181.0999999940395,3367]","12","2","","","4555","63","1","2","win","no-go","0"
"pit-trial","182","1326710","0.0-68.0","battery-v0.2","","""event"",""trial"",""time""
""fullscreenenter"",""1"",""8000""
","
","
","""event"",""trial"",""time""
""fullscreenenter"",""1"",""8000""
","
","","","-1","","","12","4555","2500","w","elianto","#f73b6a7A","-1","-1","1","0","[161.69999998807907]","1","2","","","4555","64","3","4","lose","no-go","0"
"pit-trial","183","1329678","0.0-69.0","battery-v0.2","","""event"",""trial"",""time""
""fullscreenenter"",""1"",""8000""
","
","
","""event"",""trial"",""time""
""fullscreenenter"",""1"",""8000""
","
","","","104.79999999701977","","","12","4555","2500","w","elianto","#f73b6a7A","-1"," ","0","-10","[956.7999999970198,1114.7000000029802]","2","2","","","4555","65","3","4","lose","no-go","0"
"pit-trial","184","1333766","0.0-70.0","battery-v0.2","","""event"",""trial"",""time""
""fullscreenenter"",""1"",""8000""
","
","
","""event"",""trial"",""time""
""fullscreenenter"",""1"",""8000""
","
","","","1226.0999999940395","","","12","4555","2500","p","elianto","#3366ff99","-1"," ","0","0","[2077.7999999970198]","1","2","","","4555","66","5","2","win","no-go","0"
"pit-trial","185","1337518","0.0-71.0","battery-v0.2","","""event"",""trial"",""time""
""fullscreenenter"",""1"",""8000""
","
","
","""event"",""trial"",""time""
""fullscreenenter"",""1"",""8000""
","
","","","891.5","","","12","4555","2500","s","elianto","#3366ff99"," "," ","1","0","[850.2000000029802,1741.6000000089407,2429.1000000089407,2637.5,2849.7000000029802,3044.2000000029802,3221.4000000059605,3410.4000000059605,3567.2000000029802]","9","2","","","4555","67","4","1","win","go","1"
"pit-trial","186","1340383","0.0-72.0","battery-v0.2","","""event"",""trial"",""time""
""fullscreenenter"",""1"",""8000""
","
","
","""event"",""trial"",""time""
""fullscreenenter"",""1"",""8000""
","
","","","0.9000000059604645","","","12","4555","2500","d","elianto","#3366ff99","-1"," ","0","+10","[421,650.1000000089407,854.4000000059605,1316.5,1513.7999999970198,1702.5,1912,2123.7000000029802,2400.1000000089407,2576.2999999970198,2767.9000000059605]","11","2","","","4555","68","1","2","win","no-go","1"
"pit-trial","187","1343390","0.0-73.0","battery-v0.2","","""event"",""trial"",""time""
""fullscreenenter"",""1"",""8000""
","
","
","""event"",""trial"",""time""
""fullscreenenter"",""1"",""8000""
","
","","","150.79999999701977","","","12","4555","2500","s","elianto","#3366ff99"," "," ","1","+10","[126.79999999701977,290.69999998807907,484.79999999701977,655.2999999970198,850.1999999880791,1001.1999999880791,1185.5999999940395,1352.5999999940395,1550.0999999940395,1728.3999999910593,1891.8999999910593,2081.8999999910593,2269.699999988079,2460.5,2649.0999999940395,2816]","16","2","","","4555","69","4","1","win","go","0"
"pit-trial","188","1346286","0.0-74.0","battery-v0.2","","""event"",""trial"",""time""
""fullscreenenter"",""1"",""8000""
","
","
","""event"",""trial"",""time""
""fullscreenenter"",""1"",""8000""
","
","","","37.900000005960464","","","12","4555","2500","e","elianto","#f73b6a7A"," "," ","1","0","[3.2999999970197678,184.19999998807907,364.5,533,720.3999999910593,891.5,1086,1266.8999999910593,1485,1664.5999999940395,1841.5,2021.5999999940395,2224.8999999910593,2385.8999999910593,2591.0999999940395,2753.199999988079]","16","2","","","4555","70","2","3","lose","go","0"
"pit-trial","189","1349182","0.0-75.0","battery-v0.2","","""event"",""trial"",""time""
""fullscreenenter"",""1"",""8000""
","
","
","""event"",""trial"",""time""
""fullscreenenter"",""1"",""8000""
","
","","","35.79999999701977","","","12","4555","2500","p","elianto","#3366ff99","-1"," ","0","0","[13.799999997019768,175.29999999701977,349.09999999403954,540.5,730.8999999910593,888.0999999940395,1101.5999999940395,1305.5,1501.3999999910593,1681.7000000029802,1877.5,2069,2289.8999999910593,2699.2000000029802]","14","2","","","4555","71","5","2","win","no-go","0"
"pit-trial","190","1352062","0.0-76.0","battery-v0.2","","""event"",""trial"",""time""
""fullscreenenter"",""1"",""8000""
","
","
","""event"",""trial"",""time""
""fullscreenenter"",""1"",""8000""
","
","","","23","","","12","4555","2500","d","elianto","#3366ff99","-1"," ","0","0","[21.5,244.5,455.6000000089407,667.7000000029802,876.6000000089407,1071.800000011921,1258.5,1443.800000011921,1632.4000000059605,1850.2000000029802,2132.5,2657.4000000059605]","12","2","","","4555","72","1","2","win","no-go","0"
"pit-trial","191","1354924","0.0-77.0","battery-v0.2","","""event"",""trial"",""time""
""fullscreenenter"",""1"",""8000""
","
","
","""event"",""trial"",""time""
""fullscreenenter"",""1"",""8000""
","
","","","8.900000005960464","","","12","4555","2500","s","elianto","#3366ff99"," "," ","1","+10","[859,1039.2000000029802,1221.2999999970198,1410.2000000029802,1644.5999999940395,1858.3999999910593,2065.3999999910593,2275.2000000029802,2477.2000000029802,2670.7000000029802,2859.3999999910593]","11","2","","","4555","73","4","1","win","go","0"
"pit-trial","192","1357950","0.0-78.0","battery-v0.2","","""event"",""trial"",""time""
""fullscreenenter"",""1"",""8000""
","
","
","""event"",""trial"",""time""
""fullscreenenter"",""1"",""8000""
","
","","","170.5","","","12","4555","2500","d","elianto","#3366ff99","-1"," ","0","0","[200.90000000596046,395.6000000089407,614.2000000029802,820.9000000059605,1020.7000000029802,1233.800000011921,1428.9000000059605,1628.300000011921,1834.5,2343,2509.7000000029802,2648.5,2799.5,3000.2000000029802]","14","2","","","4555","74","1","2","win","no-go","0"
"pit-trial","193","1360822","0.0-79.0","battery-v0.2","","""event"",""trial"",""time""
""fullscreenenter"",""1"",""8000""
","
","
","""event"",""trial"",""time""
""fullscreenenter"",""1"",""8000""
","
","","","7.299999997019768","","","12","4555","2500","w","elianto","#f73b6a7A","-1"," ","0","0","[146.09999999403954,361.79999999701977,526.5,701,859.5999999940395,1029.199999988079,1194.7999999970198,1360.5,2453.5]","9","2","","","4555","75","3","4","lose","no-go","1"
"pit-trial","194","1365685","0.0-80.0","battery-v0.2","","""event"",""trial"",""time""
""fullscreenenter"",""1"",""8000""
","
","
","""event"",""trial"",""time""
""fullscreenenter"",""1"",""8000""
","
","","","-1","","","12","4555","2500","p","elianto","#3366ff99","-1","-1","1","0","[651.1000000089407,3747.1000000089407,4531.100000008941,4807.79999999702]","4","2","","","4555","76","5","2","win","no-go","1"
"pit-trial","195","1368575","0.0-81.0","battery-v0.2","","""event"",""trial"",""time""
""fullscreenenter"",""1"",""8000""
","
","
","""event"",""trial"",""time""
""fullscreenenter"",""1"",""8000""
","
","","","27.899999991059303","","","12","4555","2500","p","elianto","#3366ff99","-1"," ","0","+10","[188.5,416.29999999701977,651.2000000029802,882.7999999970198,1113.5999999940395,1365,1503.4000000059605,1598.7999999970198,1835,1985.2000000029802,2087.4000000059605,2326.7999999970198,2576.7999999970198,2816.0999999940395]","14","2","","","4555","77","5","2","win","no-go","1"
"pit-trial","196","1371461","0.0-82.0","battery-v0.2","","""event"",""trial"",""time""
""fullscreenenter"",""1"",""8000""
","
","
","""event"",""trial"",""time""
""fullscreenenter"",""1"",""8000""
","
","","","16.200000002980232","","","12","4555","2500","w","elianto","#f73b6a7A","-1"," ","0","-10","[156.90000000596046,389.5,618.2999999970198,867.7000000029802,1130,1393.7999999970198,1528.2999999970198,1708.2999999970198]","8","2","","","4555","78","3","4","lose","no-go","0"
"pit-trial","197","1374518","0.0-83.0","battery-v0.2","","""event"",""trial"",""time""
""fullscreenenter"",""1"",""8000""
","
","
","""event"",""trial"",""time""
""fullscreenenter"",""1"",""8000""
","
","","","195.70000000298023","","","12","4555","2500","s","elianto","#3366ff99"," "," ","1","0","[632.5,845.8999999910593,1050.5999999940395,1264.5999999940395,1474.199999988079,1705.8999999910593,1940.2999999970198,2177.199999988079,2441.2999999970198]","9","2","","","4555","79","4","1","win","go","1"
"pit-trial","198","1377573","0.0-84.0","battery-v0.2","","""event"",""trial"",""time""
""fullscreenenter"",""1"",""8000""
","
","
","""event"",""trial"",""time""
""fullscreenenter"",""1"",""8000""
","
","","","194","","","12","4555","2500","s","elianto","#3366ff99"," "," ","1","+10","[823,1047.5999999940395,1275,1503.7000000029802,1731]","5","2","","","4555","80","4","1","win","go","0"
"pit-trial","199","1380542","0.0-85.0","battery-v0.2","","""event"",""trial"",""time""
""fullscreenenter"",""1"",""8000""
","
","
","""event"",""trial"",""time""
""fullscreenenter"",""1"",""8000""
","
","","","103.90000000596046","","","12","4555","2500","a","elianto","#f73b6a7A","-1"," ","0","0","[736.2000000029802,957.7000000029802,1194.7999999970198]","3","2","","","4555","81","7","4","lose","no-go","1"
"pit-trial","200","1383566","0.0-86.0","battery-v0.2","","""event"",""trial"",""time""
""fullscreenenter"",""1"",""8000""
","
","
","""event"",""trial"",""time""
""fullscreenenter"",""1"",""8000""
","
","","","165.09999999403954","","","12","4555","2500","w","elianto","#f73b6a7A","-1"," ","0","-10","[760,1017]","2","2","","","4555","82","3","4","lose","no-go","0"
"pit-trial","201","1386598","0.0-87.0","battery-v0.2","","""event"",""trial"",""time""
""fullscreenenter"",""1"",""8000""
","
","
","""event"",""trial"",""time""
""fullscreenenter"",""1"",""8000""
","
","","","173.09999999403954","","","12","4555","2500","p","elianto","#3366ff99","-1"," ","0","0","[569.7000000029802,769.3999999910593,1023.3999999910593,1416.5999999940395,1678.3999999910593,1922.8999999910593,2144,2363.7000000029802,2600.7000000029802,2839]","10","2","","","4555","83","5","2","win","no-go","0"
"pit-trial","202","1389623","0.0-88.0","battery-v0.2","","""event"",""trial"",""time""
""fullscreenenter"",""1"",""8000""
","
","
","""event"",""trial"",""time""
""fullscreenenter"",""1"",""8000""
","
","","","160.70000000298023","","","12","4555","2500","s","elianto","#3366ff99"," "," ","1","+10","[48.20000000298023,294.70000000298023,447,552.7999999970198,675.0999999940395,783.2000000029802,1012.7000000029802,1145.8999999910593,1250.2000000029802,1504.5,1736.8999999910593,1967.7999999970198,2109.7999999970198,2469.2000000029802,2736.7999999970198,2867.7999999970198,2958.5]","17","2","","","4555","84","4","1","win","go","0"
"pit-trial","203","1392569","0.0-89.0","battery-v0.2","","""event"",""trial"",""time""
""fullscreenenter"",""1"",""8000""
","
","
","""event"",""trial"",""time""
""fullscreenenter"",""1"",""8000""
","
","","","81.09999999403954","","","12","4555","2500","a","elianto","#f73b6a7A","-1"," ","0","-10","[204.40000000596046,444.6000000089407,686.6000000089407,932.4000000059605,1173.5,1420.5,1702.5,1982.1000000089407,2230.5,2468.7999999970198,2685.1000000089407,2894]","12","2","","","4555","85","7","4","lose","no-go","0"
"pit-trial","204","1396046","0.0-90.0","battery-v0.2","","""event"",""trial"",""time""
""fullscreenenter"",""1"",""8000""
","
","
","""event"",""trial"",""time""
""fullscreenenter"",""1"",""8000""
","
","","","618.7999999970198","","","12","4555","2500","p","elianto","#3366ff99","-1"," ","0","0","[146.3999999910593,328,531.8999999910593,761.0999999940395,1471.5999999940395]","5","2","","","4555","86","5","2","win","no-go","0"
"pit-trial","205","1400910","0.0-91.0","battery-v0.2","","""event"",""trial"",""time""
""fullscreenenter"",""1"",""8000""
","
","
","""event"",""trial"",""time""
""fullscreenenter"",""1"",""8000""
","
","","","-1","","","12","4555","2500","g","elianto","#f73b6a7A"," ","-1","0","-10","[719.2999999970198]","1","2","","","4555","87","6","3","lose","go","0"
"pit-trial","206","1403846","0.0-92.0","battery-v0.2","","""event"",""trial"",""time""
""fullscreenenter"",""1"",""8000""
","
","
","""event"",""trial"",""time""
""fullscreenenter"",""1"",""8000""
","
","","","77.70000000298023","","","12","4555","2500","s","elianto","#3366ff99"," "," ","1","0","[930.1000000089407]","1","2","","","4555","88","4","1","win","go","1"
"pit-trial","207","1406854","0.0-93.0","battery-v0.2","","""event"",""trial"",""time""
""fullscreenenter"",""1"",""8000""
","
","
","""event"",""trial"",""time""
""fullscreenenter"",""1"",""8000""
","
","","","147.70000000298023","","","12","4555","2500","s","elianto","#3366ff99"," "," ","1","+10","[1000.8999999910593]","1","2","","","4555","89","4","1","win","go","0"
"pit-trial","208","1410326","0.0-94.0","battery-v0.2","","""event"",""trial"",""time""
""fullscreenenter"",""1"",""8000""
","
","
","""event"",""trial"",""time""
""fullscreenenter"",""1"",""8000""
","
","","","613","","","12","4555","2500","p","elianto","#3366ff99","-1"," ","0","0","[1467.9000000059605]","1","2","","","4555","90","5","2","win","no-go","0"
"pit-trial","209","1415189","0.0-95.0","battery-v0.2","","""event"",""trial"",""time""
""fullscreenenter"",""1"",""8000""
","
","
","""event"",""trial"",""time""
""fullscreenenter"",""1"",""8000""
","
","","","-1","","","12","4555","2500","a","elianto","#f73b6a7A","-1","-1","1","-10","[640.7000000029802]","1","2","","","4555","91","7","4","lose","no-go","1"
"pit-trial","210","1418143","0.0-96.0","battery-v0.2","","""event"",""trial"",""time""
""fullscreenenter"",""1"",""8000""
","
","
","""event"",""trial"",""time""
""fullscreenenter"",""1"",""8000""
","
","","","93.29999999701977","","","12","4555","2500","g","elianto","#f73b6a7A"," "," ","1","0","[946.5]","1","2","","","4555","92","6","3","lose","go","0"
"pit-trial","211","1421118","0.0-97.0","battery-v0.2","","""event"",""trial"",""time""
""fullscreenenter"",""1"",""8000""
","
","
","""event"",""trial"",""time""
""fullscreenenter"",""1"",""8000""
","
","","","116.20000000298023","","","12","4555","2500","a","elianto","#f73b6a7A","-1"," ","0","0","[426.70000000298023,624.4000000059605,806.4000000059605,969.2000000029802,1129.6000000089407,1303.6000000089407]","6","2","","","4555","93","7","4","lose","no-go","1"
"pit-trial","212","1424526","0.0-98.0","battery-v0.2","","""event"",""trial"",""time""
""fullscreenenter"",""1"",""8000""
","
","
","""event"",""trial"",""time""
""fullscreenenter"",""1"",""8000""
","
","","","544.8000000119209","","","12","4555","2500","p","elianto","#3366ff99","-1"," ","0","0","[1399.4000000059605,1568.0999999940395,1729.0999999940395,1922.2000000029802,2101.0999999940395,2389.7000000029802,2626.0999999940395,2870,3043.2000000029802,3278.5]","10","2","","","4555","94","5","2","win","no-go","0"
"pit-trial","213","1429393","0.0-99.0","battery-v0.2","","""event"",""trial"",""time""
""fullscreenenter"",""1"",""8000""
","
","
","""event"",""trial"",""time""
""fullscreenenter"",""1"",""8000""
","
","","","-1","","","12","4555","2500","g","elianto","#f73b6a7A"," ","-1","0","-10","[7.299999997019768,148.79999999701977,256.09999999403954,545.7999999970198,667.7999999970198,811.2000000029802]","6","2","","","4555","95","6","3","lose","go","0"
"pit-trial","214","1432286","0.0-100.0","battery-v0.2","","""event"",""trial"",""time""
""fullscreenenter"",""1"",""8000""
","
","
","""event"",""trial"",""time""
""fullscreenenter"",""1"",""8000""
","
","","","37.69999998807907","","","12","4555","2500","l","elianto","#3366ff99"," "," ","1","0","[266.90000000596046,443.30000001192093,630.8000000119209,890,1136.9000000059605,1345.2000000029802,1577.800000011921,1803.7000000029802,1943.300000011921,2076,2324.5,2448.300000011921,2582.5]","13","2","","","4555","96","8","1","win","go","1"
"pit-trial","215","1435158","0.0-101.0","battery-v0.2","","""event"",""trial"",""time""
""fullscreenenter"",""1"",""8000""
","
","
","""event"",""trial"",""time""
""fullscreenenter"",""1"",""8000""
","
","","","18.5","","","12","4555","2500","a","elianto","#f73b6a7A","-1"," ","0","-10","[207.79999999701977,704.2999999970198,868.5,1028.5999999940395,1209.2999999970198]","5","2","","","4555","97","7","4","lose","no-go","0"
"pit-trial","216","1439190","0.0-102.0","battery-v0.2","","""event"",""trial"",""time""
""fullscreenenter"",""1"",""8000""
","
","
","""event"",""trial"",""time""
""fullscreenenter"",""1"",""8000""
","
","","","1175.2000000029802","","","12","4555","2500","g","elianto","#f73b6a7A"," "," ","1","0","[2028.6000000089407]","1","2","","","4555","98","6","3","lose","go","0"
"pit-trial","217","1444054","0.0-103.0","battery-v0.2","","""event"",""trial"",""time""
""fullscreenenter"",""1"",""8000""
","
","
","""event"",""trial"",""time""
""fullscreenenter"",""1"",""8000""
","
","","","-1","","","12","4555","2500","p","elianto","#3366ff99","-1","-1","1","+10","[]","0","2","","","4555","99","5","2","win","no-go","0"
"pit-trial","218","1448526","0.0-104.0","battery-v0.2","","""event"",""trial"",""time""
""fullscreenenter"",""1"",""8000""
","
","
","""event"",""trial"",""time""
""fullscreenenter"",""1"",""8000""
","
","","","1608.2000000029802","","","12","4555","2500","l","elianto","#3366ff99"," "," ","1","+10","[2461.4000000059605,3678.9000000059605]","2","2","","","4555","100","8","1","win","go","0"
"pit-trial","219","1451401","0.0-105.0","battery-v0.2","","""event"",""trial"",""time""
""fullscreenenter"",""1"",""8000""
","
","
","""event"",""trial"",""time""
""fullscreenenter"",""1"",""8000""
","
","","","0.4000000059604645","","","12","4555","2500","p","elianto","#3366ff99","-1"," ","0","0","[79.70000000298023,853.5,1248.3999999910593,1397,1858.7000000029802,2516.2000000029802,2801.2999999970198]","7","2","","","4555","101","5","2","win","no-go","0"
"pit-trial","220","1454526","0.0-106.0","battery-v0.2","","""event"",""trial"",""time""
""fullscreenenter"",""1"",""8000""
","
","
","""event"",""trial"",""time""
""fullscreenenter"",""1"",""8000""
","
","","","263.29999999701977","","","12","4555","2500","a","elianto","#f73b6a7A","-1"," ","0","-10","[465.40000000596046,1114.7000000029802]","2","2","","","4555","102","7","4","lose","no-go","0"
"pit-trial","221","1459398","0.0-107.0","battery-v0.2","","""event"",""trial"",""time""
""fullscreenenter"",""1"",""8000""
","
","
","""event"",""trial"",""time""
""fullscreenenter"",""1"",""8000""
","
","","","-1","","","12","4555","2500","u","elianto","#3366ff99"," ","-1","0","0","[791.4000000059605]","1","2","","","4555","103","9","1","win","go","0"
"pit-trial","222","1462958","0.0-108.0","battery-v0.2","","""event"",""trial"",""time""
""fullscreenenter"",""1"",""8000""
","
","
","""event"",""trial"",""time""
""fullscreenenter"",""1"",""8000""
","
","","","696.8999999910593","","","12","4555","2500","l","elianto","#3366ff99"," "," ","1","0","[1550.7999999970198,2337.1000000089407,2537.6000000089407,2719.1000000089407,2919.9000000059605,3151.2000000029802]","6","2","","","4555","104","8","1","win","go","1"
"pit-trial","223","1466462","0.0-109.0","battery-v0.2","","""event"",""trial"",""time""
""fullscreenenter"",""1"",""8000""
","
","
","""event"",""trial"",""time""
""fullscreenenter"",""1"",""8000""
","
","","","649.7999999970198","","","12","4555","2500","g","elianto","#f73b6a7A"," "," ","1","0","[1500.9000000059605]","1","2","","","4555","105","6","3","lose","go","0"
"pit-trial","224","1469447","0.0-110.0","battery-v0.2","","""event"",""trial"",""time""
""fullscreenenter"",""1"",""8000""
","
","
","""event"",""trial"",""time""
""fullscreenenter"",""1"",""8000""
","
","","","122.40000000596046","","","12","4555","2500","l","elianto","#3366ff99"," "," ","1","0","[975.5,1192.0999999940395,1369.699999988079,1580,1787,1983.2999999970198,2148.5,2341.7999999970198,2530.699999988079,2729.3999999910593,2916.699999988079]","11","2","","","4555","106","8","1","win","go","1"
"pit-trial","225","1472382","0.0-111.0","battery-v0.2","","""event"",""trial"",""time""
""fullscreenenter"",""1"",""8000""
","
","
","""event"",""trial"",""time""
""fullscreenenter"",""1"",""8000""
","
","","","72.59999999403954","","","12","4555","2500","u","elianto","#3366ff99"," "," ","1","+10","[146.79999999701977,339.59999999403954,539.2999999970198,726.7999999970198,926.2999999970198,1113,1291.5,1472.7999999970198,1680,1873.3999999910593,2059,2258.7000000029802,2462.7000000029802,2874.2000000029802]","14","2","","","4555","107","9","1","win","go","0"
"pit-trial","226","1475918","0.0-112.0","battery-v0.2","","""event"",""trial"",""time""
""fullscreenenter"",""1"",""8000""
","
","
","""event"",""trial"",""time""
""fullscreenenter"",""1"",""8000""
","
","","","676.9000000059605","","","12","4555","2500","s","elianto","#3366ff99"," "," ","1","+10","[845,1528.7000000029802,1711.5,1893.7000000029802,2066.9000000059605,3365.9000000059605]","6","2","","","4555","108","4","1","win","go","0"
"pit-trial","227","1478966","0.0-113.0","battery-v0.2","","""event"",""trial"",""time""
""fullscreenenter"",""1"",""8000""
","
","
","""event"",""trial"",""time""
""fullscreenenter"",""1"",""8000""
","
","","","189.5","","","12","4555","2500","l","elianto","#3366ff99"," "," ","1","+10","[1043.9000000059605,1488.4000000059605,1715.5]","3","2","","","4555","109","8","1","win","go","0"
"pit-trial","228","1482023","0.0-114.0","battery-v0.2","","""event"",""trial"",""time""
""fullscreenenter"",""1"",""8000""
","
","
","""event"",""trial"",""time""
""fullscreenenter"",""1"",""8000""
","
","","","196.70000000298023","","","12","4555","2500","u","elianto","#3366ff99"," "," ","1","+10","[624,830.5,1049.800000011921,1525.9000000059605]","4","2","","","4555","110","9","1","win","go","0"
"pit-trial","229","1485134","0.0-115.0","battery-v0.2","","""event"",""trial"",""time""
""fullscreenenter"",""1"",""8000""
","
","
","""event"",""trial"",""time""
""fullscreenenter"",""1"",""8000""
","
","","","253.6000000089407","","","12","4555","2500","p","elianto","#3366ff99","-1"," ","0","0","[1104.7000000029802,1548.8999999910593,1746.2000000029802,2122.2000000029802,2324.2000000029802]","5","2","","","4555","111","5","2","win","no-go","0"
"pit-trial","230","1489999","0.0-116.0","battery-v0.2","","""event"",""trial"",""time""
""fullscreenenter"",""1"",""8000""
","
","
","""event"",""trial"",""time""
""fullscreenenter"",""1"",""8000""
","
","","","-1","","","12","4555","2500","g","elianto","#f73b6a7A"," ","-1","0","-10","[]","0","2","","","4555","112","6","3","lose","go","0"
"pit-trial","231","1494863","0.0-117.0","battery-v0.2","","""event"",""trial"",""time""
""fullscreenenter"",""1"",""8000""
","
","
","""event"",""trial"",""time""
""fullscreenenter"",""1"",""8000""
","
","","","-1","","","12","4555","2500","g","elianto","#f73b6a7A"," ","-1","0","-10","[]","0","2","","","4555","113","6","3","lose","go","0"
"pit-trial","232","1499725","0.0-118.0","battery-v0.2","","""event"",""trial"",""time""
""fullscreenenter"",""1"",""8000""
","
","
","""event"",""trial"",""time""
""fullscreenenter"",""1"",""8000""
","
","","","-1","","","12","4555","2500","u","elianto","#3366ff99"," ","-1","0","0","[681.8000000119209,4589.5]","2","2","","","4555","114","9","1","win","go","0"
"pit-trial","233","1504590","0.0-119.0","battery-v0.2","","""event"",""trial"",""time""
""fullscreenenter"",""1"",""8000""
","
","
","""event"",""trial"",""time""
""fullscreenenter"",""1"",""8000""
","
","","","-1","","","12","4555","2500","p","elianto","#3366ff99","-1","-1","1","0","[]","0","2","","","4555","115","5","2","win","no-go","1"
"pit-trial","234","1509453","0.0-120.0","battery-v0.2","","""event"",""trial"",""time""
""fullscreenenter"",""1"",""8000""
","
","
","""event"",""trial"",""time""
""fullscreenenter"",""1"",""8000""
","
","","","-1","","","12","4555","2500","l","elianto","#3366ff99"," ","-1","0","0","[]","0","2","","","4555","116","8","1","win","go","0"
"pit-trial","235","1514318","0.0-121.0","battery-v0.2","","""event"",""trial"",""time""
""fullscreenenter"",""1"",""8000""
","
","
","""event"",""trial"",""time""
""fullscreenenter"",""1"",""8000""
","
","","","-1","","","12","4555","2500","g","elianto","#f73b6a7A"," ","-1","0","-10","[]","0","2","","","4555","117","6","3","lose","go","0"
"pit-trial","236","1519190","0.0-122.0","battery-v0.2","","""event"",""trial"",""time""
""fullscreenenter"",""1"",""8000""
","
","
","""event"",""trial"",""time""
""fullscreenenter"",""1"",""8000""
","
","","","-1","","","12","4555","2500","p","elianto","#3366ff99","-1","-1","1","+10","[]","0","2","","","4555","118","5","2","win","no-go","0"
"pit-trial","237","1524054","0.0-123.0","battery-v0.2","","""event"",""trial"",""time""
""fullscreenenter"",""1"",""8000""
","
","
","""event"",""trial"",""time""
""fullscreenenter"",""1"",""8000""
","
","","","-1","","","12","4555","2500","u","elianto","#3366ff99"," ","-1","0","0","[]","0","2","","","4555","119","9","1","win","go","0"
"pit-trial","238","1528919","0.0-124.0","battery-v0.2","","""event"",""trial"",""time""
""fullscreenenter"",""1"",""8000""
","
","
","""event"",""trial"",""time""
""fullscreenenter"",""1"",""8000""
","
","","","-1","","","12","4555","2500","l","elianto","#3366ff99"," ","-1","0","+10","[]","0","2","","","4555","120","8","1","win","go","1"
"pit-trial","239","1533795","0.0-125.0","battery-v0.2","","""event"",""trial"",""time""
""fullscreenenter"",""1"",""8000""
","
","
","""event"",""trial"",""time""
""fullscreenenter"",""1"",""8000""
","
","","","-1","","","12","4555","2500","g","elianto","#f73b6a7A"," ","-1","0","-10","[]","0","2","","","4555","121","6","3","lose","go","0"
"pit-trial","240","1538662","0.0-126.0","battery-v0.2","","""event"",""trial"",""time""
""fullscreenenter"",""1"",""8000""
","
","
","""event"",""trial"",""time""
""fullscreenenter"",""1"",""8000""
","
","","","-1","","","12","4555","2500","u","elianto","#3366ff99"," ","-1","0","+10","[]","0","2","","","4555","122","9","1","win","go","1"
"pit-trial","241","1543525","0.0-127.0","battery-v0.2","","""event"",""trial"",""time""
""fullscreenenter"",""1"",""8000""
","
","
","""event"",""trial"",""time""
""fullscreenenter"",""1"",""8000""
","
","","","-1","","","12","4555","2500","a","elianto","#f73b6a7A","-1","-1","1","0","[]","0","2","","","4555","123","7","4","lose","no-go","0"
"pit-trial","242","1548391","0.0-128.0","battery-v0.2","","""event"",""trial"",""time""
""fullscreenenter"",""1"",""8000""
","
","
","""event"",""trial"",""time""
""fullscreenenter"",""1"",""8000""
","
","","","-1","","","12","4555","2500","l","elianto","#3366ff99"," ","-1","0","0","[]","0","2","","","4555","124","8","1","win","go","0"
"pit-trial","243","1553253","0.0-129.0","battery-v0.2","","""event"",""trial"",""time""
""fullscreenenter"",""1"",""8000""
","
","
","""event"",""trial"",""time""
""fullscreenenter"",""1"",""8000""
","
","","","-1","","","12","4555","2500","g","elianto","#f73b6a7A"," ","-1","0","-10","[]","0","2","","","4555","125","6","3","lose","go","0"
"pit-trial","244","1558117","0.0-130.0","battery-v0.2","","""event"",""trial"",""time""
""fullscreenenter"",""1"",""8000""
","
","
","""event"",""trial"",""time""
""fullscreenenter"",""1"",""8000""
","
","","","-1","","","12","4555","2500","a","elianto","#f73b6a7A","-1","-1","1","-10","[]","0","2","","","4555","126","7","4","lose","no-go","1"
"pit-trial","245","1562981","0.0-131.0","battery-v0.2","","""event"",""trial"",""time""
""fullscreenenter"",""1"",""8000""
""fullscreenexit"",""246"",""1564351""
","
","
","""event"",""trial"",""time""
""fullscreenenter"",""1"",""8000""
","""event"",""trial"",""time""
""fullscreenexit"",""246"",""1564351""
","","","-1","","","12","4555","2500","l","elianto","#3366ff99"," ","-1","0","0","[]","0","2","","","4555","127","8","1","win","go","0"
"pit-trial","246","1567845","0.0-132.0","battery-v0.2","","""event"",""trial"",""time""
""fullscreenenter"",""1"",""8000""
""fullscreenexit"",""246"",""1564351""
","
","
","""event"",""trial"",""time""
""fullscreenenter"",""1"",""8000""
","""event"",""trial"",""time""
""fullscreenexit"",""246"",""1564351""
","","","-1","","","12","4555","2500","u","elianto","#3366ff99"," ","-1","0","0","[4347.29999999702]","1","2","","","4555","128","9","1","win","go","0"
"pit-trial","247","1572213","0.0-133.0","battery-v0.2","","""event"",""trial"",""time""
""fullscreenenter"",""1"",""8000""
""fullscreenexit"",""246"",""1564351""
","
","
","""event"",""trial"",""time""
""fullscreenenter"",""1"",""8000""
","""event"",""trial"",""time""
""fullscreenexit"",""246"",""1564351""
","","","1503.1000000089407","","","12","4555","2500","a","elianto","#f73b6a7A","-1"," ","0","-10","[2357.7999999970198]","1","2","","","4555","129","7","4","lose","no-go","0"
"pit-trial","248","1575614","0.0-134.0","battery-v0.2","","""event"",""trial"",""time""
""fullscreenenter"",""1"",""8000""
""fullscreenexit"",""246"",""1564351""
","
","
","""event"",""trial"",""time""
""fullscreenenter"",""1"",""8000""
","""event"",""trial"",""time""
""fullscreenexit"",""246"",""1564351""
