"trial_type","trial_index","time_elapsed","internal_node_id","task_version","subject_id","interactions","blur_events","focus_events","fullscreenenter_events","fullscreenexit_events","success","view_history","rt","responses","num_errors","age","subject","participantId","rune","rune_set","hex","correct","choice","accuracy","outcome","keys","total_keys","block","practice","value","sub","trial","stimulus","robot","valence","action","sham"
"pavlovia","0","7","0.0-0.0","battery-v0.2","","""event"",""trial"",""time""
""fullscreenenter"",""1"",""3369""
","
","
","""event"",""trial"",""time""
""fullscreenenter"",""1"",""3369""
","
","","","","","","","","","","","","","","","","","","","","","","","","","","",""
"fullscreen","1","4340","0.0-1.0","battery-v0.2","","""event"",""trial"",""time""
""fullscreenenter"",""1"",""3369""
","
","
","""event"",""trial"",""time""
""fullscreenenter"",""1"",""3369""
","
","true","","","","","","","","","","","","","","","","","","","","","","","","","",""
"pit-instructions","2","9656","0.0-2.0-0.0","battery-v0.2","","""event"",""trial"",""time""
""fullscreenenter"",""1"",""3369""
","
","
","""event"",""trial"",""time""
""fullscreenenter"",""1"",""3369""
","
","","[{""page_index"":0,""viewing_time"":5309.000000000002}]","5311","","","","","","","","","","","","","","","","","","","","","","","",""
"pit-comprehension","3","12605","0.0-2.0-1.0-0.0","battery-v0.2","","""event"",""trial"",""time""
""fullscreenenter"",""1"",""3369""
","
","
","""event"",""trial"",""time""
""fullscreenenter"",""1"",""3369""
","
","","","2879","[""shark""]","0","19","10100","4764","","","","","","","","","","","","","","","","","","",""
"pit-instructions","4","14588","0.0-2.0-1.0-1.0","battery-v0.2","","""event"",""trial"",""time""
""fullscreenenter"",""1"",""3369""
","
","
","""event"",""trial"",""time""
""fullscreenenter"",""1"",""3369""
","
","","[{""page_index"":0,""viewing_time"":1978.0000000000018}]","1978.0000000000018","","","","","","","","","","","","","","","","","","","","","","","",""
"pit-comprehension","5","16922","0.0-2.0-2.0-0.0","battery-v0.2","","""event"",""trial"",""time""
""fullscreenenter"",""1"",""3369""
","
","
","""event"",""trial"",""time""
""fullscreenenter"",""1"",""3369""
","
","","","2330.999999999998","[""tiger""]","0","19","10100","4764","","","","","","","","","","","","","","","","","","",""
"pit-instructions","6","19434","0.0-2.0-2.0-1.0","battery-v0.2","","""event"",""trial"",""time""
""fullscreenenter"",""1"",""3369""
","
","
","""event"",""trial"",""time""
""fullscreenenter"",""1"",""3369""
","
","","[{""page_index"":0,""viewing_time"":2509}]","2510","","","","","","","","","","","","","","","","","","","","","","","",""
"pit-instructions","7","118765","0.0-2.0-3.0","battery-v0.2","","""event"",""trial"",""time""
""fullscreenenter"",""1"",""3369""
","
","
","""event"",""trial"",""time""
""fullscreenenter"",""1"",""3369""
","
","","[{""page_index"":0,""viewing_time"":8793.999999999996},{""page_index"":1,""viewing_time"":7434},{""page_index"":2,""viewing_time"":7283},{""page_index"":3,""viewing_time"":5118},{""page_index"":4,""viewing_time"":5768},{""page_index"":5,""viewing_time"":5400},{""page_index"":6,""viewing_time"":7101},{""page_index"":7,""viewing_time"":6649},{""page_index"":8,""viewing_time"":7535},{""page_index"":9,""viewing_time"":8598.000000000015},{""page_index"":10,""viewing_time"":8336.999999999985},{""page_index"":11,""viewing_time"":7380.000000000015},{""page_index"":12,""viewing_time"":6816.999999999985},{""page_index"":13,""viewing_time"":7117}]","99332","","","","","","","","","","","","","","","","","","","","","","","",""
"pit-trial","8","122477","0.0-2.0-4.0-0.0","battery-v0.2","","""event"",""trial"",""time""
""fullscreenenter"",""1"",""3369""
","
","
","""event"",""trial"",""time""
""fullscreenenter"",""1"",""3369""
","
","","","853","","","19","10100","4764","&#9784;","elianto","#FFFFF080"," "," ","1","&#10004","[1703.0000000000146]","1","0","0","","","","","","","",""
"pit-trial","9","126164","0.0-2.0-4.1-0.1","battery-v0.2","","""event"",""trial"",""time""
""fullscreenenter"",""1"",""3369""
","
","
","""event"",""trial"",""time""
""fullscreenenter"",""1"",""3369""
","
","","","829","","","19","10100","4764","&#9784;","elianto","#FFFFF080"," "," ","1","&#10004","[1678.9999999999854]","1","0","0","","","","","","","",""
"pit-trial","10","129758","0.0-2.0-4.2-0.2","battery-v0.2","","""event"",""trial"",""time""
""fullscreenenter"",""1"",""3369""
","
","
","""event"",""trial"",""time""
""fullscreenenter"",""1"",""3369""
","
","","","734.9999999999854","","","19","10100","4764","&#9784;","elianto","#FFFFF080"," "," ","1","&#10004","[1586]","1","0","0","","","","","","","",""
"pit-trial","11","133200","0.0-2.0-4.3-0.3","battery-v0.2","","""event"",""trial"",""time""
""fullscreenenter"",""1"",""3369""
","
","
","""event"",""trial"",""time""
""fullscreenenter"",""1"",""3369""
","
","","","584","","","19","10100","4764","&#9784;","elianto","#FFFFF080"," "," ","1","&#10004","[1434]","1","0","0","","","","","","","",""
"pit-trial","12","136614","0.0-2.0-4.4-0.4","battery-v0.2","","""event"",""trial"",""time""
""fullscreenenter"",""1"",""3369""
","
","
","""event"",""trial"",""time""
""fullscreenenter"",""1"",""3369""
","
","","","555","","","19","10100","4764","&#9784;","elianto","#FFFFF080"," "," ","1","&#10004","[1406]","1","0","0","","","","","","","",""
"pit-instructions","13","159665","0.0-2.0-5.0","battery-v0.2","","""event"",""trial"",""time""
""fullscreenenter"",""1"",""3369""
","
","
","""event"",""trial"",""time""
""fullscreenenter"",""1"",""3369""
","
","","[{""page_index"":0,""viewing_time"":6313},{""page_index"":1,""viewing_time"":6230.000000000029},{""page_index"":2,""viewing_time"":5316.999999999971},{""page_index"":3,""viewing_time"":5184}]","23045","","","","","","","","","","","","","","","","","","","","","","","",""
"pit-trial","14","164523","0.0-2.0-6.0-0.0","battery-v0.2","","""event"",""trial"",""time""
""fullscreenenter"",""1"",""3369""
","
","
","""event"",""trial"",""time""
""fullscreenenter"",""1"",""3369""
","
","","","-1","","","19","10100","4764","&#9854;","elianto","#FFFFF080","-1","-1","1","&#10004","[]","0","0","1","","","","","","","",""
"pit-trial","15","169382","0.0-2.0-6.1-0.1","battery-v0.2","","""event"",""trial"",""time""
""fullscreenenter"",""1"",""3369""
","
","
","""event"",""trial"",""time""
""fullscreenenter"",""1"",""3369""
","
","","","-1","","","19","10100","4764","&#9854;","elianto","#FFFFF080","-1","-1","1","&#10004","[]","0","0","1","","","","","","","",""
"pit-trial","16","174241","0.0-2.0-6.2-0.2","battery-v0.2","","""event"",""trial"",""time""
""fullscreenenter"",""1"",""3369""
","
","
","""event"",""trial"",""time""
""fullscreenenter"",""1"",""3369""
","
","","","-1","","","19","10100","4764","&#9854;","elianto","#FFFFF080","-1","-1","1","&#10004","[]","0","0","1","","","","","","","",""
"pit-trial","17","179100","0.0-2.0-6.3-0.3","battery-v0.2","","""event"",""trial"",""time""
""fullscreenenter"",""1"",""3369""
","
","
","""event"",""trial"",""time""
""fullscreenenter"",""1"",""3369""
","
","","","-1","","","19","10100","4764","&#9854;","elianto","#FFFFF080","-1","-1","1","&#10004","[]","0","0","1","","","","","","","",""
"pit-trial","18","183961","0.0-2.0-6.4-0.4","battery-v0.2","","""event"",""trial"",""time""
""fullscreenenter"",""1"",""3369""
","
","
","""event"",""trial"",""time""
""fullscreenenter"",""1"",""3369""
","
","","","-1","","","19","10100","4764","&#9854;","elianto","#FFFFF080","-1","-1","1","&#10004","[]","0","0","1","","","","","","","",""
"pit-instructions","19","303133","0.0-2.0-7.0","battery-v0.2","","""event"",""trial"",""time""
""fullscreenenter"",""1"",""3369""
","
","
","""event"",""trial"",""time""
""fullscreenenter"",""1"",""3369""
","
","","[{""page_index"":0,""viewing_time"":6145},{""page_index"":1,""viewing_time"":6635},{""page_index"":2,""viewing_time"":6067},{""page_index"":3,""viewing_time"":6950},{""page_index"":4,""viewing_time"":5517},{""page_index"":5,""viewing_time"":5369},{""page_index"":6,""viewing_time"":4498},{""page_index"":7,""viewing_time"":7750},{""page_index"":8,""viewing_time"":7052},{""page_index"":9,""viewing_time"":6250},{""page_index"":10,""viewing_time"":6216},{""page_index"":11,""viewing_time"":4303.999999999971},{""page_index"":12,""viewing_time"":6862.000000000029},{""page_index"":13,""viewing_time"":7468},{""page_index"":14,""viewing_time"":7466.000000000058},{""page_index"":15,""viewing_time"":7083.999999999942},{""page_index"":16,""viewing_time"":8083},{""page_index"":17,""viewing_time"":9451}]","119168","","","","","","","","","","","","","","","","","","","","","","","",""
"pit-trial","20","307526","0.0-2.0-8.0-0.0","battery-v0.2","","""event"",""trial"",""time""
""fullscreenenter"",""1"",""3369""
","
","
","""event"",""trial"",""time""
""fullscreenenter"",""1"",""3369""
","
","","","1535","","","19","10100","4764","&#9776;","elianto","#3366ff99"," "," ","1","+10","[2386]","1","0","1","","","","","","","",""
"pit-trial","21","311245","0.0-2.0-8.0-1.0","battery-v0.2","","""event"",""trial"",""time""
""fullscreenenter"",""1"",""3369""
","
","
","""event"",""trial"",""time""
""fullscreenenter"",""1"",""3369""
","
","","","860","","","19","10100","4764","&#9776;","elianto","#3366ff99"," "," ","1","+10","[1710]","1","0","1","","","","","","","",""
"pit-trial","22","314785","0.0-2.0-8.0-2.0","battery-v0.2","","""event"",""trial"",""time""
""fullscreenenter"",""1"",""3369""
","
","
","""event"",""trial"",""time""
""fullscreenenter"",""1"",""3369""
","
","","","683","","","19","10100","4764","&#9776;","elianto","#3366ff99"," "," ","1","+10","[1533]","1","0","1","","","","","","","",""
"pit-trial","23","318234","0.0-2.0-8.0-3.0","battery-v0.2","","""event"",""trial"",""time""
""fullscreenenter"",""1"",""3369""
","
","
","""event"",""trial"",""time""
""fullscreenenter"",""1"",""3369""
","
","","","591","","","19","10100","4764","&#9776;","elianto","#3366ff99"," "," ","1","0","[1442]","1","0","1","","","","","","","",""
"pit-trial","24","321785","0.0-2.0-8.0-4.0","battery-v0.2","","""event"",""trial"",""time""
""fullscreenenter"",""1"",""3369""
","
","
","""event"",""trial"",""time""
""fullscreenenter"",""1"",""3369""
","
","","","692","","","19","10100","4764","&#9776;","elianto","#3366ff99"," "," ","1","+10","[1543]","1","0","1","","","","","","","",""
"pit-trial","25","325200","0.0-2.0-8.1-0.1","battery-v0.2","","""event"",""trial"",""time""
""fullscreenenter"",""1"",""3369""
","
","
","""event"",""trial"",""time""
""fullscreenenter"",""1"",""3369""
","
","","","555","","","19","10100","4764","&#9776;","elianto","#3366ff99"," "," ","1","+10","[1405.9999999999418]","1","0","1","","","","","","","",""
"pit-trial","26","328603","0.0-2.0-8.1-1.1","battery-v0.2","","""event"",""trial"",""time""
""fullscreenenter"",""1"",""3369""
","
","
","""event"",""trial"",""time""
""fullscreenenter"",""1"",""3369""
","
","","","545.0000000000582","","","19","10100","4764","&#9776;","elianto","#3366ff99"," "," ","1","+10","[1396.0000000000582]","1","0","1","","","","","","","",""
"pit-trial","27","331942","0.0-2.0-8.1-2.1","battery-v0.2","","""event"",""trial"",""time""
""fullscreenenter"",""1"",""3369""
","
","
","""event"",""trial"",""time""
""fullscreenenter"",""1"",""3369""
","
","","","480.0000000000582","","","19","10100","4764","&#9776;","elianto","#3366ff99"," "," ","1","+10","[1331.0000000000582]","1","0","1","","","","","","","",""
"pit-trial","28","335315","0.0-2.0-8.1-3.1","battery-v0.2","","""event"",""trial"",""time""
""fullscreenenter"",""1"",""3369""
","
","
","""event"",""trial"",""time""
""fullscreenenter"",""1"",""3369""
","
","","","515.9999999999418","","","19","10100","4764","&#9776;","elianto","#3366ff99"," "," ","1","0","[1365]","1","0","1","","","","","","","",""
"pit-trial","29","338653","0.0-2.0-8.1-4.1","battery-v0.2","","""event"",""trial"",""time""
""fullscreenenter"",""1"",""3369""
","
","
","""event"",""trial"",""time""
""fullscreenenter"",""1"",""3369""
","
","","","479","","","19","10100","4764","&#9776;","elianto","#3366ff99"," "," ","1","+10","[1330]","1","0","1","","","","","","","",""
"pit-trial","30","342139","0.0-2.0-8.2-0.2","battery-v0.2","","""event"",""trial"",""time""
""fullscreenenter"",""1"",""3369""
","
","
","""event"",""trial"",""time""
""fullscreenenter"",""1"",""3369""
","
","","","628.0000000000582","","","19","10100","4764","&#9776;","elianto","#3366ff99"," "," ","1","+10","[1479.0000000000582]","1","0","1","","","","","","","",""
"pit-trial","31","345482","0.0-2.0-8.2-1.2","battery-v0.2","","""event"",""trial"",""time""
""fullscreenenter"",""1"",""3369""
","
","
","""event"",""trial"",""time""
""fullscreenenter"",""1"",""3369""
","
","","","484","","","19","10100","4764","&#9776;","elianto","#3366ff99"," "," ","1","+10","[1335]","1","0","1","","","","","","","",""
"pit-trial","32","349148","0.0-2.0-8.2-2.2","battery-v0.2","","""event"",""trial"",""time""
""fullscreenenter"",""1"",""3369""
","
","
","""event"",""trial"",""time""
""fullscreenenter"",""1"",""3369""
","
","","","804","","","19","10100","4764","&#9776;","elianto","#3366ff99"," "," ","1","+10","[1655]","1","0","1","","","","","","","",""
"pit-trial","33","352520","0.0-2.0-8.2-3.2","battery-v0.2","","""event"",""trial"",""time""
""fullscreenenter"",""1"",""3369""
","
","
","""event"",""trial"",""time""
""fullscreenenter"",""1"",""3369""
","
","","","513","","","19","10100","4764","&#9776;","elianto","#3366ff99"," "," ","1","0","[1363.9999999999418]","1","0","1","","","","","","","",""
"pit-trial","34","355918","0.0-2.0-8.2-4.2","battery-v0.2","","""event"",""trial"",""time""
""fullscreenenter"",""1"",""3369""
","
","
","""event"",""trial"",""time""
""fullscreenenter"",""1"",""3369""
","
","","","539.0000000000582","","","19","10100","4764","&#9776;","elianto","#3366ff99"," "," ","1","+10","[1390.0000000000582]","1","0","1","","","","","","","",""
"call-function","35","355923","0.0-2.0-9.0","battery-v0.2","","""event"",""trial"",""time""
""fullscreenenter"",""1"",""3369""
","
","
","""event"",""trial"",""time""
""fullscreenenter"",""1"",""3369""
","
","","","","","","","","","","","","","","","","","","","","","","","","","","",""
"pit-instructions","36","396798","0.0-2.0-10.0","battery-v0.2","","""event"",""trial"",""time""
""fullscreenenter"",""1"",""3369""
","
","
","""event"",""trial"",""time""
""fullscreenenter"",""1"",""3369""
","
","","[{""page_index"":0,""viewing_time"":5857},{""page_index"":1,""viewing_time"":7050},{""page_index"":2,""viewing_time"":11386},{""page_index"":3,""viewing_time"":9065},{""page_index"":4,""viewing_time"":7517}]","40876","","","","","","","","","","","","","","","","","","","","","","","",""
"pit-trial","37","400444","0.0-2.0-11.0-0.0","battery-v0.2","","""event"",""trial"",""time""
""fullscreenenter"",""1"",""3369""
","
","
","""event"",""trial"",""time""
""fullscreenenter"",""1"",""3369""
","
","","","789","","","19","10100","4764","&#9761;","elianto","#3366ff99","-1"," ","0","0","[1640]","1","0","2","","","","","","","",""
"pit-trial","38","404425","0.0-2.0-11.0-1.0","battery-v0.2","","""event"",""trial"",""time""
""fullscreenenter"",""1"",""3369""
","
","
","""event"",""trial"",""time""
""fullscreenenter"",""1"",""3369""
","
","","","1124","","","19","10100","4764","&#9761;","elianto","#3366ff99","-1"," ","0","0","[1972.9999999999418]","1","0","2","","","","","","","",""
"pit-trial","39","407927","0.0-2.0-11.0-2.0","battery-v0.2","","""event"",""trial"",""time""
""fullscreenenter"",""1"",""3369""
","
","
","""event"",""trial"",""time""
""fullscreenenter"",""1"",""3369""
","
","","","645.0000000000582","","","19","10100","4764","&#9761;","elianto","#3366ff99","-1"," ","0","0","[1494]","1","0","2","","","","","","","",""
"pit-trial","40","412785","0.0-2.0-11.0-3.0","battery-v0.2","","""event"",""trial"",""time""
""fullscreenenter"",""1"",""3369""
","
","
","""event"",""trial"",""time""
""fullscreenenter"",""1"",""3369""
","
","","","-1","","","19","10100","4764","&#9761;","elianto","#3366ff99","-1","-1","1","0","[]","0","0","2","","","","","","","",""
"pit-trial","41","417644","0.0-2.0-11.0-4.0","battery-v0.2","","""event"",""trial"",""time""
""fullscreenenter"",""1"",""3369""
","
","
","""event"",""trial"",""time""
""fullscreenenter"",""1"",""3369""
","
","","","-1","","","19","10100","4764","&#9761;","elianto","#3366ff99","-1","-1","1","+10","[]","0","0","2","","","","","","","",""
"pit-trial","42","422505","0.0-2.0-11.1-0.1","battery-v0.2","","""event"",""trial"",""time""
""fullscreenenter"",""1"",""3369""
","
","
","""event"",""trial"",""time""
""fullscreenenter"",""1"",""3369""
","
","","","-1","","","19","10100","4764","&#9761;","elianto","#3366ff99","-1","-1","1","+10","[]","0","0","2","","","","","","","",""
"pit-trial","43","427363","0.0-2.0-11.1-1.1","battery-v0.2","","""event"",""trial"",""time""
""fullscreenenter"",""1"",""3369""
","
","
","""event"",""trial"",""time""
""fullscreenenter"",""1"",""3369""
","
","","","-1","","","19","10100","4764","&#9761;","elianto","#3366ff99","-1","-1","1","+10","[]","0","0","2","","","","","","","",""
"pit-trial","44","432221","0.0-2.0-11.1-2.1","battery-v0.2","","""event"",""trial"",""time""
""fullscreenenter"",""1"",""3369""
","
","
","""event"",""trial"",""time""
""fullscreenenter"",""1"",""3369""
","
","","","-1","","","19","10100","4764","&#9761;","elianto","#3366ff99","-1","-1","1","+10","[]","0","0","2","","","","","","","",""
"pit-trial","45","437080","0.0-2.0-11.1-3.1","battery-v0.2","","""event"",""trial"",""time""
""fullscreenenter"",""1"",""3369""
","
","
","""event"",""trial"",""time""
""fullscreenenter"",""1"",""3369""
","
","","","-1","","","19","10100","4764","&#9761;","elianto","#3366ff99","-1","-1","1","0","[]","0","0","2","","","","","","","",""
"pit-trial","46","441939","0.0-2.0-11.1-4.1","battery-v0.2","","""event"",""trial"",""time""
""fullscreenenter"",""1"",""3369""
","
","
","""event"",""trial"",""time""
""fullscreenenter"",""1"",""3369""
","
","","","-1","","","19","10100","4764","&#9761;","elianto","#3366ff99","-1","-1","1","+10","[]","0","0","2","","","","","","","",""
"pit-trial","47","446798","0.0-2.0-11.2-0.2","battery-v0.2","","""event"",""trial"",""time""
""fullscreenenter"",""1"",""3369""
","
","
","""event"",""trial"",""time""
""fullscreenenter"",""1"",""3369""
","
","","","-1","","","19","10100","4764","&#9761;","elianto","#3366ff99","-1","-1","1","+10","[]","0","0","2","","","","","","","",""
"pit-trial","48","451657","0.0-2.0-11.2-1.2","battery-v0.2","","""event"",""trial"",""time""
""fullscreenenter"",""1"",""3369""
","
","
","""event"",""trial"",""time""
""fullscreenenter"",""1"",""3369""
","
","","","-1","","","19","10100","4764","&#9761;","elianto","#3366ff99","-1","-1","1","+10","[]","0","0","2","","","","","","","",""
"pit-trial","49","456516","0.0-2.0-11.2-2.2","battery-v0.2","","""event"",""trial"",""time""
""fullscreenenter"",""1"",""3369""
","
","
","""event"",""trial"",""time""
""fullscreenenter"",""1"",""3369""
","
","","","-1","","","19","10100","4764","&#9761;","elianto","#3366ff99","-1","-1","1","+10","[]","0","0","2","","","","","","","",""
"pit-trial","50","461375","0.0-2.0-11.2-3.2","battery-v0.2","","""event"",""trial"",""time""
""fullscreenenter"",""1"",""3369""
","
","
","""event"",""trial"",""time""
""fullscreenenter"",""1"",""3369""
","
","","","-1","","","19","10100","4764","&#9761;","elianto","#3366ff99","-1","-1","1","0","[]","0","0","2","","","","","","","",""
"pit-trial","51","466234","0.0-2.0-11.2-4.2","battery-v0.2","","""event"",""trial"",""time""
""fullscreenenter"",""1"",""3369""
","
","
","""event"",""trial"",""time""
""fullscreenenter"",""1"",""3369""
","
","","","-1","","","19","10100","4764","&#9761;","elianto","#3366ff99","-1","-1","1","+10","[]","0","0","2","","","","","","","",""
"pit-trial","52","471093","0.0-2.0-11.3-0.3","battery-v0.2","","""event"",""trial"",""time""
""fullscreenenter"",""1"",""3369""
","
","
","""event"",""trial"",""time""
""fullscreenenter"",""1"",""3369""
","
","","","-1","","","19","10100","4764","&#9761;","elianto","#3366ff99","-1","-1","1","+10","[]","0","0","2","","","","","","","",""
"pit-trial","53","475952","0.0-2.0-11.3-1.3","battery-v0.2","","""event"",""trial"",""time""
""fullscreenenter"",""1"",""3369""
","
","
","""event"",""trial"",""time""
""fullscreenenter"",""1"",""3369""
","
","","","-1","","","19","10100","4764","&#9761;","elianto","#3366ff99","-1","-1","1","+10","[]","0","0","2","","","","","","","",""
"pit-trial","54","480811","0.0-2.0-11.3-2.3","battery-v0.2","","""event"",""trial"",""time""
""fullscreenenter"",""1"",""3369""
","
","
","""event"",""trial"",""time""
""fullscreenenter"",""1"",""3369""
","
","","","-1","","","19","10100","4764","&#9761;","elianto","#3366ff99","-1","-1","1","+10","[]","0","0","2","","","","","","","",""
"pit-trial","55","485669","0.0-2.0-11.3-3.3","battery-v0.2","","""event"",""trial"",""time""
""fullscreenenter"",""1"",""3369""
","
","
","""event"",""trial"",""time""
""fullscreenenter"",""1"",""3369""
","
","","","-1","","","19","10100","4764","&#9761;","elianto","#3366ff99","-1","-1","1","0","[]","0","0","2","","","","","","","",""
"pit-trial","56","490528","0.0-2.0-11.3-4.3","battery-v0.2","","""event"",""trial"",""time""
""fullscreenenter"",""1"",""3369""
","
","
","""event"",""trial"",""time""
""fullscreenenter"",""1"",""3369""
","
","","","-1","","","19","10100","4764","&#9761;","elianto","#3366ff99","-1","-1","1","+10","[]","0","0","2","","","","","","","",""
"call-function","57","490533","0.0-2.0-12.0","battery-v0.2","","""event"",""trial"",""time""
""fullscreenenter"",""1"",""3369""
","
","
","""event"",""trial"",""time""
""fullscreenenter"",""1"",""3369""
","
","","","","","","","","","","","","","","","","","","","","","","","","","","",""
"pit-instructions","58","523400","0.0-2.0-13.0","battery-v0.2","","""event"",""trial"",""time""
""fullscreenenter"",""1"",""3369""
","
","
","""event"",""trial"",""time""
""fullscreenenter"",""1"",""3369""
","
","","[{""page_index"":0,""viewing_time"":4866},{""page_index"":1,""viewing_time"":7950},{""page_index"":2,""viewing_time"":3183},{""page_index"":3,""viewing_time"":10619},{""page_index"":4,""viewing_time"":6249}]","32868","","","","","","","","","","","","","","","","","","","","","","","",""
"pit-trial","59","527200","0.0-2.0-14.0-0.0","battery-v0.2","","""event"",""trial"",""time""
""fullscreenenter"",""1"",""3369""
","
","
","""event"",""trial"",""time""
""fullscreenenter"",""1"",""3369""
","
","","","943","","","19","10100","4764","&#9826;","elianto","#f73b6a7A","-1"," ","0","-10","[1794]","1","0","3","","","","","","","",""
"pit-trial","60","532059","0.0-2.0-14.0-1.0","battery-v0.2","","""event"",""trial"",""time""
""fullscreenenter"",""1"",""3369""
","
","
","""event"",""trial"",""time""
""fullscreenenter"",""1"",""3369""
","
","","","-1","","","19","10100","4764","&#9826;","elianto","#f73b6a7A","-1","-1","1","0","[]","0","0","3","","","","","","","",""
"pit-trial","61","536918","0.0-2.0-14.0-2.0","battery-v0.2","","""event"",""trial"",""time""
""fullscreenenter"",""1"",""3369""
","
","
","""event"",""trial"",""time""
""fullscreenenter"",""1"",""3369""
","
","","","-1","","","19","10100","4764","&#9826;","elianto","#f73b6a7A","-1","-1","1","0","[]","0","0","3","","","","","","","",""
"pit-trial","62","541776","0.0-2.0-14.0-3.0","battery-v0.2","","""event"",""trial"",""time""
""fullscreenenter"",""1"",""3369""
","
","
","""event"",""trial"",""time""
""fullscreenenter"",""1"",""3369""
","
","","","-1","","","19","10100","4764","&#9826;","elianto","#f73b6a7A","-1","-1","1","-10","[]","0","0","3","","","","","","","",""
"pit-trial","63","546635","0.0-2.0-14.0-4.0","battery-v0.2","","""event"",""trial"",""time""
""fullscreenenter"",""1"",""3369""
","
","
","""event"",""trial"",""time""
""fullscreenenter"",""1"",""3369""
","
","","","-1","","","19","10100","4764","&#9826;","elianto","#f73b6a7A","-1","-1","1","0","[]","0","0","3","","","","","","","",""
"pit-trial","64","551494","0.0-2.0-14.1-0.1","battery-v0.2","","""event"",""trial"",""time""
""fullscreenenter"",""1"",""3369""
","
","
","""event"",""trial"",""time""
""fullscreenenter"",""1"",""3369""
","
","","","-1","","","19","10100","4764","&#9826;","elianto","#f73b6a7A","-1","-1","1","0","[]","0","0","3","","","","","","","",""
"pit-trial","65","556352","0.0-2.0-14.1-1.1","battery-v0.2","","""event"",""trial"",""time""
""fullscreenenter"",""1"",""3369""
","
","
","""event"",""trial"",""time""
""fullscreenenter"",""1"",""3369""
","
","","","-1","","","19","10100","4764","&#9826;","elianto","#f73b6a7A","-1","-1","1","0","[]","0","0","3","","","","","","","",""
"pit-trial","66","561210","0.0-2.0-14.1-2.1","battery-v0.2","","""event"",""trial"",""time""
""fullscreenenter"",""1"",""3369""
","
","
","""event"",""trial"",""time""
""fullscreenenter"",""1"",""3369""
","
","","","-1","","","19","10100","4764","&#9826;","elianto","#f73b6a7A","-1","-1","1","0","[]","0","0","3","","","","","","","",""
"pit-trial","67","566070","0.0-2.0-14.1-3.1","battery-v0.2","","""event"",""trial"",""time""
""fullscreenenter"",""1"",""3369""
","
","
","""event"",""trial"",""time""
""fullscreenenter"",""1"",""3369""
","
","","","-1","","","19","10100","4764","&#9826;","elianto","#f73b6a7A","-1","-1","1","-10","[]","0","0","3","","","","","","","",""
"pit-trial","68","570928","0.0-2.0-14.1-4.1","battery-v0.2","","""event"",""trial"",""time""
""fullscreenenter"",""1"",""3369""
","
","
","""event"",""trial"",""time""
""fullscreenenter"",""1"",""3369""
","
","","","-1","","","19","10100","4764","&#9826;","elianto","#f73b6a7A","-1","-1","1","0","[]","0","0","3","","","","","","","",""
"pit-trial","69","575787","0.0-2.0-14.2-0.2","battery-v0.2","","""event"",""trial"",""time""
""fullscreenenter"",""1"",""3369""
","
","
","""event"",""trial"",""time""
""fullscreenenter"",""1"",""3369""
","
","","","-1","","","19","10100","4764","&#9826;","elianto","#f73b6a7A","-1","-1","1","0","[]","0","0","3","","","","","","","",""
"pit-trial","70","580645","0.0-2.0-14.2-1.2","battery-v0.2","","""event"",""trial"",""time""
""fullscreenenter"",""1"",""3369""
","
","
","""event"",""trial"",""time""
""fullscreenenter"",""1"",""3369""
","
","","","-1","","","19","10100","4764","&#9826;","elianto","#f73b6a7A","-1","-1","1","0","[]","0","0","3","","","","","","","",""
"pit-trial","71","585503","0.0-2.0-14.2-2.2","battery-v0.2","","""event"",""trial"",""time""
""fullscreenenter"",""1"",""3369""
","
","
","""event"",""trial"",""time""
""fullscreenenter"",""1"",""3369""
","
","","","-1","","","19","10100","4764","&#9826;","elianto","#f73b6a7A","-1","-1","1","0","[]","0","0","3","","","","","","","",""
"pit-trial","72","590358","0.0-2.0-14.2-3.2","battery-v0.2","","""event"",""trial"",""time""
""fullscreenenter"",""1"",""3369""
","
","
","""event"",""trial"",""time""
""fullscreenenter"",""1"",""3369""
","
","","","-1","","","19","10100","4764","&#9826;","elianto","#f73b6a7A","-1","-1","1","-10","[]","0","0","3","","","","","","","",""
"pit-trial","73","595216","0.0-2.0-14.2-4.2","battery-v0.2","","""event"",""trial"",""time""
""fullscreenenter"",""1"",""3369""
","
","
","""event"",""trial"",""time""
""fullscreenenter"",""1"",""3369""
","
","","","-1","","","19","10100","4764","&#9826;","elianto","#f73b6a7A","-1","-1","1","0","[]","0","0","3","","","","","","","",""
"pit-trial","74","600075","0.0-2.0-14.3-0.3","battery-v0.2","","""event"",""trial"",""time""
""fullscreenenter"",""1"",""3369""
","
","
","""event"",""trial"",""time""
""fullscreenenter"",""1"",""3369""
","
","","","-1","","","19","10100","4764","&#9826;","elianto","#f73b6a7A","-1","-1","1","0","[]","0","0","3","","","","","","","",""
"pit-trial","75","604933","0.0-2.0-14.3-1.3","battery-v0.2","","""event"",""trial"",""time""
""fullscreenenter"",""1"",""3369""
","
","
","""event"",""trial"",""time""
""fullscreenenter"",""1"",""3369""
","
","","","-1","","","19","10100","4764","&#9826;","elianto","#f73b6a7A","-1","-1","1","0","[]","0","0","3","","","","","","","",""
"pit-trial","76","609791","0.0-2.0-14.3-2.3","battery-v0.2","","""event"",""trial"",""time""
""fullscreenenter"",""1"",""3369""
","
","
","""event"",""trial"",""time""
""fullscreenenter"",""1"",""3369""
","
","","","-1","","","19","10100","4764","&#9826;","elianto","#f73b6a7A","-1","-1","1","0","[]","0","0","3","","","","","","","",""
"pit-trial","77","614650","0.0-2.0-14.3-3.3","battery-v0.2","","""event"",""trial"",""time""
""fullscreenenter"",""1"",""3369""
","
","
","""event"",""trial"",""time""
""fullscreenenter"",""1"",""3369""
","
","","","-1","","","19","10100","4764","&#9826;","elianto","#f73b6a7A","-1","-1","1","-10","[]","0","0","3","","","","","","","",""
"pit-trial","78","619509","0.0-2.0-14.3-4.3","battery-v0.2","","""event"",""trial"",""time""
""fullscreenenter"",""1"",""3369""
","
","
","""event"",""trial"",""time""
""fullscreenenter"",""1"",""3369""
","
","","","-1","","","19","10100","4764","&#9826;","elianto","#f73b6a7A","-1","-1","1","0","[]","0","0","3","","","","","","","",""
"call-function","79","619514","0.0-2.0-15.0","battery-v0.2","","""event"",""trial"",""time""
""fullscreenenter"",""1"",""3369""
","
","
","""event"",""trial"",""time""
""fullscreenenter"",""1"",""3369""
","
","","","","","","","","","","","","","","","","","","","","","","","","","","",""
"pit-instructions","80","650699","0.0-2.0-16.0","battery-v0.2","","""event"",""trial"",""time""
""fullscreenenter"",""1"",""3369""
","
","
","""event"",""trial"",""time""
""fullscreenenter"",""1"",""3369""
","
","","[{""page_index"":0,""viewing_time"":10383.999999999884},{""page_index"":1,""viewing_time"":8585},{""page_index"":2,""viewing_time"":5515},{""page_index"":3,""viewing_time"":6701}]","31185.999999999884","","","","","","","","","","","","","","","","","","","","","","","",""
"pit-trial","81","654638","0.0-2.0-17.0-0.0","battery-v0.2","","""event"",""trial"",""time""
""fullscreenenter"",""1"",""3369""
","
","
","""event"",""trial"",""time""
""fullscreenenter"",""1"",""3369""
","
","","","1082","","","19","10100","4764","&#9789;","elianto","#f73b6a7A"," "," ","1","0","[1931]","1","0","4","","","","","","","",""
"pit-trial","82","659497","0.0-2.0-17.0-1.0","battery-v0.2","","""event"",""trial"",""time""
""fullscreenenter"",""1"",""3369""
","
","
","""event"",""trial"",""time""
""fullscreenenter"",""1"",""3369""
","
","","","-1","","","19","10100","4764","&#9789;","elianto","#f73b6a7A"," ","-1","0","-10","[]","0","0","4","","","","","","","",""
"pit-trial","83","662770","0.0-2.0-17.0-2.0","battery-v0.2","","""event"",""trial"",""time""
""fullscreenenter"",""1"",""3369""
","
","
","""event"",""trial"",""time""
""fullscreenenter"",""1"",""3369""
","
","","","415.0000000001164","","","19","10100","4764","&#9789;","elianto","#f73b6a7A"," "," ","1","0","[1266.0000000001164]","1","0","4","","","","","","","",""
"pit-trial","84","666168","0.0-2.0-17.0-3.0","battery-v0.2","","""event"",""trial"",""time""
""fullscreenenter"",""1"",""3369""
","
","
","""event"",""trial"",""time""
""fullscreenenter"",""1"",""3369""
","
","","","536","","","19","10100","4764","&#9789;","elianto","#f73b6a7A"," "," ","1","-10","[1388]","1","0","4","","","","","","","",""
"pit-trial","85","669519","0.0-2.0-17.0-4.0","battery-v0.2","","""event"",""trial"",""time""
""fullscreenenter"",""1"",""3369""
","
","
","""event"",""trial"",""time""
""fullscreenenter"",""1"",""3369""
","
","","","493","","","19","10100","4764","&#9789;","elianto","#f73b6a7A"," "," ","1","0","[1344,2976]","2","0","4","","","","","","","",""
"pit-trial","86","672918","0.0-2.0-17.1-0.1","battery-v0.2","","""event"",""trial"",""time""
""fullscreenenter"",""1"",""3369""
","
","
","""event"",""trial"",""time""
""fullscreenenter"",""1"",""3369""
","
","","","539","","","19","10100","4764","&#9789;","elianto","#f73b6a7A"," "," ","1","0","[1390]","1","0","4","","","","","","","",""
"pit-trial","87","676199","0.0-2.0-17.1-1.1","battery-v0.2","","""event"",""trial"",""time""
""fullscreenenter"",""1"",""3369""
","
","
","""event"",""trial"",""time""
""fullscreenenter"",""1"",""3369""
","
","","","423","","","19","10100","4764","&#9789;","elianto","#f73b6a7A"," "," ","1","0","[1274]","1","0","4","","","","","","","",""
"pit-trial","88","679500","0.0-2.0-17.1-2.1","battery-v0.2","","""event"",""trial"",""time""
""fullscreenenter"",""1"",""3369""
","
","
","""event"",""trial"",""time""
""fullscreenenter"",""1"",""3369""
","
","","","443","","","19","10100","4764","&#9789;","elianto","#f73b6a7A"," "," ","1","0","[1294]","1","0","4","","","","","","","",""
"pit-trial","89","682840","0.0-2.0-17.1-3.1","battery-v0.2","","""event"",""trial"",""time""
""fullscreenenter"",""1"",""3369""
","
","
","""event"",""trial"",""time""
""fullscreenenter"",""1"",""3369""
","
","","","482","","","19","10100","4764","&#9789;","elianto","#f73b6a7A"," "," ","1","-10","[1333]","1","0","4","","","","","","","",""
"pit-trial","90","686208","0.0-2.0-17.1-4.1","battery-v0.2","","""event"",""trial"",""time""
""fullscreenenter"",""1"",""3369""
","
","
","""event"",""trial"",""time""
""fullscreenenter"",""1"",""3369""
","
","","","509","","","19","10100","4764","&#9789;","elianto","#f73b6a7A"," "," ","1","0","[1361]","1","0","4","","","","","","","",""
"pit-trial","91","689443","0.0-2.0-17.2-0.2","battery-v0.2","","""event"",""trial"",""time""
""fullscreenenter"",""1"",""3369""
","
","
","""event"",""trial"",""time""
""fullscreenenter"",""1"",""3369""
","
","","","375.9999999998836","","","19","10100","4764","&#9789;","elianto","#f73b6a7A"," "," ","1","0","[117.99999999988358,1226.9999999998836]","2","0","4","","","","","","","",""
"pit-trial","92","692764","0.0-2.0-17.2-1.2","battery-v0.2","","""event"",""trial"",""time""
""fullscreenenter"",""1"",""3369""
","
","
","""event"",""trial"",""time""
""fullscreenenter"",""1"",""3369""
","
","","","463","","","19","10100","4764","&#9789;","elianto","#f73b6a7A"," "," ","1","0","[1313]","1","0","4","","","","","","","",""
"pit-trial","93","696198","0.0-2.0-17.2-2.2","battery-v0.2","","""event"",""trial"",""time""
""fullscreenenter"",""1"",""3369""
","
","
","""event"",""trial"",""time""
""fullscreenenter"",""1"",""3369""
","
","","","576","","","19","10100","4764","&#9789;","elianto","#f73b6a7A"," "," ","1","0","[1427]","1","0","4","","","","","","","",""
"pit-trial","94","699469","0.0-2.0-17.2-3.2","battery-v0.2","","""event"",""trial"",""time""
""fullscreenenter"",""1"",""3369""
","
","
","""event"",""trial"",""time""
""fullscreenenter"",""1"",""3369""
","
","","","413","","","19","10100","4764","&#9789;","elianto","#f73b6a7A"," "," ","1","-10","[1264]","1","0","4","","","","","","","",""
"pit-trial","95","702819","0.0-2.0-17.2-4.2","battery-v0.2","","""event"",""trial"",""time""
""fullscreenenter"",""1"",""3369""
","
","
","""event"",""trial"",""time""
""fullscreenenter"",""1"",""3369""
","
","","","492","","","19","10100","4764","&#9789;","elianto","#f73b6a7A"," "," ","1","0","[1343]","1","0","4","","","","","","","",""
"pit-trial","96","706144","0.0-2.0-17.3-0.3","battery-v0.2","","""event"",""trial"",""time""
""fullscreenenter"",""1"",""3369""
","
","
","""event"",""trial"",""time""
""fullscreenenter"",""1"",""3369""
","
","","","462","","","19","10100","4764","&#9789;","elianto","#f73b6a7A"," "," ","1","0","[1315]","1","0","4","","","","","","","",""
"pit-trial","97","709386","0.0-2.0-17.3-1.3","battery-v0.2","","""event"",""trial"",""time""
""fullscreenenter"",""1"",""3369""
","
","
","""event"",""trial"",""time""
""fullscreenenter"",""1"",""3369""
","
","","","386","","","19","10100","4764","&#9789;","elianto","#f73b6a7A"," "," ","1","0","[1237]","1","0","4","","","","","","","",""
"pit-trial","98","712568","0.0-2.0-17.3-2.3","battery-v0.2","","""event"",""trial"",""time""
""fullscreenenter"",""1"",""3369""
","
","
","""event"",""trial"",""time""
""fullscreenenter"",""1"",""3369""
","
","","","328","","","19","10100","4764","&#9789;","elianto","#f73b6a7A"," "," ","1","0","[1179,2783]","2","0","4","","","","","","","",""
"pit-trial","99","715800","0.0-2.0-17.3-3.3","battery-v0.2","","""event"",""trial"",""time""
""fullscreenenter"",""1"",""3369""
","
","
","""event"",""trial"",""time""
""fullscreenenter"",""1"",""3369""
","
","","","376","","","19","10100","4764","&#9789;","elianto","#f73b6a7A"," "," ","1","-10","[1227]","1","0","4","","","","","","","",""
"pit-trial","100","718975","0.0-2.0-17.3-4.3","battery-v0.2","","""event"",""trial"",""time""
""fullscreenenter"",""1"",""3369""
","
","
","""event"",""trial"",""time""
""fullscreenenter"",""1"",""3369""
","
","","","318","","","19","10100","4764","&#9789;","elianto","#f73b6a7A"," "," ","1","0","[1169]","1","0","4","","","","","","","",""
"call-function","101","718977","0.0-2.0-18.0","battery-v0.2","","""event"",""trial"",""time""
""fullscreenenter"",""1"",""3369""
","
","
","""event"",""trial"",""time""
""fullscreenenter"",""1"",""3369""
","
","","","","","","","","","","","","","","","","","","","","","","","","","","",""
"pit-instructions","102","794834","0.0-2.0-19.0","battery-v0.2","","""event"",""trial"",""time""
""fullscreenenter"",""1"",""3369""
","
","
","""event"",""trial"",""time""
""fullscreenenter"",""1"",""3369""
","
","","[{""page_index"":0,""viewing_time"":7040},{""page_index"":1,""viewing_time"":6083},{""page_index"":2,""viewing_time"":13884},{""page_index"":3,""viewing_time"":8251},{""page_index"":4,""viewing_time"":8749},{""page_index"":5,""viewing_time"":9816},{""page_index"":6,""viewing_time"":9001},{""page_index"":7,""viewing_time"":7016},{""page_index"":8,""viewing_time"":6020}]","75860","","","","","","","","","","","","","","","","","","","","","","","",""
"pit-comprehension","103","799386","0.0-2.0-20.0-0.0","battery-v0.2","","""event"",""trial"",""time""
""fullscreenenter"",""1"",""3369""
","
","
","""event"",""trial"",""time""
""fullscreenenter"",""1"",""3369""
","
","","","4548","[""SPACE""]","0","19","10100","4764","","","","","","","","","","","","","","","","","","",""
"pit-instructions","104","801899","0.0-2.0-20.0-1.0","battery-v0.2","","""event"",""trial"",""time""
""fullscreenenter"",""1"",""3369""
","
","
","""event"",""trial"",""time""
""fullscreenenter"",""1"",""3369""
","
","","[{""page_index"":0,""viewing_time"":2488}]","2489","","","","","","","","","","","","","","","","","","","","","","","",""
"pit-comprehension","105","808036","0.0-2.0-21.0-0.0","battery-v0.2","","""event"",""trial"",""time""
""fullscreenenter"",""1"",""3369""
","
","
","""event"",""trial"",""time""
""fullscreenenter"",""1"",""3369""
","
","","","6131","[""10""]","0","19","10100","4764","","","","","","","","","","","","","","","","","","",""
"pit-instructions","106","809933","0.0-2.0-21.0-1.0","battery-v0.2","","""event"",""trial"",""time""
""fullscreenenter"",""1"",""3369""
","
","
","""event"",""trial"",""time""
""fullscreenenter"",""1"",""3369""
","
","","[{""page_index"":0,""viewing_time"":1871.9999999998836}]","1872.9999999998836","","","","","","","","","","","","","","","","","","","","","","","",""
"pit-comprehension","107","816534","0.0-2.0-22.0-0.0","battery-v0.2","","""event"",""trial"",""time""
""fullscreenenter"",""1"",""3369""
","
","
","""event"",""trial"",""time""
""fullscreenenter"",""1"",""3369""
","
","","","6593.999999999884","[""0""]","0","19","10100","4764","","","","","","","","","","","","","","","","","","",""
"pit-instructions","108","818116","0.0-2.0-22.0-1.0","battery-v0.2","","""event"",""trial"",""time""
""fullscreenenter"",""1"",""3369""
","
","
","""event"",""trial"",""time""
""fullscreenenter"",""1"",""3369""
","
","","[{""page_index"":0,""viewing_time"":1557}]","1557","","","","","","","","","","","","","","","","","","","","","","","",""
"pit-comprehension","109","838568","0.0-2.0-23.0-0.0","battery-v0.2","","""event"",""trial"",""time""
""fullscreenenter"",""1"",""3369""
","
","
","""event"",""trial"",""time""
""fullscreenenter"",""1"",""3369""
","
","","","20449","[""False""]","1","19","10100","4764","","","","","","","","","","","","","","","","","","",""
"pit-instructions","110","842499","0.0-2.0-23.0-1.0","battery-v0.2","","""event"",""trial"",""time""
""fullscreenenter"",""1"",""3369""
","
","
","""event"",""trial"",""time""
""fullscreenenter"",""1"",""3369""
","
","","[{""page_index"":0,""viewing_time"":3904}]","3905","","","","","","","","","","","","","","","","","","","","","","","",""
"pit-instructions","111","843534","0.0-2.0-23.0-2.0-0.0","battery-v0.2","","""event"",""trial"",""time""
""fullscreenenter"",""1"",""3369""
","
","
","""event"",""trial"",""time""
""fullscreenenter"",""1"",""3369""
","
","","[{""page_index"":0,""viewing_time"":1031}]","1031","","","","","","","","","","","","","","","","","","","","","","","",""
"pit-comprehension","112","857339","0.0-2.0-23.1-0.1","battery-v0.2","","""event"",""trial"",""time""
""fullscreenenter"",""1"",""3369""
","
","
","""event"",""trial"",""time""
""fullscreenenter"",""1"",""3369""
","
","","","13802","[""True""]","0","19","10100","4764","","","","","","","","","","","","","","","","","","",""
"pit-instructions","113","858985","0.0-2.0-23.1-1.1","battery-v0.2","","""event"",""trial"",""time""
""fullscreenenter"",""1"",""3369""
","
","
","""event"",""trial"",""time""
""fullscreenenter"",""1"",""3369""
","
","","[{""page_index"":0,""viewing_time"":1621}]","1621","","","","","","","","","","","","","","","","","","","","","","","",""
"pit-comprehension","114","866534","0.0-2.0-24.0-0.0","battery-v0.2","","""event"",""trial"",""time""
""fullscreenenter"",""1"",""3369""
","
","
","""event"",""trial"",""time""
""fullscreenenter"",""1"",""3369""
","
","","","7546","[""True""]","0","19","10100","4764","","","","","","","","","","","","","","","","","","",""
"pit-instructions","115","869483","0.0-2.0-24.0-1.0","battery-v0.2","","""event"",""trial"",""time""
""fullscreenenter"",""1"",""3369""
","
","
","""event"",""trial"",""time""
""fullscreenenter"",""1"",""3369""
","
","","[{""page_index"":0,""viewing_time"":2922}]","2922","","","","","","","","","","","","","","","","","","","","","","","",""
"pit-comprehension","116","876318","0.0-2.0-25.0-0.0","battery-v0.2","","""event"",""trial"",""time""
""fullscreenenter"",""1"",""3369""
","
","
","""event"",""trial"",""time""
""fullscreenenter"",""1"",""3369""
","
","","","6830","[""True""]","0","19","10100","4764","","","","","","","","","","","","","","","","","","",""
"pit-instructions","117","878154","0.0-2.0-25.0-1.0","battery-v0.2","","""event"",""trial"",""time""
""fullscreenenter"",""1"",""3369""
","
","
","""event"",""trial"",""time""
""fullscreenenter"",""1"",""3369""
","
","","[{""page_index"":0,""viewing_time"":1809.0000000001164}]","1809.0000000001164","","","","","","","","","","","","","","","","","","","","","","","",""
"pit-comprehension","118","884280","0.0-2.0-26.0-0.0","battery-v0.2","","""event"",""trial"",""time""
""fullscreenenter"",""1"",""3369""
","
","
","""event"",""trial"",""time""
""fullscreenenter"",""1"",""3369""
","
","","","6124","[""False""]","0","19","10100","4764","","","","","","","","","","","","","","","","","","",""
"pit-instructions","119","885748","0.0-2.0-26.0-1.0","battery-v0.2","","""event"",""trial"",""time""
""fullscreenenter"",""1"",""3369""
","
","
","""event"",""trial"",""time""
""fullscreenenter"",""1"",""3369""
","
","","[{""page_index"":0,""viewing_time"":1445.9999999998836}]","1445.9999999998836","","","","","","","","","","","","","","","","","","","","","","","",""
"pit-instructions","120","904969","0.0-3.0","battery-v0.2","","""event"",""trial"",""time""
""fullscreenenter"",""1"",""3369""
","
","
","""event"",""trial"",""time""
""fullscreenenter"",""1"",""3369""
","
","","[{""page_index"":0,""viewing_time"":4380},{""page_index"":1,""viewing_time"":6552},{""page_index"":2,""viewing_time"":8285}]","19218.000000000116","","","","","","","","","","","","","","","","","","","","","","","",""
"pit-trial","121","908887","0.0-4.0","battery-v0.2","","""event"",""trial"",""time""
""fullscreenenter"",""1"",""3369""
","
","
","""event"",""trial"",""time""
""fullscreenenter"",""1"",""3369""
","
","","","1060","","","19","10100","4764","&#9733;","elianto","#3366ff99","-1"," ","0","0","[1911]","1","1","","","10100","1","2","2","win","no-go","0"
"pit-trial","122","912989","0.0-5.0","battery-v0.2","","""event"",""trial"",""time""
""fullscreenenter"",""1"",""3369""
","
","
","""event"",""trial"",""time""
""fullscreenenter"",""1"",""3369""
","
","","","1241","","","19","10100","4764","&#9730;","elianto","#3366ff99"," "," ","1","0","[2092]","1","1","","","10100","2","1","1","win","go","1"
"pit-trial","123","917337","0.0-6.0","battery-v0.2","","""event"",""trial"",""time""
""fullscreenenter"",""1"",""3369""
","
","
","""event"",""trial"",""time""
""fullscreenenter"",""1"",""3369""
","
","","","1488.0000000001164","","","19","10100","4764","&#9752;","elianto","#f73b6a7A"," "," ","1","0","[2339.0000000001164]","1","1","","","10100","3","3","3","lose","go","0"
"pit-trial","124","921435","0.0-7.0","battery-v0.2","","""event"",""trial"",""time""
""fullscreenenter"",""1"",""3369""
","
","
","""event"",""trial"",""time""
""fullscreenenter"",""1"",""3369""
","
","","","1239","","","19","10100","4764","&#9728;","elianto","#f73b6a7A","-1"," ","0","-10","[2088.9999999998836]","1","1","","","10100","4","0","4","lose","no-go","0"
"pit-trial","125","926295","0.0-8.0","battery-v0.2","","""event"",""trial"",""time""
""fullscreenenter"",""1"",""3369""
","
","
","""event"",""trial"",""time""
""fullscreenenter"",""1"",""3369""
","
","","","-1","","","19","10100","4764","&#9730;","elianto","#3366ff99"," ","-1","0","0","[]","0","1","","","10100","5","1","1","win","go","0"
"pit-trial","126","930412","0.0-9.0","battery-v0.2","","""event"",""trial"",""time""
""fullscreenenter"",""1"",""3369""
","
","
","""event"",""trial"",""time""
""fullscreenenter"",""1"",""3369""
","
","","","1257","","","19","10100","4764","&#9728;","elianto","#f73b6a7A","-1"," ","0","-10","[2108]","1","1","","","10100","6","0","4","lose","no-go","0"
"pit-trial","127","934986","0.0-10.0","battery-v0.2","","""event"",""trial"",""time""
""fullscreenenter"",""1"",""3369""
","
","
","""event"",""trial"",""time""
""fullscreenenter"",""1"",""3369""
","
","","","1714","","","19","10100","4764","&#9733;","elianto","#3366ff99","-1"," ","0","0","[2565]","1","1","","","10100","7","2","2","win","no-go","0"
"pit-trial","128","939190","0.0-11.0","battery-v0.2","","""event"",""trial"",""time""
""fullscreenenter"",""1"",""3369""
","
","
","""event"",""trial"",""time""
""fullscreenenter"",""1"",""3369""
","
","","","1346","","","19","10100","4764","&#9752;","elianto","#f73b6a7A"," "," ","1","0","[2197]","1","1","","","10100","8","3","3","lose","go","0"
"pit-trial","129","943219","0.0-12.0","battery-v0.2","","""event"",""trial"",""time""
""fullscreenenter"",""1"",""3369""
","
","
","""event"",""trial"",""time""
""fullscreenenter"",""1"",""3369""
","
","","","1167","","","19","10100","4764","&#9730;","elianto","#3366ff99"," "," ","1","0","[2019]","1","1","","","10100","9","1","1","win","go","1"
"pit-trial","130","948079","0.0-13.0","battery-v0.2","","""event"",""trial"",""time""
""fullscreenenter"",""1"",""3369""
","
","
","""event"",""trial"",""time""
""fullscreenenter"",""1"",""3369""
","
","","","-1","","","19","10100","4764","&#9752;","elianto","#f73b6a7A"," ","-1","0","-10","[3005]","1","1","","","10100","10","3","3","lose","go","0"
"pit-trial","131","952939","0.0-14.0","battery-v0.2","","""event"",""trial"",""time""
""fullscreenenter"",""1"",""3369""
","
","
","""event"",""trial"",""time""
""fullscreenenter"",""1"",""3369""
","
","","","-1","","","19","10100","4764","&#9728;","elianto","#f73b6a7A","-1","-1","1","-10","[]","0","1","","","10100","11","0","4","lose","no-go","1"
"pit-trial","132","956866","0.0-15.0","battery-v0.2","","""event"",""trial"",""time""
""fullscreenenter"",""1"",""3369""
","
","
","""event"",""trial"",""time""
""fullscreenenter"",""1"",""3369""
","
","","","1068","","","19","10100","4764","&#9733;","elianto","#3366ff99","-1"," ","0","0","[1918]","1","1","","","10100","12","2","2","win","no-go","0"
"pit-trial","133","961726","0.0-16.0","battery-v0.2","","""event"",""trial"",""time""
""fullscreenenter"",""1"",""3369""
","
","
","""event"",""trial"",""time""
""fullscreenenter"",""1"",""3369""
","
","","","-1","","","19","10100","4764","&#9733;","elianto","#3366ff99","-1","-1","1","+10","[2956]","1","1","","","10100","13","2","2","win","no-go","0"
"pit-trial","134","965399","0.0-17.0","battery-v0.2","","""event"",""trial"",""time""
""fullscreenenter"",""1"",""3369""
","
","
","""event"",""trial"",""time""
""fullscreenenter"",""1"",""3369""
","
","","","812.9999999998836","","","19","10100","4764","&#9752;","elianto","#f73b6a7A"," "," ","1","0","[1663]","1","1","","","10100","14","3","3","lose","go","0"
"pit-trial","135","969120","0.0-18.0","battery-v0.2","","""event"",""trial"",""time""
""fullscreenenter"",""1"",""3369""
","
","
","""event"",""trial"",""time""
""fullscreenenter"",""1"",""3369""
","
","","","860","","","19","10100","4764","&#9730;","elianto","#3366ff99"," "," ","1","+10","[1711]","1","1","","","10100","15","1","1","win","go","0"
"pit-trial","136","972684","0.0-19.0","battery-v0.2","","""event"",""trial"",""time""
""fullscreenenter"",""1"",""3369""
","
","
","""event"",""trial"",""time""
""fullscreenenter"",""1"",""3369""
","
","","","703.9999999998836","","","19","10100","4764","&#9728;","elianto","#f73b6a7A","-1"," ","0","-10","[1554.9999999998836]","1","1","","","10100","16","0","4","lose","no-go","0"
"pit-trial","137","976178","0.0-20.0","battery-v0.2","","""event"",""trial"",""time""
""fullscreenenter"",""1"",""3369""
","
","
","""event"",""trial"",""time""
""fullscreenenter"",""1"",""3369""
","
","","","636","","","19","10100","4764","&#9752;","elianto","#f73b6a7A"," "," ","1","0","[1488]","1","1","","","10100","17","3","3","lose","go","0"
"pit-trial","138","979696","0.0-21.0","battery-v0.2","","""event"",""trial"",""time""
""fullscreenenter"",""1"",""3369""
","
","
","""event"",""trial"",""time""
""fullscreenenter"",""1"",""3369""
","
","","","658","","","19","10100","4764","&#9733;","elianto","#3366ff99","-1"," ","0","0","[1509]","1","1","","","10100","18","2","2","win","no-go","0"
"pit-trial","139","984556","0.0-22.0","battery-v0.2","","""event"",""trial"",""time""
""fullscreenenter"",""1"",""3369""
","
","
","""event"",""trial"",""time""
""fullscreenenter"",""1"",""3369""
","
","","","-1","","","19","10100","4764","&#9728;","elianto","#f73b6a7A","-1","-1","1","0","[]","0","1","","","10100","19","0","4","lose","no-go","0"
"pit-trial","140","988589","0.0-23.0","battery-v0.2","","""event"",""trial"",""time""
""fullscreenenter"",""1"",""3369""
","
","
","""event"",""trial"",""time""
""fullscreenenter"",""1"",""3369""
","
","","","1174","","","19","10100","4764","&#9730;","elianto","#3366ff99"," "," ","1","+10","[2025]","1","1","","","10100","20","1","1","win","go","0"
"pit-instructions","141","1001766","0.0-24.0","battery-v0.2","","""event"",""trial"",""time""
""fullscreenenter"",""1"",""3369""
","
","
","""event"",""trial"",""time""
""fullscreenenter"",""1"",""3369""
","
","","[{""page_index"":0,""viewing_time"":5805},{""page_index"":1,""viewing_time"":7365}]","13171","","","","","","","","","","","","","","","","","","","","","","","",""
"pit-trial","142","1005661","0.0-25.0","battery-v0.2","","""event"",""trial"",""time""
""fullscreenenter"",""1"",""3369""
","
","
","""event"",""trial"",""time""
""fullscreenenter"",""1"",""3369""
","
","","","1036","","","19","10100","4764","e","elianto","#f73b6a7A"," "," ","1","-10","[1888]","1","2","","","10100","21","2","3","lose","go","1"
"pit-trial","143","1009438","0.0-26.0","battery-v0.2","","""event"",""trial"",""time""
""fullscreenenter"",""1"",""3369""
","
","
","""event"",""trial"",""time""
""fullscreenenter"",""1"",""3369""
","
","","","919","","","19","10100","4764","j","elianto","#f73b6a7A"," "," ","1","0","[1769]","1","2","","","10100","22","0","3","lose","go","0"
"pit-trial","144","1013540","0.0-27.0","battery-v0.2","","""event"",""trial"",""time""
""fullscreenenter"",""1"",""3369""
","
","
","""event"",""trial"",""time""
""fullscreenenter"",""1"",""3369""
","
","","","1241","","","19","10100","4764","d","elianto","#3366ff99","-1"," ","0","+10","[2092]","1","2","","","10100","23","1","2","win","no-go","1"
"pit-trial","145","1018401","0.0-28.0","battery-v0.2","","""event"",""trial"",""time""
""fullscreenenter"",""1"",""3369""
","
","
","""event"",""trial"",""time""
""fullscreenenter"",""1"",""3369""
","
","","","-1","","","19","10100","4764","w","elianto","#f73b6a7A","-1","-1","1","-10","[]","0","2","","","10100","24","3","4","lose","no-go","1"
"pit-trial","146","1022597","0.0-29.0","battery-v0.2","","""event"",""trial"",""time""
""fullscreenenter"",""1"",""3369""
","
","
","""event"",""trial"",""time""
""fullscreenenter"",""1"",""3369""
","
","","","1338.0000000001164","","","19","10100","4764","j","elianto","#f73b6a7A"," "," ","1","0","[2188.0000000001164]","1","2","","","10100","25","0","3","lose","go","0"
"pit-trial","147","1026354","0.0-30.0","battery-v0.2","","""event"",""trial"",""time""
""fullscreenenter"",""1"",""3369""
","
","
","""event"",""trial"",""time""
""fullscreenenter"",""1"",""3369""
","
","","","896.9999999998836","","","19","10100","4764","d","elianto","#3366ff99","-1"," ","0","+10","[1747.9999999997672]","1","2","","","10100","26","1","2","win","no-go","1"
"pit-trial","148","1031215","0.0-31.0","battery-v0.2","","""event"",""trial"",""time""
""fullscreenenter"",""1"",""3369""
","
","
","""event"",""trial"",""time""
""fullscreenenter"",""1"",""3369""
","
","","","-1","","","19","10100","4764","e","elianto","#f73b6a7A"," ","-1","0","-10","[]","0","2","","","10100","27","2","3","lose","go","0"
"pit-trial","149","1035655","0.0-32.0","battery-v0.2","","""event"",""trial"",""time""
""fullscreenenter"",""1"",""3369""
","
","
","""event"",""trial"",""time""
""fullscreenenter"",""1"",""3369""
","
","","","1580.0000000002328","","","19","10100","4764","w","elianto","#f73b6a7A","-1"," ","0","-10","[2431.0000000001164]","1","2","","","10100","28","3","4","lose","no-go","0"
"pit-trial","150","1039528","0.0-33.0","battery-v0.2","","""event"",""trial"",""time""
""fullscreenenter"",""1"",""3369""
","
","
","""event"",""trial"",""time""
""fullscreenenter"",""1"",""3369""
","
","","","1012.0000000002328","","","19","10100","4764","d","elianto","#3366ff99","-1"," ","0","0","[1863.0000000001164]","1","2","","","10100","29","1","2","win","no-go","0"
"pit-trial","151","1043273","0.0-34.0","battery-v0.2","","""event"",""trial"",""time""
""fullscreenenter"",""1"",""3369""
","
","
","""event"",""trial"",""time""
""fullscreenenter"",""1"",""3369""
","
","","","884","","","19","10100","4764","j","elianto","#f73b6a7A"," "," ","1","0","[1734.9999999998836]","1","2","","","10100","30","0","3","lose","go","0"
"pit-trial","152","1048132","0.0-35.0","battery-v0.2","","""event"",""trial"",""time""
""fullscreenenter"",""1"",""3369""
","
","
","""event"",""trial"",""time""
""fullscreenenter"",""1"",""3369""
","
","","","-1","","","19","10100","4764","e","elianto","#f73b6a7A"," ","-1","0","-10","[]","0","2","","","10100","31","2","3","lose","go","0"
"pit-trial","153","1052168","0.0-36.0","battery-v0.2","","""event"",""trial"",""time""
""fullscreenenter"",""1"",""3369""
","
","
","""event"",""trial"",""time""
""fullscreenenter"",""1"",""3369""
","
","","","1174","","","19","10100","4764","w","elianto","#f73b6a7A","-1"," ","0","-10","[2024]","1","2","","","10100","32","3","4","lose","no-go","0"
"pit-trial","154","1057029","0.0-37.0","battery-v0.2","","""event"",""trial"",""time""
""fullscreenenter"",""1"",""3369""
","
","
","""event"",""trial"",""time""
""fullscreenenter"",""1"",""3369""
","
","","","-1","","","19","10100","4764","w","elianto","#f73b6a7A","-1","-1","1","0","[]","0","2","","","10100","33","3","4","lose","no-go","0"
"pit-trial","155","1060546","0.0-38.0","battery-v0.2","","""event"",""trial"",""time""
""fullscreenenter"",""1"",""3369""
","
","
","""event"",""trial"",""time""
""fullscreenenter"",""1"",""3369""
","
","","","657","","","19","10100","4764","j","elianto","#f73b6a7A"," "," ","1","-10","[1508]","1","2","","","10100","34","0","3","lose","go","1"
"pit-trial","156","1064724","0.0-39.0","battery-v0.2","","""event"",""trial"",""time""
""fullscreenenter"",""1"",""3369""
","
","
","""event"",""trial"",""time""
""fullscreenenter"",""1"",""3369""
","
","","","1319","","","19","10100","4764","d","elianto","#3366ff99","-1"," ","0","0","[2168.999999999767]","1","2","","","10100","35","1","2","win","no-go","0"
"pit-trial","157","1069585","0.0-40.0","battery-v0.2","","""event"",""trial"",""time""
""fullscreenenter"",""1"",""3369""
","
","
","""event"",""trial"",""time""
""fullscreenenter"",""1"",""3369""
","
","","","-1","","","19","10100","4764","e","elianto","#f73b6a7A"," ","-1","0","0","[]","0","2","","","10100","36","2","3","lose","go","1"
"pit-trial","158","1074449","0.0-41.0","battery-v0.2","","""event"",""trial"",""time""
""fullscreenenter"",""1"",""3369""
","
","
","""event"",""trial"",""time""
""fullscreenenter"",""1"",""3369""
","
","","","-1","","","19","10100","4764","e","elianto","#f73b6a7A"," ","-1","0","0","[]","0","2","","","10100","37","2","3","lose","go","1"
"pit-trial","159","1078788","0.0-42.0","battery-v0.2","","""event"",""trial"",""time""
""fullscreenenter"",""1"",""3369""
","
","
","""event"",""trial"",""time""
""fullscreenenter"",""1"",""3369""
","
","","","1479","","","19","10100","4764","w","elianto","#f73b6a7A","-1"," ","0","-10","[2329.999999999767]","1","2","","","10100","38","3","4","lose","no-go","0"
"pit-trial","160","1082573","0.0-43.0","battery-v0.2","","""event"",""trial"",""time""
""fullscreenenter"",""1"",""3369""
","
","
","""event"",""trial"",""time""
""fullscreenenter"",""1"",""3369""
","
","","","925","","","19","10100","4764","d","elianto","#3366ff99","-1"," ","0","0","[1776]","1","2","","","10100","39","1","2","win","no-go","0"
"pit-trial","161","1086368","0.0-44.0","battery-v0.2","","""event"",""trial"",""time""
""fullscreenenter"",""1"",""3369""
","
","
","""event"",""trial"",""time""
""fullscreenenter"",""1"",""3369""
","
","","","934","","","19","10100","4764","j","elianto","#f73b6a7A"," "," ","1","-10","[1784.9999999997672]","1","2","","","10100","40","0","3","lose","go","1"
"pit-trial","162","1090065","0.0-45.0","battery-v0.2","","""event"",""trial"",""time""
""fullscreenenter"",""1"",""3369""
","
","
","""event"",""trial"",""time""
""fullscreenenter"",""1"",""3369""
","
","","","837.9999999997672","","","19","10100","4764","d","elianto","#3366ff99","-1"," ","0","0","[1688]","1","2","","","10100","41","1","2","win","no-go","0"
"pit-trial","163","1094304","0.0-46.0","battery-v0.2","","""event"",""trial"",""time""
""fullscreenenter"",""1"",""3369""
","
","
","""event"",""trial"",""time""
""fullscreenenter"",""1"",""3369""
","
","","","1381","","","19","10100","4764","e","elianto","#f73b6a7A"," "," ","1","0","[2231.000000000233]","1","2","","","10100","42","2","3","lose","go","0"
"pit-trial","164","1099164","0.0-47.0","battery-v0.2","","""event"",""trial"",""time""
""fullscreenenter"",""1"",""3369""
","
","
","""event"",""trial"",""time""
""fullscreenenter"",""1"",""3369""
","
","","","-1","","","19","10100","4764","j","elianto","#f73b6a7A"," ","-1","0","-10","[]","0","2","","","10100","43","0","3","lose","go","0"
"pit-trial","165","1102989","0.0-48.0","battery-v0.2","","""event"",""trial"",""time""
""fullscreenenter"",""1"",""3369""
","
","
","""event"",""trial"",""time""
""fullscreenenter"",""1"",""3369""
","
","","","964.9999999997672","","","19","10100","4764","w","elianto","#f73b6a7A","-1"," ","0","0","[1816]","1","2","","","10100","44","3","4","lose","no-go","1"
"pit-trial","166","1106725","0.0-49.0","battery-v0.2","","""event"",""trial"",""time""
""fullscreenenter"",""1"",""3369""
","
","
","""event"",""trial"",""time""
""fullscreenenter"",""1"",""3369""
","
","","","877","","","19","10100","4764","w","elianto","#f73b6a7A","-1"," ","0","-10","[1727]","1","2","","","10100","45","3","4","lose","no-go","0"
"pit-trial","167","1110335","0.0-50.0","battery-v0.2","","""event"",""trial"",""time""
""fullscreenenter"",""1"",""3369""
","
","
","""event"",""trial"",""time""
""fullscreenenter"",""1"",""3369""
","
","","","751","","","19","10100","4764","j","elianto","#f73b6a7A"," "," ","1","0","[1601]","1","2","","","10100","46","0","3","lose","go","0"
"pit-trial","168","1113895","0.0-51.0","battery-v0.2","","""event"",""trial"",""time""
""fullscreenenter"",""1"",""3369""
","
","
","""event"",""trial"",""time""
""fullscreenenter"",""1"",""3369""
","
","","","700","","","19","10100","4764","e","elianto","#f73b6a7A"," "," ","1","0","[1551]","1","2","","","10100","47","2","3","lose","go","0"
"pit-trial","169","1118754","0.0-52.0","battery-v0.2","","""event"",""trial"",""time""
""fullscreenenter"",""1"",""3369""
","
","
","""event"",""trial"",""time""
""fullscreenenter"",""1"",""3369""
","
","","","-1","","","19","10100","4764","d","elianto","#3366ff99","-1","-1","1","+10","[]","0","2","","","10100","48","1","2","win","no-go","0"
"pit-trial","170","1123615","0.0-53.0","battery-v0.2","","""event"",""trial"",""time""
""fullscreenenter"",""1"",""3369""
","
","
","""event"",""trial"",""time""
""fullscreenenter"",""1"",""3369""
","
","","","-1","","","19","10100","4764","w","elianto","#f73b6a7A","-1","-1","1","0","[]","0","2","","","10100","49","3","4","lose","no-go","0"
"pit-trial","171","1127269","0.0-54.0","battery-v0.2","","""event"",""trial"",""time""
""fullscreenenter"",""1"",""3369""
","
","
","""event"",""trial"",""time""
""fullscreenenter"",""1"",""3369""
","
","","","793.9999999997672","","","19","10100","4764","e","elianto","#f73b6a7A"," "," ","1","-10","[1645]","1","2","","","10100","50","2","3","lose","go","1"
"pit-trial","172","1130796","0.0-55.0","battery-v0.2","","""event"",""trial"",""time""
""fullscreenenter"",""1"",""3369""
","
","
","""event"",""trial"",""time""
""fullscreenenter"",""1"",""3369""
","
","","","668","","","19","10100","4764","j","elianto","#f73b6a7A"," "," ","1","0","[1518]","1","2","","","10100","51","0","3","lose","go","0"
"pit-trial","173","1134842","0.0-56.0","battery-v0.2","","""event"",""trial"",""time""
""fullscreenenter"",""1"",""3369""
","
","
","""event"",""trial"",""time""
""fullscreenenter"",""1"",""3369""
","
","","","1185","","","19","10100","4764","d","elianto","#3366ff99","-1"," ","0","0","[2036]","1","2","","","10100","52","1","2","win","no-go","0"
"pit-trial","174","1138670","0.0-57.0","battery-v0.2","","""event"",""trial"",""time""
""fullscreenenter"",""1"",""3369""
","
","
","""event"",""trial"",""time""
""fullscreenenter"",""1"",""3369""
","
","","","969","","","19","10100","4764","e","elianto","#f73b6a7A"," "," ","1","-10","[1819]","1","2","","","10100","53","2","3","lose","go","1"
"pit-trial","175","1143531","0.0-58.0","battery-v0.2","","""event"",""trial"",""time""
""fullscreenenter"",""1"",""3369""
","
","
","""event"",""trial"",""time""
""fullscreenenter"",""1"",""3369""
","
","","","-1","","","19","10100","4764","j","elianto","#f73b6a7A"," ","-1","0","-10","[]","0","2","","","10100","54","0","3","lose","go","0"
"pit-trial","176","1147523","0.0-59.0","battery-v0.2","","""event"",""trial"",""time""
""fullscreenenter"",""1"",""3369""
","
","
","""event"",""trial"",""time""
""fullscreenenter"",""1"",""3369""
","
","","","1132.0000000002328","","","19","10100","4764","w","elianto","#f73b6a7A","-1"," ","0","-10","[1983.0000000002328]","1","2","","","10100","55","3","4","lose","no-go","0"
"pit-trial","177","1151526","0.0-60.0","battery-v0.2","","""event"",""trial"",""time""
""fullscreenenter"",""1"",""3369""
","
","
","""event"",""trial"",""time""
""fullscreenenter"",""1"",""3369""
","
","","","1144","","","19","10100","4764","d","elianto","#3366ff99","-1"," ","0","0","[1994]","1","2","","","10100","56","1","2","win","no-go","0"
"pit-trial","178","1155883","0.0-61.0","battery-v0.2","","""event"",""trial"",""time""
""fullscreenenter"",""1"",""3369""
","
","
","""event"",""trial"",""time""
""fullscreenenter"",""1"",""3369""
","
","","","1499","","","19","10100","4764","s","elianto","#3366ff99"," "," ","1","+10","[2349]","1","2","","","10100","57","4","1","win","go","0"
"pit-trial","179","1160182","0.0-62.0","battery-v0.2","","""event"",""trial"",""time""
""fullscreenenter"",""1"",""3369""
","
","
","""event"",""trial"",""time""
""fullscreenenter"",""1"",""3369""
","
","","","1438","","","19","10100","4764","e","elianto","#f73b6a7A"," "," ","1","-10","[2289]","1","2","","","10100","58","2","3","lose","go","1"
"pit-trial","180","1164038","0.0-63.0","battery-v0.2","","""event"",""trial"",""time""
""fullscreenenter"",""1"",""3369""
","
","
","""event"",""trial"",""time""
""fullscreenenter"",""1"",""3369""
","
","","","997","","","19","10100","4764","j","elianto","#f73b6a7A"," "," ","1","0","[1848]","1","2","","","10100","59","0","3","lose","go","0"
"pit-trial","181","1168900","0.0-64.0","battery-v0.2","","""event"",""trial"",""time""
""fullscreenenter"",""1"",""3369""
","
","
","""event"",""trial"",""time""
""fullscreenenter"",""1"",""3369""
","
","","","-1","","","19","10100","4764","w","elianto","#f73b6a7A","-1","-1","1","0","[]","0","2","","","10100","60","3","4","lose","no-go","0"
"pit-trial","182","1172751","0.0-65.0","battery-v0.2","","""event"",""trial"",""time""
""fullscreenenter"",""1"",""3369""
","
","
","""event"",""trial"",""time""
""fullscreenenter"",""1"",""3369""
","
","","","991","","","19","10100","4764","d","elianto","#3366ff99","-1"," ","0","+10","[1842]","1","2","","","10100","61","1","2","win","no-go","1"
"pit-trial","183","1177610","0.0-66.0","battery-v0.2","","""event"",""trial"",""time""
""fullscreenenter"",""1"",""3369""
","
","
","""event"",""trial"",""time""
""fullscreenenter"",""1"",""3369""
","
","","","-1","","","19","10100","4764","w","elianto","#f73b6a7A","-1","-1","1","0","[]","0","2","","","10100","62","3","4","lose","no-go","0"
"pit-trial","184","1181705","0.0-67.0","battery-v0.2","","""event"",""trial"",""time""
""fullscreenenter"",""1"",""3369""
","
","
","""event"",""trial"",""time""
""fullscreenenter"",""1"",""3369""
","
","","","1236.0000000002328","","","19","10100","4764","s","elianto","#3366ff99"," "," ","1","+10","[2086.000000000233]","1","2","","","10100","63","4","1","win","go","0"
"pit-trial","185","1186564","0.0-68.0","battery-v0.2","","""event"",""trial"",""time""
""fullscreenenter"",""1"",""3369""
","
","
","""event"",""trial"",""time""
""fullscreenenter"",""1"",""3369""
","
","","","-1","","","19","10100","4764","e","elianto","#f73b6a7A"," ","-1","0","-10","[]","0","2","","","10100","64","2","3","lose","go","0"
"pit-trial","186","1191423","0.0-69.0","battery-v0.2","","""event"",""trial"",""time""
""fullscreenenter"",""1"",""3369""
","
","
","""event"",""trial"",""time""
""fullscreenenter"",""1"",""3369""
","
","","","-1","","","19","10100","4764","w","elianto","#f73b6a7A","-1","-1","1","0","[]","0","2","","","10100","65","3","4","lose","no-go","0"
"pit-trial","187","1195264","0.0-70.0","battery-v0.2","","""event"",""trial"",""time""
""fullscreenenter"",""1"",""3369""
","
","
","""event"",""trial"",""time""
""fullscreenenter"",""1"",""3369""
","
","","","981","","","19","10100","4764","p","elianto","#3366ff99","-1"," ","0","0","[1831]","1","2","","","10100","66","5","2","win","no-go","0"
"pit-trial","188","1199107","0.0-71.0","battery-v0.2","","""event"",""trial"",""time""
""fullscreenenter"",""1"",""3369""
","
","
","""event"",""trial"",""time""
""fullscreenenter"",""1"",""3369""
","
","","","984.0000000002328","","","19","10100","4764","d","elianto","#3366ff99","-1"," ","0","0","[1835.0000000002328]","1","2","","","10100","67","1","2","win","no-go","0"
"pit-trial","189","1203348","0.0-72.0","battery-v0.2","","""event"",""trial"",""time""
""fullscreenenter"",""1"",""3369""
","
","
","""event"",""trial"",""time""
""fullscreenenter"",""1"",""3369""
","
","","","1383","","","19","10100","4764","s","elianto","#3366ff99"," "," ","1","+10","[2233]","1","2","","","10100","68","4","1","win","go","0"
"pit-trial","190","1208141","0.0-73.0","battery-v0.2","","""event"",""trial"",""time""
""fullscreenenter"",""1"",""3369""
","
","
","""event"",""trial"",""time""
""fullscreenenter"",""1"",""3369""
","
","","","1933","","","19","10100","4764","s","elianto","#3366ff99"," "," ","1","+10","[2784]","1","2","","","10100","69","4","1","win","go","0"
"pit-trial","191","1213002","0.0-74.0","battery-v0.2","","""event"",""trial"",""time""
""fullscreenenter"",""1"",""3369""
","
","
","""event"",""trial"",""time""
""fullscreenenter"",""1"",""3369""
","
","","","-1","","","19","10100","4764","e","elianto","#f73b6a7A"," ","-1","0","-10","[]","0","2","","","10100","70","2","3","lose","go","0"
"pit-trial","192","1216522","0.0-75.0","battery-v0.2","","""event"",""trial"",""time""
""fullscreenenter"",""1"",""3369""
","
","
","""event"",""trial"",""time""
""fullscreenenter"",""1"",""3369""
","
","","","660","","","19","10100","4764","d","elianto","#3366ff99","-1"," ","0","0","[1512]","1","2","","","10100","71","1","2","win","no-go","0"
"pit-trial","193","1221382","0.0-76.0","battery-v0.2","","""event"",""trial"",""time""
""fullscreenenter"",""1"",""3369""
","
","
","""event"",""trial"",""time""
""fullscreenenter"",""1"",""3369""
","
","","","-1","","","19","10100","4764","p","elianto","#3366ff99","-1","-1","1","+10","[]","0","2","","","10100","72","5","2","win","no-go","0"
"pit-trial","194","1225184","0.0-77.0","battery-v0.2","","""event"",""trial"",""time""
""fullscreenenter"",""1"",""3369""
","
","
","""event"",""trial"",""time""
""fullscreenenter"",""1"",""3369""
","
","","","943","","","19","10100","4764","s","elianto","#3366ff99"," "," ","1","+10","[1793]","1","2","","","10100","73","4","1","win","go","0"
"pit-trial","195","1230043","0.0-78.0","battery-v0.2","","""event"",""trial"",""time""
""fullscreenenter"",""1"",""3369""
","
","
","""event"",""trial"",""time""
""fullscreenenter"",""1"",""3369""
","
","","","-1","","","19","10100","4764","p","elianto","#3366ff99","-1","-1","1","+10","[]","0","2","","","10100","74","5","2","win","no-go","0"
"pit-trial","196","1234617","0.0-79.0","battery-v0.2","","""event"",""trial"",""time""
""fullscreenenter"",""1"",""3369""
","
","
","""event"",""trial"",""time""
""fullscreenenter"",""1"",""3369""
","
","","","1714","","","19","10100","4764","w","elianto","#f73b6a7A","-1"," ","0","-10","[2564]","1","2","","","10100","75","3","4","lose","no-go","0"
"pit-trial","197","1238557","0.0-80.0","battery-v0.2","","""event"",""trial"",""time""
""fullscreenenter"",""1"",""3369""
","
","
","""event"",""trial"",""time""
""fullscreenenter"",""1"",""3369""
","
","","","1079","","","19","10100","4764","d","elianto","#3366ff99","-1"," ","0","0","[1930]","1","2","","","10100","76","1","2","win","no-go","0"
"pit-trial","198","1243417","0.0-81.0","battery-v0.2","","""event"",""trial"",""time""
""fullscreenenter"",""1"",""3369""
","
","
","""event"",""trial"",""time""
""fullscreenenter"",""1"",""3369""
","
","","","-1","","","19","10100","4764","p","elianto","#3366ff99","-1","-1","1","+10","[]","0","2","","","10100","77","5","2","win","no-go","0"
"pit-trial","199","1247455","0.0-82.0","battery-v0.2","","""event"",""trial"",""time""
""fullscreenenter"",""1"",""3369""
","
","
","""event"",""trial"",""time""
""fullscreenenter"",""1"",""3369""
","
","","","1179","","","19","10100","4764","s","elianto","#3366ff99"," "," ","1","0","[2030]","1","2","","","10100","78","4","1","win","go","1"
"pit-trial","200","1251296","0.0-83.0","battery-v0.2","","""event"",""trial"",""time""
""fullscreenenter"",""1"",""3369""
","
","
","""event"",""trial"",""time""
""fullscreenenter"",""1"",""3369""
","
","","","981","","","19","10100","4764","s","elianto","#3366ff99"," "," ","1","+10","[1832]","1","2","","","10100","79","4","1","win","go","0"
"pit-trial","201","1256156","0.0-84.0","battery-v0.2","","""event"",""trial"",""time""
""fullscreenenter"",""1"",""3369""
","
","
","""event"",""trial"",""time""
""fullscreenenter"",""1"",""3369""
","
","","","-1","","","19","10100","4764","w","elianto","#f73b6a7A","-1","-1","1","0","[]","0","2","","","10100","80","3","4","lose","no-go","0"
"pit-trial","202","1261018","0.0-85.0","battery-v0.2","","""event"",""trial"",""time""
""fullscreenenter"",""1"",""3369""
","
","
","""event"",""trial"",""time""
""fullscreenenter"",""1"",""3369""
","
","","","-1","","","19","10100","4764","p","elianto","#3366ff99","-1","-1","1","+10","[]","0","2","","","10100","81","5","2","win","no-go","0"
"pit-trial","203","1265879","0.0-86.0","battery-v0.2","","""event"",""trial"",""time""
""fullscreenenter"",""1"",""3369""
","
","
","""event"",""trial"",""time""
""fullscreenenter"",""1"",""3369""
","
","","","-1","","","19","10100","4764","w","elianto","#f73b6a7A","-1","-1","1","0","[]","0","2","","","10100","82","3","4","lose","no-go","0"
"pit-trial","204","1270740","0.0-87.0","battery-v0.2","","""event"",""trial"",""time""
""fullscreenenter"",""1"",""3369""
","
","
","""event"",""trial"",""time""
""fullscreenenter"",""1"",""3369""
","
","","","-1","","","19","10100","4764","a","elianto","#f73b6a7A","-1","-1","1","-10","[]","0","2","","","10100","83","7","4","lose","no-go","1"
"pit-trial","205","1274915","0.0-88.0","battery-v0.2","","""event"",""trial"",""time""
""fullscreenenter"",""1"",""3369""
","
","
","""event"",""trial"",""time""
""fullscreenenter"",""1"",""3369""
","
","","","1316","","","19","10100","4764","s","elianto","#3366ff99"," "," ","1","+10","[2165.999999999767]","1","2","","","10100","84","4","1","win","go","0"
"pit-trial","206","1279775","0.0-89.0","battery-v0.2","","""event"",""trial"",""time""
""fullscreenenter"",""1"",""3369""
","
","
","""event"",""trial"",""time""
""fullscreenenter"",""1"",""3369""
","
","","","-1","","","19","10100","4764","g","elianto","#f73b6a7A"," ","-1","0","0","[]","0","2","","","10100","85","6","3","lose","go","1"
"pit-trial","207","1283716","0.0-90.0","battery-v0.2","","""event"",""trial"",""time""
""fullscreenenter"",""1"",""3369""
","
","
","""event"",""trial"",""time""
""fullscreenenter"",""1"",""3369""
","
","","","1082","","","19","10100","4764","s","elianto","#3366ff99"," "," ","1","+10","[1931]","1","2","","","10100","86","4","1","win","go","0"
"pit-trial","208","1287592","0.0-91.0","battery-v0.2","","""event"",""trial"",""time""
""fullscreenenter"",""1"",""3369""
","
","
","""event"",""trial"",""time""
""fullscreenenter"",""1"",""3369""
","
","","","1016","","","19","10100","4764","p","elianto","#3366ff99","-1"," ","0","0","[1866]","1","2","","","10100","87","5","2","win","no-go","0"
"pit-trial","209","1292023","0.0-92.0","battery-v0.2","","""event"",""trial"",""time""
""fullscreenenter"",""1"",""3369""
","
","
","""event"",""trial"",""time""
""fullscreenenter"",""1"",""3369""
","
","","","1571","","","19","10100","4764","a","elianto","#f73b6a7A","-1"," ","0","-10","[2422]","1","2","","","10100","88","7","4","lose","no-go","0"
"pit-trial","210","1295583","0.0-93.0","battery-v0.2","","""event"",""trial"",""time""
""fullscreenenter"",""1"",""3369""
","
","
","""event"",""trial"",""time""
""fullscreenenter"",""1"",""3369""
","
","","","698","","","19","10100","4764","a","elianto","#f73b6a7A","-1"," ","0","-10","[1548]","1","2","","","10100","89","7","4","lose","no-go","0"
"pit-trial","211","1299670","0.0-94.0","battery-v0.2","","""event"",""trial"",""time""
""fullscreenenter"",""1"",""3369""
","
","
","""event"",""trial"",""time""
""fullscreenenter"",""1"",""3369""
","
","","","1227","","","19","10100","4764","s","elianto","#3366ff99"," "," ","1","0","[2077]","1","2","","","10100","90","4","1","win","go","1"
"pit-trial","212","1304013","0.0-95.0","battery-v0.2","","""event"",""trial"",""time""
""fullscreenenter"",""1"",""3369""
","
","
","""event"",""trial"",""time""
""fullscreenenter"",""1"",""3369""
","
","","","1484","","","19","10100","4764","g","elianto","#f73b6a7A"," "," ","1","0","[2335]","1","2","","","10100","91","6","3","lose","go","0"
"pit-trial","213","1308873","0.0-96.0","battery-v0.2","","""event"",""trial"",""time""
""fullscreenenter"",""1"",""3369""
","
","
","""event"",""trial"",""time""
""fullscreenenter"",""1"",""3369""
","
","","","-1","","","19","10100","4764","p","elianto","#3366ff99","-1","-1","1","0","[]","0","2","","","10100","92","5","2","win","no-go","1"
"pit-trial","214","1313734","0.0-97.0","battery-v0.2","","""event"",""trial"",""time""
""fullscreenenter"",""1"",""3369""
","
","
","""event"",""trial"",""time""
""fullscreenenter"",""1"",""3369""
","
","","","-1","","","19","10100","4764","g","elianto","#f73b6a7A"," ","-1","0","-10","[]","0","2","","","10100","93","6","3","lose","go","0"
"pit-trial","215","1317754","0.0-98.0","battery-v0.2","","""event"",""trial"",""time""
""fullscreenenter"",""1"",""3369""
","
","
","""event"",""trial"",""time""
""fullscreenenter"",""1"",""3369""
","
","","","1160.9999999997672","","","19","10100","4764","p","elianto","#3366ff99","-1"," ","0","0","[2011]","1","2","","","10100","94","5","2","win","no-go","0"
"pit-trial","216","1321525","0.0-99.0","battery-v0.2","","""event"",""trial"",""time""
""fullscreenenter"",""1"",""3369""
","
","
","""event"",""trial"",""time""
""fullscreenenter"",""1"",""3369""
","
","","","910","","","19","10100","4764","a","elianto","#f73b6a7A","-1"," ","0","-10","[1763]","1","2","","","10100","95","7","4","lose","no-go","0"
"pit-trial","217","1325473","0.0-100.0","battery-v0.2","","""event"",""trial"",""time""
""fullscreenenter"",""1"",""3369""
","
","
","""event"",""trial"",""time""
""fullscreenenter"",""1"",""3369""
","
","","","1089","","","19","10100","4764","l","elianto","#3366ff99"," "," ","1","+10","[1939]","1","2","","","10100","96","8","1","win","go","0"
"pit-trial","218","1329421","0.0-101.0","battery-v0.2","","""event"",""trial"",""time""
""fullscreenenter"",""1"",""3369""
","
","
","""event"",""trial"",""time""
""fullscreenenter"",""1"",""3369""
","
","","","1087.9999999997672","","","19","10100","4764","a","elianto","#f73b6a7A","-1"," ","0","0","[1940]","1","2","","","10100","97","7","4","lose","no-go","1"
"pit-trial","219","1333540","0.0-102.0","battery-v0.2","","""event"",""trial"",""time""
""fullscreenenter"",""1"",""3369""
","
","
","""event"",""trial"",""time""
""fullscreenenter"",""1"",""3369""
","
","","","1259","","","19","10100","4764","g","elianto","#f73b6a7A"," "," ","1","0","[2110.999999999767]","1","2","","","10100","98","6","3","lose","go","0"
"pit-trial","220","1337268","0.0-103.0","battery-v0.2","","""event"",""trial"",""time""
""fullscreenenter"",""1"",""3369""
","
","
","""event"",""trial"",""time""
""fullscreenenter"",""1"",""3369""
","
","","","868","","","19","10100","4764","l","elianto","#3366ff99"," "," ","1","+10","[1719]","1","2","","","10100","99","8","1","win","go","0"
"pit-trial","221","1341363","0.0-104.0","battery-v0.2","","""event"",""trial"",""time""
""fullscreenenter"",""1"",""3369""
","
","
","""event"",""trial"",""time""
""fullscreenenter"",""1"",""3369""
","
","","","1234","","","19","10100","4764","p","elianto","#3366ff99","-1"," ","0","0","[2085]","1","2","","","10100","100","5","2","win","no-go","0"
"pit-trial","222","1346222","0.0-105.0","battery-v0.2","","""event"",""trial"",""time""
""fullscreenenter"",""1"",""3369""
","
","
","""event"",""trial"",""time""
""fullscreenenter"",""1"",""3369""
","
","","","-1","","","19","10100","4764","p","elianto","#3366ff99","-1","-1","1","+10","[]","0","2","","","10100","101","5","2","win","no-go","0"
"pit-trial","223","1350103","0.0-106.0","battery-v0.2","","""event"",""trial"",""time""
""fullscreenenter"",""1"",""3369""
","
","
","""event"",""trial"",""time""
""fullscreenenter"",""1"",""3369""
","
","","","1021","","","19","10100","4764","l","elianto","#3366ff99"," "," ","1","+10","[1872]","1","2","","","10100","102","8","1","win","go","0"
"pit-trial","224","1354132","0.0-107.0","battery-v0.2","","""event"",""trial"",""time""
""fullscreenenter"",""1"",""3369""
","
","
","""event"",""trial"",""time""
""fullscreenenter"",""1"",""3369""
","
","","","1170","","","19","10100","4764","u","elianto","#3366ff99"," "," ","1","+10","[2021]","1","2","","","10100","103","9","1","win","go","0"
"pit-trial","225","1358329","0.0-108.0","battery-v0.2","","""event"",""trial"",""time""
""fullscreenenter"",""1"",""3369""
","
","
","""event"",""trial"",""time""
""fullscreenenter"",""1"",""3369""
","
","","","1336","","","19","10100","4764","a","elianto","#f73b6a7A","-1"," ","0","-10","[2187]","1","2","","","10100","104","7","4","lose","no-go","0"
"pit-trial","226","1362020","0.0-109.0","battery-v0.2","","""event"",""trial"",""time""
""fullscreenenter"",""1"",""3369""
","
","
","""event"",""trial"",""time""
""fullscreenenter"",""1"",""3369""
","
","","","831","","","19","10100","4764","u","elianto","#3366ff99"," "," ","1","0","[1682]","1","2","","","10100","105","9","1","win","go","1"
"pit-trial","227","1365599","0.0-110.0","battery-v0.2","","""event"",""trial"",""time""
""fullscreenenter"",""1"",""3369""
","
","
","""event"",""trial"",""time""
""fullscreenenter"",""1"",""3369""
","
","","","716","","","19","10100","4764","s","elianto","#3366ff99"," "," ","1","0","[1569]","1","2","","","10100","106","4","1","win","go","1"
"pit-trial","228","1369220","0.0-111.0","battery-v0.2","","""event"",""trial"",""time""
""fullscreenenter"",""1"",""3369""
","
","
","""event"",""trial"",""time""
""fullscreenenter"",""1"",""3369""
","
","","","761","","","19","10100","4764","g","elianto","#f73b6a7A"," "," ","1","-10","[1611]","1","2","","","10100","107","6","3","lose","go","1"
"pit-trial","229","1372897","0.0-112.0","battery-v0.2","","""event"",""trial"",""time""
""fullscreenenter"",""1"",""3369""
","
","
","""event"",""trial"",""time""
""fullscreenenter"",""1"",""3369""
","
","","","817","","","19","10100","4764","l","elianto","#3366ff99"," "," ","1","+10","[1668]","1","2","","","10100","108","8","1","win","go","0"
"pit-trial","230","1376615","0.0-113.0","battery-v0.2","","""event"",""trial"",""time""
""fullscreenenter"",""1"",""3369""
","
","
","""event"",""trial"",""time""
""fullscreenenter"",""1"",""3369""
","
","","","857","","","19","10100","4764","g","elianto","#f73b6a7A"," "," ","1","0","[1708]","1","2","","","10100","109","6","3","lose","go","0"
"pit-trial","231","1381476","0.0-114.0","battery-v0.2","","""event"",""trial"",""time""
""fullscreenenter"",""1"",""3369""
","
","
","""event"",""trial"",""time""
""fullscreenenter"",""1"",""3369""
","
","","","-1","","","19","10100","4764","p","elianto","#3366ff99","-1","-1","1","+10","[]","0","2","","","10100","110","5","2","win","no-go","0"
"pit-trial","232","1386336","0.0-115.0","battery-v0.2","","""event"",""trial"",""time""
""fullscreenenter"",""1"",""3369""
","
","
","""event"",""trial"",""time""
""fullscreenenter"",""1"",""3369""
","
","","","-1","","","19","10100","4764","u","elianto","#3366ff99"," ","-1","0","0","[]","0","2","","","10100","111","9","1","win","go","0"
"pit-trial","233","1389901","0.0-116.0","battery-v0.2","","""event"",""trial"",""time""
""fullscreenenter"",""1"",""3369""
","
","
","""event"",""trial"",""time""
""fullscreenenter"",""1"",""3369""
","
","","","704.9999999997672","","","19","10100","4764","l","elianto","#3366ff99"," "," ","1","+10","[1556]","1","2","","","10100","112","8","1","win","go","0"
"pit-trial","234","1393541","0.0-117.0","battery-v0.2","","""event"",""trial"",""time""
""fullscreenenter"",""1"",""3369""
","
","
","""event"",""trial"",""time""
""fullscreenenter"",""1"",""3369""
","
","","","781","","","19","10100","4764","l","elianto","#3366ff99"," "," ","1","+10","[1632]","1","2","","","10100","113","8","1","win","go","0"
"pit-trial","235","1398166","0.0-118.0","battery-v0.2","","""event"",""trial"",""time""
""fullscreenenter"",""1"",""3369""
","
","
","""event"",""trial"",""time""
""fullscreenenter"",""1"",""3369""
","
","","","1765","","","19","10100","4764","g","elianto","#f73b6a7A"," "," ","1","0","[2615]","1","2","","","10100","114","6","3","lose","go","0"
"pit-trial","236","1401946","0.0-119.0","battery-v0.2","","""event"",""trial"",""time""
""fullscreenenter"",""1"",""3369""
","
","
","""event"",""trial"",""time""
""fullscreenenter"",""1"",""3369""
","
","","","920.0000000002328","","","19","10100","4764","u","elianto","#3366ff99"," "," ","1","+10","[1770]","1","2","","","10100","115","9","1","win","go","0"
"pit-trial","237","1406806","0.0-120.0","battery-v0.2","","""event"",""trial"",""time""
""fullscreenenter"",""1"",""3369""
","
","
","""event"",""trial"",""time""
""fullscreenenter"",""1"",""3369""
","
","","","-1","","","19","10100","4764","p","elianto","#3366ff99","-1","-1","1","+10","[]","0","2","","","10100","116","5","2","win","no-go","0"
"pit-trial","238","1411666","0.0-121.0","battery-v0.2","","""event"",""trial"",""time""
""fullscreenenter"",""1"",""3369""
","
","
","""event"",""trial"",""time""
""fullscreenenter"",""1"",""3369""
","
","","","-1","","","19","10100","4764","p","elianto","#3366ff99","-1","-1","1","0","[]","0","2","","","10100","117","5","2","win","no-go","1"
"pit-trial","239","1415633","0.0-122.0","battery-v0.2","","""event"",""trial"",""time""
""fullscreenenter"",""1"",""3369""
","
","
","""event"",""trial"",""time""
""fullscreenenter"",""1"",""3369""
","
","","","1106","","","19","10100","4764","u","elianto","#3366ff99"," "," ","1","+10","[1957]","1","2","","","10100","118","9","1","win","go","0"
"pit-trial","240","1419636","0.0-123.0","battery-v0.2","","""event"",""trial"",""time""
""fullscreenenter"",""1"",""3369""
","
","
","""event"",""trial"",""time""
""fullscreenenter"",""1"",""3369""
","
","","","1142.9999999997672","","","19","10100","4764","g","elianto","#f73b6a7A"," "," ","1","0","[1994]","1","2","","","10100","119","6","3","lose","go","0"
"pit-trial","241","1423502","0.0-124.0","battery-v0.2","","""event"",""trial"",""time""
""fullscreenenter"",""1"",""3369""
","
","
","""event"",""trial"",""time""
""fullscreenenter"",""1"",""3369""
","
","","","1006","","","19","10100","4764","l","elianto","#3366ff99"," "," ","1","0","[1857]","1","2","","","10100","120","8","1","win","go","1"
"pit-trial","242","1427246","0.0-125.0","battery-v0.2","","""event"",""trial"",""time""
""fullscreenenter"",""1"",""3369""
","
","
","""event"",""trial"",""time""
""fullscreenenter"",""1"",""3369""
","
","","","883","","","19","10100","4764","u","elianto","#3366ff99"," "," ","1","0","[1734]","1","2","","","10100","121","9","1","win","go","1"
"pit-trial","243","1431546","0.0-126.0","battery-v0.2","","""event"",""trial"",""time""
""fullscreenenter"",""1"",""3369""
","
","
","""event"",""trial"",""time""
""fullscreenenter"",""1"",""3369""
","
","","","1441","","","19","10100","4764","a","elianto","#f73b6a7A","-1"," ","0","-10","[2291]","1","2","","","10100","122","7","4","lose","no-go","0"
"pit-trial","244","1435104","0.0-127.0","battery-v0.2","","""event"",""trial"",""time""
""fullscreenenter"",""1"",""3369""
","
","
","""event"",""trial"",""time""
""fullscreenenter"",""1"",""3369""
","
","","","697.9999999997672","","","19","10100","4764","l","elianto","#3366ff99"," "," ","1","+10","[1549]","1","2","","","10100","123","8","1","win","go","0"
"pit-trial","245","1438797","0.0-128.0","battery-v0.2","","""event"",""trial"",""time""
""fullscreenenter"",""1"",""3369""
","
","
","""event"",""trial"",""time""
""fullscreenenter"",""1"",""3369""
","
","","","832.9999999997672","","","19","10100","4764","g","elianto","#f73b6a7A"," "," ","1","0","[1685]","1","2","","","10100","124","6","3","lose","go","0"
"pit-trial","246","1443419","0.0-129.0","battery-v0.2","","""event"",""trial"",""time""
""fullscreenenter"",""1"",""3369""
","
","
","""event"",""trial"",""time""
""fullscreenenter"",""1"",""3369""
","
","","","1763","","","19","10100","4764","a","elianto","#f73b6a7A","-1"," ","0","-10","[2614]","1","2","","","10100","125","7","4","lose","no-go","0"
"pit-trial","247","1447248","0.0-130.0","battery-v0.2","","""event"",""trial"",""time""
""fullscreenenter"",""1"",""3369""
","
","
","""event"",""trial"",""time""
""fullscreenenter"",""1"",""3369""
","
","","","970","","","19","10100","4764","u","elianto","#3366ff99"," "," ","1","0","[1821]","1","2","","","10100","126","9","1","win","go","1"
"pit-trial","248","1450984","0.0-131.0","battery-v0.2","","""event"",""trial"",""time""
""fullscreenenter"",""1"",""3369""
","
","
","""event"",""trial"",""time""
""fullscreenenter"",""1"",""3369""
","
","","","876","","","19","10100","4764","l","elianto","#3366ff99"," "," ","1","+10","[1727]","1","2","","","10100","127","8","1","win","go","0"
"pit-trial","249","1454610","0.0-132.0","battery-v0.2","","""event"",""trial"",""time""
""fullscreenenter"",""1"",""3369""
","
","
","""event"",""trial"",""time""
""fullscreenenter"",""1"",""3369""
","
","","","766","","","19","10100","4764","g","elianto","#f73b6a7A"," "," ","1","0","[1617.9999999997672]","1","2","","","10100","128","6","3","lose","go","0"
"pit-trial","250","1458159","0.0-133.0","battery-v0.2","","""event"",""trial"",""time""
""fullscreenenter"",""1"",""3369""
","
","
","""event"",""trial"",""time""
""fullscreenenter"",""1"",""3369""
","
","","","688","","","19","10100","4764","u","elianto","#3366ff99"," "," ","1","+10","[1539]","1","2","","","10100","129","9","1","win","go","0"
"pit-trial","251","1461822","0.0-134.0","battery-v0.2","","""event"",""trial"",""time""
""fullscreenenter"",""1"",""3369""
","
","
","""event"",""trial"",""time""
""fullscreenenter"",""1"",""3369""
","
","","","802","","","19","10100","4764","l","elianto","#3366ff99"," "," ","1","+10","[1652]","1","2","","","10100","130","8","1","win","go","0"
"pit-trial","252","1465503","0.0-135.0","battery-v0.2","","""event"",""trial"",""time""
""fullscreenenter"",""1"",""3369""
","
","
","""event"",""trial"",""time""
""fullscreenenter"",""1"",""3369""
","
","","","819.9999999997672","","","19","10100","4764","a","elianto","#f73b6a7A","-1"," ","0","-10","[1672]","1","2","","","10100","131","7","4","lose","no-go","0"
"pit-trial","253","1469284","0.0-136.0","battery-v0.2","","""event"",""trial"",""time""
""fullscreenenter"",""1"",""3369""
","
","
","""event"",""trial"",""time""
""fullscreenenter"",""1"",""3369""
","
","","","921","","","19","10100","4764","g","elianto","#f73b6a7A"," "," ","1","0","[1772]","1","2","","","10100","132","6","3","lose","go","0"
"pit-trial","254","1472930","0.0-137.0","battery-v0.2","","""event"",""trial"",""time""
""fullscreenenter"",""1"",""3369""
","
","
","""event"",""trial"",""time""
""fullscreenenter"",""1"",""3369""
","
","","","787","","","19","10100","4764","l","elianto","#3366ff99"," "," ","1","+10","[1638]","1","2","","","10100","133","8","1","win","go","0"
"pit-trial","255","1476482","0.0-138.0","battery-v0.2","","""event"",""trial"",""time""
""fullscreenenter"",""1"",""3369""
","
","
","""event"",""trial"",""time""
""fullscreenenter"",""1"",""3369""
","
","","","692","","","19","10100","4764","a","elianto","#f73b6a7A","-1"," ","0","-10","[1543]","1","2","","","10100","134","7","4","lose","no-go","0"
"pit-trial","256","1480169","0.0-139.0","battery-v0.2","","""event"",""trial"",""time""
""fullscreenenter"",""1"",""3369""
","
","
","""event"",""trial"",""time""
""fullscreenenter"",""1"",""3369""
","
","","","825","","","19","10100","4764","g","elianto","#f73b6a7A"," "," ","1","0","[1676]","1","2","","","10100","135","6","3","lose","go","0"
"pit-trial","257","1483880","0.0-140.0","battery-v0.2","","""event"",""trial"",""time""
""fullscreenenter"",""1"",""3369""
","
","
","""event"",""trial"",""time""
""fullscreenenter"",""1"",""3369""
","
","","","850.9999999997672","","","19","10100","4764","u","elianto","#3366ff99"," "," ","1","+10","[1702]","1","2","","","10100","136","9","1","win","go","0"
"pit-trial","258","1488347","0.0-141.0","battery-v0.2","","""event"",""trial"",""time""
""fullscreenenter"",""1"",""3369""
","
","
","""event"",""trial"",""time""
""fullscreenenter"",""1"",""3369""
","
","","","1606.9999999997672","","","19","10100","4764","u","elianto","#3366ff99"," "," ","1","+10","[2458]","1","2","","","10100","137","9","1","win","go","0"
"pit-trial","259","1493209","0.0-142.0","battery-v0.2","","""event"",""trial"",""time""
""fullscreenenter"",""1"",""3369""
","
","
","""event"",""trial"",""time""
""fullscreenenter"",""1"",""3369""
","
","","","-1","","","19","10100","4764","a","elianto","#f73b6a7A","-1","-1","1","0","[]","0","2","","","10100","138","7","4","lose","no-go","0"
"pit-trial","260","1496767","0.0-143.0","battery-v0.2","","""event"",""trial"",""time""
""fullscreenenter"",""1"",""3369""
","
","
","""event"",""trial"",""time""
""fullscreenenter"",""1"",""3369""
","
","","","698","","","19","10100","4764","l","elianto","#3366ff99"," "," ","1","+10","[1548]","1","2","","","10100","139","8","1","win","go","0"
"pit-trial","261","1500550","0.0-144.0","battery-v0.2","","""event"",""trial"",""time""
""fullscreenenter"",""1"",""3369""
","
","
","""event"",""trial"",""time""
""fullscreenenter"",""1"",""3369""
","
","","","923","","","19","10100","4764","g","elianto","#f73b6a7A"," "," ","1","-10","[1774]","1","2","","","10100","140","6","3","lose","go","1"
"pit-instructions","262","1575701","0.0-145.0","battery-v0.2","","""event"",""trial"",""time""
""fullscreenenter"",""1"",""3369""
","
","
","""event"",""trial"",""time""
""fullscreenenter"",""1"",""3369""
","
","","[{""page_index"":0,""viewing_time"":66744.99999999977},{""page_index"":1,""viewing_time"":8403}]","75148.99999999977","","","","","","","","","","","","","","","","","","","","","","","",""
"pit-trial","263","1579281","0.0-146.0","battery-v0.2","","""event"",""trial"",""time""
""fullscreenenter"",""1"",""3369""
","
","
","""event"",""trial"",""time""
""fullscreenenter"",""1"",""3369""
","
","","","721","","","19","10100","4764","t","elianto","#f73b6a7A","-1"," ","0","-10","[1571]","1","3","","","10100","141","2","4","lose","no-go","0"
"pit-trial","264","1582886","0.0-147.0","battery-v0.2","","""event"",""trial"",""time""
""fullscreenenter"",""1"",""3369""
","
","
","""event"",""trial"",""time""
""fullscreenenter"",""1"",""3369""
","
","","","743","","","19","10100","4764","b","elianto","#f73b6a7A"," "," ","1","0","[1594]","1","3","","","10100","142","3","3","lose","go","0"
"pit-trial","265","1586563","0.0-148.0","battery-v0.2","","""event"",""trial"",""time""
""fullscreenenter"",""1"",""3369""
","
","
","""event"",""trial"",""time""
""fullscreenenter"",""1"",""3369""
","
","","","821.9999999997672","","","19","10100","4764","n","elianto","#f73b6a7A","-1"," ","0","0","[1673]","1","3","","","10100","143","0","4","lose","no-go","1"
"pit-trial","266","1590329","0.0-149.0","battery-v0.2","","""event"",""trial"",""time""
""fullscreenenter"",""1"",""3369""
","
","
","""event"",""trial"",""time""
""fullscreenenter"",""1"",""3369""
","
","","","909.9999999997672","","","19","10100","4764","f","elianto","#3366ff99"," "," ","1","0","[1761]","1","3","","","10100","144","1","1","win","go","1"
"pit-trial","267","1594449","0.0-150.0","battery-v0.2","","""event"",""trial"",""time""
""fullscreenenter"",""1"",""3369""
","
","
","""event"",""trial"",""time""
""fullscreenenter"",""1"",""3369""
","
","","","1261","","","19","10100","4764","b","elianto","#f73b6a7A"," "," ","1","-10","[2113]","1","3","","","10100","145","3","3","lose","go","1"
"pit-trial","268","1599306","0.0-151.0","battery-v0.2","","""event"",""trial"",""time""
""fullscreenenter"",""1"",""3369""
","
","
","""event"",""trial"",""time""
""fullscreenenter"",""1"",""3369""
","
","","","-1","","","19","10100","4764","f","elianto","#3366ff99"," ","-1","0","0","[]","0","3","","","10100","146","1","1","win","go","0"
"pit-trial","269","1603358","0.0-152.0","battery-v0.2","","""event"",""trial"",""time""
""fullscreenenter"",""1"",""3369""
","
","
","""event"",""trial"",""time""
""fullscreenenter"",""1"",""3369""
","
","","","1196","","","19","10100","4764","n","elianto","#f73b6a7A","-1"," ","0","0","[2046]","1","3","","","10100","147","0","4","lose","no-go","1"
"pit-trial","270","1608216","0.0-153.0","battery-v0.2","","""event"",""trial"",""time""
""fullscreenenter"",""1"",""3369""
","
","
","""event"",""trial"",""time""
""fullscreenenter"",""1"",""3369""
","
","","","-1","","","19","10100","4764","t","elianto","#f73b6a7A","-1","-1","1","0","[]","0","3","","","10100","148","2","4","lose","no-go","0"
"pit-trial","271","1612740","0.0-154.0","battery-v0.2","","""event"",""trial"",""time""
""fullscreenenter"",""1"",""3369""
","
","
","""event"",""trial"",""time""
""fullscreenenter"",""1"",""3369""
","
","","","1664","","","19","10100","4764","b","elianto","#f73b6a7A"," "," ","1","0","[2515.999999999767]","1","3","","","10100","149","3","3","lose","go","0"
"pit-trial","272","1617601","0.0-155.0","battery-v0.2","","""event"",""trial"",""time""
""fullscreenenter"",""1"",""3369""
","
","
","""event"",""trial"",""time""
""fullscreenenter"",""1"",""3369""
","
","","","-1","","","19","10100","4764","t","elianto","#f73b6a7A","-1","-1","1","0","[]","0","3","","","10100","150","2","4","lose","no-go","0"
"pit-trial","273","1622458","0.0-156.0","battery-v0.2","","""event"",""trial"",""time""
""fullscreenenter"",""1"",""3369""
","
","
","""event"",""trial"",""time""
""fullscreenenter"",""1"",""3369""
","
","","","-1","","","19","10100","4764","f","elianto","#3366ff99"," ","-1","0","+10","[]","0","3","","","10100","151","1","1","win","go","1"
"pit-trial","274","1626069","0.0-157.0","battery-v0.2","","""event"",""trial"",""time""
""fullscreenenter"",""1"",""3369""
","
","
","""event"",""trial"",""time""
