"trial_type","trial_index","time_elapsed","internal_node_id","task_version","subject_id","interactions","blur_events","focus_events","fullscreenenter_events","fullscreenexit_events","success","view_history","rt","responses","num_errors","age","subject","participantId","rune","rune_set","hex","correct","choice","accuracy","outcome","keys","total_keys","block","practice","value","sub","trial","stimulus","robot","valence","action","sham"
"pavlovia","0","1","0.0-0.0","battery-v0.2","","""event"",""trial"",""time""
""fullscreenenter"",""1"",""3030""
","
","
","""event"",""trial"",""time""
""fullscreenenter"",""1"",""3030""
","
","","","","","","","","","","","","","","","","","","","","","","","","","","",""
"fullscreen","1","4022","0.0-1.0","battery-v0.2","","""event"",""trial"",""time""
""fullscreenenter"",""1"",""3030""
","
","
","""event"",""trial"",""time""
""fullscreenenter"",""1"",""3030""
","
","true","","","","","","","","","","","","","","","","","","","","","","","","","",""
"pit-instructions","2","10056","0.0-2.0-0.0","battery-v0.2","","""event"",""trial"",""time""
""fullscreenenter"",""1"",""3030""
","
","
","""event"",""trial"",""time""
""fullscreenenter"",""1"",""3030""
","
","","[{""page_index"":0,""viewing_time"":6030.700000000186}]","6031.5","","","","","","","","","","","","","","","","","","","","","","","",""
"pit-comprehension","3","13091","0.0-2.0-1.0-0.0","battery-v0.2","","""event"",""trial"",""time""
""fullscreenenter"",""1"",""3030""
","
","
","""event"",""trial"",""time""
""fullscreenenter"",""1"",""3030""
","
","","","3031.600000000559","[""shark""]","0","999","999","999","","","","","","","","","","","","","","","","","","",""
"pit-instructions","4","14289","0.0-2.0-1.0-1.0","battery-v0.2","","""event"",""trial"",""time""
""fullscreenenter"",""1"",""3030""
","
","
","""event"",""trial"",""time""
""fullscreenenter"",""1"",""3030""
","
","","[{""page_index"":0,""viewing_time"":1194}]","1194.2999999998137","","","","","","","","","","","","","","","","","","","","","","","",""
"pit-comprehension","5","16873","0.0-2.0-2.0-0.0","battery-v0.2","","""event"",""trial"",""time""
""fullscreenenter"",""1"",""3030""
","
","
","""event"",""trial"",""time""
""fullscreenenter"",""1"",""3030""
","
","","","2581.5","[""tiger""]","0","999","999","999","","","","","","","","","","","","","","","","","","",""
"pit-instructions","6","17940","0.0-2.0-2.0-1.0","battery-v0.2","","""event"",""trial"",""time""
""fullscreenenter"",""1"",""3030""
""blur"",""7"",""65789""
""focus"",""7"",""69216""
""blur"",""7"",""70253""
""focus"",""7"",""213637""
","""event"",""trial"",""time""
""blur"",""7"",""65789""
""blur"",""7"",""70253""
","""event"",""trial"",""time""
""focus"",""7"",""69216""
""focus"",""7"",""213637""
","""event"",""trial"",""time""
""fullscreenenter"",""1"",""3030""
","
","","[{""page_index"":0,""viewing_time"":1064.4000000003725}]","1064.6000000005588","","","","","","","","","","","","","","","","","","","","","","","",""
"pit-instructions","7","265084","0.0-2.0-3.0","battery-v0.2","","""event"",""trial"",""time""
""fullscreenenter"",""1"",""3030""
""blur"",""7"",""65789""
""focus"",""7"",""69216""
""blur"",""7"",""70253""
""focus"",""7"",""213637""
","""event"",""trial"",""time""
""blur"",""7"",""65789""
""blur"",""7"",""70253""
","""event"",""trial"",""time""
""focus"",""7"",""69216""
""focus"",""7"",""213637""
","""event"",""trial"",""time""
""fullscreenenter"",""1"",""3030""
","
","","[{""page_index"":0,""viewing_time"":15669.700000000186},{""page_index"":1,""viewing_time"":7385.0999999996275},{""page_index"":2,""viewing_time"":6885.5},{""page_index"":3,""viewing_time"":5168.300000000745},{""page_index"":4,""viewing_time"":5418.0999999996275},{""page_index"":5,""viewing_time"":6101.5999999996275},{""page_index"":6,""viewing_time"":149758.80000000075},{""page_index"":7,""viewing_time"":6918.5},{""page_index"":8,""viewing_time"":7302.5999999996275},{""page_index"":9,""viewing_time"":7184.799999999814},{""page_index"":10,""viewing_time"":7419.600000000559},{""page_index"":11,""viewing_time"":9653},{""page_index"":12,""viewing_time"":7184.5},{""page_index"":13,""viewing_time"":5101}]","247151.40000000037","","","","","","","","","","","","","","","","","","","","","","","",""
"pit-trial","8","268559","0.0-2.0-4.0-0.0","battery-v0.2","","""event"",""trial"",""time""
""fullscreenenter"",""1"",""3030""
""blur"",""7"",""65789""
""focus"",""7"",""69216""
""blur"",""7"",""70253""
""focus"",""7"",""213637""
","""event"",""trial"",""time""
""blur"",""7"",""65789""
""blur"",""7"",""70253""
","""event"",""trial"",""time""
""focus"",""7"",""69216""
""focus"",""7"",""213637""
","""event"",""trial"",""time""
""fullscreenenter"",""1"",""3030""
","
","","","621.1000000005588","","","999","999","999","&#9784;","elianto","#FFFFF080"," "," ","1","&#10004","[1471.7999999998137]","1","0","0","","","","","","","",""
"pit-trial","9","272847","0.0-2.0-4.1-0.1","battery-v0.2","","""event"",""trial"",""time""
""fullscreenenter"",""1"",""3030""
""blur"",""7"",""65789""
""focus"",""7"",""69216""
""blur"",""7"",""70253""
""focus"",""7"",""213637""
","""event"",""trial"",""time""
""blur"",""7"",""65789""
""blur"",""7"",""70253""
","""event"",""trial"",""time""
""focus"",""7"",""69216""
""focus"",""7"",""213637""
","""event"",""trial"",""time""
""fullscreenenter"",""1"",""3030""
","
","","","1430.800000000745","","","999","999","999","&#9784;","elianto","#FFFFF080"," "," ","1","&#10004","[2283.4000000003725,3160.4000000003725]","2","0","0","","","","","","","",""
"pit-trial","10","276820","0.0-2.0-4.2-0.2","battery-v0.2","","""event"",""trial"",""time""
""fullscreenenter"",""1"",""3030""
""blur"",""7"",""65789""
""focus"",""7"",""69216""
""blur"",""7"",""70253""
""focus"",""7"",""213637""
","""event"",""trial"",""time""
""blur"",""7"",""65789""
""blur"",""7"",""70253""
","""event"",""trial"",""time""
""focus"",""7"",""69216""
""focus"",""7"",""213637""
","""event"",""trial"",""time""
""fullscreenenter"",""1"",""3030""
","
","","","1105.2000000001863","","","999","999","999","&#9784;","elianto","#FFFFF080"," "," ","1","&#10004","[1957.2000000001863]","1","0","0","","","","","","","",""
"pit-trial","11","280693","0.0-2.0-4.3-0.3","battery-v0.2","","""event"",""trial"",""time""
""fullscreenenter"",""1"",""3030""
""blur"",""7"",""65789""
""focus"",""7"",""69216""
""blur"",""7"",""70253""
""focus"",""7"",""213637""
","""event"",""trial"",""time""
""blur"",""7"",""65789""
""blur"",""7"",""70253""
","""event"",""trial"",""time""
""focus"",""7"",""69216""
""focus"",""7"",""213637""
","""event"",""trial"",""time""
""fullscreenenter"",""1"",""3030""
","
","","","1012.6000000005588","","","999","999","999","&#9784;","elianto","#FFFFF080"," "," ","1","&#10004","[1863.7000000001863]","1","0","0","","","","","","","",""
"pit-trial","12","283748","0.0-2.0-4.4-0.4","battery-v0.2","","""event"",""trial"",""time""
""fullscreenenter"",""1"",""3030""
""blur"",""7"",""65789""
""focus"",""7"",""69216""
""blur"",""7"",""70253""
""focus"",""7"",""213637""
""blur"",""13"",""285202""
""focus"",""13"",""300689""
","""event"",""trial"",""time""
""blur"",""7"",""65789""
""blur"",""7"",""70253""
""blur"",""13"",""285202""
","""event"",""trial"",""time""
""focus"",""7"",""69216""
""focus"",""7"",""213637""
""focus"",""13"",""300689""
","""event"",""trial"",""time""
""fullscreenenter"",""1"",""3030""
","
","","","194.29999999981374","","","999","999","999","&#9784;","elianto","#FFFFF080"," "," ","1","&#10004","[1045.5]","1","0","0","","","","","","","",""
"pit-instructions","13","319742","0.0-2.0-5.0","battery-v0.2","","""event"",""trial"",""time""
""fullscreenenter"",""1"",""3030""
""blur"",""7"",""65789""
""focus"",""7"",""69216""
""blur"",""7"",""70253""
""focus"",""7"",""213637""
""blur"",""13"",""285202""
""focus"",""13"",""300689""
","""event"",""trial"",""time""
""blur"",""7"",""65789""
""blur"",""7"",""70253""
""blur"",""13"",""285202""
","""event"",""trial"",""time""
""focus"",""7"",""69216""
""focus"",""7"",""213637""
""focus"",""13"",""300689""
","""event"",""trial"",""time""
""fullscreenenter"",""1"",""3030""
","
","","[{""page_index"":0,""viewing_time"":17867.60000000056},{""page_index"":1,""viewing_time"":7535.5999999996275},{""page_index"":2,""viewing_time"":5034.4000000003725},{""page_index"":3,""viewing_time"":5535.5}]","35973.60000000056","","","","","","","","","","","","","","","","","","","","","","","",""
"pit-trial","14","323070","0.0-2.0-6.0-0.0","battery-v0.2","","""event"",""trial"",""time""
""fullscreenenter"",""1"",""3030""
""blur"",""7"",""65789""
""focus"",""7"",""69216""
""blur"",""7"",""70253""
""focus"",""7"",""213637""
""blur"",""13"",""285202""
""focus"",""13"",""300689""
","""event"",""trial"",""time""
""blur"",""7"",""65789""
""blur"",""7"",""70253""
""blur"",""13"",""285202""
","""event"",""trial"",""time""
""focus"",""7"",""69216""
""focus"",""7"",""213637""
""focus"",""13"",""300689""
","""event"",""trial"",""time""
""fullscreenenter"",""1"",""3030""
","
","","","476.40000000037253","","","999","999","999","&#9854;","elianto","#FFFFF080","-1"," ","0","&#10060","[1326.7999999998137]","1","0","1","","","","","","","",""
"pit-trial","15","327930","0.0-2.0-6.1-0.1","battery-v0.2","","""event"",""trial"",""time""
""fullscreenenter"",""1"",""3030""
""blur"",""7"",""65789""
""focus"",""7"",""69216""
""blur"",""7"",""70253""
""focus"",""7"",""213637""
""blur"",""13"",""285202""
""focus"",""13"",""300689""
","""event"",""trial"",""time""
""blur"",""7"",""65789""
""blur"",""7"",""70253""
""blur"",""13"",""285202""
","""event"",""trial"",""time""
""focus"",""7"",""69216""
""focus"",""7"",""213637""
""focus"",""13"",""300689""
","""event"",""trial"",""time""
""fullscreenenter"",""1"",""3030""
","
","","","-1","","","999","999","999","&#9854;","elianto","#FFFFF080","-1","-1","1","&#10004","[]","0","0","1","","","","","","","",""
"pit-trial","16","332783","0.0-2.0-6.2-0.2","battery-v0.2","","""event"",""trial"",""time""
""fullscreenenter"",""1"",""3030""
""blur"",""7"",""65789""
""focus"",""7"",""69216""
""blur"",""7"",""70253""
""focus"",""7"",""213637""
""blur"",""13"",""285202""
""focus"",""13"",""300689""
","""event"",""trial"",""time""
""blur"",""7"",""65789""
""blur"",""7"",""70253""
""blur"",""13"",""285202""
","""event"",""trial"",""time""
""focus"",""7"",""69216""
""focus"",""7"",""213637""
""focus"",""13"",""300689""
","""event"",""trial"",""time""
""fullscreenenter"",""1"",""3030""
","
","","","-1","","","999","999","999","&#9854;","elianto","#FFFFF080","-1","-1","1","&#10004","[]","0","0","1","","","","","","","",""
"pit-trial","17","337639","0.0-2.0-6.3-0.3","battery-v0.2","","""event"",""trial"",""time""
""fullscreenenter"",""1"",""3030""
""blur"",""7"",""65789""
""focus"",""7"",""69216""
""blur"",""7"",""70253""
""focus"",""7"",""213637""
""blur"",""13"",""285202""
""focus"",""13"",""300689""
""blur"",""18"",""340341""
","""event"",""trial"",""time""
""blur"",""7"",""65789""
""blur"",""7"",""70253""
""blur"",""13"",""285202""
""blur"",""18"",""340341""
","""event"",""trial"",""time""
""focus"",""7"",""69216""
""focus"",""7"",""213637""
""focus"",""13"",""300689""
","""event"",""trial"",""time""
""fullscreenenter"",""1"",""3030""
","
","","","-1","","","999","999","999","&#9854;","elianto","#FFFFF080","-1","-1","1","&#10004","[]","0","0","1","","","","","","","",""
"pit-trial","18","342493","0.0-2.0-6.4-0.4","battery-v0.2","","""event"",""trial"",""time""
""fullscreenenter"",""1"",""3030""
""blur"",""7"",""65789""
""focus"",""7"",""69216""
""blur"",""7"",""70253""
""focus"",""7"",""213637""
""blur"",""13"",""285202""
""focus"",""13"",""300689""
""blur"",""18"",""340341""
""focus"",""19"",""348454""
","""event"",""trial"",""time""
""blur"",""7"",""65789""
""blur"",""7"",""70253""
""blur"",""13"",""285202""
""blur"",""18"",""340341""
","""event"",""trial"",""time""
""focus"",""7"",""69216""
""focus"",""7"",""213637""
""focus"",""13"",""300689""
""focus"",""19"",""348454""
","""event"",""trial"",""time""
""fullscreenenter"",""1"",""3030""
","
","","","-1","","","999","999","999","&#9854;","elianto","#FFFFF080","-1","-1","1","&#10004","[]","0","0","1","","","","","","","",""
"pit-instructions","19","514775","0.0-2.0-7.0","battery-v0.2","","""event"",""trial"",""time""
""fullscreenenter"",""1"",""3030""
""blur"",""7"",""65789""
""focus"",""7"",""69216""
""blur"",""7"",""70253""
""focus"",""7"",""213637""
""blur"",""13"",""285202""
""focus"",""13"",""300689""
""blur"",""18"",""340341""
""focus"",""19"",""348454""
","""event"",""trial"",""time""
""blur"",""7"",""65789""
""blur"",""7"",""70253""
""blur"",""13"",""285202""
""blur"",""18"",""340341""
","""event"",""trial"",""time""
""focus"",""7"",""69216""
""focus"",""7"",""213637""
""focus"",""13"",""300689""
""focus"",""19"",""348454""
","""event"",""trial"",""time""
""fullscreenenter"",""1"",""3030""
","
","","[{""page_index"":0,""viewing_time"":6305.299999999814},{""page_index"":1,""viewing_time"":10215.799999999814},{""page_index"":2,""viewing_time"":6973.799999999814},{""page_index"":3,""viewing_time"":6773.300000000745},{""page_index"":4,""viewing_time"":9022.599999999627},{""page_index"":5,""viewing_time"":7243.9000000003725},{""page_index"":6,""viewing_time"":6164.5},{""page_index"":7,""viewing_time"":8999.899999999441},{""page_index"":8,""viewing_time"":6963.9000000003725},{""page_index"":9,""viewing_time"":10496},{""page_index"":10,""viewing_time"":10836},{""page_index"":11,""viewing_time"":5948.700000000186},{""page_index"":12,""viewing_time"":7503.899999999441},{""page_index"":13,""viewing_time"":6829.100000000559},{""page_index"":14,""viewing_time"":6996.899999999441},{""page_index"":15,""viewing_time"":7267},{""page_index"":16,""viewing_time"":26879.799999999814},{""page_index"":17,""viewing_time"":20864.700000000186}]","172285.59999999963","","","","","","","","","","","","","","","","","","","","","","","",""
"pit-trial","20","518262","0.0-2.0-8.0-0.0","battery-v0.2","","""event"",""trial"",""time""
""fullscreenenter"",""1"",""3030""
""blur"",""7"",""65789""
""focus"",""7"",""69216""
""blur"",""7"",""70253""
""focus"",""7"",""213637""
""blur"",""13"",""285202""
""focus"",""13"",""300689""
""blur"",""18"",""340341""
""focus"",""19"",""348454""
","""event"",""trial"",""time""
""blur"",""7"",""65789""
""blur"",""7"",""70253""
""blur"",""13"",""285202""
""blur"",""18"",""340341""
","""event"",""trial"",""time""
""focus"",""7"",""69216""
""focus"",""7"",""213637""
""focus"",""13"",""300689""
""focus"",""19"",""348454""
","""event"",""trial"",""time""
""fullscreenenter"",""1"",""3030""
","
","","","632.2999999998137","","","999","999","999","&#9776;","elianto","#3366ff99"," "," ","1","+10","[1483.4000000003725]","1","0","1","","","","","","","",""
"pit-trial","21","521580","0.0-2.0-8.0-1.0","battery-v0.2","","""event"",""trial"",""time""
""fullscreenenter"",""1"",""3030""
""blur"",""7"",""65789""
""focus"",""7"",""69216""
""blur"",""7"",""70253""
""focus"",""7"",""213637""
""blur"",""13"",""285202""
""focus"",""13"",""300689""
""blur"",""18"",""340341""
""focus"",""19"",""348454""
","""event"",""trial"",""time""
""blur"",""7"",""65789""
""blur"",""7"",""70253""
""blur"",""13"",""285202""
""blur"",""18"",""340341""
","""event"",""trial"",""time""
""focus"",""7"",""69216""
""focus"",""7"",""213637""
""focus"",""13"",""300689""
""focus"",""19"",""348454""
","""event"",""trial"",""time""
""fullscreenenter"",""1"",""3030""
","
","","","462.70000000018626","","","999","999","999","&#9776;","elianto","#3366ff99"," "," ","1","+10","[1314.7999999998137,2124.399999999441]","2","0","1","","","","","","","",""
"pit-trial","22","524776","0.0-2.0-8.0-2.0","battery-v0.2","","""event"",""trial"",""time""
""fullscreenenter"",""1"",""3030""
""blur"",""7"",""65789""
""focus"",""7"",""69216""
""blur"",""7"",""70253""
""focus"",""7"",""213637""
""blur"",""13"",""285202""
""focus"",""13"",""300689""
""blur"",""18"",""340341""
""focus"",""19"",""348454""
","""event"",""trial"",""time""
""blur"",""7"",""65789""
""blur"",""7"",""70253""
""blur"",""13"",""285202""
""blur"",""18"",""340341""
","""event"",""trial"",""time""
""focus"",""7"",""69216""
""focus"",""7"",""213637""
""focus"",""13"",""300689""
""focus"",""19"",""348454""
","""event"",""trial"",""time""
""fullscreenenter"",""1"",""3030""
","
","","","340","","","999","999","999","&#9776;","elianto","#3366ff99"," "," ","1","+10","[1191.7999999998137]","1","0","1","","","","","","","",""
"pit-trial","23","528623","0.0-2.0-8.0-3.0","battery-v0.2","","""event"",""trial"",""time""
""fullscreenenter"",""1"",""3030""
""blur"",""7"",""65789""
""focus"",""7"",""69216""
""blur"",""7"",""70253""
""focus"",""7"",""213637""
""blur"",""13"",""285202""
""focus"",""13"",""300689""
""blur"",""18"",""340341""
""focus"",""19"",""348454""
","""event"",""trial"",""time""
""blur"",""7"",""65789""
""blur"",""7"",""70253""
""blur"",""13"",""285202""
""blur"",""18"",""340341""
","""event"",""trial"",""time""
""focus"",""7"",""69216""
""focus"",""7"",""213637""
""focus"",""13"",""300689""
""focus"",""19"",""348454""
","""event"",""trial"",""time""
""fullscreenenter"",""1"",""3030""
","
","","","993.0999999996275","","","999","999","999","&#9776;","elianto","#3366ff99"," "," ","1","0","[1843.5999999996275,3631.5999999996275]","2","0","1","","","","","","","",""
"pit-trial","24","532919","0.0-2.0-8.0-4.0","battery-v0.2","","""event"",""trial"",""time""
""fullscreenenter"",""1"",""3030""
""blur"",""7"",""65789""
""focus"",""7"",""69216""
""blur"",""7"",""70253""
""focus"",""7"",""213637""
""blur"",""13"",""285202""
""focus"",""13"",""300689""
""blur"",""18"",""340341""
""focus"",""19"",""348454""
","""event"",""trial"",""time""
""blur"",""7"",""65789""
""blur"",""7"",""70253""
""blur"",""13"",""285202""
""blur"",""18"",""340341""
","""event"",""trial"",""time""
""focus"",""7"",""69216""
""focus"",""7"",""213637""
""focus"",""13"",""300689""
""focus"",""19"",""348454""
","""event"",""trial"",""time""
""fullscreenenter"",""1"",""3030""
","
","","","1443.5999999996275","","","999","999","999","&#9776;","elianto","#3366ff99"," "," ","1","+10","[2293.5999999996275]","1","0","1","","","","","","","",""
"call-function","25","532920","0.0-2.0-9.0","battery-v0.2","","""event"",""trial"",""time""
""fullscreenenter"",""1"",""3030""
""blur"",""7"",""65789""
""focus"",""7"",""69216""
""blur"",""7"",""70253""
""focus"",""7"",""213637""
""blur"",""13"",""285202""
""focus"",""13"",""300689""
""blur"",""18"",""340341""
""focus"",""19"",""348454""
","""event"",""trial"",""time""
""blur"",""7"",""65789""
""blur"",""7"",""70253""
""blur"",""13"",""285202""
""blur"",""18"",""340341""
","""event"",""trial"",""time""
""focus"",""7"",""69216""
""focus"",""7"",""213637""
""focus"",""13"",""300689""
""focus"",""19"",""348454""
","""event"",""trial"",""time""
""fullscreenenter"",""1"",""3030""
","
","","","","","","","","","","","","","","","","","","","","","","","","","","",""
"pit-instructions","26","608415","0.0-2.0-10.0","battery-v0.2","","""event"",""trial"",""time""
""fullscreenenter"",""1"",""3030""
""blur"",""7"",""65789""
""focus"",""7"",""69216""
""blur"",""7"",""70253""
""focus"",""7"",""213637""
""blur"",""13"",""285202""
""focus"",""13"",""300689""
""blur"",""18"",""340341""
""focus"",""19"",""348454""
","""event"",""trial"",""time""
""blur"",""7"",""65789""
""blur"",""7"",""70253""
""blur"",""13"",""285202""
""blur"",""18"",""340341""
","""event"",""trial"",""time""
""focus"",""7"",""69216""
""focus"",""7"",""213637""
""focus"",""13"",""300689""
""focus"",""19"",""348454""
","""event"",""trial"",""time""
""fullscreenenter"",""1"",""3030""
","
","","[{""page_index"":0,""viewing_time"":40103.200000000186},{""page_index"":1,""viewing_time"":7735.0999999996275},{""page_index"":2,""viewing_time"":11386.400000000373},{""page_index"":3,""viewing_time"":8269},{""page_index"":4,""viewing_time"":8002.899999999441}]","75497.09999999963","","","","","","","","","","","","","","","","","","","","","","","",""
"pit-trial","27","613269","0.0-2.0-11.0-0.0","battery-v0.2","","""event"",""trial"",""time""
""fullscreenenter"",""1"",""3030""
""blur"",""7"",""65789""
""focus"",""7"",""69216""
""blur"",""7"",""70253""
""focus"",""7"",""213637""
""blur"",""13"",""285202""
""focus"",""13"",""300689""
""blur"",""18"",""340341""
""focus"",""19"",""348454""
","""event"",""trial"",""time""
""blur"",""7"",""65789""
""blur"",""7"",""70253""
""blur"",""13"",""285202""
""blur"",""18"",""340341""
","""event"",""trial"",""time""
""focus"",""7"",""69216""
""focus"",""7"",""213637""
""focus"",""13"",""300689""
""focus"",""19"",""348454""
","""event"",""trial"",""time""
""fullscreenenter"",""1"",""3030""
","
","","","-1","","","999","999","999","&#9761;","elianto","#3366ff99","-1","-1","1","+10","[]","0","0","2","","","","","","","",""
"pit-trial","28","618127","0.0-2.0-11.0-1.0","battery-v0.2","","""event"",""trial"",""time""
""fullscreenenter"",""1"",""3030""
""blur"",""7"",""65789""
""focus"",""7"",""69216""
""blur"",""7"",""70253""
""focus"",""7"",""213637""
""blur"",""13"",""285202""
""focus"",""13"",""300689""
""blur"",""18"",""340341""
""focus"",""19"",""348454""
","""event"",""trial"",""time""
""blur"",""7"",""65789""
""blur"",""7"",""70253""
""blur"",""13"",""285202""
""blur"",""18"",""340341""
","""event"",""trial"",""time""
""focus"",""7"",""69216""
""focus"",""7"",""213637""
""focus"",""13"",""300689""
""focus"",""19"",""348454""
","""event"",""trial"",""time""
""fullscreenenter"",""1"",""3030""
","
","","","-1","","","999","999","999","&#9761;","elianto","#3366ff99","-1","-1","1","+10","[]","0","0","2","","","","","","","",""
"pit-trial","29","622981","0.0-2.0-11.0-2.0","battery-v0.2","","""event"",""trial"",""time""
""fullscreenenter"",""1"",""3030""
""blur"",""7"",""65789""
""focus"",""7"",""69216""
""blur"",""7"",""70253""
""focus"",""7"",""213637""
""blur"",""13"",""285202""
""focus"",""13"",""300689""
""blur"",""18"",""340341""
""focus"",""19"",""348454""
","""event"",""trial"",""time""
""blur"",""7"",""65789""
""blur"",""7"",""70253""
""blur"",""13"",""285202""
""blur"",""18"",""340341""
","""event"",""trial"",""time""
""focus"",""7"",""69216""
""focus"",""7"",""213637""
""focus"",""13"",""300689""
""focus"",""19"",""348454""
","""event"",""trial"",""time""
""fullscreenenter"",""1"",""3030""
","
","","","-1","","","999","999","999","&#9761;","elianto","#3366ff99","-1","-1","1","+10","[]","0","0","2","","","","","","","",""
"pit-trial","30","627839","0.0-2.0-11.0-3.0","battery-v0.2","","""event"",""trial"",""time""
""fullscreenenter"",""1"",""3030""
""blur"",""7"",""65789""
""focus"",""7"",""69216""
""blur"",""7"",""70253""
""focus"",""7"",""213637""
""blur"",""13"",""285202""
""focus"",""13"",""300689""
""blur"",""18"",""340341""
""focus"",""19"",""348454""
","""event"",""trial"",""time""
""blur"",""7"",""65789""
""blur"",""7"",""70253""
""blur"",""13"",""285202""
""blur"",""18"",""340341""
","""event"",""trial"",""time""
""focus"",""7"",""69216""
""focus"",""7"",""213637""
""focus"",""13"",""300689""
""focus"",""19"",""348454""
","""event"",""trial"",""time""
""fullscreenenter"",""1"",""3030""
","
","","","-1","","","999","999","999","&#9761;","elianto","#3366ff99","-1","-1","1","0","[]","0","0","2","","","","","","","",""
"pit-trial","31","632696","0.0-2.0-11.0-4.0","battery-v0.2","","""event"",""trial"",""time""
""fullscreenenter"",""1"",""3030""
""blur"",""7"",""65789""
""focus"",""7"",""69216""
""blur"",""7"",""70253""
""focus"",""7"",""213637""
""blur"",""13"",""285202""
""focus"",""13"",""300689""
""blur"",""18"",""340341""
""focus"",""19"",""348454""
","""event"",""trial"",""time""
""blur"",""7"",""65789""
""blur"",""7"",""70253""
""blur"",""13"",""285202""
""blur"",""18"",""340341""
","""event"",""trial"",""time""
""focus"",""7"",""69216""
""focus"",""7"",""213637""
""focus"",""13"",""300689""
""focus"",""19"",""348454""
","""event"",""trial"",""time""
""fullscreenenter"",""1"",""3030""
","
","","","-1","","","999","999","999","&#9761;","elianto","#3366ff99","-1","-1","1","+10","[]","0","0","2","","","","","","","",""
"call-function","32","632697","0.0-2.0-12.0","battery-v0.2","","""event"",""trial"",""time""
""fullscreenenter"",""1"",""3030""
""blur"",""7"",""65789""
""focus"",""7"",""69216""
""blur"",""7"",""70253""
""focus"",""7"",""213637""
""blur"",""13"",""285202""
""focus"",""13"",""300689""
""blur"",""18"",""340341""
""focus"",""19"",""348454""
","""event"",""trial"",""time""
""blur"",""7"",""65789""
""blur"",""7"",""70253""
""blur"",""13"",""285202""
""blur"",""18"",""340341""
","""event"",""trial"",""time""
""focus"",""7"",""69216""
""focus"",""7"",""213637""
""focus"",""13"",""300689""
""focus"",""19"",""348454""
","""event"",""trial"",""time""
""fullscreenenter"",""1"",""3030""
","
","","","","","","","","","","","","","","","","","","","","","","","","","","",""
"pit-instructions","33","747866","0.0-2.0-13.0","battery-v0.2","","""event"",""trial"",""time""
""fullscreenenter"",""1"",""3030""
""blur"",""7"",""65789""
""focus"",""7"",""69216""
""blur"",""7"",""70253""
""focus"",""7"",""213637""
""blur"",""13"",""285202""
""focus"",""13"",""300689""
""blur"",""18"",""340341""
""focus"",""19"",""348454""
","""event"",""trial"",""time""
""blur"",""7"",""65789""
""blur"",""7"",""70253""
""blur"",""13"",""285202""
""blur"",""18"",""340341""
","""event"",""trial"",""time""
""focus"",""7"",""69216""
""focus"",""7"",""213637""
""focus"",""13"",""300689""
""focus"",""19"",""348454""
","""event"",""trial"",""time""
""fullscreenenter"",""1"",""3030""
","
","","[{""page_index"":0,""viewing_time"":34966.200000000186},{""page_index"":1,""viewing_time"":7101.5},{""page_index"":2,""viewing_time"":14970.799999999814},{""page_index"":3,""viewing_time"":23107.099999999627},{""page_index"":4,""viewing_time"":35026.40000000037}]","115172.29999999981","","","","","","","","","","","","","","","","","","","","","","","",""
"pit-trial","34","752727","0.0-2.0-14.0-0.0","battery-v0.2","","""event"",""trial"",""time""
""fullscreenenter"",""1"",""3030""
""blur"",""7"",""65789""
""focus"",""7"",""69216""
""blur"",""7"",""70253""
""focus"",""7"",""213637""
""blur"",""13"",""285202""
""focus"",""13"",""300689""
""blur"",""18"",""340341""
""focus"",""19"",""348454""
","""event"",""trial"",""time""
""blur"",""7"",""65789""
""blur"",""7"",""70253""
""blur"",""13"",""285202""
""blur"",""18"",""340341""
","""event"",""trial"",""time""
""focus"",""7"",""69216""
""focus"",""7"",""213637""
""focus"",""13"",""300689""
""focus"",""19"",""348454""
","""event"",""trial"",""time""
""fullscreenenter"",""1"",""3030""
","
","","","-1","","","999","999","999","&#9826;","elianto","#f73b6a7A","-1","-1","1","0","[]","0","0","3","","","","","","","",""
"pit-trial","35","757585","0.0-2.0-14.0-1.0","battery-v0.2","","""event"",""trial"",""time""
""fullscreenenter"",""1"",""3030""
""blur"",""7"",""65789""
""focus"",""7"",""69216""
""blur"",""7"",""70253""
""focus"",""7"",""213637""
""blur"",""13"",""285202""
""focus"",""13"",""300689""
""blur"",""18"",""340341""
""focus"",""19"",""348454""
","""event"",""trial"",""time""
""blur"",""7"",""65789""
""blur"",""7"",""70253""
""blur"",""13"",""285202""
""blur"",""18"",""340341""
","""event"",""trial"",""time""
""focus"",""7"",""69216""
""focus"",""7"",""213637""
""focus"",""13"",""300689""
""focus"",""19"",""348454""
","""event"",""trial"",""time""
""fullscreenenter"",""1"",""3030""
","
","","","-1","","","999","999","999","&#9826;","elianto","#f73b6a7A","-1","-1","1","0","[]","0","0","3","","","","","","","",""
"pit-trial","36","762444","0.0-2.0-14.0-2.0","battery-v0.2","","""event"",""trial"",""time""
""fullscreenenter"",""1"",""3030""
""blur"",""7"",""65789""
""focus"",""7"",""69216""
""blur"",""7"",""70253""
""focus"",""7"",""213637""
""blur"",""13"",""285202""
""focus"",""13"",""300689""
""blur"",""18"",""340341""
""focus"",""19"",""348454""
","""event"",""trial"",""time""
""blur"",""7"",""65789""
""blur"",""7"",""70253""
""blur"",""13"",""285202""
""blur"",""18"",""340341""
","""event"",""trial"",""time""
""focus"",""7"",""69216""
""focus"",""7"",""213637""
""focus"",""13"",""300689""
""focus"",""19"",""348454""
","""event"",""trial"",""time""
""fullscreenenter"",""1"",""3030""
","
","","","-1","","","999","999","999","&#9826;","elianto","#f73b6a7A","-1","-1","1","0","[]","0","0","3","","","","","","","",""
"pit-trial","37","767302","0.0-2.0-14.0-3.0","battery-v0.2","","""event"",""trial"",""time""
""fullscreenenter"",""1"",""3030""
""blur"",""7"",""65789""
""focus"",""7"",""69216""
""blur"",""7"",""70253""
""focus"",""7"",""213637""
""blur"",""13"",""285202""
""focus"",""13"",""300689""
""blur"",""18"",""340341""
""focus"",""19"",""348454""
","""event"",""trial"",""time""
""blur"",""7"",""65789""
""blur"",""7"",""70253""
""blur"",""13"",""285202""
""blur"",""18"",""340341""
","""event"",""trial"",""time""
""focus"",""7"",""69216""
""focus"",""7"",""213637""
""focus"",""13"",""300689""
""focus"",""19"",""348454""
","""event"",""trial"",""time""
""fullscreenenter"",""1"",""3030""
","
","","","-1","","","999","999","999","&#9826;","elianto","#f73b6a7A","-1","-1","1","-10","[]","0","0","3","","","","","","","",""
"pit-trial","38","772161","0.0-2.0-14.0-4.0","battery-v0.2","","""event"",""trial"",""time""
""fullscreenenter"",""1"",""3030""
""blur"",""7"",""65789""
""focus"",""7"",""69216""
""blur"",""7"",""70253""
""focus"",""7"",""213637""
""blur"",""13"",""285202""
""focus"",""13"",""300689""
""blur"",""18"",""340341""
""focus"",""19"",""348454""
","""event"",""trial"",""time""
""blur"",""7"",""65789""
""blur"",""7"",""70253""
""blur"",""13"",""285202""
""blur"",""18"",""340341""
","""event"",""trial"",""time""
""focus"",""7"",""69216""
""focus"",""7"",""213637""
""focus"",""13"",""300689""
""focus"",""19"",""348454""
","""event"",""trial"",""time""
""fullscreenenter"",""1"",""3030""
","
","","","-1","","","999","999","999","&#9826;","elianto","#f73b6a7A","-1","-1","1","0","[]","0","0","3","","","","","","","",""
"call-function","39","772162","0.0-2.0-15.0","battery-v0.2","","""event"",""trial"",""time""
""fullscreenenter"",""1"",""3030""
""blur"",""7"",""65789""
""focus"",""7"",""69216""
""blur"",""7"",""70253""
""focus"",""7"",""213637""
""blur"",""13"",""285202""
""focus"",""13"",""300689""
""blur"",""18"",""340341""
""focus"",""19"",""348454""
","""event"",""trial"",""time""
""blur"",""7"",""65789""
""blur"",""7"",""70253""
""blur"",""13"",""285202""
""blur"",""18"",""340341""
","""event"",""trial"",""time""
""focus"",""7"",""69216""
""focus"",""7"",""213637""
""focus"",""13"",""300689""
""focus"",""19"",""348454""
","""event"",""trial"",""time""
""fullscreenenter"",""1"",""3030""
","
","","","","","","","","","","","","","","","","","","","","","","","","","","",""
"pit-instructions","40","859277","0.0-2.0-16.0","battery-v0.2","","""event"",""trial"",""time""
""fullscreenenter"",""1"",""3030""
""blur"",""7"",""65789""
""focus"",""7"",""69216""
""blur"",""7"",""70253""
""focus"",""7"",""213637""
""blur"",""13"",""285202""
""focus"",""13"",""300689""
""blur"",""18"",""340341""
""focus"",""19"",""348454""
","""event"",""trial"",""time""
""blur"",""7"",""65789""
""blur"",""7"",""70253""
""blur"",""13"",""285202""
""blur"",""18"",""340341""
","""event"",""trial"",""time""
""focus"",""7"",""69216""
""focus"",""7"",""213637""
""focus"",""13"",""300689""
""focus"",""19"",""348454""
","""event"",""trial"",""time""
""fullscreenenter"",""1"",""3030""
","
","","[{""page_index"":0,""viewing_time"":12796},{""page_index"":1,""viewing_time"":50863.5},{""page_index"":2,""viewing_time"":18589.299999999814},{""page_index"":3,""viewing_time"":4868}]","87117.10000000056","","","","","","","","","","","","","","","","","","","","","","","",""
"pit-trial","41","862979","0.0-2.0-17.0-0.0","battery-v0.2","","""event"",""trial"",""time""
""fullscreenenter"",""1"",""3030""
""blur"",""7"",""65789""
""focus"",""7"",""69216""
""blur"",""7"",""70253""
""focus"",""7"",""213637""
""blur"",""13"",""285202""
""focus"",""13"",""300689""
""blur"",""18"",""340341""
""focus"",""19"",""348454""
","""event"",""trial"",""time""
""blur"",""7"",""65789""
""blur"",""7"",""70253""
""blur"",""13"",""285202""
""blur"",""18"",""340341""
","""event"",""trial"",""time""
""focus"",""7"",""69216""
""focus"",""7"",""213637""
""focus"",""13"",""300689""
""focus"",""19"",""348454""
","""event"",""trial"",""time""
""fullscreenenter"",""1"",""3030""
","
","","","844.5","","","999","999","999","&#9789;","elianto","#f73b6a7A"," "," ","1","0","[1696]","1","0","4","","","","","","","",""
"pit-trial","42","866137","0.0-2.0-17.0-1.0","battery-v0.2","","""event"",""trial"",""time""
""fullscreenenter"",""1"",""3030""
""blur"",""7"",""65789""
""focus"",""7"",""69216""
""blur"",""7"",""70253""
""focus"",""7"",""213637""
""blur"",""13"",""285202""
""focus"",""13"",""300689""
""blur"",""18"",""340341""
""focus"",""19"",""348454""
","""event"",""trial"",""time""
""blur"",""7"",""65789""
""blur"",""7"",""70253""
""blur"",""13"",""285202""
""blur"",""18"",""340341""
","""event"",""trial"",""time""
""focus"",""7"",""69216""
""focus"",""7"",""213637""
""focus"",""13"",""300689""
""focus"",""19"",""348454""
","""event"",""trial"",""time""
""fullscreenenter"",""1"",""3030""
","
","","","302.90000000037253","","","999","999","999","&#9789;","elianto","#f73b6a7A"," "," ","1","0","[1154.9000000003725]","1","0","4","","","","","","","",""
"pit-trial","43","869267","0.0-2.0-17.0-2.0","battery-v0.2","","""event"",""trial"",""time""
""fullscreenenter"",""1"",""3030""
""blur"",""7"",""65789""
""focus"",""7"",""69216""
""blur"",""7"",""70253""
""focus"",""7"",""213637""
""blur"",""13"",""285202""
""focus"",""13"",""300689""
""blur"",""18"",""340341""
""focus"",""19"",""348454""
","""event"",""trial"",""time""
""blur"",""7"",""65789""
""blur"",""7"",""70253""
""blur"",""13"",""285202""
""blur"",""18"",""340341""
","""event"",""trial"",""time""
""focus"",""7"",""69216""
""focus"",""7"",""213637""
""focus"",""13"",""300689""
""focus"",""19"",""348454""
","""event"",""trial"",""time""
""fullscreenenter"",""1"",""3030""
","
","","","272.5","","","999","999","999","&#9789;","elianto","#f73b6a7A"," "," ","1","0","[1124.2999999998137]","1","0","4","","","","","","","",""
"pit-trial","44","872403","0.0-2.0-17.0-3.0","battery-v0.2","","""event"",""trial"",""time""
""fullscreenenter"",""1"",""3030""
""blur"",""7"",""65789""
""focus"",""7"",""69216""
""blur"",""7"",""70253""
""focus"",""7"",""213637""
""blur"",""13"",""285202""
""focus"",""13"",""300689""
""blur"",""18"",""340341""
""focus"",""19"",""348454""
","""event"",""trial"",""time""
""blur"",""7"",""65789""
""blur"",""7"",""70253""
""blur"",""13"",""285202""
""blur"",""18"",""340341""
","""event"",""trial"",""time""
""focus"",""7"",""69216""
""focus"",""7"",""213637""
""focus"",""13"",""300689""
""focus"",""19"",""348454""
","""event"",""trial"",""time""
""fullscreenenter"",""1"",""3030""
","
","","","280.79999999981374","","","999","999","999","&#9789;","elianto","#f73b6a7A"," "," ","1","-10","[1133]","1","0","4","","","","","","","",""
"pit-trial","45","875496","0.0-2.0-17.0-4.0","battery-v0.2","","""event"",""trial"",""time""
""fullscreenenter"",""1"",""3030""
""blur"",""7"",""65789""
""focus"",""7"",""69216""
""blur"",""7"",""70253""
""focus"",""7"",""213637""
""blur"",""13"",""285202""
""focus"",""13"",""300689""
""blur"",""18"",""340341""
""focus"",""19"",""348454""
","""event"",""trial"",""time""
""blur"",""7"",""65789""
""blur"",""7"",""70253""
""blur"",""13"",""285202""
""blur"",""18"",""340341""
","""event"",""trial"",""time""
""focus"",""7"",""69216""
""focus"",""7"",""213637""
""focus"",""13"",""300689""
""focus"",""19"",""348454""
","""event"",""trial"",""time""
""fullscreenenter"",""1"",""3030""
","
","","","238","","","999","999","999","&#9789;","elianto","#f73b6a7A"," "," ","1","0","[1090]","1","0","4","","","","","","","",""
"call-function","46","875497","0.0-2.0-18.0","battery-v0.2","","""event"",""trial"",""time""
""fullscreenenter"",""1"",""3030""
""blur"",""7"",""65789""
""focus"",""7"",""69216""
""blur"",""7"",""70253""
""focus"",""7"",""213637""
""blur"",""13"",""285202""
""focus"",""13"",""300689""
""blur"",""18"",""340341""
""focus"",""19"",""348454""
","""event"",""trial"",""time""
""blur"",""7"",""65789""
""blur"",""7"",""70253""
""blur"",""13"",""285202""
""blur"",""18"",""340341""
","""event"",""trial"",""time""
""focus"",""7"",""69216""
""focus"",""7"",""213637""
""focus"",""13"",""300689""
""focus"",""19"",""348454""
","""event"",""trial"",""time""
""fullscreenenter"",""1"",""3030""
","
","","","","","","","","","","","","","","","","","","","","","","","","","","",""
"pit-instructions","47","959702","0.0-2.0-19.0","battery-v0.2","","""event"",""trial"",""time""
""fullscreenenter"",""1"",""3030""
""blur"",""7"",""65789""
""focus"",""7"",""69216""
""blur"",""7"",""70253""
""focus"",""7"",""213637""
""blur"",""13"",""285202""
""focus"",""13"",""300689""
""blur"",""18"",""340341""
""focus"",""19"",""348454""
","""event"",""trial"",""time""
""blur"",""7"",""65789""
""blur"",""7"",""70253""
""blur"",""13"",""285202""
""blur"",""18"",""340341""
","""event"",""trial"",""time""
""focus"",""7"",""69216""
""focus"",""7"",""213637""
""focus"",""13"",""300689""
""focus"",""19"",""348454""
","""event"",""trial"",""time""
""fullscreenenter"",""1"",""3030""
","
","","[{""page_index"":0,""viewing_time"":6601.0999999996275},{""page_index"":1,""viewing_time"":7769.299999999814},{""page_index"":2,""viewing_time"":12903.900000000373},{""page_index"":3,""viewing_time"":15454.299999999814},{""page_index"":4,""viewing_time"":8535.100000000559},{""page_index"":5,""viewing_time"":11504},{""page_index"":6,""viewing_time"":7817.799999999814},{""page_index"":7,""viewing_time"":5852.200000000186},{""page_index"":8,""viewing_time"":7769.199999999255}]","84207.20000000019","","","","","","","","","","","","","","","","","","","","","","","",""
"pit-comprehension","48","968621","0.0-2.0-20.0-0.0","battery-v0.2","","""event"",""trial"",""time""
""fullscreenenter"",""1"",""3030""
""blur"",""7"",""65789""
""focus"",""7"",""69216""
""blur"",""7"",""70253""
""focus"",""7"",""213637""
""blur"",""13"",""285202""
""focus"",""13"",""300689""
""blur"",""18"",""340341""
""focus"",""19"",""348454""
","""event"",""trial"",""time""
""blur"",""7"",""65789""
""blur"",""7"",""70253""
""blur"",""13"",""285202""
""blur"",""18"",""340341""
","""event"",""trial"",""time""
""focus"",""7"",""69216""
""focus"",""7"",""213637""
""focus"",""13"",""300689""
""focus"",""19"",""348454""
","""event"",""trial"",""time""
""fullscreenenter"",""1"",""3030""
","
","","","8917.5","[""SPACE""]","0","999","999","999","","","","","","","","","","","","","","","","","","",""
"pit-instructions","49","974705","0.0-2.0-20.0-1.0","battery-v0.2","","""event"",""trial"",""time""
""fullscreenenter"",""1"",""3030""
""blur"",""7"",""65789""
""focus"",""7"",""69216""
""blur"",""7"",""70253""
""focus"",""7"",""213637""
""blur"",""13"",""285202""
""focus"",""13"",""300689""
""blur"",""18"",""340341""
""focus"",""19"",""348454""
","""event"",""trial"",""time""
""blur"",""7"",""65789""
""blur"",""7"",""70253""
""blur"",""13"",""285202""
""blur"",""18"",""340341""
","""event"",""trial"",""time""
""focus"",""7"",""69216""
""focus"",""7"",""213637""
""focus"",""13"",""300689""
""focus"",""19"",""348454""
","""event"",""trial"",""time""
""fullscreenenter"",""1"",""3030""
","
","","[{""page_index"":0,""viewing_time"":6071.700000000186}]","6071.9000000003725","","","","","","","","","","","","","","","","","","","","","","","",""
"pit-comprehension","50","979490","0.0-2.0-21.0-0.0","battery-v0.2","","""event"",""trial"",""time""
""fullscreenenter"",""1"",""3030""
""blur"",""7"",""65789""
""focus"",""7"",""69216""
""blur"",""7"",""70253""
""focus"",""7"",""213637""
""blur"",""13"",""285202""
""focus"",""13"",""300689""
""blur"",""18"",""340341""
""focus"",""19"",""348454""
","""event"",""trial"",""time""
""blur"",""7"",""65789""
""blur"",""7"",""70253""
""blur"",""13"",""285202""
""blur"",""18"",""340341""
","""event"",""trial"",""time""
""focus"",""7"",""69216""
""focus"",""7"",""213637""
""focus"",""13"",""300689""
""focus"",""19"",""348454""
","""event"",""trial"",""time""
""fullscreenenter"",""1"",""3030""
","
","","","4783.799999999814","[""10""]","0","999","999","999","","","","","","","","","","","","","","","","","","",""
"pit-instructions","51","1142213","0.0-2.0-21.0-1.0","battery-v0.2","","""event"",""trial"",""time""
""fullscreenenter"",""1"",""3030""
""blur"",""7"",""65789""
""focus"",""7"",""69216""
""blur"",""7"",""70253""
""focus"",""7"",""213637""
""blur"",""13"",""285202""
""focus"",""13"",""300689""
""blur"",""18"",""340341""
""focus"",""19"",""348454""
","""event"",""trial"",""time""
""blur"",""7"",""65789""
""blur"",""7"",""70253""
""blur"",""13"",""285202""
""blur"",""18"",""340341""
","""event"",""trial"",""time""
""focus"",""7"",""69216""
""focus"",""7"",""213637""
""focus"",""13"",""300689""
""focus"",""19"",""348454""
","""event"",""trial"",""time""
""fullscreenenter"",""1"",""3030""
","
","","[{""page_index"":0,""viewing_time"":162715.39999999944}]","162715.69999999925","","","","","","","","","","","","","","","","","","","","","","","",""
"pit-comprehension","52","1148766","0.0-2.0-22.0-0.0","battery-v0.2","","""event"",""trial"",""time""
""fullscreenenter"",""1"",""3030""
""blur"",""7"",""65789""
""focus"",""7"",""69216""
""blur"",""7"",""70253""
""focus"",""7"",""213637""
""blur"",""13"",""285202""
""focus"",""13"",""300689""
""blur"",""18"",""340341""
""focus"",""19"",""348454""
","""event"",""trial"",""time""
""blur"",""7"",""65789""
""blur"",""7"",""70253""
""blur"",""13"",""285202""
""blur"",""18"",""340341""
","""event"",""trial"",""time""
""focus"",""7"",""69216""
""focus"",""7"",""213637""
""focus"",""13"",""300689""
""focus"",""19"",""348454""
","""event"",""trial"",""time""
""fullscreenenter"",""1"",""3030""
","
","","","6550.299999999814","[""0""]","0","999","999","999","","","","","","","","","","","","","","","","","","",""
"pit-instructions","53","1151999","0.0-2.0-22.0-1.0","battery-v0.2","","""event"",""trial"",""time""
""fullscreenenter"",""1"",""3030""
""blur"",""7"",""65789""
""focus"",""7"",""69216""
""blur"",""7"",""70253""
""focus"",""7"",""213637""
""blur"",""13"",""285202""
""focus"",""13"",""300689""
""blur"",""18"",""340341""
""focus"",""19"",""348454""
","""event"",""trial"",""time""
""blur"",""7"",""65789""
""blur"",""7"",""70253""
""blur"",""13"",""285202""
""blur"",""18"",""340341""
","""event"",""trial"",""time""
""focus"",""7"",""69216""
""focus"",""7"",""213637""
""focus"",""13"",""300689""
""focus"",""19"",""348454""
","""event"",""trial"",""time""
""fullscreenenter"",""1"",""3030""
","
","","[{""page_index"":0,""viewing_time"":3220.2000000001863}]","3220.5","","","","","","","","","","","","","","","","","","","","","","","",""
"pit-comprehension","54","1160385","0.0-2.0-23.0-0.0","battery-v0.2","","""event"",""trial"",""time""
""fullscreenenter"",""1"",""3030""
""blur"",""7"",""65789""
""focus"",""7"",""69216""
""blur"",""7"",""70253""
""focus"",""7"",""213637""
""blur"",""13"",""285202""
""focus"",""13"",""300689""
""blur"",""18"",""340341""
""focus"",""19"",""348454""
","""event"",""trial"",""time""
""blur"",""7"",""65789""
""blur"",""7"",""70253""
""blur"",""13"",""285202""
""blur"",""18"",""340341""
","""event"",""trial"",""time""
""focus"",""7"",""69216""
""focus"",""7"",""213637""
""focus"",""13"",""300689""
""focus"",""19"",""348454""
","""event"",""trial"",""time""
""fullscreenenter"",""1"",""3030""
","
","","","8384.299999999814","[""True""]","0","999","999","999","","","","","","","","","","","","","","","","","","",""
"pit-instructions","55","1161751","0.0-2.0-23.0-1.0","battery-v0.2","","""event"",""trial"",""time""
""fullscreenenter"",""1"",""3030""
""blur"",""7"",""65789""
""focus"",""7"",""69216""
""blur"",""7"",""70253""
""focus"",""7"",""213637""
""blur"",""13"",""285202""
""focus"",""13"",""300689""
""blur"",""18"",""340341""
""focus"",""19"",""348454""
","""event"",""trial"",""time""
""blur"",""7"",""65789""
""blur"",""7"",""70253""
""blur"",""13"",""285202""
""blur"",""18"",""340341""
","""event"",""trial"",""time""
""focus"",""7"",""69216""
""focus"",""7"",""213637""
""focus"",""13"",""300689""
""focus"",""19"",""348454""
","""event"",""trial"",""time""
""fullscreenenter"",""1"",""3030""
","
","","[{""page_index"":0,""viewing_time"":1351.5999999996275}]","1351.8999999994412","","","","","","","","","","","","","","","","","","","","","","","",""
"pit-comprehension","56","1169371","0.0-2.0-24.0-0.0","battery-v0.2","","""event"",""trial"",""time""
""fullscreenenter"",""1"",""3030""
""blur"",""7"",""65789""
""focus"",""7"",""69216""
""blur"",""7"",""70253""
""focus"",""7"",""213637""
""blur"",""13"",""285202""
""focus"",""13"",""300689""
""blur"",""18"",""340341""
""focus"",""19"",""348454""
","""event"",""trial"",""time""
""blur"",""7"",""65789""
""blur"",""7"",""70253""
""blur"",""13"",""285202""
""blur"",""18"",""340341""
","""event"",""trial"",""time""
""focus"",""7"",""69216""
""focus"",""7"",""213637""
""focus"",""13"",""300689""
""focus"",""19"",""348454""
","""event"",""trial"",""time""
""fullscreenenter"",""1"",""3030""
","
","","","7617.4000000003725","[""True""]","0","999","999","999","","","","","","","","","","","","","","","","","","",""
"pit-instructions","57","1170904","0.0-2.0-24.0-1.0","battery-v0.2","","""event"",""trial"",""time""
""fullscreenenter"",""1"",""3030""
""blur"",""7"",""65789""
""focus"",""7"",""69216""
""blur"",""7"",""70253""
""focus"",""7"",""213637""
""blur"",""13"",""285202""
""focus"",""13"",""300689""
""blur"",""18"",""340341""
""focus"",""19"",""348454""
","""event"",""trial"",""time""
""blur"",""7"",""65789""
""blur"",""7"",""70253""
""blur"",""13"",""285202""
""blur"",""18"",""340341""
","""event"",""trial"",""time""
""focus"",""7"",""69216""
""focus"",""7"",""213637""
""focus"",""13"",""300689""
""focus"",""19"",""348454""
","""event"",""trial"",""time""
""fullscreenenter"",""1"",""3030""
","
","","[{""page_index"":0,""viewing_time"":1519}]","1519.2999999998137","","","","","","","","","","","","","","","","","","","","","","","",""
"pit-comprehension","58","1240454","0.0-2.0-25.0-0.0","battery-v0.2","","""event"",""trial"",""time""
""fullscreenenter"",""1"",""3030""
""blur"",""7"",""65789""
""focus"",""7"",""69216""
""blur"",""7"",""70253""
""focus"",""7"",""213637""
""blur"",""13"",""285202""
""focus"",""13"",""300689""
""blur"",""18"",""340341""
""focus"",""19"",""348454""
","""event"",""trial"",""time""
""blur"",""7"",""65789""
""blur"",""7"",""70253""
""blur"",""13"",""285202""
""blur"",""18"",""340341""
","""event"",""trial"",""time""
""focus"",""7"",""69216""
""focus"",""7"",""213637""
""focus"",""13"",""300689""
""focus"",""19"",""348454""
","""event"",""trial"",""time""
""fullscreenenter"",""1"",""3030""
","
","","","69550.79999999981","[""True""]","0","999","999","999","","","","","","","","","","","","","","","","","","",""
"pit-instructions","59","1243155","0.0-2.0-25.0-1.0","battery-v0.2","","""event"",""trial"",""time""
""fullscreenenter"",""1"",""3030""
""blur"",""7"",""65789""
""focus"",""7"",""69216""
""blur"",""7"",""70253""
""focus"",""7"",""213637""
""blur"",""13"",""285202""
""focus"",""13"",""300689""
""blur"",""18"",""340341""
""focus"",""19"",""348454""
","""event"",""trial"",""time""
""blur"",""7"",""65789""
""blur"",""7"",""70253""
""blur"",""13"",""285202""
""blur"",""18"",""340341""
","""event"",""trial"",""time""
""focus"",""7"",""69216""
""focus"",""7"",""213637""
""focus"",""13"",""300689""
""focus"",""19"",""348454""
","""event"",""trial"",""time""
""fullscreenenter"",""1"",""3030""
","
","","[{""page_index"":0,""viewing_time"":2687.5}]","2687.7999999998137","","","","","","","","","","","","","","","","","","","","","","","",""
"pit-comprehension","60","1249807","0.0-2.0-26.0-0.0","battery-v0.2","","""event"",""trial"",""time""
""fullscreenenter"",""1"",""3030""
""blur"",""7"",""65789""
""focus"",""7"",""69216""
""blur"",""7"",""70253""
""focus"",""7"",""213637""
""blur"",""13"",""285202""
""focus"",""13"",""300689""
""blur"",""18"",""340341""
""focus"",""19"",""348454""
","""event"",""trial"",""time""
""blur"",""7"",""65789""
""blur"",""7"",""70253""
""blur"",""13"",""285202""
""blur"",""18"",""340341""
","""event"",""trial"",""time""
""focus"",""7"",""69216""
""focus"",""7"",""213637""
""focus"",""13"",""300689""
""focus"",""19"",""348454""
","""event"",""trial"",""time""
""fullscreenenter"",""1"",""3030""
","
","","","6650.299999999814","[""False""]","0","999","999","999","","","","","","","","","","","","","","","","","","",""
"pit-instructions","61","1251857","0.0-2.0-26.0-1.0","battery-v0.2","","""event"",""trial"",""time""
""fullscreenenter"",""1"",""3030""
""blur"",""7"",""65789""
""focus"",""7"",""69216""
""blur"",""7"",""70253""
""focus"",""7"",""213637""
""blur"",""13"",""285202""
""focus"",""13"",""300689""
""blur"",""18"",""340341""
""focus"",""19"",""348454""
","""event"",""trial"",""time""
""blur"",""7"",""65789""
""blur"",""7"",""70253""
""blur"",""13"",""285202""
""blur"",""18"",""340341""
","""event"",""trial"",""time""
""focus"",""7"",""69216""
""focus"",""7"",""213637""
""focus"",""13"",""300689""
""focus"",""19"",""348454""
","""event"",""trial"",""time""
""fullscreenenter"",""1"",""3030""
","
","","[{""page_index"":0,""viewing_time"":2034.4000000003725}]","2034.7000000001863","","","","","","","","","","","","","","","","","","","","","","","",""
"pit-instructions","62","1268478","0.0-3.0","battery-v0.2","","""event"",""trial"",""time""
""fullscreenenter"",""1"",""3030""
""blur"",""7"",""65789""
""focus"",""7"",""69216""
""blur"",""7"",""70253""
""focus"",""7"",""213637""
""blur"",""13"",""285202""
""focus"",""13"",""300689""
""blur"",""18"",""340341""
""focus"",""19"",""348454""
","""event"",""trial"",""time""
""blur"",""7"",""65789""
""blur"",""7"",""70253""
""blur"",""13"",""285202""
""blur"",""18"",""340341""
","""event"",""trial"",""time""
""focus"",""7"",""69216""
""focus"",""7"",""213637""
""focus"",""13"",""300689""
""focus"",""19"",""348454""
","""event"",""trial"",""time""
""fullscreenenter"",""1"",""3030""
","
","","[{""page_index"":0,""viewing_time"":3865.699999999255},{""page_index"":1,""viewing_time"":5318.700000000186},{""page_index"":2,""viewing_time"":7435.600000000559}]","16620.39999999944","","","","","","","","","","","","","","","","","","","","","","","",""
"pit-trial","63","1271777","0.0-4.0","battery-v0.2","","""event"",""trial"",""time""
""fullscreenenter"",""1"",""3030""
""blur"",""7"",""65789""
""focus"",""7"",""69216""
""blur"",""7"",""70253""
""focus"",""7"",""213637""
""blur"",""13"",""285202""
""focus"",""13"",""300689""
""blur"",""18"",""340341""
""focus"",""19"",""348454""
","""event"",""trial"",""time""
""blur"",""7"",""65789""
""blur"",""7"",""70253""
""blur"",""13"",""285202""
""blur"",""18"",""340341""
","""event"",""trial"",""time""
""focus"",""7"",""69216""
""focus"",""7"",""213637""
""focus"",""13"",""300689""
""focus"",""19"",""348454""
","""event"",""trial"",""time""
""fullscreenenter"",""1"",""3030""
","
","","","445.5","","","999","999","999","&#9728;","elianto","#f73b6a7A","-1"," ","0","-10","[1295.7999999998137]","1","1","","","999","1","0","4","lose","no-go","0"
"pit-trial","64","1275378","0.0-5.0","battery-v0.2","","""event"",""trial"",""time""
""fullscreenenter"",""1"",""3030""
""blur"",""7"",""65789""
""focus"",""7"",""69216""
""blur"",""7"",""70253""
""focus"",""7"",""213637""
""blur"",""13"",""285202""
""focus"",""13"",""300689""
""blur"",""18"",""340341""
""focus"",""19"",""348454""
","""event"",""trial"",""time""
""blur"",""7"",""65789""
""blur"",""7"",""70253""
""blur"",""13"",""285202""
""blur"",""18"",""340341""
","""event"",""trial"",""time""
""focus"",""7"",""69216""
""focus"",""7"",""213637""
""focus"",""13"",""300689""
""focus"",""19"",""348454""
","""event"",""trial"",""time""
""fullscreenenter"",""1"",""3030""
","
","","","748","","","999","999","999","&#9730;","elianto","#3366ff99"," "," ","1","+10","[1598]","1","1","","","999","2","1","1","win","go","0"
"pit-trial","65","1279137","0.0-6.0","battery-v0.2","","""event"",""trial"",""time""
""fullscreenenter"",""1"",""3030""
""blur"",""7"",""65789""
""focus"",""7"",""69216""
""blur"",""7"",""70253""
""focus"",""7"",""213637""
""blur"",""13"",""285202""
""focus"",""13"",""300689""
""blur"",""18"",""340341""
""focus"",""19"",""348454""
","""event"",""trial"",""time""
""blur"",""7"",""65789""
""blur"",""7"",""70253""
""blur"",""13"",""285202""
""blur"",""18"",""340341""
","""event"",""trial"",""time""
""focus"",""7"",""69216""
""focus"",""7"",""213637""
""focus"",""13"",""300689""
""focus"",""19"",""348454""
","""event"",""trial"",""time""
""fullscreenenter"",""1"",""3030""
","
","","","903.5","","","999","999","999","&#9752;","elianto","#f73b6a7A"," "," ","1","-10","[1753.7000000001863]","1","1","","","999","3","3","3","lose","go","1"
"pit-trial","66","1282862","0.0-7.0","battery-v0.2","","""event"",""trial"",""time""
""fullscreenenter"",""1"",""3030""
""blur"",""7"",""65789""
""focus"",""7"",""69216""
""blur"",""7"",""70253""
""focus"",""7"",""213637""
""blur"",""13"",""285202""
""focus"",""13"",""300689""
""blur"",""18"",""340341""
""focus"",""19"",""348454""
","""event"",""trial"",""time""
""blur"",""7"",""65789""
""blur"",""7"",""70253""
""blur"",""13"",""285202""
""blur"",""18"",""340341""
","""event"",""trial"",""time""
""focus"",""7"",""69216""
""focus"",""7"",""213637""
""focus"",""13"",""300689""
""focus"",""19"",""348454""
","""event"",""trial"",""time""
""fullscreenenter"",""1"",""3030""
","
","","","866.3000000007451","","","999","999","999","&#9733;","elianto","#3366ff99","-1"," ","0","0","[1719.2000000001863]","1","1","","","999","4","2","2","win","no-go","0"
"pit-trial","67","1287716","0.0-8.0","battery-v0.2","","""event"",""trial"",""time""
""fullscreenenter"",""1"",""3030""
""blur"",""7"",""65789""
""focus"",""7"",""69216""
""blur"",""7"",""70253""
""focus"",""7"",""213637""
""blur"",""13"",""285202""
""focus"",""13"",""300689""
""blur"",""18"",""340341""
""focus"",""19"",""348454""
","""event"",""trial"",""time""
""blur"",""7"",""65789""
""blur"",""7"",""70253""
""blur"",""13"",""285202""
""blur"",""18"",""340341""
","""event"",""trial"",""time""
""focus"",""7"",""69216""
""focus"",""7"",""213637""
""focus"",""13"",""300689""
""focus"",""19"",""348454""
","""event"",""trial"",""time""
""fullscreenenter"",""1"",""3030""
","
","","","-1","","","999","999","999","&#9752;","elianto","#f73b6a7A"," ","-1","0","-10","[]","0","1","","","999","5","3","3","lose","go","0"
"pit-trial","68","1292572","0.0-9.0","battery-v0.2","","""event"",""trial"",""time""
""fullscreenenter"",""1"",""3030""
""blur"",""7"",""65789""
""focus"",""7"",""69216""
""blur"",""7"",""70253""
""focus"",""7"",""213637""
""blur"",""13"",""285202""
""focus"",""13"",""300689""
""blur"",""18"",""340341""
""focus"",""19"",""348454""
","""event"",""trial"",""time""
""blur"",""7"",""65789""
""blur"",""7"",""70253""
""blur"",""13"",""285202""
""blur"",""18"",""340341""
","""event"",""trial"",""time""
""focus"",""7"",""69216""
""focus"",""7"",""213637""
""focus"",""13"",""300689""
""focus"",""19"",""348454""
","""event"",""trial"",""time""
""fullscreenenter"",""1"",""3030""
","
","","","-1","","","999","999","999","&#9728;","elianto","#f73b6a7A","-1","-1","1","0","[]","0","1","","","999","6","0","4","lose","no-go","0"
"pit-trial","69","1297426","0.0-10.0","battery-v0.2","","""event"",""trial"",""time""
""fullscreenenter"",""1"",""3030""
""blur"",""7"",""65789""
""focus"",""7"",""69216""
""blur"",""7"",""70253""
""focus"",""7"",""213637""
""blur"",""13"",""285202""
""focus"",""13"",""300689""
""blur"",""18"",""340341""
""focus"",""19"",""348454""
","""event"",""trial"",""time""
""blur"",""7"",""65789""
""blur"",""7"",""70253""
""blur"",""13"",""285202""
""blur"",""18"",""340341""
","""event"",""trial"",""time""
""focus"",""7"",""69216""
""focus"",""7"",""213637""
""focus"",""13"",""300689""
""focus"",""19"",""348454""
","""event"",""trial"",""time""
""fullscreenenter"",""1"",""3030""
","
","","","-1","","","999","999","999","&#9733;","elianto","#3366ff99","-1","-1","1","+10","[]","0","1","","","999","7","2","2","win","no-go","0"
"pit-trial","70","1301239","0.0-11.0","battery-v0.2","","""event"",""trial"",""time""
""fullscreenenter"",""1"",""3030""
""blur"",""7"",""65789""
""focus"",""7"",""69216""
""blur"",""7"",""70253""
""focus"",""7"",""213637""
""blur"",""13"",""285202""
""focus"",""13"",""300689""
""blur"",""18"",""340341""
""focus"",""19"",""348454""
","""event"",""trial"",""time""
""blur"",""7"",""65789""
""blur"",""7"",""70253""
""blur"",""13"",""285202""
""blur"",""18"",""340341""
","""event"",""trial"",""time""
""focus"",""7"",""69216""
""focus"",""7"",""213637""
""focus"",""13"",""300689""
""focus"",""19"",""348454""
","""event"",""trial"",""time""
""fullscreenenter"",""1"",""3030""
","
","","","959.8000000007451","","","999","999","999","&#9730;","elianto","#3366ff99"," "," ","1","+10","[1811.5]","1","1","","","999","8","1","1","win","go","0"
"pit-trial","71","1306095","0.0-12.0","battery-v0.2","","""event"",""trial"",""time""
""fullscreenenter"",""1"",""3030""
""blur"",""7"",""65789""
""focus"",""7"",""69216""
""blur"",""7"",""70253""
""focus"",""7"",""213637""
""blur"",""13"",""285202""
""focus"",""13"",""300689""
""blur"",""18"",""340341""
""focus"",""19"",""348454""
","""event"",""trial"",""time""
""blur"",""7"",""65789""
""blur"",""7"",""70253""
""blur"",""13"",""285202""
""blur"",""18"",""340341""
","""event"",""trial"",""time""
""focus"",""7"",""69216""
""focus"",""7"",""213637""
""focus"",""13"",""300689""
""focus"",""19"",""348454""
","""event"",""trial"",""time""
""fullscreenenter"",""1"",""3030""
","
","","","-1","","","999","999","999","&#9728;","elianto","#f73b6a7A","-1","-1","1","0","[]","0","1","","","999","9","0","4","lose","no-go","0"
"pit-trial","72","1310060","0.0-13.0","battery-v0.2","","""event"",""trial"",""time""
""fullscreenenter"",""1"",""3030""
""blur"",""7"",""65789""
""focus"",""7"",""69216""
""blur"",""7"",""70253""
""focus"",""7"",""213637""
""blur"",""13"",""285202""
""focus"",""13"",""300689""
""blur"",""18"",""340341""
""focus"",""19"",""348454""
","""event"",""trial"",""time""
""blur"",""7"",""65789""
""blur"",""7"",""70253""
""blur"",""13"",""285202""
""blur"",""18"",""340341""
","""event"",""trial"",""time""
""focus"",""7"",""69216""
""focus"",""7"",""213637""
""focus"",""13"",""300689""
""focus"",""19"",""348454""
","""event"",""trial"",""time""
""fullscreenenter"",""1"",""3030""
","
","","","1109.7000000001863","","","999","999","999","&#9752;","elianto","#f73b6a7A"," "," ","1","0","[1962.1000000005588]","1","1","","","999","10","3","3","lose","go","0"
"pit-trial","73","1314359","0.0-14.0","battery-v0.2","","""event"",""trial"",""time""
""fullscreenenter"",""1"",""3030""
""blur"",""7"",""65789""
""focus"",""7"",""69216""
""blur"",""7"",""70253""
""focus"",""7"",""213637""
""blur"",""13"",""285202""
""focus"",""13"",""300689""
""blur"",""18"",""340341""
""focus"",""19"",""348454""
","""event"",""trial"",""time""
""blur"",""7"",""65789""
""blur"",""7"",""70253""
""blur"",""13"",""285202""
""blur"",""18"",""340341""
","""event"",""trial"",""time""
""focus"",""7"",""69216""
""focus"",""7"",""213637""
""focus"",""13"",""300689""
""focus"",""19"",""348454""
","""event"",""trial"",""time""
""fullscreenenter"",""1"",""3030""
","
","","","1442.2999999998137","","","999","999","999","&#9730;","elianto","#3366ff99"," "," ","1","+10","[2294.2000000001863]","1","1","","","999","11","1","1","win","go","0"
"pit-trial","74","1319212","0.0-15.0","battery-v0.2","","""event"",""trial"",""time""
""fullscreenenter"",""1"",""3030""
""blur"",""7"",""65789""
""focus"",""7"",""69216""
""blur"",""7"",""70253""
""focus"",""7"",""213637""
""blur"",""13"",""285202""
""focus"",""13"",""300689""
""blur"",""18"",""340341""
""focus"",""19"",""348454""
","""event"",""trial"",""time""
""blur"",""7"",""65789""
""blur"",""7"",""70253""
""blur"",""13"",""285202""
""blur"",""18"",""340341""
","""event"",""trial"",""time""
""focus"",""7"",""69216""
""focus"",""7"",""213637""
""focus"",""13"",""300689""
""focus"",""19"",""348454""
","""event"",""trial"",""time""
""fullscreenenter"",""1"",""3030""
","
","","","-1","","","999","999","999","&#9733;","elianto","#3366ff99","-1","-1","1","0","[]","0","1","","","999","12","2","2","win","no-go","1"
"pit-trial","75","1324070","0.0-16.0","battery-v0.2","","""event"",""trial"",""time""
""fullscreenenter"",""1"",""3030""
""blur"",""7"",""65789""
""focus"",""7"",""69216""
""blur"",""7"",""70253""
""focus"",""7"",""213637""
""blur"",""13"",""285202""
""focus"",""13"",""300689""
""blur"",""18"",""340341""
""focus"",""19"",""348454""
","""event"",""trial"",""time""
""blur"",""7"",""65789""
""blur"",""7"",""70253""
""blur"",""13"",""285202""
""blur"",""18"",""340341""
","""event"",""trial"",""time""
""focus"",""7"",""69216""
""focus"",""7"",""213637""
""focus"",""13"",""300689""
""focus"",""19"",""348454""
","""event"",""trial"",""time""
""fullscreenenter"",""1"",""3030""
","
","","","-1","","","999","999","999","&#9728;","elianto","#f73b6a7A","-1","-1","1","0","[]","0","1","","","999","13","0","4","lose","no-go","0"
"pit-trial","76","1328929","0.0-17.0","battery-v0.2","","""event"",""trial"",""time""
""fullscreenenter"",""1"",""3030""
""blur"",""7"",""65789""
""focus"",""7"",""69216""
""blur"",""7"",""70253""
""focus"",""7"",""213637""
""blur"",""13"",""285202""
""focus"",""13"",""300689""
""blur"",""18"",""340341""
""focus"",""19"",""348454""
","""event"",""trial"",""time""
""blur"",""7"",""65789""
""blur"",""7"",""70253""
""blur"",""13"",""285202""
""blur"",""18"",""340341""
","""event"",""trial"",""time""
""focus"",""7"",""69216""
""focus"",""7"",""213637""
""focus"",""13"",""300689""
""focus"",""19"",""348454""
","""event"",""trial"",""time""
""fullscreenenter"",""1"",""3030""
","
","","","-1","","","999","999","999","&#9733;","elianto","#3366ff99","-1","-1","1","+10","[]","0","1","","","999","14","2","2","win","no-go","0"
"pit-trial","77","1332506","0.0-18.0","battery-v0.2","","""event"",""trial"",""time""
""fullscreenenter"",""1"",""3030""
""blur"",""7"",""65789""
""focus"",""7"",""69216""
""blur"",""7"",""70253""
""focus"",""7"",""213637""
""blur"",""13"",""285202""
""focus"",""13"",""300689""
""blur"",""18"",""340341""
""focus"",""19"",""348454""
","""event"",""trial"",""time""
""blur"",""7"",""65789""
""blur"",""7"",""70253""
""blur"",""13"",""285202""
""blur"",""18"",""340341""
","""event"",""trial"",""time""
""focus"",""7"",""69216""
""focus"",""7"",""213637""
""focus"",""13"",""300689""
""focus"",""19"",""348454""
","""event"",""trial"",""time""
""fullscreenenter"",""1"",""3030""
","
","","","718.8999999994412","","","999","999","999","&#9752;","elianto","#f73b6a7A"," "," ","1","0","[1570.7999999998137]","1","1","","","999","15","3","3","lose","go","0"
"pit-trial","78","1335947","0.0-19.0","battery-v0.2","","""event"",""trial"",""time""
""fullscreenenter"",""1"",""3030""
""blur"",""7"",""65789""
""focus"",""7"",""69216""
""blur"",""7"",""70253""
""focus"",""7"",""213637""
""blur"",""13"",""285202""
""focus"",""13"",""300689""
""blur"",""18"",""340341""
""focus"",""19"",""348454""
","""event"",""trial"",""time""
""blur"",""7"",""65789""
""blur"",""7"",""70253""
""blur"",""13"",""285202""
""blur"",""18"",""340341""
","""event"",""trial"",""time""
""focus"",""7"",""69216""
""focus"",""7"",""213637""
""focus"",""13"",""300689""
""focus"",""19"",""348454""
","""event"",""trial"",""time""
""fullscreenenter"",""1"",""3030""
","
","","","585.0999999996275","","","999","999","999","&#9730;","elianto","#3366ff99"," "," ","1","+10","[1435.9000000003725]","1","1","","","999","16","1","1","win","go","0"
"pit-trial","79","1340806","0.0-20.0","battery-v0.2","","""event"",""trial"",""time""
""fullscreenenter"",""1"",""3030""
""blur"",""7"",""65789""
""focus"",""7"",""69216""
""blur"",""7"",""70253""
""focus"",""7"",""213637""
""blur"",""13"",""285202""
""focus"",""13"",""300689""
""blur"",""18"",""340341""
""focus"",""19"",""348454""
","""event"",""trial"",""time""
""blur"",""7"",""65789""
""blur"",""7"",""70253""
""blur"",""13"",""285202""
""blur"",""18"",""340341""
","""event"",""trial"",""time""
""focus"",""7"",""69216""
""focus"",""7"",""213637""
""focus"",""13"",""300689""
""focus"",""19"",""348454""
","""event"",""trial"",""time""
""fullscreenenter"",""1"",""3030""
","
","","","-1","","","999","999","999","&#9728;","elianto","#f73b6a7A","-1","-1","1","0","[]","0","1","","","999","17","0","4","lose","no-go","0"
"pit-trial","80","1345664","0.0-21.0","battery-v0.2","","""event"",""trial"",""time""
""fullscreenenter"",""1"",""3030""
""blur"",""7"",""65789""
""focus"",""7"",""69216""
""blur"",""7"",""70253""
""focus"",""7"",""213637""
""blur"",""13"",""285202""
""focus"",""13"",""300689""
""blur"",""18"",""340341""
""focus"",""19"",""348454""
","""event"",""trial"",""time""
""blur"",""7"",""65789""
""blur"",""7"",""70253""
""blur"",""13"",""285202""
""blur"",""18"",""340341""
","""event"",""trial"",""time""
""focus"",""7"",""69216""
""focus"",""7"",""213637""
""focus"",""13"",""300689""
""focus"",""19"",""348454""
","""event"",""trial"",""time""
""fullscreenenter"",""1"",""3030""
","
","","","-1","","","999","999","999","&#9733;","elianto","#3366ff99","-1","-1","1","+10","[]","0","1","","","999","18","2","2","win","no-go","0"
"pit-trial","81","1349232","0.0-22.0","battery-v0.2","","""event"",""trial"",""time""
""fullscreenenter"",""1"",""3030""
""blur"",""7"",""65789""
""focus"",""7"",""69216""
""blur"",""7"",""70253""
""focus"",""7"",""213637""
""blur"",""13"",""285202""
""focus"",""13"",""300689""
""blur"",""18"",""340341""
""focus"",""19"",""348454""
","""event"",""trial"",""time""
""blur"",""7"",""65789""
""blur"",""7"",""70253""
""blur"",""13"",""285202""
""blur"",""18"",""340341""
","""event"",""trial"",""time""
""focus"",""7"",""69216""
""focus"",""7"",""213637""
""focus"",""13"",""300689""
""focus"",""19"",""348454""
","""event"",""trial"",""time""
""fullscreenenter"",""1"",""3030""
","
","","","711.1999999992549","","","999","999","999","&#9752;","elianto","#f73b6a7A"," "," ","1","0","[1562.5]","1","1","","","999","19","3","3","lose","go","0"
"pit-trial","82","1353733","0.0-23.0","battery-v0.2","","""event"",""trial"",""time""
""fullscreenenter"",""1"",""3030""
""blur"",""7"",""65789""
""focus"",""7"",""69216""
""blur"",""7"",""70253""
""focus"",""7"",""213637""
""blur"",""13"",""285202""
""focus"",""13"",""300689""
""blur"",""18"",""340341""
""focus"",""19"",""348454""
","""event"",""trial"",""time""
""blur"",""7"",""65789""
""blur"",""7"",""70253""
""blur"",""13"",""285202""
""blur"",""18"",""340341""
","""event"",""trial"",""time""
""focus"",""7"",""69216""
""focus"",""7"",""213637""
""focus"",""13"",""300689""
""focus"",""19"",""348454""
","""event"",""trial"",""time""
""fullscreenenter"",""1"",""3030""
","
","","","1643.1000000005588","","","999","999","999","&#9730;","elianto","#3366ff99"," "," ","1","+10","[2494.9000000003725]","1","1","","","999","20","1","1","win","go","0"
"pit-instructions","83","1367385","0.0-24.0","battery-v0.2","","""event"",""trial"",""time""
""fullscreenenter"",""1"",""3030""
""blur"",""7"",""65789""
""focus"",""7"",""69216""
""blur"",""7"",""70253""
""focus"",""7"",""213637""
""blur"",""13"",""285202""
""focus"",""13"",""300689""
""blur"",""18"",""340341""
""focus"",""19"",""348454""
","""event"",""trial"",""time""
""blur"",""7"",""65789""
""blur"",""7"",""70253""
""blur"",""13"",""285202""
""blur"",""18"",""340341""
","""event"",""trial"",""time""
""focus"",""7"",""69216""
""focus"",""7"",""213637""
""focus"",""13"",""300689""
""focus"",""19"",""348454""
","""event"",""trial"",""time""
""fullscreenenter"",""1"",""3030""
","
","","[{""page_index"":0,""viewing_time"":6215.799999999814},{""page_index"":1,""viewing_time"":7435.200000000186}]","13651.200000000186","","","","","","","","","","","","","","","","","","","","","","","",""
"pit-trial","84","1371373","0.0-25.0","battery-v0.2","","""event"",""trial"",""time""
""fullscreenenter"",""1"",""3030""
""blur"",""7"",""65789""
""focus"",""7"",""69216""
""blur"",""7"",""70253""
""focus"",""7"",""213637""
""blur"",""13"",""285202""
""focus"",""13"",""300689""
""blur"",""18"",""340341""
""focus"",""19"",""348454""
","""event"",""trial"",""time""
""blur"",""7"",""65789""
""blur"",""7"",""70253""
""blur"",""13"",""285202""
""blur"",""18"",""340341""
","""event"",""trial"",""time""
""focus"",""7"",""69216""
""focus"",""7"",""213637""
""focus"",""13"",""300689""
""focus"",""19"",""348454""
","""event"",""trial"",""time""
""fullscreenenter"",""1"",""3030""
","
","","","1129.9000000003725","","","999","999","999","f","elianto","#3366ff99","-1"," ","0","0","[1980.5]","1","2","","","999","21","1","2","win","no-go","0"
"pit-trial","85","1375474","0.0-26.0","battery-v0.2","","""event"",""trial"",""time""
""fullscreenenter"",""1"",""3030""
""blur"",""7"",""65789""
""focus"",""7"",""69216""
""blur"",""7"",""70253""
""focus"",""7"",""213637""
""blur"",""13"",""285202""
""focus"",""13"",""300689""
""blur"",""18"",""340341""
""focus"",""19"",""348454""
","""event"",""trial"",""time""
""blur"",""7"",""65789""
""blur"",""7"",""70253""
""blur"",""13"",""285202""
""blur"",""18"",""340341""
","""event"",""trial"",""time""
""focus"",""7"",""69216""
""focus"",""7"",""213637""
""focus"",""13"",""300689""
""focus"",""19"",""348454""
","""event"",""trial"",""time""
""fullscreenenter"",""1"",""3030""
","
","","","1247.4000000003725","","","999","999","999","n","elianto","#f73b6a7A"," "," ","1","0","[2099.4000000003725]","1","2","","","999","22","0","3","lose","go","0"
"pit-trial","86","1379032","0.0-27.0","battery-v0.2","","""event"",""trial"",""time""
""fullscreenenter"",""1"",""3030""
""blur"",""7"",""65789""
""focus"",""7"",""69216""
""blur"",""7"",""70253""
""focus"",""7"",""213637""
""blur"",""13"",""285202""
""focus"",""13"",""300689""
""blur"",""18"",""340341""
""focus"",""19"",""348454""
","""event"",""trial"",""time""
""blur"",""7"",""65789""
""blur"",""7"",""70253""
""blur"",""13"",""285202""
""blur"",""18"",""340341""
","""event"",""trial"",""time""
""focus"",""7"",""69216""
""focus"",""7"",""213637""
""focus"",""13"",""300689""
""focus"",""19"",""348454""
","""event"",""trial"",""time""
""fullscreenenter"",""1"",""3030""
","
","","","701.7999999998137","","","999","999","999","b","elianto","#f73b6a7A","-1"," ","0","0","[1553.7999999998137]","1","2","","","999","23","3","4","lose","no-go","1"
"pit-trial","87","1383094","0.0-28.0","battery-v0.2","","""event"",""trial"",""time""
""fullscreenenter"",""1"",""3030""
""blur"",""7"",""65789""
""focus"",""7"",""69216""
""blur"",""7"",""70253""
""focus"",""7"",""213637""
""blur"",""13"",""285202""
""focus"",""13"",""300689""
""blur"",""18"",""340341""
""focus"",""19"",""348454""
","""event"",""trial"",""time""
""blur"",""7"",""65789""
""blur"",""7"",""70253""
""blur"",""13"",""285202""
""blur"",""18"",""340341""
","""event"",""trial"",""time""
""focus"",""7"",""69216""
""focus"",""7"",""213637""
""focus"",""13"",""300689""
""focus"",""19"",""348454""
","""event"",""trial"",""time""
""fullscreenenter"",""1"",""3030""
","
","","","1205.7999999998137","","","999","999","999","t","elianto","#f73b6a7A"," "," ","1","0","[2055.9000000003725]","1","2","","","999","24","2","3","lose","go","0"
"pit-trial","88","1387252","0.0-29.0","battery-v0.2","","""event"",""trial"",""time""
""fullscreenenter"",""1"",""3030""
""blur"",""7"",""65789""
""focus"",""7"",""69216""
""blur"",""7"",""70253""
""focus"",""7"",""213637""
""blur"",""13"",""285202""
""focus"",""13"",""300689""
""blur"",""18"",""340341""
""focus"",""19"",""348454""
","""event"",""trial"",""time""
""blur"",""7"",""65789""
""blur"",""7"",""70253""
""blur"",""13"",""285202""
""blur"",""18"",""340341""
","""event"",""trial"",""time""
""focus"",""7"",""69216""
""focus"",""7"",""213637""
""focus"",""13"",""300689""
""focus"",""19"",""348454""
","""event"",""trial"",""time""
""fullscreenenter"",""1"",""3030""
","
","","","1303.3999999994412","","","999","999","999","t","elianto","#f73b6a7A"," "," ","1","0","[2156.399999999441]","1","2","","","999","25","2","3","lose","go","0"
"pit-trial","89","1392108","0.0-30.0","battery-v0.2","","""event"",""trial"",""time""
""fullscreenenter"",""1"",""3030""
""blur"",""7"",""65789""
""focus"",""7"",""69216""
""blur"",""7"",""70253""
""focus"",""7"",""213637""
""blur"",""13"",""285202""
""focus"",""13"",""300689""
""blur"",""18"",""340341""
""focus"",""19"",""348454""
","""event"",""trial"",""time""
""blur"",""7"",""65789""
""blur"",""7"",""70253""
""blur"",""13"",""285202""
""blur"",""18"",""340341""
","""event"",""trial"",""time""
""focus"",""7"",""69216""
""focus"",""7"",""213637""
""focus"",""13"",""300689""
""focus"",""19"",""348454""
","""event"",""trial"",""time""
""fullscreenenter"",""1"",""3030""
","
","","","-1","","","999","999","999","f","elianto","#3366ff99","-1","-1","1","+10","[]","0","2","","","999","26","1","2","win","no-go","0"
"pit-trial","90","1395566","0.0-31.0","battery-v0.2","","""event"",""trial"",""time""
""fullscreenenter"",""1"",""3030""
""blur"",""7"",""65789""
""focus"",""7"",""69216""
""blur"",""7"",""70253""
""focus"",""7"",""213637""
""blur"",""13"",""285202""
""focus"",""13"",""300689""
""blur"",""18"",""340341""
""focus"",""19"",""348454""
","""event"",""trial"",""time""
""blur"",""7"",""65789""
""blur"",""7"",""70253""
""blur"",""13"",""285202""
""blur"",""18"",""340341""
","""event"",""trial"",""time""
""focus"",""7"",""69216""
""focus"",""7"",""213637""
""focus"",""13"",""300689""
""focus"",""19"",""348454""
","""event"",""trial"",""time""
""fullscreenenter"",""1"",""3030""
","
","","","604.5999999996275","","","999","999","999","n","elianto","#f73b6a7A"," "," ","1","0","[1455.5]","1","2","","","999","27","0","3","lose","go","0"
"pit-trial","91","1399437","0.0-32.0","battery-v0.2","","""event"",""trial"",""time""
""fullscreenenter"",""1"",""3030""
""blur"",""7"",""65789""
""focus"",""7"",""69216""
""blur"",""7"",""70253""
""focus"",""7"",""213637""
""blur"",""13"",""285202""
""focus"",""13"",""300689""
""blur"",""18"",""340341""
""focus"",""19"",""348454""
","""event"",""trial"",""time""
""blur"",""7"",""65789""
""blur"",""7"",""70253""
""blur"",""13"",""285202""
""blur"",""18"",""340341""
","""event"",""trial"",""time""
""focus"",""7"",""69216""
""focus"",""7"",""213637""
""focus"",""13"",""300689""
""focus"",""19"",""348454""
","""event"",""trial"",""time""
""fullscreenenter"",""1"",""3030""
","
","","","1017.5","","","999","999","999","b","elianto","#f73b6a7A","-1"," ","0","0","[1867.7000000001863]","1","2","","","999","28","3","4","lose","no-go","1"
"pit-trial","92","1403373","0.0-33.0","battery-v0.2","","""event"",""trial"",""time""
""fullscreenenter"",""1"",""3030""
""blur"",""7"",""65789""
""focus"",""7"",""69216""
""blur"",""7"",""70253""
""focus"",""7"",""213637""
""blur"",""13"",""285202""
""focus"",""13"",""300689""
""blur"",""18"",""340341""
""focus"",""19"",""348454""
","""event"",""trial"",""time""
""blur"",""7"",""65789""
""blur"",""7"",""70253""
""blur"",""13"",""285202""
""blur"",""18"",""340341""
","""event"",""trial"",""time""
""focus"",""7"",""69216""
""focus"",""7"",""213637""
""focus"",""13"",""300689""
""focus"",""19"",""348454""
","""event"",""trial"",""time""
""fullscreenenter"",""1"",""3030""
","
","","","1083.2000000001863","","","999","999","999","n","elianto","#f73b6a7A"," "," ","1","0","[1933.3999999994412]","1","2","","","999","29","0","3","lose","go","0"
"pit-trial","93","1406930","0.0-34.0","battery-v0.2","","""event"",""trial"",""time""
""fullscreenenter"",""1"",""3030""
""blur"",""7"",""65789""
""focus"",""7"",""69216""
""blur"",""7"",""70253""
""focus"",""7"",""213637""
""blur"",""13"",""285202""
""focus"",""13"",""300689""
""blur"",""18"",""340341""
""focus"",""19"",""348454""
","""event"",""trial"",""time""
""blur"",""7"",""65789""
""blur"",""7"",""70253""
""blur"",""13"",""285202""
""blur"",""18"",""340341""
","""event"",""trial"",""time""
""focus"",""7"",""69216""
""focus"",""7"",""213637""
""focus"",""13"",""300689""
""focus"",""19"",""348454""
","""event"",""trial"",""time""
""fullscreenenter"",""1"",""3030""
","
","","","701.7999999998137","","","999","999","999","t","elianto","#f73b6a7A"," "," ","1","0","[1552.2999999998137]","1","2","","","999","30","2","3","lose","go","0"
"pit-trial","94","1411784","0.0-35.0","battery-v0.2","","""event"",""trial"",""time""
""fullscreenenter"",""1"",""3030""
""blur"",""7"",""65789""
""focus"",""7"",""69216""
""blur"",""7"",""70253""
""focus"",""7"",""213637""
""blur"",""13"",""285202""
""focus"",""13"",""300689""
""blur"",""18"",""340341""
""focus"",""19"",""348454""
","""event"",""trial"",""time""
""blur"",""7"",""65789""
""blur"",""7"",""70253""
""blur"",""13"",""285202""
""blur"",""18"",""340341""
","""event"",""trial"",""time""
""focus"",""7"",""69216""
""focus"",""7"",""213637""
""focus"",""13"",""300689""
""focus"",""19"",""348454""
","""event"",""trial"",""time""
""fullscreenenter"",""1"",""3030""
","
","","","-1","","","999","999","999","f","elianto","#3366ff99","-1","-1","1","+10","[]","0","2","","","999","31","1","2","win","no-go","0"
"pit-trial","95","1415389","0.0-36.0","battery-v0.2","","""event"",""trial"",""time""
""fullscreenenter"",""1"",""3030""
""blur"",""7"",""65789""
""focus"",""7"",""69216""
""blur"",""7"",""70253""
""focus"",""7"",""213637""
""blur"",""13"",""285202""
""focus"",""13"",""300689""
""blur"",""18"",""340341""
""focus"",""19"",""348454""
","""event"",""trial"",""time""
""blur"",""7"",""65789""
""blur"",""7"",""70253""
""blur"",""13"",""285202""
""blur"",""18"",""340341""
","""event"",""trial"",""time""
""focus"",""7"",""69216""
""focus"",""7"",""213637""
""focus"",""13"",""300689""
""focus"",""19"",""348454""
","""event"",""trial"",""time""
""fullscreenenter"",""1"",""3030""
","
","","","749.5999999996275","","","999","999","999","b","elianto","#f73b6a7A","-1"," ","0","-10","[1601.4000000003725]","1","2","","","999","32","3","4","lose","no-go","0"
"pit-trial","96","1419415","0.0-37.0","battery-v0.2","","""event"",""trial"",""time""
""fullscreenenter"",""1"",""3030""
""blur"",""7"",""65789""
""focus"",""7"",""69216""
""blur"",""7"",""70253""
""focus"",""7"",""213637""
""blur"",""13"",""285202""
""focus"",""13"",""300689""
""blur"",""18"",""340341""
""focus"",""19"",""348454""
","""event"",""trial"",""time""
""blur"",""7"",""65789""
""blur"",""7"",""70253""
""blur"",""13"",""285202""
""blur"",""18"",""340341""
","""event"",""trial"",""time""
""focus"",""7"",""69216""
""focus"",""7"",""213637""
""focus"",""13"",""300689""
""focus"",""19"",""348454""
","""event"",""trial"",""time""
""fullscreenenter"",""1"",""3030""
","
","","","1171.5999999996275","","","999","999","999","n","elianto","#f73b6a7A"," "," ","1","0","[2023.7999999998137]","1","2","","","999","33","0","3","lose","go","0"
"pit-trial","97","1423220","0.0-38.0","battery-v0.2","","""event"",""trial"",""time""
""fullscreenenter"",""1"",""3030""
""blur"",""7"",""65789""
""focus"",""7"",""69216""
""blur"",""7"",""70253""
""focus"",""7"",""213637""
""blur"",""13"",""285202""
""focus"",""13"",""300689""
""blur"",""18"",""340341""
""focus"",""19"",""348454""
","""event"",""trial"",""time""
""blur"",""7"",""65789""
""blur"",""7"",""70253""
""blur"",""13"",""285202""
""blur"",""18"",""340341""
","""event"",""trial"",""time""
""focus"",""7"",""69216""
""focus"",""7"",""213637""
""focus"",""13"",""300689""
""focus"",""19"",""348454""
","""event"",""trial"",""time""
""fullscreenenter"",""1"",""3030""
","
","","","948","","","999","999","999","t","elianto","#f73b6a7A"," "," ","1","-10","[1799.5]","1","2","","","999","34","2","3","lose","go","1"
"pit-trial","98","1428082","0.0-39.0","battery-v0.2","","""event"",""trial"",""time""
""fullscreenenter"",""1"",""3030""
""blur"",""7"",""65789""
""focus"",""7"",""69216""
""blur"",""7"",""70253""
""focus"",""7"",""213637""
""blur"",""13"",""285202""
""focus"",""13"",""300689""
""blur"",""18"",""340341""
""focus"",""19"",""348454""
","""event"",""trial"",""time""
""blur"",""7"",""65789""
""blur"",""7"",""70253""
""blur"",""13"",""285202""
""blur"",""18"",""340341""
","""event"",""trial"",""time""
""focus"",""7"",""69216""
""focus"",""7"",""213637""
""focus"",""13"",""300689""
""focus"",""19"",""348454""
","""event"",""trial"",""time""
""fullscreenenter"",""1"",""3030""
","
","","","-1","","","999","999","999","f","elianto","#3366ff99","-1","-1","1","+10","[]","0","2","","","999","35","1","2","win","no-go","0"
"pit-trial","99","1431239","0.0-40.0","battery-v0.2","","""event"",""trial"",""time""
""fullscreenenter"",""1"",""3030""
""blur"",""7"",""65789""
""focus"",""7"",""69216""
""blur"",""7"",""70253""
""focus"",""7"",""213637""
""blur"",""13"",""285202""
""focus"",""13"",""300689""
""blur"",""18"",""340341""
""focus"",""19"",""348454""
","""event"",""trial"",""time""
""blur"",""7"",""65789""
""blur"",""7"",""70253""
""blur"",""13"",""285202""
""blur"",""18"",""340341""
","""event"",""trial"",""time""
""focus"",""7"",""69216""
""focus"",""7"",""213637""
""focus"",""13"",""300689""
""focus"",""19"",""348454""
","""event"",""trial"",""time""
""fullscreenenter"",""1"",""3030""
","
","","","302.79999999981374","","","999","999","999","b","elianto","#f73b6a7A","-1"," ","0","-10","[1153.4000000003725]","1","2","","","999","36","3","4","lose","no-go","0"
"pit-trial","100","1434972","0.0-41.0","battery-v0.2","","""event"",""trial"",""time""
""fullscreenenter"",""1"",""3030""
""blur"",""7"",""65789""
""focus"",""7"",""69216""
""blur"",""7"",""70253""
""focus"",""7"",""213637""
""blur"",""13"",""285202""
""focus"",""13"",""300689""
""blur"",""18"",""340341""
""focus"",""19"",""348454""
","""event"",""trial"",""time""
""blur"",""7"",""65789""
""blur"",""7"",""70253""
""blur"",""13"",""285202""
""blur"",""18"",""340341""
","""event"",""trial"",""time""
""focus"",""7"",""69216""
""focus"",""7"",""213637""
""focus"",""13"",""300689""
""focus"",""19"",""348454""
","""event"",""trial"",""time""
""fullscreenenter"",""1"",""3030""
","
","","","878.9000000003725","","","999","999","999","t","elianto","#f73b6a7A"," "," ","1","0","[1731.300000000745]","1","2","","","999","37","2","3","lose","go","0"
"pit-trial","101","1439831","0.0-42.0","battery-v0.2","","""event"",""trial"",""time""
""fullscreenenter"",""1"",""3030""
""blur"",""7"",""65789""
""focus"",""7"",""69216""
""blur"",""7"",""70253""
""focus"",""7"",""213637""
""blur"",""13"",""285202""
""focus"",""13"",""300689""
""blur"",""18"",""340341""
""focus"",""19"",""348454""
","""event"",""trial"",""time""
""blur"",""7"",""65789""
""blur"",""7"",""70253""
""blur"",""13"",""285202""
""blur"",""18"",""340341""
","""event"",""trial"",""time""
""focus"",""7"",""69216""
""focus"",""7"",""213637""
""focus"",""13"",""300689""
""focus"",""19"",""348454""
","""event"",""trial"",""time""
""fullscreenenter"",""1"",""3030""
","
","","","-1","","","999","999","999","b","elianto","#f73b6a7A","-1","-1","1","0","[]","0","2","","","999","38","3","4","lose","no-go","0"
"pit-trial","102","1443638","0.0-43.0","battery-v0.2","","""event"",""trial"",""time""
""fullscreenenter"",""1"",""3030""
""blur"",""7"",""65789""
""focus"",""7"",""69216""
""blur"",""7"",""70253""
""focus"",""7"",""213637""
""blur"",""13"",""285202""
""focus"",""13"",""300689""
""blur"",""18"",""340341""
""focus"",""19"",""348454""
","""event"",""trial"",""time""
""blur"",""7"",""65789""
""blur"",""7"",""70253""
""blur"",""13"",""285202""
""blur"",""18"",""340341""
","""event"",""trial"",""time""
""focus"",""7"",""69216""
""focus"",""7"",""213637""
""focus"",""13"",""300689""
""focus"",""19"",""348454""
","""event"",""trial"",""time""
""fullscreenenter"",""1"",""3030""
","
","","","950.4000000003725","","","999","999","999","n","elianto","#f73b6a7A"," "," ","1","0","[1801.5999999996275]","1","2","","","999","39","0","3","lose","go","0"
"pit-trial","103","1447553","0.0-44.0","battery-v0.2","","""event"",""trial"",""time""
""fullscreenenter"",""1"",""3030""
""blur"",""7"",""65789""
""focus"",""7"",""69216""
""blur"",""7"",""70253""
""focus"",""7"",""213637""
""blur"",""13"",""285202""
""focus"",""13"",""300689""
""blur"",""18"",""340341""
""focus"",""19"",""348454""
","""event"",""trial"",""time""
""blur"",""7"",""65789""
""blur"",""7"",""70253""
""blur"",""13"",""285202""
""blur"",""18"",""340341""
","""event"",""trial"",""time""
""focus"",""7"",""69216""
""focus"",""7"",""213637""
""focus"",""13"",""300689""
""focus"",""19"",""348454""
","""event"",""trial"",""time""
""fullscreenenter"",""1"",""3030""
","
","","","1056.7999999998137","","","999","999","999","f","elianto","#3366ff99","-1"," ","0","0","[1908.5999999996275]","1","2","","","999","40","1","2","win","no-go","0"
"pit-trial","104","1452412","0.0-45.0","battery-v0.2","","""event"",""trial"",""time""
""fullscreenenter"",""1"",""3030""
""blur"",""7"",""65789""
""focus"",""7"",""69216""
""blur"",""7"",""70253""
""focus"",""7"",""213637""
""blur"",""13"",""285202""
""focus"",""13"",""300689""
""blur"",""18"",""340341""
""focus"",""19"",""348454""
","""event"",""trial"",""time""
""blur"",""7"",""65789""
""blur"",""7"",""70253""
""blur"",""13"",""285202""
""blur"",""18"",""340341""
","""event"",""trial"",""time""
""focus"",""7"",""69216""
""focus"",""7"",""213637""
""focus"",""13"",""300689""
""focus"",""19"",""348454""
","""event"",""trial"",""time""
""fullscreenenter"",""1"",""3030""
","
","","","-1","","","999","999","999","f","elianto","#3366ff99","-1","-1","1","+10","[]","0","2","","","999","41","1","2","win","no-go","0"
"pit-trial","105","1456347","0.0-46.0","battery-v0.2","","""event"",""trial"",""time""
""fullscreenenter"",""1"",""3030""
""blur"",""7"",""65789""
""focus"",""7"",""69216""
""blur"",""7"",""70253""
""focus"",""7"",""213637""
""blur"",""13"",""285202""
""focus"",""13"",""300689""
""blur"",""18"",""340341""
""focus"",""19"",""348454""
","""event"",""trial"",""time""
""blur"",""7"",""65789""
""blur"",""7"",""70253""
""blur"",""13"",""285202""
""blur"",""18"",""340341""
","""event"",""trial"",""time""
""focus"",""7"",""69216""
""focus"",""7"",""213637""
""focus"",""13"",""300689""
""focus"",""19"",""348454""
","""event"",""trial"",""time""
""fullscreenenter"",""1"",""3030""
","
","","","1080.5999999996275","","","999","999","999","t","elianto","#f73b6a7A"," "," ","1","0","[1932.7999999998137]","1","2","","","999","42","2","3","lose","go","0"
"pit-trial","106","1461206","0.0-47.0","battery-v0.2","","""event"",""trial"",""time""
""fullscreenenter"",""1"",""3030""
""blur"",""7"",""65789""
""focus"",""7"",""69216""
""blur"",""7"",""70253""
""focus"",""7"",""213637""
""blur"",""13"",""285202""
""focus"",""13"",""300689""
""blur"",""18"",""340341""
""focus"",""19"",""348454""
","""event"",""trial"",""time""
""blur"",""7"",""65789""
""blur"",""7"",""70253""
""blur"",""13"",""285202""
""blur"",""18"",""340341""
","""event"",""trial"",""time""
""focus"",""7"",""69216""
""focus"",""7"",""213637""
""focus"",""13"",""300689""
""focus"",""19"",""348454""
","""event"",""trial"",""time""
""fullscreenenter"",""1"",""3030""
","
","","","-1","","","999","999","999","b","elianto","#f73b6a7A","-1","-1","1","0","[]","0","2","","","999","43","3","4","lose","no-go","0"
"pit-trial","107","1465269","0.0-48.0","battery-v0.2","","""event"",""trial"",""time""
""fullscreenenter"",""1"",""3030""
""blur"",""7"",""65789""
""focus"",""7"",""69216""
""blur"",""7"",""70253""
""focus"",""7"",""213637""
""blur"",""13"",""285202""
""focus"",""13"",""300689""
""blur"",""18"",""340341""
""focus"",""19"",""348454""
","""event"",""trial"",""time""
""blur"",""7"",""65789""
""blur"",""7"",""70253""
""blur"",""13"",""285202""
""blur"",""18"",""340341""
","""event"",""trial"",""time""
""focus"",""7"",""69216""
""focus"",""7"",""213637""
""focus"",""13"",""300689""
""focus"",""19"",""348454""
","""event"",""trial"",""time""
""fullscreenenter"",""1"",""3030""
","
","","","1208.2000000001863","","","999","999","999","n","elianto","#f73b6a7A"," "," ","1","0","[2058.9000000003725]","1","2","","","999","44","0","3","lose","go","0"
"pit-trial","108","1470128","0.0-49.0","battery-v0.2","","""event"",""trial"",""time""
""fullscreenenter"",""1"",""3030""
""blur"",""7"",""65789""
""focus"",""7"",""69216""
""blur"",""7"",""70253""
""focus"",""7"",""213637""
""blur"",""13"",""285202""
""focus"",""13"",""300689""
""blur"",""18"",""340341""
""focus"",""19"",""348454""
","""event"",""trial"",""time""
""blur"",""7"",""65789""
""blur"",""7"",""70253""
""blur"",""13"",""285202""
""blur"",""18"",""340341""
","""event"",""trial"",""time""
""focus"",""7"",""69216""
""focus"",""7"",""213637""
""focus"",""13"",""300689""
""focus"",""19"",""348454""
","""event"",""trial"",""time""
""fullscreenenter"",""1"",""3030""
","
","","","-1","","","999","999","999","b","elianto","#f73b6a7A","-1","-1","1","0","[]","0","2","","","999","45","3","4","lose","no-go","0"
"pit-trial","109","1474603","0.0-50.0","battery-v0.2","","""event"",""trial"",""time""
""fullscreenenter"",""1"",""3030""
""blur"",""7"",""65789""
""focus"",""7"",""69216""
""blur"",""7"",""70253""
""focus"",""7"",""213637""
""blur"",""13"",""285202""
""focus"",""13"",""300689""
""blur"",""18"",""340341""
""focus"",""19"",""348454""
","""event"",""trial"",""time""
""blur"",""7"",""65789""
""blur"",""7"",""70253""
""blur"",""13"",""285202""
""blur"",""18"",""340341""
","""event"",""trial"",""time""
""focus"",""7"",""69216""
""focus"",""7"",""213637""
""focus"",""13"",""300689""
""focus"",""19"",""348454""
","""event"",""trial"",""time""
""fullscreenenter"",""1"",""3030""
","
","","","1622.2000000001863","","","999","999","999","t","elianto","#f73b6a7A"," "," ","1","0","[2473.5999999996275]","1","2","","","999","46","2","3","lose","go","0"
"pit-trial","110","1479461","0.0-51.0","battery-v0.2","","""event"",""trial"",""time""
""fullscreenenter"",""1"",""3030""
""blur"",""7"",""65789""
""focus"",""7"",""69216""
""blur"",""7"",""70253""
""focus"",""7"",""213637""
""blur"",""13"",""285202""
""focus"",""13"",""300689""
""blur"",""18"",""340341""
""focus"",""19"",""348454""
","""event"",""trial"",""time""
""blur"",""7"",""65789""
""blur"",""7"",""70253""
""blur"",""13"",""285202""
""blur"",""18"",""340341""
","""event"",""trial"",""time""
""focus"",""7"",""69216""
""focus"",""7"",""213637""
""focus"",""13"",""300689""
""focus"",""19"",""348454""
","""event"",""trial"",""time""
""fullscreenenter"",""1"",""3030""
","
","","","-1","","","999","999","999","f","elianto","#3366ff99","-1","-1","1","+10","[]","0","2","","","999","47","1","2","win","no-go","0"
"pit-trial","111","1483130","0.0-52.0","battery-v0.2","","""event"",""trial"",""time""
""fullscreenenter"",""1"",""3030""
""blur"",""7"",""65789""
""focus"",""7"",""69216""
""blur"",""7"",""70253""
""focus"",""7"",""213637""
""blur"",""13"",""285202""
""focus"",""13"",""300689""
""blur"",""18"",""340341""
""focus"",""19"",""348454""
","""event"",""trial"",""time""
""blur"",""7"",""65789""
""blur"",""7"",""70253""
""blur"",""13"",""285202""
""blur"",""18"",""340341""
","""event"",""trial"",""time""
""focus"",""7"",""69216""
""focus"",""7"",""213637""
""focus"",""13"",""300689""
""focus"",""19"",""348454""
","""event"",""trial"",""time""
""fullscreenenter"",""1"",""3030""
","
","","","817.0999999996275","","","999","999","999","n","elianto","#f73b6a7A"," "," ","1","0","[1668]","1","2","","","999","48","0","3","lose","go","0"
"pit-trial","112","1487989","0.0-53.0","battery-v0.2","","""event"",""trial"",""time""
""fullscreenenter"",""1"",""3030""
""blur"",""7"",""65789""
""focus"",""7"",""69216""
""blur"",""7"",""70253""
""focus"",""7"",""213637""
""blur"",""13"",""285202""
""focus"",""13"",""300689""
""blur"",""18"",""340341""
""focus"",""19"",""348454""
","""event"",""trial"",""time""
""blur"",""7"",""65789""
""blur"",""7"",""70253""
""blur"",""13"",""285202""
""blur"",""18"",""340341""
","""event"",""trial"",""time""
""focus"",""7"",""69216""
""focus"",""7"",""213637""
""focus"",""13"",""300689""
""focus"",""19"",""348454""
","""event"",""trial"",""time""
""fullscreenenter"",""1"",""3030""
","
","","","-1","","","999","999","999","f","elianto","#3366ff99","-1","-1","1","+10","[]","0","2","","","999","49","1","2","win","no-go","0"
"pit-trial","113","1492844","0.0-54.0","battery-v0.2","","""event"",""trial"",""time""
""fullscreenenter"",""1"",""3030""
""blur"",""7"",""65789""
""focus"",""7"",""69216""
""blur"",""7"",""70253""
""focus"",""7"",""213637""
""blur"",""13"",""285202""
""focus"",""13"",""300689""
""blur"",""18"",""340341""
""focus"",""19"",""348454""
","""event"",""trial"",""time""
""blur"",""7"",""65789""
""blur"",""7"",""70253""
""blur"",""13"",""285202""
""blur"",""18"",""340341""
","""event"",""trial"",""time""
""focus"",""7"",""69216""
""focus"",""7"",""213637""
""focus"",""13"",""300689""
""focus"",""19"",""348454""
","""event"",""trial"",""time""
""fullscreenenter"",""1"",""3030""
","
","","","-1","","","999","999","999","t","elianto","#f73b6a7A"," ","-1","0","-10","[]","0","2","","","999","50","2","3","lose","go","0"
"pit-trial","114","1496474","0.0-55.0","battery-v0.2","","""event"",""trial"",""time""
""fullscreenenter"",""1"",""3030""
""blur"",""7"",""65789""
""focus"",""7"",""69216""
""blur"",""7"",""70253""
""focus"",""7"",""213637""
""blur"",""13"",""285202""
""focus"",""13"",""300689""
""blur"",""18"",""340341""
""focus"",""19"",""348454""
","""event"",""trial"",""time""
""blur"",""7"",""65789""
""blur"",""7"",""70253""
""blur"",""13"",""285202""
""blur"",""18"",""340341""
","""event"",""trial"",""time""
""focus"",""7"",""69216""
""focus"",""7"",""213637""
""focus"",""13"",""300689""
""focus"",""19"",""348454""
","""event"",""trial"",""time""
""fullscreenenter"",""1"",""3030""
","
","","","775.0999999996275","","","999","999","999","n","elianto","#f73b6a7A"," "," ","1","-10","[1625.8999999994412]","1","2","","","999","51","0","3","lose","go","1"
"pit-trial","115","1501333","0.0-56.0","battery-v0.2","","""event"",""trial"",""time""
""fullscreenenter"",""1"",""3030""
""blur"",""7"",""65789""
""focus"",""7"",""69216""
""blur"",""7"",""70253""
""focus"",""7"",""213637""
""blur"",""13"",""285202""
""focus"",""13"",""300689""
""blur"",""18"",""340341""
""focus"",""19"",""348454""
","""event"",""trial"",""time""
""blur"",""7"",""65789""
""blur"",""7"",""70253""
""blur"",""13"",""285202""
""blur"",""18"",""340341""
","""event"",""trial"",""time""
""focus"",""7"",""69216""
""focus"",""7"",""213637""
""focus"",""13"",""300689""
""focus"",""19"",""348454""
","""event"",""trial"",""time""
""fullscreenenter"",""1"",""3030""
","
","","","-1","","","999","999","999","b","elianto","#f73b6a7A","-1","-1","1","0","[]","0","2","","","999","52","3","4","lose","no-go","0"
"pit-trial","116","1505114","0.0-57.0","battery-v0.2","","""event"",""trial"",""time""
""fullscreenenter"",""1"",""3030""
""blur"",""7"",""65789""
""focus"",""7"",""69216""
""blur"",""7"",""70253""
""focus"",""7"",""213637""
""blur"",""13"",""285202""
""focus"",""13"",""300689""
""blur"",""18"",""340341""
""focus"",""19"",""348454""
","""event"",""trial"",""time""
""blur"",""7"",""65789""
""blur"",""7"",""70253""
""blur"",""13"",""285202""
""blur"",""18"",""340341""
","""event"",""trial"",""time""
""focus"",""7"",""69216""
""focus"",""7"",""213637""
""focus"",""13"",""300689""
""focus"",""19"",""348454""
","""event"",""trial"",""time""
""fullscreenenter"",""1"",""3030""
","
","","","926.5999999996275","","","999","999","999","n","elianto","#f73b6a7A"," "," ","1","0","[1777.2999999998137]","1","2","","","999","53","0","3","lose","go","0"
"pit-trial","117","1509172","0.0-58.0","battery-v0.2","","""event"",""trial"",""time""
""fullscreenenter"",""1"",""3030""
""blur"",""7"",""65789""
""focus"",""7"",""69216""
""blur"",""7"",""70253""
""focus"",""7"",""213637""
""blur"",""13"",""285202""
""focus"",""13"",""300689""
""blur"",""18"",""340341""
""focus"",""19"",""348454""
","""event"",""trial"",""time""
""blur"",""7"",""65789""
""blur"",""7"",""70253""
""blur"",""13"",""285202""
""blur"",""18"",""340341""
","""event"",""trial"",""time""
""focus"",""7"",""69216""
""focus"",""7"",""213637""
""focus"",""13"",""300689""
""focus"",""19"",""348454""
","""event"",""trial"",""time""
""fullscreenenter"",""1"",""3030""
","
","","","1206.699999999255","","","999","999","999","t","elianto","#f73b6a7A"," "," ","1","0","[2056.699999999255]","1","2","","","999","54","2","3","lose","go","0"
"pit-trial","118","1513204","0.0-59.0","battery-v0.2","","""event"",""trial"",""time""
""fullscreenenter"",""1"",""3030""
""blur"",""7"",""65789""
""focus"",""7"",""69216""
""blur"",""7"",""70253""
""focus"",""7"",""213637""
""blur"",""13"",""285202""
""focus"",""13"",""300689""
""blur"",""18"",""340341""
""focus"",""19"",""348454""
","""event"",""trial"",""time""
""blur"",""7"",""65789""
""blur"",""7"",""70253""
""blur"",""13"",""285202""
""blur"",""18"",""340341""
","""event"",""trial"",""time""
""focus"",""7"",""69216""
""focus"",""7"",""213637""
