"trial_type","trial_index","time_elapsed","internal_node_id","task_version","subject_id","interactions","blur_events","focus_events","fullscreenenter_events","fullscreenexit_events","success","view_history","rt","responses","num_errors","age","subject","participantId","rune","rune_set","hex","correct","choice","accuracy","outcome","keys","total_keys","block","practice","value","sub","trial","stimulus","robot","valence","action","sham"
"pavlovia","0","83","0.0-0.0","battery-v0.2","","""event"",""trial"",""time""
""fullscreenenter"",""1"",""14202""
","
","
","""event"",""trial"",""time""
""fullscreenenter"",""1"",""14202""
","
","","","","","","","","","","","","","","","","","","","","","","","","","","",""
"fullscreen","1","15210","0.0-1.0","battery-v0.2","","""event"",""trial"",""time""
""fullscreenenter"",""1"",""14202""
","
","
","""event"",""trial"",""time""
""fullscreenenter"",""1"",""14202""
","
","true","","","","","","","","","","","","","","","","","","","","","","","","","",""
"pit-instructions","2","20381","0.0-2.0-0.0","battery-v0.2","","""event"",""trial"",""time""
""fullscreenenter"",""1"",""14202""
","
","
","""event"",""trial"",""time""
""fullscreenenter"",""1"",""14202""
","
","","[{""page_index"":0,""viewing_time"":5167.800000190735}]","5168.199999809265","","","","","","","","","","","","","","","","","","","","","","","",""
"pit-comprehension","3","23378","0.0-2.0-1.0-0.0","battery-v0.2","","""event"",""trial"",""time""
""fullscreenenter"",""1"",""14202""
","
","
","""event"",""trial"",""time""
""fullscreenenter"",""1"",""14202""
","
","","","2993.199999809265","[""shark""]","0","23","9847","4013","","","","","","","","","","","","","","","","","","",""
"pit-instructions","4","25550","0.0-2.0-1.0-1.0","battery-v0.2","","""event"",""trial"",""time""
""fullscreenenter"",""1"",""14202""
","
","
","""event"",""trial"",""time""
""fullscreenenter"",""1"",""14202""
","
","","[{""page_index"":0,""viewing_time"":2163.199999809265}]","2163.5","","","","","","","","","","","","","","","","","","","","","","","",""
"pit-comprehension","5","27626","0.0-2.0-2.0-0.0","battery-v0.2","","""event"",""trial"",""time""
""fullscreenenter"",""1"",""14202""
","
","
","""event"",""trial"",""time""
""fullscreenenter"",""1"",""14202""
","
","","","2072.5999999046326","[""tiger""]","0","23","9847","4013","","","","","","","","","","","","","","","","","","",""
"pit-instructions","6","28344","0.0-2.0-2.0-1.0","battery-v0.2","","""event"",""trial"",""time""
""fullscreenenter"",""1"",""14202""
","
","
","""event"",""trial"",""time""
""fullscreenenter"",""1"",""14202""
","
","","[{""page_index"":0,""viewing_time"":715.1999998092651}]","715.5","","","","","","","","","","","","","","","","","","","","","","","",""
"pit-instructions","7","125234","0.0-2.0-3.0","battery-v0.2","","""event"",""trial"",""time""
""fullscreenenter"",""1"",""14202""
","
","
","""event"",""trial"",""time""
""fullscreenenter"",""1"",""14202""
","
","","[{""page_index"":0,""viewing_time"":9801.199999809265},{""page_index"":1,""viewing_time"":6861.800000190735},{""page_index"":2,""viewing_time"":6529.800000190735},{""page_index"":3,""viewing_time"":6290.299999713898},{""page_index"":4,""viewing_time"":5581},{""page_index"":5,""viewing_time"":5838},{""page_index"":6,""viewing_time"":6798.700000286102},{""page_index"":7,""viewing_time"":7094.699999809265},{""page_index"":8,""viewing_time"":6776.5},{""page_index"":9,""viewing_time"":8165.199999809265},{""page_index"":10,""viewing_time"":7505.400000095367},{""page_index"":11,""viewing_time"":7430.099999904633},{""page_index"":12,""viewing_time"":6072.5},{""page_index"":13,""viewing_time"":6142.300000190735}]","96887.80000019073","","","","","","","","","","","","","","","","","","","","","","","",""
"pit-trial","8","128765","0.0-2.0-4.0-0.0","battery-v0.2","","""event"",""trial"",""time""
""fullscreenenter"",""1"",""14202""
","
","
","""event"",""trial"",""time""
""fullscreenenter"",""1"",""14202""
","
","","","669.0999999046326","","","23","9847","4013","&#9784;","elianto","#FFFFF080"," "," ","1","&#10004","[1521.6999998092651]","1","0","0","","","","","","","",""
"pit-trial","9","132384","0.0-2.0-4.1-0.1","battery-v0.2","","""event"",""trial"",""time""
""fullscreenenter"",""1"",""14202""
","
","
","""event"",""trial"",""time""
""fullscreenenter"",""1"",""14202""
","
","","","753.5","","","23","9847","4013","&#9784;","elianto","#FFFFF080"," "," ","1","&#10004","[1606]","1","0","0","","","","","","","",""
"pit-trial","10","135897","0.0-2.0-4.2-0.2","battery-v0.2","","""event"",""trial"",""time""
""fullscreenenter"",""1"",""14202""
","
","
","""event"",""trial"",""time""
""fullscreenenter"",""1"",""14202""
","
","","","646.7000002861023","","","23","9847","4013","&#9784;","elianto","#FFFFF080"," "," ","1","&#10004","[1498.5999999046326]","1","0","0","","","","","","","",""
"pit-trial","11","139356","0.0-2.0-4.3-0.3","battery-v0.2","","""event"",""trial"",""time""
""fullscreenenter"",""1"",""14202""
","
","
","""event"",""trial"",""time""
""fullscreenenter"",""1"",""14202""
","
","","","599.7999997138977","","","23","9847","4013","&#9784;","elianto","#FFFFF080"," "," ","1","&#10004","[1453.9000000953674]","1","0","0","","","","","","","",""
"pit-trial","12","142920","0.0-2.0-4.4-0.4","battery-v0.2","","""event"",""trial"",""time""
""fullscreenenter"",""1"",""14202""
","
","
","""event"",""trial"",""time""
""fullscreenenter"",""1"",""14202""
","
","","","694.4000000953674","","","23","9847","4013","&#9784;","elianto","#FFFFF080"," "," ","1","&#10004","[1550]","1","0","0","","","","","","","",""
"pit-instructions","13","166565","0.0-2.0-5.0","battery-v0.2","","""event"",""trial"",""time""
""fullscreenenter"",""1"",""14202""
","
","
","""event"",""trial"",""time""
""fullscreenenter"",""1"",""14202""
","
","","[{""page_index"":0,""viewing_time"":6480.89999961853},{""page_index"":1,""viewing_time"":5749.700000286102},{""page_index"":2,""viewing_time"":5346.099999904633},{""page_index"":3,""viewing_time"":6065}]","23642","","","","","","","","","","","","","","","","","","","","","","","",""
"pit-trial","14","171429","0.0-2.0-6.0-0.0","battery-v0.2","","""event"",""trial"",""time""
""fullscreenenter"",""1"",""14202""
","
","
","""event"",""trial"",""time""
""fullscreenenter"",""1"",""14202""
","
","","","-1","","","23","9847","4013","&#9854;","elianto","#FFFFF080","-1","-1","1","&#10004","[]","0","0","1","","","","","","","",""
"pit-trial","15","176293","0.0-2.0-6.1-0.1","battery-v0.2","","""event"",""trial"",""time""
""fullscreenenter"",""1"",""14202""
","
","
","""event"",""trial"",""time""
""fullscreenenter"",""1"",""14202""
","
","","","-1","","","23","9847","4013","&#9854;","elianto","#FFFFF080","-1","-1","1","&#10004","[]","0","0","1","","","","","","","",""
"pit-trial","16","181158","0.0-2.0-6.2-0.2","battery-v0.2","","""event"",""trial"",""time""
""fullscreenenter"",""1"",""14202""
","
","
","""event"",""trial"",""time""
""fullscreenenter"",""1"",""14202""
","
","","","-1","","","23","9847","4013","&#9854;","elianto","#FFFFF080","-1","-1","1","&#10004","[]","0","0","1","","","","","","","",""
"pit-trial","17","186022","0.0-2.0-6.3-0.3","battery-v0.2","","""event"",""trial"",""time""
""fullscreenenter"",""1"",""14202""
","
","
","""event"",""trial"",""time""
""fullscreenenter"",""1"",""14202""
","
","","","-1","","","23","9847","4013","&#9854;","elianto","#FFFFF080","-1","-1","1","&#10004","[]","0","0","1","","","","","","","",""
"pit-trial","18","190887","0.0-2.0-6.4-0.4","battery-v0.2","","""event"",""trial"",""time""
""fullscreenenter"",""1"",""14202""
","
","
","""event"",""trial"",""time""
""fullscreenenter"",""1"",""14202""
","
","","","-1","","","23","9847","4013","&#9854;","elianto","#FFFFF080","-1","-1","1","&#10004","[]","0","0","1","","","","","","","",""
"pit-instructions","19","316381","0.0-2.0-7.0","battery-v0.2","","""event"",""trial"",""time""
""fullscreenenter"",""1"",""14202""
","
","
","""event"",""trial"",""time""
""fullscreenenter"",""1"",""14202""
","
","","[{""page_index"":0,""viewing_time"":5854.300000190735},{""page_index"":1,""viewing_time"":7517.900000095367},{""page_index"":2,""viewing_time"":8345.799999713898},{""page_index"":3,""viewing_time"":6910.300000190735},{""page_index"":4,""viewing_time"":6612.099999904633},{""page_index"":5,""viewing_time"":5677.300000190735},{""page_index"":6,""viewing_time"":5000.5},{""page_index"":7,""viewing_time"":7922.900000095367},{""page_index"":8,""viewing_time"":7319.89999961853},{""page_index"":9,""viewing_time"":6859.5},{""page_index"":10,""viewing_time"":6613},{""page_index"":11,""viewing_time"":4926.5},{""page_index"":12,""viewing_time"":7740.400000095367},{""page_index"":13,""viewing_time"":8575.800000190735},{""page_index"":14,""viewing_time"":7809.599999904633},{""page_index"":15,""viewing_time"":6258.800000190735},{""page_index"":16,""viewing_time"":8205.699999809265},{""page_index"":17,""viewing_time"":7341.199999809265}]","125491.80000019073","","","","","","","","","","","","","","","","","","","","","","","",""
"pit-trial","20","319781","0.0-2.0-8.0-0.0","battery-v0.2","","""event"",""trial"",""time""
""fullscreenenter"",""1"",""14202""
","
","
","""event"",""trial"",""time""
""fullscreenenter"",""1"",""14202""
","
","","","540.0999999046326","","","23","9847","4013","&#9776;","elianto","#3366ff99"," "," ","1","+10","[1391.2999997138977]","1","0","1","","","","","","","",""
"pit-trial","21","323246","0.0-2.0-8.0-1.0","battery-v0.2","","""event"",""trial"",""time""
""fullscreenenter"",""1"",""14202""
","
","
","""event"",""trial"",""time""
""fullscreenenter"",""1"",""14202""
","
","","","603.4000000953674","","","23","9847","4013","&#9776;","elianto","#3366ff99"," "," ","1","+10","[1456.6000003814697]","1","0","1","","","","","","","",""
"pit-trial","22","326688","0.0-2.0-8.0-2.0","battery-v0.2","","""event"",""trial"",""time""
""fullscreenenter"",""1"",""14202""
","
","
","""event"",""trial"",""time""
""fullscreenenter"",""1"",""14202""
","
","","","579.8000001907349","","","23","9847","4013","&#9776;","elianto","#3366ff99"," "," ","1","+10","[1431.5]","1","0","1","","","","","","","",""
"pit-trial","23","330015","0.0-2.0-8.0-3.0","battery-v0.2","","""event"",""trial"",""time""
""fullscreenenter"",""1"",""14202""
","
","
","""event"",""trial"",""time""
""fullscreenenter"",""1"",""14202""
","
","","","458.80000019073486","","","23","9847","4013","&#9776;","elianto","#3366ff99"," "," ","1","0","[1316.5]","1","0","1","","","","","","","",""
"pit-trial","24","333364","0.0-2.0-8.0-4.0","battery-v0.2","","""event"",""trial"",""time""
""fullscreenenter"",""1"",""14202""
","
","
","""event"",""trial"",""time""
""fullscreenenter"",""1"",""14202""
","
","","","494.59999990463257","","","23","9847","4013","&#9776;","elianto","#3366ff99"," "," ","1","+10","[1346.0999999046326]","1","0","1","","","","","","","",""
"pit-trial","25","336708","0.0-2.0-8.1-0.1","battery-v0.2","","""event"",""trial"",""time""
""fullscreenenter"",""1"",""14202""
","
","
","""event"",""trial"",""time""
""fullscreenenter"",""1"",""14202""
","
","","","483.69999980926514","","","23","9847","4013","&#9776;","elianto","#3366ff99"," "," ","1","+10","[1337.5]","1","0","1","","","","","","","",""
"pit-trial","26","339988","0.0-2.0-8.1-1.1","battery-v0.2","","""event"",""trial"",""time""
""fullscreenenter"",""1"",""14202""
","
","
","""event"",""trial"",""time""
""fullscreenenter"",""1"",""14202""
","
","","","424.7999997138977","","","23","9847","4013","&#9776;","elianto","#3366ff99"," "," ","1","+10","[1276.5999999046326]","1","0","1","","","","","","","",""
"pit-trial","27","344446","0.0-2.0-8.1-2.1","battery-v0.2","","""event"",""trial"",""time""
""fullscreenenter"",""1"",""14202""
","
","
","""event"",""trial"",""time""
""fullscreenenter"",""1"",""14202""
","
","","","1597","","","23","9847","4013","&#9776;","elianto","#3366ff99"," "," ","1","+10","[2453.199999809265]","1","0","1","","","","","","","",""
"pit-trial","28","347884","0.0-2.0-8.1-3.1","battery-v0.2","","""event"",""trial"",""time""
""fullscreenenter"",""1"",""14202""
","
","
","""event"",""trial"",""time""
""fullscreenenter"",""1"",""14202""
","
","","","575.5","","","23","9847","4013","&#9776;","elianto","#3366ff99"," "," ","1","0","[1428.6999998092651]","1","0","1","","","","","","","",""
"pit-trial","29","351263","0.0-2.0-8.1-4.1","battery-v0.2","","""event"",""trial"",""time""
""fullscreenenter"",""1"",""14202""
","
","
","""event"",""trial"",""time""
""fullscreenenter"",""1"",""14202""
","
","","","512.2999997138977","","","23","9847","4013","&#9776;","elianto","#3366ff99"," "," ","1","+10","[1367.1999998092651]","1","0","1","","","","","","","",""
"pit-trial","30","355222","0.0-2.0-8.2-0.2","battery-v0.2","","""event"",""trial"",""time""
""fullscreenenter"",""1"",""14202""
","
","
","""event"",""trial"",""time""
""fullscreenenter"",""1"",""14202""
","
","","","1100.9000000953674","","","23","9847","4013","&#9776;","elianto","#3366ff99"," "," ","1","+10","[1951.5999999046326]","1","0","1","","","","","","","",""
"pit-trial","31","358577","0.0-2.0-8.2-1.2","battery-v0.2","","""event"",""trial"",""time""
""fullscreenenter"",""1"",""14202""
","
","
","""event"",""trial"",""time""
""fullscreenenter"",""1"",""14202""
","
","","","491.40000009536743","","","23","9847","4013","&#9776;","elianto","#3366ff99"," "," ","1","+10","[1342.6999998092651]","1","0","1","","","","","","","",""
"pit-trial","32","362100","0.0-2.0-8.2-2.2","battery-v0.2","","""event"",""trial"",""time""
""fullscreenenter"",""1"",""14202""
","
","
","""event"",""trial"",""time""
""fullscreenenter"",""1"",""14202""
","
","","","655.5999999046326","","","23","9847","4013","&#9776;","elianto","#3366ff99"," "," ","1","+10","[1512.8000001907349]","1","0","1","","","","","","","",""
"pit-trial","33","365380","0.0-2.0-8.2-3.2","battery-v0.2","","""event"",""trial"",""time""
""fullscreenenter"",""1"",""14202""
","
","
","""event"",""trial"",""time""
""fullscreenenter"",""1"",""14202""
","
","","","418.90000009536743","","","23","9847","4013","&#9776;","elianto","#3366ff99"," "," ","1","0","[1269.9000000953674]","1","0","1","","","","","","","",""
"pit-trial","34","368648","0.0-2.0-8.2-4.2","battery-v0.2","","""event"",""trial"",""time""
""fullscreenenter"",""1"",""14202""
","
","
","""event"",""trial"",""time""
""fullscreenenter"",""1"",""14202""
","
","","","406.80000019073486","","","23","9847","4013","&#9776;","elianto","#3366ff99"," "," ","1","+10","[1258.0999999046326]","1","0","1","","","","","","","",""
"call-function","35","368650","0.0-2.0-9.0","battery-v0.2","","""event"",""trial"",""time""
""fullscreenenter"",""1"",""14202""
""blur"",""36"",""932407""
""focus"",""36"",""3274793""
","""event"",""trial"",""time""
""blur"",""36"",""932407""
","""event"",""trial"",""time""
""focus"",""36"",""3274793""
","""event"",""trial"",""time""
""fullscreenenter"",""1"",""14202""
","
","","","","","","","","","","","","","","","","","","","","","","","","","","",""
"pit-instructions","36","3323260","0.0-2.0-10.0","battery-v0.2","","""event"",""trial"",""time""
""fullscreenenter"",""1"",""14202""
""blur"",""36"",""932407""
""focus"",""36"",""3274793""
","""event"",""trial"",""time""
""blur"",""36"",""932407""
","""event"",""trial"",""time""
""focus"",""36"",""3274793""
","""event"",""trial"",""time""
""fullscreenenter"",""1"",""14202""
","
","","[{""page_index"":0,""viewing_time"":918168.1999998093},{""page_index"":1,""viewing_time"":12633.900000095367},{""page_index"":2,""viewing_time"":10401.099999904633},{""page_index"":3,""viewing_time"":12721.60000038147},{""page_index"":4,""viewing_time"":8212.199999809265}]","962137.3000001907","","","","","","","","","","","","","","","","","","","","","","","",""
"pit-trial","37","3328124","0.0-2.0-11.0-0.0","battery-v0.2","","""event"",""trial"",""time""
""fullscreenenter"",""1"",""14202""
""blur"",""36"",""932407""
""focus"",""36"",""3274793""
","""event"",""trial"",""time""
""blur"",""36"",""932407""
","""event"",""trial"",""time""
""focus"",""36"",""3274793""
","""event"",""trial"",""time""
""fullscreenenter"",""1"",""14202""
","
","","","-1","","","23","9847","4013","&#9761;","elianto","#3366ff99","-1","-1","1","+10","[2999.0999999046326]","1","0","2","","","","","","","",""
"pit-trial","38","3332054","0.0-2.0-11.0-1.0","battery-v0.2","","""event"",""trial"",""time""
""fullscreenenter"",""1"",""14202""
""blur"",""36"",""932407""
""focus"",""36"",""3274793""
","""event"",""trial"",""time""
""blur"",""36"",""932407""
","""event"",""trial"",""time""
""focus"",""36"",""3274793""
","""event"",""trial"",""time""
""fullscreenenter"",""1"",""14202""
","
","","","1068.5999999046326","","","23","9847","4013","&#9761;","elianto","#3366ff99","-1"," ","0","0","[1920.5]","1","0","2","","","","","","","",""
"pit-trial","39","3335694","0.0-2.0-11.0-2.0","battery-v0.2","","""event"",""trial"",""time""
""fullscreenenter"",""1"",""14202""
""blur"",""36"",""932407""
""focus"",""36"",""3274793""
","""event"",""trial"",""time""
""blur"",""36"",""932407""
","""event"",""trial"",""time""
""focus"",""36"",""3274793""
","""event"",""trial"",""time""
""fullscreenenter"",""1"",""14202""
","
","","","774.1999998092651","","","23","9847","4013","&#9761;","elianto","#3366ff99","-1"," ","0","0","[1628.7999997138977]","1","0","2","","","","","","","",""
"pit-trial","40","3338968","0.0-2.0-11.0-3.0","battery-v0.2","","""event"",""trial"",""time""
""fullscreenenter"",""1"",""14202""
""blur"",""36"",""932407""
""focus"",""36"",""3274793""
","""event"",""trial"",""time""
""blur"",""36"",""932407""
","""event"",""trial"",""time""
""focus"",""36"",""3274793""
","""event"",""trial"",""time""
""fullscreenenter"",""1"",""14202""
","
","","","412.5","","","23","9847","4013","&#9761;","elianto","#3366ff99","-1"," ","0","+10","[1266.0999999046326]","1","0","2","","","","","","","",""
"pit-trial","41","3343838","0.0-2.0-11.0-4.0","battery-v0.2","","""event"",""trial"",""time""
""fullscreenenter"",""1"",""14202""
""blur"",""36"",""932407""
""focus"",""36"",""3274793""
","""event"",""trial"",""time""
""blur"",""36"",""932407""
","""event"",""trial"",""time""
""focus"",""36"",""3274793""
","""event"",""trial"",""time""
""fullscreenenter"",""1"",""14202""
","
","","","-1","","","23","9847","4013","&#9761;","elianto","#3366ff99","-1","-1","1","+10","[]","0","0","2","","","","","","","",""
"pit-trial","42","3347141","0.0-2.0-11.1-0.1","battery-v0.2","","""event"",""trial"",""time""
""fullscreenenter"",""1"",""14202""
""blur"",""36"",""932407""
""focus"",""36"",""3274793""
","""event"",""trial"",""time""
""blur"",""36"",""932407""
","""event"",""trial"",""time""
""focus"",""36"",""3274793""
","""event"",""trial"",""time""
""fullscreenenter"",""1"",""14202""
","
","","","440.09999990463257","","","23","9847","4013","&#9761;","elianto","#3366ff99","-1"," ","0","0","[1291.4000000953674]","1","0","2","","","","","","","",""
"pit-trial","43","3351159","0.0-2.0-11.1-1.1","battery-v0.2","","""event"",""trial"",""time""
""fullscreenenter"",""1"",""14202""
""blur"",""36"",""932407""
""focus"",""36"",""3274793""
","""event"",""trial"",""time""
""blur"",""36"",""932407""
","""event"",""trial"",""time""
""focus"",""36"",""3274793""
","""event"",""trial"",""time""
""fullscreenenter"",""1"",""14202""
","
","","","1156.0999999046326","","","23","9847","4013","&#9761;","elianto","#3366ff99","-1"," ","0","0","[2006.4000000953674]","1","0","2","","","","","","","",""
"pit-trial","44","3356025","0.0-2.0-11.1-2.1","battery-v0.2","","""event"",""trial"",""time""
""fullscreenenter"",""1"",""14202""
""blur"",""36"",""932407""
""focus"",""36"",""3274793""
","""event"",""trial"",""time""
""blur"",""36"",""932407""
","""event"",""trial"",""time""
""focus"",""36"",""3274793""
","""event"",""trial"",""time""
""fullscreenenter"",""1"",""14202""
","
","","","-1","","","23","9847","4013","&#9761;","elianto","#3366ff99","-1","-1","1","+10","[]","0","0","2","","","","","","","",""
"pit-trial","45","3360569","0.0-2.0-11.1-3.1","battery-v0.2","","""event"",""trial"",""time""
""fullscreenenter"",""1"",""14202""
""blur"",""36"",""932407""
""focus"",""36"",""3274793""
","""event"",""trial"",""time""
""blur"",""36"",""932407""
","""event"",""trial"",""time""
""focus"",""36"",""3274793""
","""event"",""trial"",""time""
""fullscreenenter"",""1"",""14202""
","
","","","1673.1000003814697","","","23","9847","4013","&#9761;","elianto","#3366ff99","-1"," ","0","+10","[2532.0999999046326]","1","0","2","","","","","","","",""
"pit-trial","46","3364105","0.0-2.0-11.1-4.1","battery-v0.2","","""event"",""trial"",""time""
""fullscreenenter"",""1"",""14202""
""blur"",""36"",""932407""
""focus"",""36"",""3274793""
","""event"",""trial"",""time""
""blur"",""36"",""932407""
","""event"",""trial"",""time""
""focus"",""36"",""3274793""
","""event"",""trial"",""time""
""fullscreenenter"",""1"",""14202""
","
","","","668.9000000953674","","","23","9847","4013","&#9761;","elianto","#3366ff99","-1"," ","0","0","[1526.1999998092651]","1","0","2","","","","","","","",""
"pit-trial","47","3367350","0.0-2.0-11.2-0.2","battery-v0.2","","""event"",""trial"",""time""
""fullscreenenter"",""1"",""14202""
""blur"",""36"",""932407""
""focus"",""36"",""3274793""
","""event"",""trial"",""time""
""blur"",""36"",""932407""
","""event"",""trial"",""time""
""focus"",""36"",""3274793""
","""event"",""trial"",""time""
""fullscreenenter"",""1"",""14202""
","
","","","379.09999990463257","","","23","9847","4013","&#9761;","elianto","#3366ff99","-1"," ","0","0","[1233.7000002861023]","1","0","2","","","","","","","",""
"pit-trial","48","3370830","0.0-2.0-11.2-1.2","battery-v0.2","","""event"",""trial"",""time""
""fullscreenenter"",""1"",""14202""
""blur"",""36"",""932407""
""focus"",""36"",""3274793""
","""event"",""trial"",""time""
""blur"",""36"",""932407""
","""event"",""trial"",""time""
""focus"",""36"",""3274793""
","""event"",""trial"",""time""
""fullscreenenter"",""1"",""14202""
","
","","","616","","","23","9847","4013","&#9761;","elianto","#3366ff99","-1"," ","0","0","[1468.0999999046326]","1","0","2","","","","","","","",""
"pit-trial","49","3374206","0.0-2.0-11.2-2.2","battery-v0.2","","""event"",""trial"",""time""
""fullscreenenter"",""1"",""14202""
""blur"",""36"",""932407""
""focus"",""36"",""3274793""
","""event"",""trial"",""time""
""blur"",""36"",""932407""
","""event"",""trial"",""time""
""focus"",""36"",""3274793""
","""event"",""trial"",""time""
""fullscreenenter"",""1"",""14202""
","
","","","510.09999990463257","","","23","9847","4013","&#9761;","elianto","#3366ff99","-1"," ","0","0","[1365]","1","0","2","","","","","","","",""
"pit-trial","50","3377439","0.0-2.0-11.2-3.2","battery-v0.2","","""event"",""trial"",""time""
""fullscreenenter"",""1"",""14202""
""blur"",""36"",""932407""
""focus"",""36"",""3274793""
","""event"",""trial"",""time""
""blur"",""36"",""932407""
","""event"",""trial"",""time""
""focus"",""36"",""3274793""
","""event"",""trial"",""time""
""fullscreenenter"",""1"",""14202""
","
","","","372.09999990463257","","","23","9847","4013","&#9761;","elianto","#3366ff99","-1"," ","0","+10","[1225.6999998092651]","1","0","2","","","","","","","",""
"pit-trial","51","3380632","0.0-2.0-11.2-4.2","battery-v0.2","","""event"",""trial"",""time""
""fullscreenenter"",""1"",""14202""
""blur"",""36"",""932407""
""focus"",""36"",""3274793""
","""event"",""trial"",""time""
""blur"",""36"",""932407""
","""event"",""trial"",""time""
""focus"",""36"",""3274793""
","""event"",""trial"",""time""
""fullscreenenter"",""1"",""14202""
","
","","","333","","","23","9847","4013","&#9761;","elianto","#3366ff99","-1"," ","0","0","[1184.7999997138977]","1","0","2","","","","","","","",""
"pit-trial","52","3383964","0.0-2.0-11.3-0.3","battery-v0.2","","""event"",""trial"",""time""
""fullscreenenter"",""1"",""14202""
""blur"",""36"",""932407""
""focus"",""36"",""3274793""
","""event"",""trial"",""time""
""blur"",""36"",""932407""
","""event"",""trial"",""time""
""focus"",""36"",""3274793""
","""event"",""trial"",""time""
""fullscreenenter"",""1"",""14202""
","
","","","464.69999980926514","","","23","9847","4013","&#9761;","elianto","#3366ff99","-1"," ","0","0","[1324.5999999046326]","1","0","2","","","","","","","",""
"pit-trial","53","3387320","0.0-2.0-11.3-1.3","battery-v0.2","","""event"",""trial"",""time""
""fullscreenenter"",""1"",""14202""
""blur"",""36"",""932407""
""focus"",""36"",""3274793""
","""event"",""trial"",""time""
""blur"",""36"",""932407""
","""event"",""trial"",""time""
""focus"",""36"",""3274793""
","""event"",""trial"",""time""
""fullscreenenter"",""1"",""14202""
","
","","","487.19999980926514","","","23","9847","4013","&#9761;","elianto","#3366ff99","-1"," ","0","0","[1342.0999999046326]","1","0","2","","","","","","","",""
"pit-trial","54","3390333","0.0-2.0-11.3-2.3","battery-v0.2","","""event"",""trial"",""time""
""fullscreenenter"",""1"",""14202""
""blur"",""36"",""932407""
""focus"",""36"",""3274793""
","""event"",""trial"",""time""
""blur"",""36"",""932407""
","""event"",""trial"",""time""
""focus"",""36"",""3274793""
","""event"",""trial"",""time""
""fullscreenenter"",""1"",""14202""
","
","","","158.40000009536743","","","23","9847","4013","&#9761;","elianto","#3366ff99","-1"," ","0","0","[1009.3000001907349]","1","0","2","","","","","","","",""
"pit-trial","55","3393385","0.0-2.0-11.3-3.3","battery-v0.2","","""event"",""trial"",""time""
""fullscreenenter"",""1"",""14202""
""blur"",""36"",""932407""
""focus"",""36"",""3274793""
","""event"",""trial"",""time""
""blur"",""36"",""932407""
","""event"",""trial"",""time""
""focus"",""36"",""3274793""
","""event"",""trial"",""time""
""fullscreenenter"",""1"",""14202""
","
","","","188.90000009536743","","","23","9847","4013","&#9761;","elianto","#3366ff99","-1"," ","0","+10","[1044.4000000953674]","1","0","2","","","","","","","",""
"pit-trial","56","3396846","0.0-2.0-11.3-4.3","battery-v0.2","","""event"",""trial"",""time""
""fullscreenenter"",""1"",""14202""
""blur"",""36"",""932407""
""focus"",""36"",""3274793""
","""event"",""trial"",""time""
""blur"",""36"",""932407""
","""event"",""trial"",""time""
""focus"",""36"",""3274793""
","""event"",""trial"",""time""
""fullscreenenter"",""1"",""14202""
","
","","","591.1999998092651","","","23","9847","4013","&#9761;","elianto","#3366ff99","-1"," ","0","0","[1449.2999997138977]","1","0","2","","","","","","","",""
"call-function","57","3396847","0.0-2.0-12.0","battery-v0.2","","""event"",""trial"",""time""
""fullscreenenter"",""1"",""14202""
""blur"",""36"",""932407""
""focus"",""36"",""3274793""
","""event"",""trial"",""time""
""blur"",""36"",""932407""
","""event"",""trial"",""time""
""focus"",""36"",""3274793""
","""event"",""trial"",""time""
""fullscreenenter"",""1"",""14202""
","
","","","","","","","","","","","","","","","","","","","","","","","","","","",""
"pit-instructions","58","3432826","0.0-2.0-13.0","battery-v0.2","","""event"",""trial"",""time""
""fullscreenenter"",""1"",""14202""
""blur"",""36"",""932407""
""focus"",""36"",""3274793""
","""event"",""trial"",""time""
""blur"",""36"",""932407""
","""event"",""trial"",""time""
""focus"",""36"",""3274793""
","""event"",""trial"",""time""
""fullscreenenter"",""1"",""14202""
","
","","[{""page_index"":0,""viewing_time"":7725.199999809265},{""page_index"":1,""viewing_time"":6855.900000095367},{""page_index"":2,""viewing_time"":3846},{""page_index"":3,""viewing_time"":11541.900000095367},{""page_index"":4,""viewing_time"":6009.099999904633}]","35978.40000009537","","","","","","","","","","","","","","","","","","","","","","","",""
"pit-trial","59","3436558","0.0-2.0-14.0-0.0","battery-v0.2","","""event"",""trial"",""time""
""fullscreenenter"",""1"",""14202""
""blur"",""36"",""932407""
""focus"",""36"",""3274793""
","""event"",""trial"",""time""
""blur"",""36"",""932407""
","""event"",""trial"",""time""
""focus"",""36"",""3274793""
","""event"",""trial"",""time""
""fullscreenenter"",""1"",""14202""
","
","","","875.7999997138977","","","23","9847","4013","&#9826;","elianto","#f73b6a7A","-1"," ","0","-10","[1726.0999999046326]","1","0","3","","","","","","","",""
"pit-trial","60","3441423","0.0-2.0-14.0-1.0","battery-v0.2","","""event"",""trial"",""time""
""fullscreenenter"",""1"",""14202""
""blur"",""36"",""932407""
""focus"",""36"",""3274793""
","""event"",""trial"",""time""
""blur"",""36"",""932407""
","""event"",""trial"",""time""
""focus"",""36"",""3274793""
","""event"",""trial"",""time""
""fullscreenenter"",""1"",""14202""
","
","","","-1","","","23","9847","4013","&#9826;","elianto","#f73b6a7A","-1","-1","1","0","[]","0","0","3","","","","","","","",""
"pit-trial","61","3446287","0.0-2.0-14.0-2.0","battery-v0.2","","""event"",""trial"",""time""
""fullscreenenter"",""1"",""14202""
""blur"",""36"",""932407""
""focus"",""36"",""3274793""
","""event"",""trial"",""time""
""blur"",""36"",""932407""
","""event"",""trial"",""time""
""focus"",""36"",""3274793""
","""event"",""trial"",""time""
""fullscreenenter"",""1"",""14202""
","
","","","-1","","","23","9847","4013","&#9826;","elianto","#f73b6a7A","-1","-1","1","0","[]","0","0","3","","","","","","","",""
"pit-trial","62","3451152","0.0-2.0-14.0-3.0","battery-v0.2","","""event"",""trial"",""time""
""fullscreenenter"",""1"",""14202""
""blur"",""36"",""932407""
""focus"",""36"",""3274793""
","""event"",""trial"",""time""
""blur"",""36"",""932407""
","""event"",""trial"",""time""
""focus"",""36"",""3274793""
","""event"",""trial"",""time""
""fullscreenenter"",""1"",""14202""
","
","","","-1","","","23","9847","4013","&#9826;","elianto","#f73b6a7A","-1","-1","1","-10","[]","0","0","3","","","","","","","",""
"pit-trial","63","3455301","0.0-2.0-14.0-4.0","battery-v0.2","","""event"",""trial"",""time""
""fullscreenenter"",""1"",""14202""
""blur"",""36"",""932407""
""focus"",""36"",""3274793""
","""event"",""trial"",""time""
""blur"",""36"",""932407""
","""event"",""trial"",""time""
""focus"",""36"",""3274793""
","""event"",""trial"",""time""
""fullscreenenter"",""1"",""14202""
","
","","","1287.2999997138977","","","23","9847","4013","&#9826;","elianto","#f73b6a7A","-1"," ","0","-10","[2139.0999999046326]","1","0","3","","","","","","","",""
"pit-trial","64","3460165","0.0-2.0-14.1-0.1","battery-v0.2","","""event"",""trial"",""time""
""fullscreenenter"",""1"",""14202""
""blur"",""36"",""932407""
""focus"",""36"",""3274793""
","""event"",""trial"",""time""
""blur"",""36"",""932407""
","""event"",""trial"",""time""
""focus"",""36"",""3274793""
","""event"",""trial"",""time""
""fullscreenenter"",""1"",""14202""
","
","","","-1","","","23","9847","4013","&#9826;","elianto","#f73b6a7A","-1","-1","1","0","[]","0","0","3","","","","","","","",""
"pit-trial","65","3463535","0.0-2.0-14.1-1.1","battery-v0.2","","""event"",""trial"",""time""
""fullscreenenter"",""1"",""14202""
""blur"",""36"",""932407""
""focus"",""36"",""3274793""
","""event"",""trial"",""time""
""blur"",""36"",""932407""
","""event"",""trial"",""time""
""focus"",""36"",""3274793""
","""event"",""trial"",""time""
""fullscreenenter"",""1"",""14202""
","
","","","508","","","23","9847","4013","&#9826;","elianto","#f73b6a7A","-1"," ","0","-10","[1361.4000000953674]","1","0","3","","","","","","","",""
"pit-trial","66","3468399","0.0-2.0-14.1-2.1","battery-v0.2","","""event"",""trial"",""time""
""fullscreenenter"",""1"",""14202""
""blur"",""36"",""932407""
""focus"",""36"",""3274793""
","""event"",""trial"",""time""
""blur"",""36"",""932407""
","""event"",""trial"",""time""
""focus"",""36"",""3274793""
","""event"",""trial"",""time""
""fullscreenenter"",""1"",""14202""
","
","","","-1","","","23","9847","4013","&#9826;","elianto","#f73b6a7A","-1","-1","1","0","[]","0","0","3","","","","","","","",""
"pit-trial","67","3473265","0.0-2.0-14.1-3.1","battery-v0.2","","""event"",""trial"",""time""
""fullscreenenter"",""1"",""14202""
""blur"",""36"",""932407""
""focus"",""36"",""3274793""
","""event"",""trial"",""time""
""blur"",""36"",""932407""
","""event"",""trial"",""time""
""focus"",""36"",""3274793""
","""event"",""trial"",""time""
""fullscreenenter"",""1"",""14202""
","
","","","-1","","","23","9847","4013","&#9826;","elianto","#f73b6a7A","-1","-1","1","-10","[]","0","0","3","","","","","","","",""
"pit-trial","68","3477081","0.0-2.0-14.1-4.1","battery-v0.2","","""event"",""trial"",""time""
""fullscreenenter"",""1"",""14202""
""blur"",""36"",""932407""
""focus"",""36"",""3274793""
","""event"",""trial"",""time""
""blur"",""36"",""932407""
","""event"",""trial"",""time""
""focus"",""36"",""3274793""
","""event"",""trial"",""time""
""fullscreenenter"",""1"",""14202""
","
","","","952.5999999046326","","","23","9847","4013","&#9826;","elianto","#f73b6a7A","-1"," ","0","-10","[1803]","1","0","3","","","","","","","",""
"pit-trial","69","3481949","0.0-2.0-14.2-0.2","battery-v0.2","","""event"",""trial"",""time""
""fullscreenenter"",""1"",""14202""
""blur"",""36"",""932407""
""focus"",""36"",""3274793""
","""event"",""trial"",""time""
""blur"",""36"",""932407""
","""event"",""trial"",""time""
""focus"",""36"",""3274793""
","""event"",""trial"",""time""
""fullscreenenter"",""1"",""14202""
","
","","","-1","","","23","9847","4013","&#9826;","elianto","#f73b6a7A","-1","-1","1","0","[]","0","0","3","","","","","","","",""
"pit-trial","70","3486813","0.0-2.0-14.2-1.2","battery-v0.2","","""event"",""trial"",""time""
""fullscreenenter"",""1"",""14202""
""blur"",""36"",""932407""
""focus"",""36"",""3274793""
","""event"",""trial"",""time""
""blur"",""36"",""932407""
","""event"",""trial"",""time""
""focus"",""36"",""3274793""
","""event"",""trial"",""time""
""fullscreenenter"",""1"",""14202""
","
","","","-1","","","23","9847","4013","&#9826;","elianto","#f73b6a7A","-1","-1","1","0","[]","0","0","3","","","","","","","",""
"pit-trial","71","3491678","0.0-2.0-14.2-2.2","battery-v0.2","","""event"",""trial"",""time""
""fullscreenenter"",""1"",""14202""
""blur"",""36"",""932407""
""focus"",""36"",""3274793""
","""event"",""trial"",""time""
""blur"",""36"",""932407""
","""event"",""trial"",""time""
""focus"",""36"",""3274793""
","""event"",""trial"",""time""
""fullscreenenter"",""1"",""14202""
","
","","","-1","","","23","9847","4013","&#9826;","elianto","#f73b6a7A","-1","-1","1","0","[]","0","0","3","","","","","","","",""
"pit-trial","72","3496542","0.0-2.0-14.2-3.2","battery-v0.2","","""event"",""trial"",""time""
""fullscreenenter"",""1"",""14202""
""blur"",""36"",""932407""
""focus"",""36"",""3274793""
","""event"",""trial"",""time""
""blur"",""36"",""932407""
","""event"",""trial"",""time""
""focus"",""36"",""3274793""
","""event"",""trial"",""time""
""fullscreenenter"",""1"",""14202""
","
","","","-1","","","23","9847","4013","&#9826;","elianto","#f73b6a7A","-1","-1","1","-10","[]","0","0","3","","","","","","","",""
"pit-trial","73","3501409","0.0-2.0-14.2-4.2","battery-v0.2","","""event"",""trial"",""time""
""fullscreenenter"",""1"",""14202""
""blur"",""36"",""932407""
""focus"",""36"",""3274793""
","""event"",""trial"",""time""
""blur"",""36"",""932407""
","""event"",""trial"",""time""
""focus"",""36"",""3274793""
","""event"",""trial"",""time""
""fullscreenenter"",""1"",""14202""
","
","","","-1","","","23","9847","4013","&#9826;","elianto","#f73b6a7A","-1","-1","1","0","[]","0","0","3","","","","","","","",""
"pit-trial","74","3506282","0.0-2.0-14.3-0.3","battery-v0.2","","""event"",""trial"",""time""
""fullscreenenter"",""1"",""14202""
""blur"",""36"",""932407""
""focus"",""36"",""3274793""
","""event"",""trial"",""time""
""blur"",""36"",""932407""
","""event"",""trial"",""time""
""focus"",""36"",""3274793""
","""event"",""trial"",""time""
""fullscreenenter"",""1"",""14202""
","
","","","-1","","","23","9847","4013","&#9826;","elianto","#f73b6a7A","-1","-1","1","0","[]","0","0","3","","","","","","","",""
"pit-trial","75","3511154","0.0-2.0-14.3-1.3","battery-v0.2","","""event"",""trial"",""time""
""fullscreenenter"",""1"",""14202""
""blur"",""36"",""932407""
""focus"",""36"",""3274793""
","""event"",""trial"",""time""
""blur"",""36"",""932407""
","""event"",""trial"",""time""
""focus"",""36"",""3274793""
","""event"",""trial"",""time""
""fullscreenenter"",""1"",""14202""
","
","","","-1","","","23","9847","4013","&#9826;","elianto","#f73b6a7A","-1","-1","1","0","[]","0","0","3","","","","","","","",""
"pit-trial","76","3516024","0.0-2.0-14.3-2.3","battery-v0.2","","""event"",""trial"",""time""
""fullscreenenter"",""1"",""14202""
""blur"",""36"",""932407""
""focus"",""36"",""3274793""
","""event"",""trial"",""time""
""blur"",""36"",""932407""
","""event"",""trial"",""time""
""focus"",""36"",""3274793""
","""event"",""trial"",""time""
""fullscreenenter"",""1"",""14202""
","
","","","-1","","","23","9847","4013","&#9826;","elianto","#f73b6a7A","-1","-1","1","0","[]","0","0","3","","","","","","","",""
"pit-trial","77","3520889","0.0-2.0-14.3-3.3","battery-v0.2","","""event"",""trial"",""time""
""fullscreenenter"",""1"",""14202""
""blur"",""36"",""932407""
""focus"",""36"",""3274793""
","""event"",""trial"",""time""
""blur"",""36"",""932407""
","""event"",""trial"",""time""
""focus"",""36"",""3274793""
","""event"",""trial"",""time""
""fullscreenenter"",""1"",""14202""
","
","","","-1","","","23","9847","4013","&#9826;","elianto","#f73b6a7A","-1","-1","1","-10","[]","0","0","3","","","","","","","",""
"pit-trial","78","3525753","0.0-2.0-14.3-4.3","battery-v0.2","","""event"",""trial"",""time""
""fullscreenenter"",""1"",""14202""
""blur"",""36"",""932407""
""focus"",""36"",""3274793""
","""event"",""trial"",""time""
""blur"",""36"",""932407""
","""event"",""trial"",""time""
""focus"",""36"",""3274793""
","""event"",""trial"",""time""
""fullscreenenter"",""1"",""14202""
","
","","","-1","","","23","9847","4013","&#9826;","elianto","#f73b6a7A","-1","-1","1","0","[]","0","0","3","","","","","","","",""
"call-function","79","3525755","0.0-2.0-15.0","battery-v0.2","","""event"",""trial"",""time""
""fullscreenenter"",""1"",""14202""
""blur"",""36"",""932407""
""focus"",""36"",""3274793""
","""event"",""trial"",""time""
""blur"",""36"",""932407""
","""event"",""trial"",""time""
""focus"",""36"",""3274793""
","""event"",""trial"",""time""
""fullscreenenter"",""1"",""14202""
","
","","","","","","","","","","","","","","","","","","","","","","","","","","",""
"pit-instructions","80","3553122","0.0-2.0-16.0","battery-v0.2","","""event"",""trial"",""time""
""fullscreenenter"",""1"",""14202""
""blur"",""36"",""932407""
""focus"",""36"",""3274793""
","""event"",""trial"",""time""
""blur"",""36"",""932407""
","""event"",""trial"",""time""
""focus"",""36"",""3274793""
","""event"",""trial"",""time""
""fullscreenenter"",""1"",""14202""
","
","","[{""page_index"":0,""viewing_time"":6956.5},{""page_index"":1,""viewing_time"":8338},{""page_index"":2,""viewing_time"":4904.299999713898},{""page_index"":3,""viewing_time"":7167.300000190735}]","27366.5","","","","","","","","","","","","","","","","","","","","","","","",""
"pit-trial","81","3556558","0.0-2.0-17.0-0.0","battery-v0.2","","""event"",""trial"",""time""
""fullscreenenter"",""1"",""14202""
""blur"",""36"",""932407""
""focus"",""36"",""3274793""
","""event"",""trial"",""time""
""blur"",""36"",""932407""
","""event"",""trial"",""time""
""focus"",""36"",""3274793""
","""event"",""trial"",""time""
""fullscreenenter"",""1"",""14202""
","
","","","576.0999999046326","","","23","9847","4013","&#9789;","elianto","#f73b6a7A"," "," ","1","0","[1429.4000000953674]","1","0","4","","","","","","","",""
"pit-trial","82","3561423","0.0-2.0-17.0-1.0","battery-v0.2","","""event"",""trial"",""time""
""fullscreenenter"",""1"",""14202""
""blur"",""36"",""932407""
""focus"",""36"",""3274793""
","""event"",""trial"",""time""
""blur"",""36"",""932407""
","""event"",""trial"",""time""
""focus"",""36"",""3274793""
","""event"",""trial"",""time""
""fullscreenenter"",""1"",""14202""
","
","","","-1","","","23","9847","4013","&#9789;","elianto","#f73b6a7A"," ","-1","0","-10","[]","0","0","4","","","","","","","",""
"pit-trial","83","3564546","0.0-2.0-17.0-2.0","battery-v0.2","","""event"",""trial"",""time""
""fullscreenenter"",""1"",""14202""
""blur"",""36"",""932407""
""focus"",""36"",""3274793""
","""event"",""trial"",""time""
""blur"",""36"",""932407""
","""event"",""trial"",""time""
""focus"",""36"",""3274793""
","""event"",""trial"",""time""
""fullscreenenter"",""1"",""14202""
","
","","","259.7999997138977","","","23","9847","4013","&#9789;","elianto","#f73b6a7A"," "," ","1","0","[1116.5]","1","0","4","","","","","","","",""
"pit-trial","84","3569417","0.0-2.0-17.0-3.0","battery-v0.2","","""event"",""trial"",""time""
""fullscreenenter"",""1"",""14202""
""blur"",""36"",""932407""
""focus"",""36"",""3274793""
","""event"",""trial"",""time""
""blur"",""36"",""932407""
","""event"",""trial"",""time""
""focus"",""36"",""3274793""
","""event"",""trial"",""time""
""fullscreenenter"",""1"",""14202""
","
","","","-1","","","23","9847","4013","&#9789;","elianto","#f73b6a7A"," ","-1","0","0","[]","0","0","4","","","","","","","",""
"pit-trial","85","3572898","0.0-2.0-17.0-4.0","battery-v0.2","","""event"",""trial"",""time""
""fullscreenenter"",""1"",""14202""
""blur"",""36"",""932407""
""focus"",""36"",""3274793""
","""event"",""trial"",""time""
""blur"",""36"",""932407""
","""event"",""trial"",""time""
""focus"",""36"",""3274793""
","""event"",""trial"",""time""
""fullscreenenter"",""1"",""14202""
","
","","","619.7999997138977","","","23","9847","4013","&#9789;","elianto","#f73b6a7A"," "," ","1","0","[1471.0999999046326]","1","0","4","","","","","","","",""
"pit-trial","86","3577766","0.0-2.0-17.1-0.1","battery-v0.2","","""event"",""trial"",""time""
""fullscreenenter"",""1"",""14202""
""blur"",""36"",""932407""
""focus"",""36"",""3274793""
","""event"",""trial"",""time""
""blur"",""36"",""932407""
","""event"",""trial"",""time""
""focus"",""36"",""3274793""
","""event"",""trial"",""time""
""fullscreenenter"",""1"",""14202""
","
","","","-1","","","23","9847","4013","&#9789;","elianto","#f73b6a7A"," ","-1","0","-10","[]","0","0","4","","","","","","","",""
"pit-trial","87","3580841","0.0-2.0-17.1-1.1","battery-v0.2","","""event"",""trial"",""time""
""fullscreenenter"",""1"",""14202""
""blur"",""36"",""932407""
""focus"",""36"",""3274793""
","""event"",""trial"",""time""
""blur"",""36"",""932407""
","""event"",""trial"",""time""
""focus"",""36"",""3274793""
","""event"",""trial"",""time""
""fullscreenenter"",""1"",""14202""
","
","","","209.80000019073486","","","23","9847","4013","&#9789;","elianto","#f73b6a7A"," "," ","1","0","[1063.5999999046326]","1","0","4","","","","","","","",""
"pit-trial","88","3584024","0.0-2.0-17.1-2.1","battery-v0.2","","""event"",""trial"",""time""
""fullscreenenter"",""1"",""14202""
""blur"",""36"",""932407""
""focus"",""36"",""3274793""
","""event"",""trial"",""time""
""blur"",""36"",""932407""
","""event"",""trial"",""time""
""focus"",""36"",""3274793""
","""event"",""trial"",""time""
""fullscreenenter"",""1"",""14202""
","
","","","318.59999990463257","","","23","9847","4013","&#9789;","elianto","#f73b6a7A"," "," ","1","0","[1172.0999999046326]","1","0","4","","","","","","","",""
"pit-trial","89","3587147","0.0-2.0-17.1-3.1","battery-v0.2","","""event"",""trial"",""time""
""fullscreenenter"",""1"",""14202""
""blur"",""36"",""932407""
""focus"",""36"",""3274793""
","""event"",""trial"",""time""
""blur"",""36"",""932407""
","""event"",""trial"",""time""
""focus"",""36"",""3274793""
","""event"",""trial"",""time""
""fullscreenenter"",""1"",""14202""
","
","","","255.5","","","23","9847","4013","&#9789;","elianto","#f73b6a7A"," "," ","1","-10","[1108.1999998092651]","1","0","4","","","","","","","",""
"pit-trial","90","3590235","0.0-2.0-17.1-4.1","battery-v0.2","","""event"",""trial"",""time""
""fullscreenenter"",""1"",""14202""
""blur"",""36"",""932407""
""focus"",""36"",""3274793""
","""event"",""trial"",""time""
""blur"",""36"",""932407""
","""event"",""trial"",""time""
""focus"",""36"",""3274793""
","""event"",""trial"",""time""
""fullscreenenter"",""1"",""14202""
","
","","","227.2999997138977","","","23","9847","4013","&#9789;","elianto","#f73b6a7A"," "," ","1","0","[1078.9000000953674]","1","0","4","","","","","","","",""
"pit-trial","91","3595105","0.0-2.0-17.2-0.2","battery-v0.2","","""event"",""trial"",""time""
""fullscreenenter"",""1"",""14202""
""blur"",""36"",""932407""
""focus"",""36"",""3274793""
","""event"",""trial"",""time""
""blur"",""36"",""932407""
","""event"",""trial"",""time""
""focus"",""36"",""3274793""
","""event"",""trial"",""time""
""fullscreenenter"",""1"",""14202""
","
","","","-1","","","23","9847","4013","&#9789;","elianto","#f73b6a7A"," ","-1","0","-10","[]","0","0","4","","","","","","","",""
"pit-trial","92","3598345","0.0-2.0-17.2-1.2","battery-v0.2","","""event"",""trial"",""time""
""fullscreenenter"",""1"",""14202""
""blur"",""36"",""932407""
""focus"",""36"",""3274793""
","""event"",""trial"",""time""
""blur"",""36"",""932407""
","""event"",""trial"",""time""
""focus"",""36"",""3274793""
","""event"",""trial"",""time""
""fullscreenenter"",""1"",""14202""
","
","","","377.5","","","23","9847","4013","&#9789;","elianto","#f73b6a7A"," "," ","1","0","[1228.2000002861023]","1","0","4","","","","","","","",""
"pit-trial","93","3601503","0.0-2.0-17.2-2.2","battery-v0.2","","""event"",""trial"",""time""
""fullscreenenter"",""1"",""14202""
""blur"",""36"",""932407""
""focus"",""36"",""3274793""
","""event"",""trial"",""time""
""blur"",""36"",""932407""
","""event"",""trial"",""time""
""focus"",""36"",""3274793""
","""event"",""trial"",""time""
""fullscreenenter"",""1"",""14202""
","
","","","302.09999990463257","","","23","9847","4013","&#9789;","elianto","#f73b6a7A"," "," ","1","0","[1153.5]","1","0","4","","","","","","","",""
"pit-trial","94","3604585","0.0-2.0-17.2-3.2","battery-v0.2","","""event"",""trial"",""time""
""fullscreenenter"",""1"",""14202""
""blur"",""36"",""932407""
""focus"",""36"",""3274793""
","""event"",""trial"",""time""
""blur"",""36"",""932407""
","""event"",""trial"",""time""
""focus"",""36"",""3274793""
","""event"",""trial"",""time""
""fullscreenenter"",""1"",""14202""
","
","","","215.5","","","23","9847","4013","&#9789;","elianto","#f73b6a7A"," "," ","1","-10","[1071.1000003814697]","1","0","4","","","","","","","",""
"pit-trial","95","3608358","0.0-2.0-17.2-4.2","battery-v0.2","","""event"",""trial"",""time""
""fullscreenenter"",""1"",""14202""
""blur"",""36"",""932407""
""focus"",""36"",""3274793""
","""event"",""trial"",""time""
""blur"",""36"",""932407""
","""event"",""trial"",""time""
""focus"",""36"",""3274793""
","""event"",""trial"",""time""
""fullscreenenter"",""1"",""14202""
","
","","","916.4000000953674","","","23","9847","4013","&#9789;","elianto","#f73b6a7A"," "," ","1","0","[1768.3000001907349]","1","0","4","","","","","","","",""
"pit-trial","96","3611691","0.0-2.0-17.3-0.3","battery-v0.2","","""event"",""trial"",""time""
""fullscreenenter"",""1"",""14202""
""blur"",""36"",""932407""
""focus"",""36"",""3274793""
","""event"",""trial"",""time""
""blur"",""36"",""932407""
","""event"",""trial"",""time""
""focus"",""36"",""3274793""
","""event"",""trial"",""time""
""fullscreenenter"",""1"",""14202""
","
","","","468.2000002861023","","","23","9847","4013","&#9789;","elianto","#f73b6a7A"," "," ","1","0","[1320]","1","0","4","","","","","","","",""
"pit-trial","97","3614970","0.0-2.0-17.3-1.3","battery-v0.2","","""event"",""trial"",""time""
""fullscreenenter"",""1"",""14202""
""blur"",""36"",""932407""
""focus"",""36"",""3274793""
","""event"",""trial"",""time""
""blur"",""36"",""932407""
","""event"",""trial"",""time""
""focus"",""36"",""3274793""
","""event"",""trial"",""time""
""fullscreenenter"",""1"",""14202""
","
","","","415.69999980926514","","","23","9847","4013","&#9789;","elianto","#f73b6a7A"," "," ","1","0","[1268.0999999046326]","1","0","4","","","","","","","",""
"pit-trial","98","3618179","0.0-2.0-17.3-2.3","battery-v0.2","","""event"",""trial"",""time""
""fullscreenenter"",""1"",""14202""
""blur"",""36"",""932407""
""focus"",""36"",""3274793""
","""event"",""trial"",""time""
""blur"",""36"",""932407""
","""event"",""trial"",""time""
""focus"",""36"",""3274793""
","""event"",""trial"",""time""
""fullscreenenter"",""1"",""14202""
","
","","","343.19999980926514","","","23","9847","4013","&#9789;","elianto","#f73b6a7A"," "," ","1","0","[1195.0999999046326]","1","0","4","","","","","","","",""
"pit-trial","99","3621472","0.0-2.0-17.3-3.3","battery-v0.2","","""event"",""trial"",""time""
""fullscreenenter"",""1"",""14202""
""blur"",""36"",""932407""
""focus"",""36"",""3274793""
","""event"",""trial"",""time""
""blur"",""36"",""932407""
","""event"",""trial"",""time""
""focus"",""36"",""3274793""
","""event"",""trial"",""time""
""fullscreenenter"",""1"",""14202""
","
","","","429.69999980926514","","","23","9847","4013","&#9789;","elianto","#f73b6a7A"," "," ","1","-10","[1282.6999998092651]","1","0","4","","","","","","","",""
"pit-trial","100","3624810","0.0-2.0-17.3-4.3","battery-v0.2","","""event"",""trial"",""time""
""fullscreenenter"",""1"",""14202""
""blur"",""36"",""932407""
""focus"",""36"",""3274793""
","""event"",""trial"",""time""
""blur"",""36"",""932407""
","""event"",""trial"",""time""
""focus"",""36"",""3274793""
","""event"",""trial"",""time""
""fullscreenenter"",""1"",""14202""
","
","","","476.90000009536743","","","23","9847","4013","&#9789;","elianto","#f73b6a7A"," "," ","1","0","[1330.4000000953674]","1","0","4","","","","","","","",""
"call-function","101","3624812","0.0-2.0-18.0","battery-v0.2","","""event"",""trial"",""time""
""fullscreenenter"",""1"",""14202""
""blur"",""36"",""932407""
""focus"",""36"",""3274793""
","""event"",""trial"",""time""
""blur"",""36"",""932407""
","""event"",""trial"",""time""
""focus"",""36"",""3274793""
","""event"",""trial"",""time""
""fullscreenenter"",""1"",""14202""
","
","","","","","","","","","","","","","","","","","","","","","","","","","","",""
"pit-instructions","102","3703206","0.0-2.0-19.0","battery-v0.2","","""event"",""trial"",""time""
""fullscreenenter"",""1"",""14202""
""blur"",""36"",""932407""
""focus"",""36"",""3274793""
","""event"",""trial"",""time""
""blur"",""36"",""932407""
","""event"",""trial"",""time""
""focus"",""36"",""3274793""
","""event"",""trial"",""time""
""fullscreenenter"",""1"",""14202""
","
","","[{""page_index"":0,""viewing_time"":6560.300000190735},{""page_index"":1,""viewing_time"":6565.800000190735},{""page_index"":2,""viewing_time"":13512.299999713898},{""page_index"":3,""viewing_time"":7317.300000190735},{""page_index"":4,""viewing_time"":9077.799999713898},{""page_index"":5,""viewing_time"":10241.200000286102},{""page_index"":6,""viewing_time"":13984.5},{""page_index"":7,""viewing_time"":6820.299999713898},{""page_index"":8,""viewing_time"":4313.400000095367}]","78393.2000002861","","","","","","","","","","","","","","","","","","","","","","","",""
"pit-comprehension","103","3707867","0.0-2.0-20.0-0.0","battery-v0.2","","""event"",""trial"",""time""
""fullscreenenter"",""1"",""14202""
""blur"",""36"",""932407""
""focus"",""36"",""3274793""
","""event"",""trial"",""time""
""blur"",""36"",""932407""
","""event"",""trial"",""time""
""focus"",""36"",""3274793""
","""event"",""trial"",""time""
""fullscreenenter"",""1"",""14202""
","
","","","4657.699999809265","[""SPACE""]","0","23","9847","4013","","","","","","","","","","","","","","","","","","",""
"pit-instructions","104","3713681","0.0-2.0-20.0-1.0","battery-v0.2","","""event"",""trial"",""time""
""fullscreenenter"",""1"",""14202""
""blur"",""36"",""932407""
""focus"",""36"",""3274793""
","""event"",""trial"",""time""
""blur"",""36"",""932407""
","""event"",""trial"",""time""
""focus"",""36"",""3274793""
","""event"",""trial"",""time""
""fullscreenenter"",""1"",""14202""
","
","","[{""page_index"":0,""viewing_time"":5781.199999809265}]","5781.5","","","","","","","","","","","","","","","","","","","","","","","",""
"pit-comprehension","105","3719296","0.0-2.0-21.0-0.0","battery-v0.2","","""event"",""trial"",""time""
""fullscreenenter"",""1"",""14202""
""blur"",""36"",""932407""
""focus"",""36"",""3274793""
","""event"",""trial"",""time""
""blur"",""36"",""932407""
","""event"",""trial"",""time""
""focus"",""36"",""3274793""
","""event"",""trial"",""time""
""fullscreenenter"",""1"",""14202""
","
","","","5611","[""10""]","0","23","9847","4013","","","","","","","","","","","","","","","","","","",""
"pit-instructions","106","3724868","0.0-2.0-21.0-1.0","battery-v0.2","","""event"",""trial"",""time""
""fullscreenenter"",""1"",""14202""
""blur"",""36"",""932407""
""focus"",""36"",""3274793""
","""event"",""trial"",""time""
""blur"",""36"",""932407""
","""event"",""trial"",""time""
""focus"",""36"",""3274793""
","""event"",""trial"",""time""
""fullscreenenter"",""1"",""14202""
","
","","[{""page_index"":0,""viewing_time"":5540.300000190735}]","5540.699999809265","","","","","","","","","","","","","","","","","","","","","","","",""
"pit-comprehension","107","3731509","0.0-2.0-22.0-0.0","battery-v0.2","","""event"",""trial"",""time""
""fullscreenenter"",""1"",""14202""
""blur"",""36"",""932407""
""focus"",""36"",""3274793""
","""event"",""trial"",""time""
""blur"",""36"",""932407""
","""event"",""trial"",""time""
""focus"",""36"",""3274793""
","""event"",""trial"",""time""
""fullscreenenter"",""1"",""14202""
","
","","","6636.39999961853","[""0""]","0","23","9847","4013","","","","","","","","","","","","","","","","","","",""
"pit-instructions","108","3733252","0.0-2.0-22.0-1.0","battery-v0.2","","""event"",""trial"",""time""
""fullscreenenter"",""1"",""14202""
""blur"",""36"",""932407""
""focus"",""36"",""3274793""
","""event"",""trial"",""time""
""blur"",""36"",""932407""
","""event"",""trial"",""time""
""focus"",""36"",""3274793""
","""event"",""trial"",""time""
""fullscreenenter"",""1"",""14202""
","
","","[{""page_index"":0,""viewing_time"":1711.3000001907349}]","1711.5999999046326","","","","","","","","","","","","","","","","","","","","","","","",""
"pit-comprehension","109","3748369","0.0-2.0-23.0-0.0","battery-v0.2","","""event"",""trial"",""time""
""fullscreenenter"",""1"",""14202""
""blur"",""36"",""932407""
""focus"",""36"",""3274793""
","""event"",""trial"",""time""
""blur"",""36"",""932407""
","""event"",""trial"",""time""
""focus"",""36"",""3274793""
","""event"",""trial"",""time""
""fullscreenenter"",""1"",""14202""
","
","","","15113.199999809265","[""False""]","1","23","9847","4013","","","","","","","","","","","","","","","","","","",""
"pit-instructions","110","3750913","0.0-2.0-23.0-1.0","battery-v0.2","","""event"",""trial"",""time""
""fullscreenenter"",""1"",""14202""
""blur"",""36"",""932407""
""focus"",""36"",""3274793""
","""event"",""trial"",""time""
""blur"",""36"",""932407""
","""event"",""trial"",""time""
""focus"",""36"",""3274793""
","""event"",""trial"",""time""
""fullscreenenter"",""1"",""14202""
","
","","[{""page_index"":0,""viewing_time"":2508.699999809265}]","2509","","","","","","","","","","","","","","","","","","","","","","","",""
"pit-instructions","111","3754636","0.0-2.0-23.0-2.0-0.0","battery-v0.2","","""event"",""trial"",""time""
""fullscreenenter"",""1"",""14202""
""blur"",""36"",""932407""
""focus"",""36"",""3274793""
","""event"",""trial"",""time""
""blur"",""36"",""932407""
","""event"",""trial"",""time""
""focus"",""36"",""3274793""
","""event"",""trial"",""time""
""fullscreenenter"",""1"",""14202""
","
","","[{""page_index"":0,""viewing_time"":3721.9000000953674}]","3722.2000002861023","","","","","","","","","","","","","","","","","","","","","","","",""
"pit-comprehension","112","3763811","0.0-2.0-23.1-0.1","battery-v0.2","","""event"",""trial"",""time""
""fullscreenenter"",""1"",""14202""
""blur"",""36"",""932407""
""focus"",""36"",""3274793""
","""event"",""trial"",""time""
""blur"",""36"",""932407""
","""event"",""trial"",""time""
""focus"",""36"",""3274793""
","""event"",""trial"",""time""
""fullscreenenter"",""1"",""14202""
","
","","","9173.099999904633","[""True""]","0","23","9847","4013","","","","","","","","","","","","","","","","","","",""
"pit-instructions","113","3766186","0.0-2.0-23.1-1.1","battery-v0.2","","""event"",""trial"",""time""
""fullscreenenter"",""1"",""14202""
""blur"",""36"",""932407""
""focus"",""36"",""3274793""
","""event"",""trial"",""time""
""blur"",""36"",""932407""
","""event"",""trial"",""time""
""focus"",""36"",""3274793""
","""event"",""trial"",""time""
""fullscreenenter"",""1"",""14202""
","
","","[{""page_index"":0,""viewing_time"":2345.4000000953674}]","2345.699999809265","","","","","","","","","","","","","","","","","","","","","","","",""
"pit-comprehension","114","3773705","0.0-2.0-24.0-0.0","battery-v0.2","","""event"",""trial"",""time""
""fullscreenenter"",""1"",""14202""
""blur"",""36"",""932407""
""focus"",""36"",""3274793""
","""event"",""trial"",""time""
""blur"",""36"",""932407""
","""event"",""trial"",""time""
""focus"",""36"",""3274793""
","""event"",""trial"",""time""
""fullscreenenter"",""1"",""14202""
","
","","","7517.10000038147","[""True""]","0","23","9847","4013","","","","","","","","","","","","","","","","","","",""
"pit-instructions","115","3775846","0.0-2.0-24.0-1.0","battery-v0.2","","""event"",""trial"",""time""
""fullscreenenter"",""1"",""14202""
""blur"",""36"",""932407""
""focus"",""36"",""3274793""
","""event"",""trial"",""time""
""blur"",""36"",""932407""
","""event"",""trial"",""time""
""focus"",""36"",""3274793""
","""event"",""trial"",""time""
""fullscreenenter"",""1"",""14202""
","
","","[{""page_index"":0,""viewing_time"":2109.0999999046326}]","2109.300000190735","","","","","","","","","","","","","","","","","","","","","","","",""
"pit-comprehension","116","3782348","0.0-2.0-25.0-0.0","battery-v0.2","","""event"",""trial"",""time""
""fullscreenenter"",""1"",""14202""
""blur"",""36"",""932407""
""focus"",""36"",""3274793""
","""event"",""trial"",""time""
""blur"",""36"",""932407""
","""event"",""trial"",""time""
""focus"",""36"",""3274793""
","""event"",""trial"",""time""
""fullscreenenter"",""1"",""14202""
","
","","","6499.599999904633","[""True""]","0","23","9847","4013","","","","","","","","","","","","","","","","","","",""
"pit-instructions","117","3784739","0.0-2.0-25.0-1.0","battery-v0.2","","""event"",""trial"",""time""
""fullscreenenter"",""1"",""14202""
""blur"",""36"",""932407""
""focus"",""36"",""3274793""
","""event"",""trial"",""time""
""blur"",""36"",""932407""
","""event"",""trial"",""time""
""focus"",""36"",""3274793""
","""event"",""trial"",""time""
""fullscreenenter"",""1"",""14202""
","
","","[{""page_index"":0,""viewing_time"":2355.0999999046326}]","2355.5999999046326","","","","","","","","","","","","","","","","","","","","","","","",""
"pit-comprehension","118","3791127","0.0-2.0-26.0-0.0","battery-v0.2","","""event"",""trial"",""time""
""fullscreenenter"",""1"",""14202""
""blur"",""36"",""932407""
""focus"",""36"",""3274793""
","""event"",""trial"",""time""
""blur"",""36"",""932407""
","""event"",""trial"",""time""
""focus"",""36"",""3274793""
","""event"",""trial"",""time""
""fullscreenenter"",""1"",""14202""
","
","","","6385.299999713898","[""False""]","0","23","9847","4013","","","","","","","","","","","","","","","","","","",""
"pit-instructions","119","3794196","0.0-2.0-26.0-1.0","battery-v0.2","","""event"",""trial"",""time""
""fullscreenenter"",""1"",""14202""
""blur"",""36"",""932407""
""focus"",""36"",""3274793""
","""event"",""trial"",""time""
""blur"",""36"",""932407""
","""event"",""trial"",""time""
""focus"",""36"",""3274793""
","""event"",""trial"",""time""
""fullscreenenter"",""1"",""14202""
","
","","[{""page_index"":0,""viewing_time"":3034.2999997138977}]","3034.5999999046326","","","","","","","","","","","","","","","","","","","","","","","",""
"pit-instructions","120","3812570","0.0-3.0","battery-v0.2","","""event"",""trial"",""time""
""fullscreenenter"",""1"",""14202""
""blur"",""36"",""932407""
""focus"",""36"",""3274793""
","""event"",""trial"",""time""
""blur"",""36"",""932407""
","""event"",""trial"",""time""
""focus"",""36"",""3274793""
","""event"",""trial"",""time""
""fullscreenenter"",""1"",""14202""
","
","","[{""page_index"":0,""viewing_time"":4956.900000095367},{""page_index"":1,""viewing_time"":5734.700000286102},{""page_index"":2,""viewing_time"":7680}]","18371.900000095367","","","","","","","","","","","","","","","","","","","","","","","",""
"pit-trial","121","3816173","0.0-4.0","battery-v0.2","","""event"",""trial"",""time""
""fullscreenenter"",""1"",""14202""
""blur"",""36"",""932407""
""focus"",""36"",""3274793""
","""event"",""trial"",""time""
""blur"",""36"",""932407""
","""event"",""trial"",""time""
""focus"",""36"",""3274793""
","""event"",""trial"",""time""
""fullscreenenter"",""1"",""14202""
","
","","","734.2999997138977","","","23","9847","4013","&#9728;","elianto","#f73b6a7A","-1"," ","0","0","[1586.7999997138977]","1","1","","","9847","1","0","4","lose","no-go","1"
"pit-trial","122","3819738","0.0-5.0","battery-v0.2","","""event"",""trial"",""time""
""fullscreenenter"",""1"",""14202""
""blur"",""36"",""932407""
""focus"",""36"",""3274793""
","""event"",""trial"",""time""
""blur"",""36"",""932407""
","""event"",""trial"",""time""
""focus"",""36"",""3274793""
","""event"",""trial"",""time""
""fullscreenenter"",""1"",""14202""
","
","","","697.4000000953674","","","23","9847","4013","&#9733;","elianto","#3366ff99","-1"," ","0","+10","[1555]","1","1","","","9847","2","2","2","win","no-go","1"
"pit-trial","123","3823621","0.0-6.0","battery-v0.2","","""event"",""trial"",""time""
""fullscreenenter"",""1"",""14202""
""blur"",""36"",""932407""
""focus"",""36"",""3274793""
","""event"",""trial"",""time""
""blur"",""36"",""932407""
","""event"",""trial"",""time""
""focus"",""36"",""3274793""
","""event"",""trial"",""time""
""fullscreenenter"",""1"",""14202""
","
","","","1013.5999999046326","","","23","9847","4013","&#9730;","elianto","#3366ff99"," "," ","1","0","[1867.8000001907349]","1","1","","","9847","3","1","1","win","go","1"
"pit-trial","124","3828492","0.0-7.0","battery-v0.2","","""event"",""trial"",""time""
""fullscreenenter"",""1"",""14202""
""blur"",""36"",""932407""
""focus"",""36"",""3274793""
","""event"",""trial"",""time""
""blur"",""36"",""932407""
","""event"",""trial"",""time""
""focus"",""36"",""3274793""
","""event"",""trial"",""time""
""fullscreenenter"",""1"",""14202""
","
","","","-1","","","23","9847","4013","&#9752;","elianto","#f73b6a7A"," ","-1","0","0","[]","0","1","","","9847","4","3","3","lose","go","1"
"pit-trial","125","3832811","0.0-8.0","battery-v0.2","","""event"",""trial"",""time""
""fullscreenenter"",""1"",""14202""
""blur"",""36"",""932407""
""focus"",""36"",""3274793""
","""event"",""trial"",""time""
""blur"",""36"",""932407""
","""event"",""trial"",""time""
""focus"",""36"",""3274793""
","""event"",""trial"",""time""
""fullscreenenter"",""1"",""14202""
","
","","","1458.4000000953674","","","23","9847","4013","&#9728;","elianto","#f73b6a7A","-1"," ","0","0","[2308.7999997138977]","1","1","","","9847","5","0","4","lose","no-go","1"
"pit-trial","126","3837674","0.0-9.0","battery-v0.2","","""event"",""trial"",""time""
""fullscreenenter"",""1"",""14202""
""blur"",""36"",""932407""
""focus"",""36"",""3274793""
","""event"",""trial"",""time""
""blur"",""36"",""932407""
","""event"",""trial"",""time""
""focus"",""36"",""3274793""
","""event"",""trial"",""time""
""fullscreenenter"",""1"",""14202""
","
","","","-1","","","23","9847","4013","&#9752;","elianto","#f73b6a7A"," ","-1","0","-10","[]","0","1","","","9847","6","3","3","lose","go","0"
"pit-trial","127","3842051","0.0-10.0","battery-v0.2","","""event"",""trial"",""time""
""fullscreenenter"",""1"",""14202""
""blur"",""36"",""932407""
""focus"",""36"",""3274793""
","""event"",""trial"",""time""
""blur"",""36"",""932407""
","""event"",""trial"",""time""
""focus"",""36"",""3274793""
","""event"",""trial"",""time""
""fullscreenenter"",""1"",""14202""
","
","","","1516.5999999046326","","","23","9847","4013","&#9730;","elianto","#3366ff99"," "," ","1","+10","[2370.0999999046326]","1","1","","","9847","7","1","1","win","go","0"
"pit-trial","128","3845897","0.0-11.0","battery-v0.2","","""event"",""trial"",""time""
""fullscreenenter"",""1"",""14202""
""blur"",""36"",""932407""
""focus"",""36"",""3274793""
","""event"",""trial"",""time""
""blur"",""36"",""932407""
","""event"",""trial"",""time""
""focus"",""36"",""3274793""
","""event"",""trial"",""time""
""fullscreenenter"",""1"",""14202""
","
","","","987.6999998092651","","","23","9847","4013","&#9733;","elianto","#3366ff99","-1"," ","0","0","[1839.7999997138977]","1","1","","","9847","8","2","2","win","no-go","0"
"pit-trial","129","3850761","0.0-12.0","battery-v0.2","","""event"",""trial"",""time""
""fullscreenenter"",""1"",""14202""
""blur"",""36"",""932407""
""focus"",""36"",""3274793""
","""event"",""trial"",""time""
""blur"",""36"",""932407""
","""event"",""trial"",""time""
""focus"",""36"",""3274793""
","""event"",""trial"",""time""
""fullscreenenter"",""1"",""14202""
","
","","","-1","","","23","9847","4013","&#9752;","elianto","#f73b6a7A"," ","-1","0","-10","[]","0","1","","","9847","9","3","3","lose","go","0"
"pit-trial","130","3854436","0.0-13.0","battery-v0.2","","""event"",""trial"",""time""
""fullscreenenter"",""1"",""14202""
""blur"",""36"",""932407""
""focus"",""36"",""3274793""
","""event"",""trial"",""time""
""blur"",""36"",""932407""
","""event"",""trial"",""time""
""focus"",""36"",""3274793""
","""event"",""trial"",""time""
""fullscreenenter"",""1"",""14202""
","
","","","806.8000001907349","","","23","9847","4013","&#9728;","elianto","#f73b6a7A","-1"," ","0","0","[1661.5]","1","1","","","9847","10","0","4","lose","no-go","1"
"pit-trial","131","3857954","0.0-14.0","battery-v0.2","","""event"",""trial"",""time""
""fullscreenenter"",""1"",""14202""
""blur"",""36"",""932407""
""focus"",""36"",""3274793""
","""event"",""trial"",""time""
""blur"",""36"",""932407""
","""event"",""trial"",""time""
""focus"",""36"",""3274793""
","""event"",""trial"",""time""
""fullscreenenter"",""1"",""14202""
","
","","","654.6999998092651","","","23","9847","4013","&#9730;","elianto","#3366ff99"," "," ","1","0","[1506.5999999046326]","1","1","","","9847","11","1","1","win","go","1"
"pit-trial","132","3861507","0.0-15.0","battery-v0.2","","""event"",""trial"",""time""
""fullscreenenter"",""1"",""14202""
""blur"",""36"",""932407""
""focus"",""36"",""3274793""
","""event"",""trial"",""time""
""blur"",""36"",""932407""
","""event"",""trial"",""time""
""focus"",""36"",""3274793""
","""event"",""trial"",""time""
""fullscreenenter"",""1"",""14202""
","
","","","692.1000003814697","","","23","9847","4013","&#9733;","elianto","#3366ff99","-1"," ","0","0","[1543]","1","1","","","9847","12","2","2","win","no-go","0"
"pit-trial","133","3864961","0.0-16.0","battery-v0.2","","""event"",""trial"",""time""
""fullscreenenter"",""1"",""14202""
""blur"",""36"",""932407""
""focus"",""36"",""3274793""
","""event"",""trial"",""time""
""blur"",""36"",""932407""
","""event"",""trial"",""time""
""focus"",""36"",""3274793""
","""event"",""trial"",""time""
""fullscreenenter"",""1"",""14202""
","
","","","597.0999999046326","","","23","9847","4013","&#9730;","elianto","#3366ff99"," "," ","1","+10","[1449.4000000953674]","1","1","","","9847","13","1","1","win","go","0"
"pit-trial","134","3868954","0.0-17.0","battery-v0.2","","""event"",""trial"",""time""
""fullscreenenter"",""1"",""14202""
""blur"",""36"",""932407""
""focus"",""36"",""3274793""
","""event"",""trial"",""time""
""blur"",""36"",""932407""
","""event"",""trial"",""time""
""focus"",""36"",""3274793""
","""event"",""trial"",""time""
""fullscreenenter"",""1"",""14202""
","
","","","1133","","","23","9847","4013","&#9752;","elianto","#f73b6a7A"," "," ","1","0","[1988.3000001907349]","1","1","","","9847","14","3","3","lose","go","0"
"pit-trial","135","3872897","0.0-18.0","battery-v0.2","","""event"",""trial"",""time""
""fullscreenenter"",""1"",""14202""
""blur"",""36"",""932407""
""focus"",""36"",""3274793""
","""event"",""trial"",""time""
""blur"",""36"",""932407""
","""event"",""trial"",""time""
""focus"",""36"",""3274793""
","""event"",""trial"",""time""
""fullscreenenter"",""1"",""14202""
","
","","","1083.9000000953674","","","23","9847","4013","&#9728;","elianto","#f73b6a7A","-1"," ","0","-10","[1937]","1","1","","","9847","15","0","4","lose","no-go","0"
"pit-trial","136","3876673","0.0-19.0","battery-v0.2","","""event"",""trial"",""time""
""fullscreenenter"",""1"",""14202""
""blur"",""36"",""932407""
""focus"",""36"",""3274793""
","""event"",""trial"",""time""
""blur"",""36"",""932407""
","""event"",""trial"",""time""
""focus"",""36"",""3274793""
","""event"",""trial"",""time""
""fullscreenenter"",""1"",""14202""
","
","","","912.8999996185303","","","23","9847","4013","&#9733;","elianto","#3366ff99","-1"," ","0","+10","[1767.7999997138977]","1","1","","","9847","16","2","2","win","no-go","1"
"pit-trial","137","3880298","0.0-20.0","battery-v0.2","","""event"",""trial"",""time""
""fullscreenenter"",""1"",""14202""
""blur"",""36"",""932407""
""focus"",""36"",""3274793""
","""event"",""trial"",""time""
""blur"",""36"",""932407""
","""event"",""trial"",""time""
""focus"",""36"",""3274793""
","""event"",""trial"",""time""
""fullscreenenter"",""1"",""14202""
","
","","","759.2999997138977","","","23","9847","4013","&#9730;","elianto","#3366ff99"," "," ","1","+10","[1613.8999996185303]","1","1","","","9847","17","1","1","win","go","0"
"pit-trial","138","3884976","0.0-21.0","battery-v0.2","","""event"",""trial"",""time""
""fullscreenenter"",""1"",""14202""
""blur"",""36"",""932407""
""focus"",""36"",""3274793""
","""event"",""trial"",""time""
""blur"",""36"",""932407""
","""event"",""trial"",""time""
""focus"",""36"",""3274793""
","""event"",""trial"",""time""
""fullscreenenter"",""1"",""14202""
","
","","","1818.2000002861023","","","23","9847","4013","&#9728;","elianto","#f73b6a7A","-1"," ","0","-10","[2671.6000003814697]","1","1","","","9847","18","0","4","lose","no-go","0"
"pit-trial","139","3888570","0.0-22.0","battery-v0.2","","""event"",""trial"",""time""
""fullscreenenter"",""1"",""14202""
""blur"",""36"",""932407""
""focus"",""36"",""3274793""
","""event"",""trial"",""time""
""blur"",""36"",""932407""
","""event"",""trial"",""time""
""focus"",""36"",""3274793""
","""event"",""trial"",""time""
""fullscreenenter"",""1"",""14202""
","
","","","726.8000001907349","","","23","9847","4013","&#9733;","elianto","#3366ff99","-1"," ","0","+10","[1582.5999999046326]","1","1","","","9847","19","2","2","win","no-go","1"
"pit-trial","140","3893434","0.0-23.0","battery-v0.2","","""event"",""trial"",""time""
""fullscreenenter"",""1"",""14202""
""blur"",""36"",""932407""
""focus"",""36"",""3274793""
","""event"",""trial"",""time""
""blur"",""36"",""932407""
","""event"",""trial"",""time""
""focus"",""36"",""3274793""
","""event"",""trial"",""time""
""fullscreenenter"",""1"",""14202""
","
","","","-1","","","23","9847","4013","&#9752;","elianto","#f73b6a7A"," ","-1","0","-10","[]","0","1","","","9847","20","3","3","lose","go","0"
"pit-instructions","141","3906618","0.0-24.0","battery-v0.2","","""event"",""trial"",""time""
""fullscreenenter"",""1"",""14202""
""blur"",""36"",""932407""
""focus"",""36"",""3274793""
","""event"",""trial"",""time""
""blur"",""36"",""932407""
","""event"",""trial"",""time""
""focus"",""36"",""3274793""
","""event"",""trial"",""time""
""fullscreenenter"",""1"",""14202""
","
","","[{""page_index"":0,""viewing_time"":6241.799999713898},{""page_index"":1,""viewing_time"":6940.099999904633}]","13182.099999904633","","","","","","","","","","","","","","","","","","","","","","","",""
"pit-trial","142","3910817","0.0-25.0","battery-v0.2","","""event"",""trial"",""time""
""fullscreenenter"",""1"",""14202""
""blur"",""36"",""932407""
""focus"",""36"",""3274793""
","""event"",""trial"",""time""
""blur"",""36"",""932407""
","""event"",""trial"",""time""
""focus"",""36"",""3274793""
","""event"",""trial"",""time""
""fullscreenenter"",""1"",""14202""
","
","","","1341.5","","","23","9847","4013","w","elianto","#f73b6a7A"," "," ","1","-10","[2194.800000190735]","1","2","","","9847","21","3","3","lose","go","1"
"pit-trial","143","3915038","0.0-26.0","battery-v0.2","","""event"",""trial"",""time""
""fullscreenenter"",""1"",""14202""
""blur"",""36"",""932407""
""focus"",""36"",""3274793""
","""event"",""trial"",""time""
""blur"",""36"",""932407""
","""event"",""trial"",""time""
""focus"",""36"",""3274793""
","""event"",""trial"",""time""
""fullscreenenter"",""1"",""14202""
","
","","","1357.0999999046326","","","23","9847","4013","j","elianto","#f73b6a7A","-1"," ","0","0","[2212.199999809265]","1","2","","","9847","22","0","4","lose","no-go","1"
"pit-trial","144","3918637","0.0-27.0","battery-v0.2","","""event"",""trial"",""time""
""fullscreenenter"",""1"",""14202""
""blur"",""36"",""932407""
""focus"",""36"",""3274793""
","""event"",""trial"",""time""
""blur"",""36"",""932407""
","""event"",""trial"",""time""
""focus"",""36"",""3274793""
","""event"",""trial"",""time""
""fullscreenenter"",""1"",""14202""
","
","","","737.0999999046326","","","23","9847","4013","d","elianto","#3366ff99"," "," ","1","+10","[1588.8999996185303]","1","2","","","9847","23","1","1","win","go","0"
"pit-trial","145","3923147","0.0-28.0","battery-v0.2","","""event"",""trial"",""time""
""fullscreenenter"",""1"",""14202""
""blur"",""36"",""932407""
""focus"",""36"",""3274793""
","""event"",""trial"",""time""
""blur"",""36"",""932407""
","""event"",""trial"",""time""
""focus"",""36"",""3274793""
","""event"",""trial"",""time""
""fullscreenenter"",""1"",""14202""
","
","","","1645.9000000953674","","","23","9847","4013","e","elianto","#f73b6a7A","-1"," ","0","-10","[2499.2000002861023]","1","2","","","9847","24","2","4","lose","no-go","0"
"pit-trial","146","3927054","0.0-29.0","battery-v0.2","","""event"",""trial"",""time""
""fullscreenenter"",""1"",""14202""
""blur"",""36"",""932407""
""focus"",""36"",""3274793""
","""event"",""trial"",""time""
""blur"",""36"",""932407""
","""event"",""trial"",""time""
""focus"",""36"",""3274793""
","""event"",""trial"",""time""
""fullscreenenter"",""1"",""14202""
","
","","","1045.0999999046326","","","23","9847","4013","d","elianto","#3366ff99"," "," ","1","0","[1895.3000001907349]","1","2","","","9847","25","1","1","win","go","1"
"pit-trial","147","3931925","0.0-30.0","battery-v0.2","","""event"",""trial"",""time""
""fullscreenenter"",""1"",""14202""
""blur"",""36"",""932407""
""focus"",""36"",""3274793""
","""event"",""trial"",""time""
""blur"",""36"",""932407""
","""event"",""trial"",""time""
""focus"",""36"",""3274793""
","""event"",""trial"",""time""
""fullscreenenter"",""1"",""14202""
","
","","","-1","","","23","9847","4013","w","elianto","#f73b6a7A"," ","-1","0","-10","[2909.5999999046326]","1","2","","","9847","26","3","3","lose","go","0"
"pit-trial","148","3936540","0.0-31.0","battery-v0.2","","""event"",""trial"",""time""
""fullscreenenter"",""1"",""14202""
""blur"",""36"",""932407""
""focus"",""36"",""3274793""
","""event"",""trial"",""time""
""blur"",""36"",""932407""
","""event"",""trial"",""time""
""focus"",""36"",""3274793""
","""event"",""trial"",""time""
""fullscreenenter"",""1"",""14202""
","
","","","1752.6999998092651","","","23","9847","4013","j","elianto","#f73b6a7A","-1"," ","0","-10","[2607.5]","1","2","","","9847","27","0","4","lose","no-go","0"
"pit-trial","149","3940450","0.0-32.0","battery-v0.2","","""event"",""trial"",""time""
""fullscreenenter"",""1"",""14202""
""blur"",""36"",""932407""
""focus"",""36"",""3274793""
","""event"",""trial"",""time""
""blur"",""36"",""932407""
","""event"",""trial"",""time""
""focus"",""36"",""3274793""
","""event"",""trial"",""time""
""fullscreenenter"",""1"",""14202""
","
","","","1047.6000003814697","","","23","9847","4013","e","elianto","#f73b6a7A","-1"," ","0","-10","[1899.3999996185303]","1","2","","","9847","28","2","4","lose","no-go","0"
"pit-trial","150","3945318","0.0-33.0","battery-v0.2","","""event"",""trial"",""time""
""fullscreenenter"",""1"",""14202""
""blur"",""36"",""932407""
""focus"",""36"",""3274793""
","""event"",""trial"",""time""
""blur"",""36"",""932407""
","""event"",""trial"",""time""
""focus"",""36"",""3274793""
","""event"",""trial"",""time""
""fullscreenenter"",""1"",""14202""
","
","","","-1","","","23","9847","4013","j","elianto","#f73b6a7A","-1","-1","1","0","[2936.699999809265]","1","2","","","9847","29","0","4","lose","no-go","0"
"pit-trial","151","3950189","0.0-34.0","battery-v0.2","","""event"",""trial"",""time""
""fullscreenenter"",""1"",""14202""
""blur"",""36"",""932407""
""focus"",""36"",""3274793""
","""event"",""trial"",""time""
""blur"",""36"",""932407""
","""event"",""trial"",""time""
""focus"",""36"",""3274793""
","""event"",""trial"",""time""
""fullscreenenter"",""1"",""14202""
","
","","","-1","","","23","9847","4013","w","elianto","#f73b6a7A"," ","-1","0","-10","[]","0","2","","","9847","30","3","3","lose","go","0"
"pit-trial","152","3955050","0.0-35.0","battery-v0.2","","""event"",""trial"",""time""
""fullscreenenter"",""1"",""14202""
""blur"",""36"",""932407""
""focus"",""36"",""3274793""
","""event"",""trial"",""time""
""blur"",""36"",""932407""
","""event"",""trial"",""time""
""focus"",""36"",""3274793""
","""event"",""trial"",""time""
""fullscreenenter"",""1"",""14202""
","
","","","-1","","","23","9847","4013","e","elianto","#f73b6a7A","-1","-1","1","-10","[]","0","2","","","9847","31","2","4","lose","no-go","1"
"pit-trial","153","3958410","0.0-36.0","battery-v0.2","","""event"",""trial"",""time""
""fullscreenenter"",""1"",""14202""
""blur"",""36"",""932407""
""focus"",""36"",""3274793""
","""event"",""trial"",""time""
""blur"",""36"",""932407""
","""event"",""trial"",""time""
""focus"",""36"",""3274793""
","""event"",""trial"",""time""
""fullscreenenter"",""1"",""14202""
","
","","","498.1000003814697","","","23","9847","4013","d","elianto","#3366ff99"," "," ","1","0","[1352.1999998092651]","1","2","","","9847","32","1","1","win","go","1"
"pit-trial","154","3962054","0.0-37.0","battery-v0.2","","""event"",""trial"",""time""
""fullscreenenter"",""1"",""14202""
""blur"",""36"",""932407""
""focus"",""36"",""3274793""
","""event"",""trial"",""time""
""blur"",""36"",""932407""
","""event"",""trial"",""time""
""focus"",""36"",""3274793""
","""event"",""trial"",""time""
""fullscreenenter"",""1"",""14202""
","
","","","779.9000000953674","","","23","9847","4013","e","elianto","#f73b6a7A","-1"," ","0","-10","[1630.5]","1","2","","","9847","33","2","4","lose","no-go","0"
"pit-trial","155","3965526","0.0-38.0","battery-v0.2","","""event"",""trial"",""time""
""fullscreenenter"",""1"",""14202""
""blur"",""36"",""932407""
""focus"",""36"",""3274793""
","""event"",""trial"",""time""
""blur"",""36"",""932407""
","""event"",""trial"",""time""
""focus"",""36"",""3274793""
","""event"",""trial"",""time""
""fullscreenenter"",""1"",""14202""
","
","","","607.1999998092651","","","23","9847","4013","d","elianto","#3366ff99"," "," ","1","+10","[1463.8000001907349]","1","2","","","9847","34","1","1","win","go","0"
"pit-trial","156","3969682","0.0-39.0","battery-v0.2","","""event"",""trial"",""time""
""fullscreenenter"",""1"",""14202""
""blur"",""36"",""932407""
""focus"",""36"",""3274793""
","""event"",""trial"",""time""
""blur"",""36"",""932407""
","""event"",""trial"",""time""
""focus"",""36"",""3274793""
","""event"",""trial"",""time""
""fullscreenenter"",""1"",""14202""
","
","","","1292.7000002861023","","","23","9847","4013","j","elianto","#f73b6a7A","-1"," ","0","-10","[2151]","1","2","","","9847","35","0","4","lose","no-go","0"
"pit-trial","157","3974547","0.0-40.0","battery-v0.2","","""event"",""trial"",""time""
""fullscreenenter"",""1"",""14202""
""blur"",""36"",""932407""
""focus"",""36"",""3274793""
","""event"",""trial"",""time""
""blur"",""36"",""932407""
","""event"",""trial"",""time""
""focus"",""36"",""3274793""
","""event"",""trial"",""time""
""fullscreenenter"",""1"",""14202""
","
","","","-1","","","23","9847","4013","w","elianto","#f73b6a7A"," ","-1","0","-10","[]","0","2","","","9847","36","3","3","lose","go","0"
"pit-trial","158","3978221","0.0-41.0","battery-v0.2","","""event"",""trial"",""time""
""fullscreenenter"",""1"",""14202""
""blur"",""36"",""932407""
""focus"",""36"",""3274793""
","""event"",""trial"",""time""
""blur"",""36"",""932407""
","""event"",""trial"",""time""
""focus"",""36"",""3274793""
","""event"",""trial"",""time""
""fullscreenenter"",""1"",""14202""
","
","","","811.3000001907349","","","23","9847","4013","j","elianto","#f73b6a7A","-1"," ","0","-10","[1665.8000001907349]","1","2","","","9847","37","0","4","lose","no-go","0"
"pit-trial","159","3983092","0.0-42.0","battery-v0.2","","""event"",""trial"",""time""
""fullscreenenter"",""1"",""14202""
""blur"",""36"",""932407""
""focus"",""36"",""3274793""
","""event"",""trial"",""time""
""blur"",""36"",""932407""
","""event"",""trial"",""time""
""focus"",""36"",""3274793""
","""event"",""trial"",""time""
""fullscreenenter"",""1"",""14202""
","
","","","-1","","","23","9847","4013","e","elianto","#f73b6a7A","-1","-1","1","0","[]","0","2","","","9847","38","2","4","lose","no-go","0"
"pit-trial","160","3986554","0.0-43.0","battery-v0.2","","""event"",""trial"",""time""
""fullscreenenter"",""1"",""14202""
""blur"",""36"",""932407""
""focus"",""36"",""3274793""
","""event"",""trial"",""time""
""blur"",""36"",""932407""
","""event"",""trial"",""time""
""focus"",""36"",""3274793""
","""event"",""trial"",""time""
""fullscreenenter"",""1"",""14202""
","
","","","607.6999998092651","","","23","9847","4013","d","elianto","#3366ff99"," "," ","1","+10","[1458]","1","2","","","9847","39","1","1","win","go","0"
"pit-trial","161","3991422","0.0-44.0","battery-v0.2","","""event"",""trial"",""time""
""fullscreenenter"",""1"",""14202""
""blur"",""36"",""932407""
""focus"",""36"",""3274793""
","""event"",""trial"",""time""
""blur"",""36"",""932407""
","""event"",""trial"",""time""
""focus"",""36"",""3274793""
","""event"",""trial"",""time""
""fullscreenenter"",""1"",""14202""
","
","","","-1","","","23","9847","4013","w","elianto","#f73b6a7A"," ","-1","0","-10","[]","0","2","","","9847","40","3","3","lose","go","0"
"pit-trial","162","3996292","0.0-45.0","battery-v0.2","","""event"",""trial"",""time""
""fullscreenenter"",""1"",""14202""
""blur"",""36"",""932407""
""focus"",""36"",""3274793""
","""event"",""trial"",""time""
""blur"",""36"",""932407""
","""event"",""trial"",""time""
""focus"",""36"",""3274793""
","""event"",""trial"",""time""
""fullscreenenter"",""1"",""14202""
","
","","","-1","","","23","9847","4013","e","elianto","#f73b6a7A","-1","-1","1","0","[]","0","2","","","9847","41","2","4","lose","no-go","0"
"pit-trial","163","3999673","0.0-46.0","battery-v0.2","","""event"",""trial"",""time""
""fullscreenenter"",""1"",""14202""
""blur"",""36"",""932407""
""focus"",""36"",""3274793""
","""event"",""trial"",""time""
""blur"",""36"",""932407""
","""event"",""trial"",""time""
""focus"",""36"",""3274793""
","""event"",""trial"",""time""
""fullscreenenter"",""1"",""14202""
","
","","","524.0999999046326","","","23","9847","4013","j","elianto","#f73b6a7A","-1"," ","0","-10","[1376.9000000953674]","1","2","","","9847","42","0","4","lose","no-go","0"
"pit-trial","164","4003189","0.0-47.0","battery-v0.2","","""event"",""trial"",""time""
""fullscreenenter"",""1"",""14202""
""blur"",""36"",""932407""
""focus"",""36"",""3274793""
","""event"",""trial"",""time""
""blur"",""36"",""932407""
","""event"",""trial"",""time""
""focus"",""36"",""3274793""
","""event"",""trial"",""time""
""fullscreenenter"",""1"",""14202""
","
","","","651.5999999046326","","","23","9847","4013","d","elianto","#3366ff99"," "," ","1","+10","[1508.5]","1","2","","","9847","43","1","1","win","go","0"
"pit-trial","165","4007485","0.0-48.0","battery-v0.2","","""event"",""trial"",""time""
""fullscreenenter"",""1"",""14202""
""blur"",""36"",""932407""
""focus"",""36"",""3274793""
","""event"",""trial"",""time""
""blur"",""36"",""932407""
","""event"",""trial"",""time""
""focus"",""36"",""3274793""
","""event"",""trial"",""time""
""fullscreenenter"",""1"",""14202""
","
","","","1426.8000001907349","","","23","9847","4013","w","elianto","#f73b6a7A"," "," ","1","0","[2286.7000002861023]","1","2","","","9847","44","3","3","lose","go","0"
"pit-trial","166","4010973","0.0-49.0","battery-v0.2","","""event"",""trial"",""time""
""fullscreenenter"",""1"",""14202""
""blur"",""36"",""932407""
""focus"",""36"",""3274793""
","""event"",""trial"",""time""
""blur"",""36"",""932407""
","""event"",""trial"",""time""
""focus"",""36"",""3274793""
","""event"",""trial"",""time""
""fullscreenenter"",""1"",""14202""
","
","","","629.0999999046326","","","23","9847","4013","w","elianto","#f73b6a7A"," "," ","1","0","[1479.5]","1","2","","","9847","45","3","3","lose","go","0"
"pit-trial","167","4015234","0.0-50.0","battery-v0.2","","""event"",""trial"",""time""
""fullscreenenter"",""1"",""14202""
""blur"",""36"",""932407""
""focus"",""36"",""3274793""
","""event"",""trial"",""time""
""blur"",""36"",""932407""
","""event"",""trial"",""time""
""focus"",""36"",""3274793""
","""event"",""trial"",""time""
""fullscreenenter"",""1"",""14202""
","
","","","1405.8999996185303","","","23","9847","4013","s","elianto","#3366ff99","-1"," ","0","0","[2257]","1","2","","","9847","46","4","2","win","no-go","0"
"pit-trial","168","4020099","0.0-51.0","battery-v0.2","","""event"",""trial"",""time""
""fullscreenenter"",""1"",""14202""
""blur"",""36"",""932407""
""focus"",""36"",""3274793""
","""event"",""trial"",""time""
""blur"",""36"",""932407""
","""event"",""trial"",""time""
""focus"",""36"",""3274793""
","""event"",""trial"",""time""
""fullscreenenter"",""1"",""14202""
","
","","","-1","","","23","9847","4013","e","elianto","#f73b6a7A","-1","-1","1","0","[]","0","2","","","9847","47","2","4","lose","no-go","0"
"pit-trial","169","4024963","0.0-52.0","battery-v0.2","","""event"",""trial"",""time""
""fullscreenenter"",""1"",""14202""
""blur"",""36"",""932407""
""focus"",""36"",""3274793""
","""event"",""trial"",""time""
""blur"",""36"",""932407""
","""event"",""trial"",""time""
""focus"",""36"",""3274793""
","""event"",""trial"",""time""
""fullscreenenter"",""1"",""14202""
","
","","","-1","","","23","9847","4013","j","elianto","#f73b6a7A","-1","-1","1","0","[]","0","2","","","9847","48","0","4","lose","no-go","0"
"pit-trial","170","4028458","0.0-53.0","battery-v0.2","","""event"",""trial"",""time""
""fullscreenenter"",""1"",""14202""
""blur"",""36"",""932407""
""focus"",""36"",""3274793""
","""event"",""trial"",""time""
""blur"",""36"",""932407""
","""event"",""trial"",""time""
""focus"",""36"",""3274793""
","""event"",""trial"",""time""
""fullscreenenter"",""1"",""14202""
","
","","","639.2000002861023","","","23","9847","4013","d","elianto","#3366ff99"," "," ","1","0","[1490]","1","2","","","9847","49","1","1","win","go","1"
"pit-trial","171","4032469","0.0-54.0","battery-v0.2","","""event"",""trial"",""time""
""fullscreenenter"",""1"",""14202""
""blur"",""36"",""932407""
""focus"",""36"",""3274793""
","""event"",""trial"",""time""
""blur"",""36"",""932407""
","""event"",""trial"",""time""
""focus"",""36"",""3274793""
","""event"",""trial"",""time""
""fullscreenenter"",""1"",""14202""
","
","","","1143.8000001907349","","","23","9847","4013","s","elianto","#3366ff99","-1"," ","0","0","[1997.6000003814697]","1","2","","","9847","50","4","2","win","no-go","0"
"pit-trial","172","4036428","0.0-55.0","battery-v0.2","","""event"",""trial"",""time""
""fullscreenenter"",""1"",""14202""
""blur"",""36"",""932407""
""focus"",""36"",""3274793""
","""event"",""trial"",""time""
""blur"",""36"",""932407""
","""event"",""trial"",""time""
""focus"",""36"",""3274793""
","""event"",""trial"",""time""
""fullscreenenter"",""1"",""14202""
","
","","","1101.6999998092651","","","23","9847","4013","w","elianto","#f73b6a7A"," "," ","1","0","[1952.5999999046326]","1","2","","","9847","51","3","3","lose","go","0"
"pit-trial","173","4041293","0.0-56.0","battery-v0.2","","""event"",""trial"",""time""
""fullscreenenter"",""1"",""14202""
""blur"",""36"",""932407""
""focus"",""36"",""3274793""
","""event"",""trial"",""time""
""blur"",""36"",""932407""
","""event"",""trial"",""time""
""focus"",""36"",""3274793""
","""event"",""trial"",""time""
""fullscreenenter"",""1"",""14202""
","
","","","-1","","","23","9847","4013","j","elianto","#f73b6a7A","-1","-1","1","0","[]","0","2","","","9847","52","0","4","lose","no-go","0"
"pit-trial","174","4046158","0.0-57.0","battery-v0.2","","""event"",""trial"",""time""
""fullscreenenter"",""1"",""14202""
""blur"",""36"",""932407""
""focus"",""36"",""3274793""
","""event"",""trial"",""time""
""blur"",""36"",""932407""
","""event"",""trial"",""time""
""focus"",""36"",""3274793""
","""event"",""trial"",""time""
""fullscreenenter"",""1"",""14202""
","
","","","-1","","","23","9847","4013","s","elianto","#3366ff99","-1","-1","1","0","[]","0","2","","","9847","53","4","2","win","no-go","1"
"pit-trial","175","4049594","0.0-58.0","battery-v0.2","","""event"",""trial"",""time""
""fullscreenenter"",""1"",""14202""
""blur"",""36"",""932407""
""focus"",""36"",""3274793""
","""event"",""trial"",""time""
""blur"",""36"",""932407""
","""event"",""trial"",""time""
""focus"",""36"",""3274793""
","""event"",""trial"",""time""
""fullscreenenter"",""1"",""14202""
","
","","","577.5","","","23","9847","4013","d","elianto","#3366ff99"," "," ","1","0","[1431.7000002861023]","1","2","","","9847","54","1","1","win","go","1"
"pit-trial","176","4054459","0.0-59.0","battery-v0.2","","""event"",""trial"",""time""
""fullscreenenter"",""1"",""14202""
""blur"",""36"",""932407""
""focus"",""36"",""3274793""
","""event"",""trial"",""time""
""blur"",""36"",""932407""
","""event"",""trial"",""time""
""focus"",""36"",""3274793""
","""event"",""trial"",""time""
""fullscreenenter"",""1"",""14202""
","
","","","-1","","","23","9847","4013","e","elianto","#f73b6a7A","-1","-1","1","-10","[]","0","2","","","9847","55","2","4","lose","no-go","1"
"pit-trial","177","4059323","0.0-60.0","battery-v0.2","","""event"",""trial"",""time""
""fullscreenenter"",""1"",""14202""
""blur"",""36"",""932407""
""focus"",""36"",""3274793""
","""event"",""trial"",""time""
""blur"",""36"",""932407""
","""event"",""trial"",""time""
""focus"",""36"",""3274793""
","""event"",""trial"",""time""
""fullscreenenter"",""1"",""14202""
","
","","","-1","","","23","9847","4013","j","elianto","#f73b6a7A","-1","-1","1","0","[]","0","2","","","9847","56","0","4","lose","no-go","0"
"pit-trial","178","4062701","0.0-61.0","battery-v0.2","","""event"",""trial"",""time""
""fullscreenenter"",""1"",""14202""
""blur"",""36"",""932407""
""focus"",""36"",""3274793""
","""event"",""trial"",""time""
""blur"",""36"",""932407""
","""event"",""trial"",""time""
""focus"",""36"",""3274793""
","""event"",""trial"",""time""
""fullscreenenter"",""1"",""14202""
","
","","","513.4000000953674","","","23","9847","4013","w","elianto","#f73b6a7A"," "," ","1","0","[1364.2000002861023]","1","2","","","9847","57","3","3","lose","go","0"
"pit-trial","179","4066156","0.0-62.0","battery-v0.2","","""event"",""trial"",""time""
""fullscreenenter"",""1"",""14202""
""blur"",""36"",""932407""
""focus"",""36"",""3274793""
","""event"",""trial"",""time""
""blur"",""36"",""932407""
","""event"",""trial"",""time""
""focus"",""36"",""3274793""
","""event"",""trial"",""time""
""fullscreenenter"",""1"",""14202""
","
","","","592.0999999046326","","","23","9847","4013","d","elianto","#3366ff99"," "," ","1","+10","[1445]","1","2","","","9847","58","1","1","win","go","0"
"pit-trial","180","4071021","0.0-63.0","battery-v0.2","","""event"",""trial"",""time""
""fullscreenenter"",""1"",""14202""
""blur"",""36"",""932407""
""focus"",""36"",""3274793""
","""event"",""trial"",""time""
""blur"",""36"",""932407""
","""event"",""trial"",""time""
""focus"",""36"",""3274793""
","""event"",""trial"",""time""
""fullscreenenter"",""1"",""14202""
","
","","","-1","","","23","9847","4013","j","elianto","#f73b6a7A","-1","-1","1","0","[]","0","2","","","9847","59","0","4","lose","no-go","0"
"pit-trial","181","4075159","0.0-64.0","battery-v0.2","","""event"",""trial"",""time""
""fullscreenenter"",""1"",""14202""
""blur"",""36"",""932407""
""focus"",""36"",""3274793""
","""event"",""trial"",""time""
""blur"",""36"",""932407""
","""event"",""trial"",""time""
""focus"",""36"",""3274793""
","""event"",""trial"",""time""
""fullscreenenter"",""1"",""14202""
","
","","","1276.3000001907349","","","23","9847","4013","s","elianto","#3366ff99","-1"," ","0","0","[2128.199999809265]","1","2","","","9847","60","4","2","win","no-go","0"
"pit-trial","182","4080027","0.0-65.0","battery-v0.2","","""event"",""trial"",""time""
""fullscreenenter"",""1"",""14202""
""blur"",""36"",""932407""
""focus"",""36"",""3274793""
","""event"",""trial"",""time""
""blur"",""36"",""932407""
","""event"",""trial"",""time""
""focus"",""36"",""3274793""
","""event"",""trial"",""time""
""fullscreenenter"",""1"",""14202""
","
","","","-1","","","23","9847","4013","e","elianto","#f73b6a7A","-1","-1","1","0","[]","0","2","","","9847","61","2","4","lose","no-go","0"
"pit-trial","183","4084895","0.0-66.0","battery-v0.2","","""event"",""trial"",""time""
""fullscreenenter"",""1"",""14202""
""blur"",""36"",""932407""
""focus"",""36"",""3274793""
","""event"",""trial"",""time""
""blur"",""36"",""932407""
","""event"",""trial"",""time""
""focus"",""36"",""3274793""
","""event"",""trial"",""time""
""fullscreenenter"",""1"",""14202""
","
","","","-1","","","23","9847","4013","s","elianto","#3366ff99","-1","-1","1","0","[]","0","2","","","9847","62","4","2","win","no-go","1"
"pit-trial","184","4088227","0.0-67.0","battery-v0.2","","""event"",""trial"",""time""
""fullscreenenter"",""1"",""14202""
""blur"",""36"",""932407""
""focus"",""36"",""3274793""
","""event"",""trial"",""time""
""blur"",""36"",""932407""
","""event"",""trial"",""time""
""focus"",""36"",""3274793""
","""event"",""trial"",""time""
""fullscreenenter"",""1"",""14202""
","
","","","460.7000002861023","","","23","9847","4013","d","elianto","#3366ff99"," "," ","1","+10","[1321.2000002861023]","1","2","","","9847","63","1","1","win","go","0"
"pit-trial","185","4093091","0.0-68.0","battery-v0.2","","""event"",""trial"",""time""
""fullscreenenter"",""1"",""14202""
""blur"",""36"",""932407""
""focus"",""36"",""3274793""
","""event"",""trial"",""time""
""blur"",""36"",""932407""
","""event"",""trial"",""time""
""focus"",""36"",""3274793""
","""event"",""trial"",""time""
""fullscreenenter"",""1"",""14202""
","
","","","-1","","","23","9847","4013","w","elianto","#f73b6a7A"," ","-1","0","0","[]","0","2","","","9847","64","3","3","lose","go","1"
"pit-trial","186","4097956","0.0-69.0","battery-v0.2","","""event"",""trial"",""time""
""fullscreenenter"",""1"",""14202""
""blur"",""36"",""932407""
""focus"",""36"",""3274793""
","""event"",""trial"",""time""
""blur"",""36"",""932407""
","""event"",""trial"",""time""
""focus"",""36"",""3274793""
","""event"",""trial"",""time""
""fullscreenenter"",""1"",""14202""
","
","","","-1","","","23","9847","4013","e","elianto","#f73b6a7A","-1","-1","1","0","[]","0","2","","","9847","65","2","4","lose","no-go","0"
"pit-trial","187","4102820","0.0-70.0","battery-v0.2","","""event"",""trial"",""time""
""fullscreenenter"",""1"",""14202""
""blur"",""36"",""932407""
""focus"",""36"",""3274793""
","""event"",""trial"",""time""
""blur"",""36"",""932407""
","""event"",""trial"",""time""
""focus"",""36"",""3274793""
","""event"",""trial"",""time""
""fullscreenenter"",""1"",""14202""
","
","","","-1","","","23","9847","4013","s","elianto","#3366ff99","-1","-1","1","+10","[]","0","2","","","9847","66","4","2","win","no-go","0"
"pit-trial","188","4107319","0.0-71.0","battery-v0.2","","""event"",""trial"",""time""
""fullscreenenter"",""1"",""14202""
""blur"",""36"",""932407""
""focus"",""36"",""3274793""
","""event"",""trial"",""time""
""blur"",""36"",""932407""
","""event"",""trial"",""time""
""focus"",""36"",""3274793""
","""event"",""trial"",""time""
""fullscreenenter"",""1"",""14202""
","
","","","1633.8000001907349","","","23","9847","4013","w","elianto","#f73b6a7A"," "," ","1","-10","[2487.5]","1","2","","","9847","67","3","3","lose","go","1"
"pit-trial","189","4110930","0.0-72.0","battery-v0.2","","""event"",""trial"",""time""
""fullscreenenter"",""1"",""14202""
""blur"",""36"",""932407""
""focus"",""36"",""3274793""
","""event"",""trial"",""time""
""blur"",""36"",""932407""
","""event"",""trial"",""time""
""focus"",""36"",""3274793""
","""event"",""trial"",""time""
""fullscreenenter"",""1"",""14202""
","
","","","742","","","23","9847","4013","d","elianto","#3366ff99"," "," ","1","+10","[1601.1999998092651]","1","2","","","9847","68","1","1","win","go","0"
"pit-trial","190","4114413","0.0-73.0","battery-v0.2","","""event"",""trial"",""time""
""fullscreenenter"",""1"",""14202""
""blur"",""36"",""932407""
""focus"",""36"",""3274793""
","""event"",""trial"",""time""
""blur"",""36"",""932407""
","""event"",""trial"",""time""
""focus"",""36"",""3274793""
","""event"",""trial"",""time""
""fullscreenenter"",""1"",""14202""
","
","","","623","","","23","9847","4013","d","elianto","#3366ff99"," "," ","1","+10","[1473.4000000953674]","1","2","","","9847","69","1","1","win","go","0"
"pit-trial","191","4118651","0.0-74.0","battery-v0.2","","""event"",""trial"",""time""
""fullscreenenter"",""1"",""14202""
""blur"",""36"",""932407""
""focus"",""36"",""3274793""
