"trial_type","trial_index","time_elapsed","internal_node_id","task_version","subject_id","interactions","blur_events","focus_events","fullscreenenter_events","fullscreenexit_events","success","view_history","rt","responses","num_errors","age","subject","participantId","rune","rune_set","hex","correct","choice","accuracy","outcome","keys","total_keys","block","practice","value","sub","trial","stimulus","robot","valence","action","sham"
"pavlovia","0","22","0.0-0.0","battery-v0.2","","""event"",""trial"",""time""
""fullscreenenter"",""1"",""2361""
","
","
","""event"",""trial"",""time""
""fullscreenenter"",""1"",""2361""
","
","","","","","","","","","","","","","","","","","","","","","","","","","","",""
"fullscreen","1","3352","0.0-1.0","battery-v0.2","","""event"",""trial"",""time""
""fullscreenenter"",""1"",""2361""
","
","
","""event"",""trial"",""time""
""fullscreenenter"",""1"",""2361""
","
","true","","","","","","","","","","","","","","","","","","","","","","","","","",""
"pit-instructions","2","8449","0.0-2.0-0.0","battery-v0.2","","""event"",""trial"",""time""
""fullscreenenter"",""1"",""2361""
","
","
","""event"",""trial"",""time""
""fullscreenenter"",""1"",""2361""
","
","","[{""page_index"":0,""viewing_time"":5093.60000000149}]","5094.10000000149","","","","","","","","","","","","","","","","","","","","","","","",""
"pit-comprehension","3","14162","0.0-2.0-1.0-0.0","battery-v0.2","","""event"",""trial"",""time""
""fullscreenenter"",""1"",""2361""
","
","
","""event"",""trial"",""time""
""fullscreenenter"",""1"",""2361""
","
","","","5707.79999999702","[""shark""]","0","22","13457","5869","","","","","","","","","","","","","","","","","","",""
"pit-instructions","4","16059","0.0-2.0-1.0-1.0","battery-v0.2","","""event"",""trial"",""time""
""fullscreenenter"",""1"",""2361""
","
","
","""event"",""trial"",""time""
""fullscreenenter"",""1"",""2361""
","
","","[{""page_index"":0,""viewing_time"":1887.5999999940395}]","1888","","","","","","","","","","","","","","","","","","","","","","","",""
"pit-comprehension","5","19189","0.0-2.0-2.0-0.0","battery-v0.2","","""event"",""trial"",""time""
""fullscreenenter"",""1"",""2361""
","
","
","""event"",""trial"",""time""
""fullscreenenter"",""1"",""2361""
","
","","","3126.8000000044703","[""tiger""]","0","22","13457","5869","","","","","","","","","","","","","","","","","","",""
"pit-instructions","6","20698","0.0-2.0-2.0-1.0","battery-v0.2","","""event"",""trial"",""time""
""fullscreenenter"",""1"",""2361""
","
","
","""event"",""trial"",""time""
""fullscreenenter"",""1"",""2361""
","
","","[{""page_index"":0,""viewing_time"":1505.2000000029802}]","1505.6000000014901","","","","","","","","","","","","","","","","","","","","","","","",""
"pit-instructions","7","132068","0.0-2.0-3.0","battery-v0.2","","""event"",""trial"",""time""
""fullscreenenter"",""1"",""2361""
","
","
","""event"",""trial"",""time""
""fullscreenenter"",""1"",""2361""
","
","","[{""page_index"":0,""viewing_time"":10275.80000000447},{""page_index"":1,""viewing_time"":9469.39999999851},{""page_index"":2,""viewing_time"":9459.69999999553},{""page_index"":3,""viewing_time"":6519.20000000298},{""page_index"":4,""viewing_time"":6671.39999999851},{""page_index"":5,""viewing_time"":5910.89999999851},{""page_index"":6,""viewing_time"":7426.10000000149},{""page_index"":7,""viewing_time"":7522.10000000149},{""page_index"":8,""viewing_time"":7905.60000000149},{""page_index"":9,""viewing_time"":10386.5},{""page_index"":10,""viewing_time"":8007.5},{""page_index"":11,""viewing_time"":7675.89999999851},{""page_index"":12,""viewing_time"":8731.70000000298},{""page_index"":13,""viewing_time"":5403}]","111365.30000000447","","","","","","","","","","","","","","","","","","","","","","","",""
"pit-trial","8","135604","0.0-2.0-4.0-0.0","battery-v0.2","","""event"",""trial"",""time""
""fullscreenenter"",""1"",""2361""
","
","
","""event"",""trial"",""time""
""fullscreenenter"",""1"",""2361""
","
","","","680","","","22","13457","5869","&#9784;","elianto","#FFFFF080"," "," ","1","&#10004","[1530.3999999985099]","1","0","0","","","","","","","",""
"pit-trial","9","139006","0.0-2.0-4.1-0.1","battery-v0.2","","""event"",""trial"",""time""
""fullscreenenter"",""1"",""2361""
","
","
","""event"",""trial"",""time""
""fullscreenenter"",""1"",""2361""
","
","","","541.8999999985099","","","22","13457","5869","&#9784;","elianto","#FFFFF080"," "," ","1","&#10004","[1394.6999999955297]","1","0","0","","","","","","","",""
"pit-trial","10","142410","0.0-2.0-4.2-0.2","battery-v0.2","","""event"",""trial"",""time""
""fullscreenenter"",""1"",""2361""
","
","
","""event"",""trial"",""time""
""fullscreenenter"",""1"",""2361""
","
","","","545.0999999940395","","","22","13457","5869","&#9784;","elianto","#FFFFF080"," "," ","1","&#10004","[1397.7000000029802]","1","0","0","","","","","","","",""
"pit-trial","11","145856","0.0-2.0-4.3-0.3","battery-v0.2","","""event"",""trial"",""time""
""fullscreenenter"",""1"",""2361""
","
","
","""event"",""trial"",""time""
""fullscreenenter"",""1"",""2361""
","
","","","591","","","22","13457","5869","&#9784;","elianto","#FFFFF080"," "," ","1","&#10004","[1441.5]","1","0","0","","","","","","","",""
"pit-trial","12","149288","0.0-2.0-4.4-0.4","battery-v0.2","","""event"",""trial"",""time""
""fullscreenenter"",""1"",""2361""
","
","
","""event"",""trial"",""time""
""fullscreenenter"",""1"",""2361""
","
","","","575.2000000029802","","","22","13457","5869","&#9784;","elianto","#FFFFF080"," "," ","1","&#10004","[1426.7000000029802]","1","0","0","","","","","","","",""
"pit-instructions","13","171082","0.0-2.0-5.0","battery-v0.2","","""event"",""trial"",""time""
""fullscreenenter"",""1"",""2361""
","
","
","""event"",""trial"",""time""
""fullscreenenter"",""1"",""2361""
","
","","[{""page_index"":0,""viewing_time"":5251.39999999851},{""page_index"":1,""viewing_time"":5957.60000000149},{""page_index"":2,""viewing_time"":5282.69999999553},{""page_index"":3,""viewing_time"":5296.60000000149}]","21788.79999999702","","","","","","","","","","","","","","","","","","","","","","","",""
"pit-trial","14","175936","0.0-2.0-6.0-0.0","battery-v0.2","","""event"",""trial"",""time""
""fullscreenenter"",""1"",""2361""
","
","
","""event"",""trial"",""time""
""fullscreenenter"",""1"",""2361""
","
","","","-1","","","22","13457","5869","&#9854;","elianto","#FFFFF080","-1","-1","1","&#10004","[]","0","0","1","","","","","","","",""
"pit-trial","15","180794","0.0-2.0-6.1-0.1","battery-v0.2","","""event"",""trial"",""time""
""fullscreenenter"",""1"",""2361""
","
","
","""event"",""trial"",""time""
""fullscreenenter"",""1"",""2361""
","
","","","-1","","","22","13457","5869","&#9854;","elianto","#FFFFF080","-1","-1","1","&#10004","[]","0","0","1","","","","","","","",""
"pit-trial","16","185650","0.0-2.0-6.2-0.2","battery-v0.2","","""event"",""trial"",""time""
""fullscreenenter"",""1"",""2361""
","
","
","""event"",""trial"",""time""
""fullscreenenter"",""1"",""2361""
","
","","","-1","","","22","13457","5869","&#9854;","elianto","#FFFFF080","-1","-1","1","&#10004","[]","0","0","1","","","","","","","",""
"pit-trial","17","190507","0.0-2.0-6.3-0.3","battery-v0.2","","""event"",""trial"",""time""
""fullscreenenter"",""1"",""2361""
","
","
","""event"",""trial"",""time""
""fullscreenenter"",""1"",""2361""
","
","","","-1","","","22","13457","5869","&#9854;","elianto","#FFFFF080","-1","-1","1","&#10004","[]","0","0","1","","","","","","","",""
"pit-trial","18","195363","0.0-2.0-6.4-0.4","battery-v0.2","","""event"",""trial"",""time""
""fullscreenenter"",""1"",""2361""
","
","
","""event"",""trial"",""time""
""fullscreenenter"",""1"",""2361""
","
","","","-1","","","22","13457","5869","&#9854;","elianto","#FFFFF080","-1","-1","1","&#10004","[]","0","0","1","","","","","","","",""
"pit-instructions","19","315218","0.0-2.0-7.0","battery-v0.2","","""event"",""trial"",""time""
""fullscreenenter"",""1"",""2361""
","
","
","""event"",""trial"",""time""
""fullscreenenter"",""1"",""2361""
","
","","[{""page_index"":0,""viewing_time"":6031.10000000149},{""page_index"":1,""viewing_time"":7276.79999999702},{""page_index"":2,""viewing_time"":5961.4000000059605},{""page_index"":3,""viewing_time"":7183.89999999851},{""page_index"":4,""viewing_time"":5961.69999999553},{""page_index"":5,""viewing_time"":5810.5},{""page_index"":6,""viewing_time"":4614.9000000059605},{""page_index"":7,""viewing_time"":7978.39999999851},{""page_index"":8,""viewing_time"":6941.69999999553},{""page_index"":9,""viewing_time"":6210.9000000059605},{""page_index"":10,""viewing_time"":6614.19999999553},{""page_index"":11,""viewing_time"":4363.39999999851},{""page_index"":12,""viewing_time"":7091.9000000059605},{""page_index"":13,""viewing_time"":7463},{""page_index"":14,""viewing_time"":7761.39999999851},{""page_index"":15,""viewing_time"":7963.60000000149},{""page_index"":16,""viewing_time"":7036.5},{""page_index"":17,""viewing_time"":7582.29999999702}]","119848.20000000298","","","","","","","","","","","","","","","","","","","","","","","",""
"pit-trial","20","318827","0.0-2.0-8.0-0.0","battery-v0.2","","""event"",""trial"",""time""
""fullscreenenter"",""1"",""2361""
","
","
","""event"",""trial"",""time""
""fullscreenenter"",""1"",""2361""
","
","","","754.2999999970198","","","22","13457","5869","&#9776;","elianto","#3366ff99"," "," ","1","+10","[1605.6000000014901]","1","0","1","","","","","","","",""
"pit-trial","21","322245","0.0-2.0-8.0-1.0","battery-v0.2","","""event"",""trial"",""time""
""fullscreenenter"",""1"",""2361""
","
","
","""event"",""trial"",""time""
""fullscreenenter"",""1"",""2361""
","
","","","564.5","","","22","13457","5869","&#9776;","elianto","#3366ff99"," "," ","1","+10","[1415]","1","0","1","","","","","","","",""
"pit-trial","22","325663","0.0-2.0-8.0-2.0","battery-v0.2","","""event"",""trial"",""time""
""fullscreenenter"",""1"",""2361""
","
","
","""event"",""trial"",""time""
""fullscreenenter"",""1"",""2361""
","
","","","562","","","22","13457","5869","&#9776;","elianto","#3366ff99"," "," ","1","+10","[1413.3000000044703]","1","0","1","","","","","","","",""
"pit-trial","23","329224","0.0-2.0-8.0-3.0","battery-v0.2","","""event"",""trial"",""time""
""fullscreenenter"",""1"",""2361""
","
","
","""event"",""trial"",""time""
""fullscreenenter"",""1"",""2361""
","
","","","705.3000000044703","","","22","13457","5869","&#9776;","elianto","#3366ff99"," "," ","1","0","[1556.2000000029802]","1","0","1","","","","","","","",""
"pit-trial","24","332598","0.0-2.0-8.0-4.0","battery-v0.2","","""event"",""trial"",""time""
""fullscreenenter"",""1"",""2361""
","
","
","""event"",""trial"",""time""
""fullscreenenter"",""1"",""2361""
","
","","","517.8999999985099","","","22","13457","5869","&#9776;","elianto","#3366ff99"," "," ","1","+10","[1369.5999999940395]","1","0","1","","","","","","","",""
"pit-trial","25","335889","0.0-2.0-8.1-0.1","battery-v0.2","","""event"",""trial"",""time""
""fullscreenenter"",""1"",""2361""
","
","
","""event"",""trial"",""time""
""fullscreenenter"",""1"",""2361""
","
","","","434.90000000596046","","","22","13457","5869","&#9776;","elianto","#3366ff99"," "," ","1","+10","[1286.2000000029802]","1","0","1","","","","","","","",""
"pit-trial","26","339290","0.0-2.0-8.1-1.1","battery-v0.2","","""event"",""trial"",""time""
""fullscreenenter"",""1"",""2361""
","
","
","""event"",""trial"",""time""
""fullscreenenter"",""1"",""2361""
","
","","","546.6000000014901","","","22","13457","5869","&#9776;","elianto","#3366ff99"," "," ","1","+10","[1396.8000000044703]","1","0","1","","","","","","","",""
"pit-trial","27","342672","0.0-2.0-8.1-2.1","battery-v0.2","","""event"",""trial"",""time""
""fullscreenenter"",""1"",""2361""
","
","
","""event"",""trial"",""time""
""fullscreenenter"",""1"",""2361""
","
","","","527.2999999970198","","","22","13457","5869","&#9776;","elianto","#3366ff99"," "," ","1","+10","[1377.2999999970198]","1","0","1","","","","","","","",""
"pit-trial","28","345966","0.0-2.0-8.1-3.1","battery-v0.2","","""event"",""trial"",""time""
""fullscreenenter"",""1"",""2361""
","
","
","""event"",""trial"",""time""
""fullscreenenter"",""1"",""2361""
","
","","","439.5","","","22","13457","5869","&#9776;","elianto","#3366ff99"," "," ","1","0","[1290]","1","0","1","","","","","","","",""
"pit-trial","29","349244","0.0-2.0-8.1-4.1","battery-v0.2","","""event"",""trial"",""time""
""fullscreenenter"",""1"",""2361""
","
","
","""event"",""trial"",""time""
""fullscreenenter"",""1"",""2361""
","
","","","421.69999999552965","","","22","13457","5869","&#9776;","elianto","#3366ff99"," "," ","1","+10","[1272.6000000014901]","1","0","1","","","","","","","",""
"pit-trial","30","352497","0.0-2.0-8.2-0.2","battery-v0.2","","""event"",""trial"",""time""
""fullscreenenter"",""1"",""2361""
","
","
","""event"",""trial"",""time""
""fullscreenenter"",""1"",""2361""
","
","","","395.59999999403954","","","22","13457","5869","&#9776;","elianto","#3366ff99"," "," ","1","+10","[1246.5]","1","0","1","","","","","","","",""
"pit-trial","31","355798","0.0-2.0-8.2-1.2","battery-v0.2","","""event"",""trial"",""time""
""fullscreenenter"",""1"",""2361""
","
","
","""event"",""trial"",""time""
""fullscreenenter"",""1"",""2361""
","
","","","445.40000000596046","","","22","13457","5869","&#9776;","elianto","#3366ff99"," "," ","1","+10","[1296.4000000059605]","1","0","1","","","","","","","",""
"pit-trial","32","359136","0.0-2.0-8.2-2.2","battery-v0.2","","""event"",""trial"",""time""
""fullscreenenter"",""1"",""2361""
","
","
","""event"",""trial"",""time""
""fullscreenenter"",""1"",""2361""
","
","","","484","","","22","13457","5869","&#9776;","elianto","#3366ff99"," "," ","1","+10","[1334.6999999955297]","1","0","1","","","","","","","",""
"pit-trial","33","362509","0.0-2.0-8.2-3.2","battery-v0.2","","""event"",""trial"",""time""
""fullscreenenter"",""1"",""2361""
","
","
","""event"",""trial"",""time""
""fullscreenenter"",""1"",""2361""
","
","","","516","","","22","13457","5869","&#9776;","elianto","#3366ff99"," "," ","1","0","[1368]","1","0","1","","","","","","","",""
"pit-trial","34","365809","0.0-2.0-8.2-4.2","battery-v0.2","","""event"",""trial"",""time""
""fullscreenenter"",""1"",""2361""
","
","
","""event"",""trial"",""time""
""fullscreenenter"",""1"",""2361""
","
","","","444.8999999985099","","","22","13457","5869","&#9776;","elianto","#3366ff99"," "," ","1","+10","[1295.2999999970198]","1","0","1","","","","","","","",""
"call-function","35","365812","0.0-2.0-9.0","battery-v0.2","","""event"",""trial"",""time""
""fullscreenenter"",""1"",""2361""
","
","
","""event"",""trial"",""time""
""fullscreenenter"",""1"",""2361""
","
","","","","","","","","","","","","","","","","","","","","","","","","","","",""
"pit-instructions","36","405744","0.0-2.0-10.0","battery-v0.2","","""event"",""trial"",""time""
""fullscreenenter"",""1"",""2361""
","
","
","""event"",""trial"",""time""
""fullscreenenter"",""1"",""2361""
","
","","[{""page_index"":0,""viewing_time"":5927.30000000447},{""page_index"":1,""viewing_time"":7180.89999999851},{""page_index"":2,""viewing_time"":9534.29999999702},{""page_index"":3,""viewing_time"":9248},{""page_index"":4,""viewing_time"":8040}]","39930.89999999851","","","","","","","","","","","","","","","","","","","","","","","",""
"pit-trial","37","410598","0.0-2.0-11.0-0.0","battery-v0.2","","""event"",""trial"",""time""
""fullscreenenter"",""1"",""2361""
","
","
","""event"",""trial"",""time""
""fullscreenenter"",""1"",""2361""
","
","","","-1","","","22","13457","5869","&#9761;","elianto","#3366ff99","-1","-1","1","+10","[]","0","0","2","","","","","","","",""
"pit-trial","38","415454","0.0-2.0-11.0-1.0","battery-v0.2","","""event"",""trial"",""time""
""fullscreenenter"",""1"",""2361""
","
","
","""event"",""trial"",""time""
""fullscreenenter"",""1"",""2361""
","
","","","-1","","","22","13457","5869","&#9761;","elianto","#3366ff99","-1","-1","1","+10","[]","0","0","2","","","","","","","",""
"pit-trial","39","420309","0.0-2.0-11.0-2.0","battery-v0.2","","""event"",""trial"",""time""
""fullscreenenter"",""1"",""2361""
","
","
","""event"",""trial"",""time""
""fullscreenenter"",""1"",""2361""
","
","","","-1","","","22","13457","5869","&#9761;","elianto","#3366ff99","-1","-1","1","+10","[]","0","0","2","","","","","","","",""
"pit-trial","40","425163","0.0-2.0-11.0-3.0","battery-v0.2","","""event"",""trial"",""time""
""fullscreenenter"",""1"",""2361""
","
","
","""event"",""trial"",""time""
""fullscreenenter"",""1"",""2361""
","
","","","-1","","","22","13457","5869","&#9761;","elianto","#3366ff99","-1","-1","1","0","[]","0","0","2","","","","","","","",""
"pit-trial","41","430018","0.0-2.0-11.0-4.0","battery-v0.2","","""event"",""trial"",""time""
""fullscreenenter"",""1"",""2361""
","
","
","""event"",""trial"",""time""
""fullscreenenter"",""1"",""2361""
","
","","","-1","","","22","13457","5869","&#9761;","elianto","#3366ff99","-1","-1","1","+10","[]","0","0","2","","","","","","","",""
"pit-trial","42","434875","0.0-2.0-11.1-0.1","battery-v0.2","","""event"",""trial"",""time""
""fullscreenenter"",""1"",""2361""
","
","
","""event"",""trial"",""time""
""fullscreenenter"",""1"",""2361""
","
","","","-1","","","22","13457","5869","&#9761;","elianto","#3366ff99","-1","-1","1","+10","[]","0","0","2","","","","","","","",""
"pit-trial","43","439731","0.0-2.0-11.1-1.1","battery-v0.2","","""event"",""trial"",""time""
""fullscreenenter"",""1"",""2361""
","
","
","""event"",""trial"",""time""
""fullscreenenter"",""1"",""2361""
","
","","","-1","","","22","13457","5869","&#9761;","elianto","#3366ff99","-1","-1","1","+10","[]","0","0","2","","","","","","","",""
"pit-trial","44","444587","0.0-2.0-11.1-2.1","battery-v0.2","","""event"",""trial"",""time""
""fullscreenenter"",""1"",""2361""
","
","
","""event"",""trial"",""time""
""fullscreenenter"",""1"",""2361""
","
","","","-1","","","22","13457","5869","&#9761;","elianto","#3366ff99","-1","-1","1","+10","[]","0","0","2","","","","","","","",""
"pit-trial","45","449443","0.0-2.0-11.1-3.1","battery-v0.2","","""event"",""trial"",""time""
""fullscreenenter"",""1"",""2361""
","
","
","""event"",""trial"",""time""
""fullscreenenter"",""1"",""2361""
","
","","","-1","","","22","13457","5869","&#9761;","elianto","#3366ff99","-1","-1","1","0","[]","0","0","2","","","","","","","",""
"pit-trial","46","454298","0.0-2.0-11.1-4.1","battery-v0.2","","""event"",""trial"",""time""
""fullscreenenter"",""1"",""2361""
","
","
","""event"",""trial"",""time""
""fullscreenenter"",""1"",""2361""
","
","","","-1","","","22","13457","5869","&#9761;","elianto","#3366ff99","-1","-1","1","+10","[]","0","0","2","","","","","","","",""
"pit-trial","47","459155","0.0-2.0-11.2-0.2","battery-v0.2","","""event"",""trial"",""time""
""fullscreenenter"",""1"",""2361""
","
","
","""event"",""trial"",""time""
""fullscreenenter"",""1"",""2361""
","
","","","-1","","","22","13457","5869","&#9761;","elianto","#3366ff99","-1","-1","1","+10","[]","0","0","2","","","","","","","",""
"pit-trial","48","464010","0.0-2.0-11.2-1.2","battery-v0.2","","""event"",""trial"",""time""
""fullscreenenter"",""1"",""2361""
","
","
","""event"",""trial"",""time""
""fullscreenenter"",""1"",""2361""
","
","","","-1","","","22","13457","5869","&#9761;","elianto","#3366ff99","-1","-1","1","+10","[]","0","0","2","","","","","","","",""
"pit-trial","49","468867","0.0-2.0-11.2-2.2","battery-v0.2","","""event"",""trial"",""time""
""fullscreenenter"",""1"",""2361""
","
","
","""event"",""trial"",""time""
""fullscreenenter"",""1"",""2361""
","
","","","-1","","","22","13457","5869","&#9761;","elianto","#3366ff99","-1","-1","1","+10","[]","0","0","2","","","","","","","",""
"pit-trial","50","473722","0.0-2.0-11.2-3.2","battery-v0.2","","""event"",""trial"",""time""
""fullscreenenter"",""1"",""2361""
","
","
","""event"",""trial"",""time""
""fullscreenenter"",""1"",""2361""
","
","","","-1","","","22","13457","5869","&#9761;","elianto","#3366ff99","-1","-1","1","0","[]","0","0","2","","","","","","","",""
"pit-trial","51","478577","0.0-2.0-11.2-4.2","battery-v0.2","","""event"",""trial"",""time""
""fullscreenenter"",""1"",""2361""
","
","
","""event"",""trial"",""time""
""fullscreenenter"",""1"",""2361""
","
","","","-1","","","22","13457","5869","&#9761;","elianto","#3366ff99","-1","-1","1","+10","[]","0","0","2","","","","","","","",""
"pit-trial","52","483434","0.0-2.0-11.3-0.3","battery-v0.2","","""event"",""trial"",""time""
""fullscreenenter"",""1"",""2361""
","
","
","""event"",""trial"",""time""
""fullscreenenter"",""1"",""2361""
","
","","","-1","","","22","13457","5869","&#9761;","elianto","#3366ff99","-1","-1","1","+10","[]","0","0","2","","","","","","","",""
"pit-trial","53","488291","0.0-2.0-11.3-1.3","battery-v0.2","","""event"",""trial"",""time""
""fullscreenenter"",""1"",""2361""
","
","
","""event"",""trial"",""time""
""fullscreenenter"",""1"",""2361""
","
","","","-1","","","22","13457","5869","&#9761;","elianto","#3366ff99","-1","-1","1","+10","[]","0","0","2","","","","","","","",""
"pit-trial","54","493147","0.0-2.0-11.3-2.3","battery-v0.2","","""event"",""trial"",""time""
""fullscreenenter"",""1"",""2361""
","
","
","""event"",""trial"",""time""
""fullscreenenter"",""1"",""2361""
","
","","","-1","","","22","13457","5869","&#9761;","elianto","#3366ff99","-1","-1","1","+10","[]","0","0","2","","","","","","","",""
"pit-trial","55","498003","0.0-2.0-11.3-3.3","battery-v0.2","","""event"",""trial"",""time""
""fullscreenenter"",""1"",""2361""
","
","
","""event"",""trial"",""time""
""fullscreenenter"",""1"",""2361""
","
","","","-1","","","22","13457","5869","&#9761;","elianto","#3366ff99","-1","-1","1","0","[]","0","0","2","","","","","","","",""
"pit-trial","56","502860","0.0-2.0-11.3-4.3","battery-v0.2","","""event"",""trial"",""time""
""fullscreenenter"",""1"",""2361""
","
","
","""event"",""trial"",""time""
""fullscreenenter"",""1"",""2361""
","
","","","-1","","","22","13457","5869","&#9761;","elianto","#3366ff99","-1","-1","1","+10","[]","0","0","2","","","","","","","",""
"call-function","57","502864","0.0-2.0-12.0","battery-v0.2","","""event"",""trial"",""time""
""fullscreenenter"",""1"",""2361""
","
","
","""event"",""trial"",""time""
""fullscreenenter"",""1"",""2361""
","
","","","","","","","","","","","","","","","","","","","","","","","","","","",""
"pit-instructions","58","534893","0.0-2.0-13.0","battery-v0.2","","""event"",""trial"",""time""
""fullscreenenter"",""1"",""2361""
","
","
","""event"",""trial"",""time""
""fullscreenenter"",""1"",""2361""
","
","","[{""page_index"":0,""viewing_time"":5117.10000000149},{""page_index"":1,""viewing_time"":7199.10000000149},{""page_index"":2,""viewing_time"":3512.7000000029802},{""page_index"":3,""viewing_time"":10885.19999999553},{""page_index"":4,""viewing_time"":5313.20000000298}]","32027.5","","","","","","","","","","","","","","","","","","","","","","","",""
"pit-trial","59","539748","0.0-2.0-14.0-0.0","battery-v0.2","","""event"",""trial"",""time""
""fullscreenenter"",""1"",""2361""
","
","
","""event"",""trial"",""time""
""fullscreenenter"",""1"",""2361""
","
","","","-1","","","22","13457","5869","&#9826;","elianto","#f73b6a7A","-1","-1","1","0","[]","0","0","3","","","","","","","",""
"pit-trial","60","543187","0.0-2.0-14.0-1.0","battery-v0.2","","""event"",""trial"",""time""
""fullscreenenter"",""1"",""2361""
","
","
","""event"",""trial"",""time""
""fullscreenenter"",""1"",""2361""
","
","","","583.8000000044703","","","22","13457","5869","&#9826;","elianto","#f73b6a7A","-1"," ","0","-10","[1434.5]","1","0","3","","","","","","","",""
"pit-trial","61","548042","0.0-2.0-14.0-2.0","battery-v0.2","","""event"",""trial"",""time""
""fullscreenenter"",""1"",""2361""
","
","
","""event"",""trial"",""time""
""fullscreenenter"",""1"",""2361""
","
","","","-1","","","22","13457","5869","&#9826;","elianto","#f73b6a7A","-1","-1","1","0","[]","0","0","3","","","","","","","",""
"pit-trial","62","552898","0.0-2.0-14.0-3.0","battery-v0.2","","""event"",""trial"",""time""
""fullscreenenter"",""1"",""2361""
","
","
","""event"",""trial"",""time""
""fullscreenenter"",""1"",""2361""
","
","","","-1","","","22","13457","5869","&#9826;","elianto","#f73b6a7A","-1","-1","1","-10","[]","0","0","3","","","","","","","",""
"pit-trial","63","556564","0.0-2.0-14.0-4.0","battery-v0.2","","""event"",""trial"",""time""
""fullscreenenter"",""1"",""2361""
","
","
","""event"",""trial"",""time""
""fullscreenenter"",""1"",""2361""
","
","","","810.3000000044703","","","22","13457","5869","&#9826;","elianto","#f73b6a7A","-1"," ","0","-10","[1661.1000000014901]","1","0","3","","","","","","","",""
"pit-trial","64","559983","0.0-2.0-14.1-0.1","battery-v0.2","","""event"",""trial"",""time""
""fullscreenenter"",""1"",""2361""
","
","
","""event"",""trial"",""time""
""fullscreenenter"",""1"",""2361""
","
","","","561.1000000014901","","","22","13457","5869","&#9826;","elianto","#f73b6a7A","-1"," ","0","-10","[1413]","1","0","3","","","","","","","",""
"pit-trial","65","563657","0.0-2.0-14.1-1.1","battery-v0.2","","""event"",""trial"",""time""
""fullscreenenter"",""1"",""2361""
","
","
","""event"",""trial"",""time""
""fullscreenenter"",""1"",""2361""
","
","","","820.3000000044703","","","22","13457","5869","&#9826;","elianto","#f73b6a7A","-1"," ","0","-10","[1670.6000000014901]","1","0","3","","","","","","","",""
"pit-trial","66","568514","0.0-2.0-14.1-2.1","battery-v0.2","","""event"",""trial"",""time""
""fullscreenenter"",""1"",""2361""
","
","
","""event"",""trial"",""time""
""fullscreenenter"",""1"",""2361""
","
","","","-1","","","22","13457","5869","&#9826;","elianto","#f73b6a7A","-1","-1","1","0","[]","0","0","3","","","","","","","",""
"pit-trial","67","573371","0.0-2.0-14.1-3.1","battery-v0.2","","""event"",""trial"",""time""
""fullscreenenter"",""1"",""2361""
","
","
","""event"",""trial"",""time""
""fullscreenenter"",""1"",""2361""
","
","","","-1","","","22","13457","5869","&#9826;","elianto","#f73b6a7A","-1","-1","1","-10","[]","0","0","3","","","","","","","",""
"pit-trial","68","578226","0.0-2.0-14.1-4.1","battery-v0.2","","""event"",""trial"",""time""
""fullscreenenter"",""1"",""2361""
","
","
","""event"",""trial"",""time""
""fullscreenenter"",""1"",""2361""
","
","","","-1","","","22","13457","5869","&#9826;","elianto","#f73b6a7A","-1","-1","1","0","[]","0","0","3","","","","","","","",""
"pit-trial","69","581842","0.0-2.0-14.2-0.2","battery-v0.2","","""event"",""trial"",""time""
""fullscreenenter"",""1"",""2361""
","
","
","""event"",""trial"",""time""
""fullscreenenter"",""1"",""2361""
","
","","","759.6000000014901","","","22","13457","5869","&#9826;","elianto","#f73b6a7A","-1"," ","0","-10","[1611.2999999970198]","1","0","3","","","","","","","",""
"pit-trial","70","586699","0.0-2.0-14.2-1.2","battery-v0.2","","""event"",""trial"",""time""
""fullscreenenter"",""1"",""2361""
","
","
","""event"",""trial"",""time""
""fullscreenenter"",""1"",""2361""
","
","","","-1","","","22","13457","5869","&#9826;","elianto","#f73b6a7A","-1","-1","1","0","[]","0","0","3","","","","","","","",""
"pit-trial","71","591554","0.0-2.0-14.2-2.2","battery-v0.2","","""event"",""trial"",""time""
""fullscreenenter"",""1"",""2361""
","
","
","""event"",""trial"",""time""
""fullscreenenter"",""1"",""2361""
","
","","","-1","","","22","13457","5869","&#9826;","elianto","#f73b6a7A","-1","-1","1","0","[]","0","0","3","","","","","","","",""
"pit-trial","72","596409","0.0-2.0-14.2-3.2","battery-v0.2","","""event"",""trial"",""time""
""fullscreenenter"",""1"",""2361""
","
","
","""event"",""trial"",""time""
""fullscreenenter"",""1"",""2361""
","
","","","-1","","","22","13457","5869","&#9826;","elianto","#f73b6a7A","-1","-1","1","-10","[]","0","0","3","","","","","","","",""
"pit-trial","73","601265","0.0-2.0-14.2-4.2","battery-v0.2","","""event"",""trial"",""time""
""fullscreenenter"",""1"",""2361""
","
","
","""event"",""trial"",""time""
""fullscreenenter"",""1"",""2361""
","
","","","-1","","","22","13457","5869","&#9826;","elianto","#f73b6a7A","-1","-1","1","0","[]","0","0","3","","","","","","","",""
"pit-trial","74","606121","0.0-2.0-14.3-0.3","battery-v0.2","","""event"",""trial"",""time""
""fullscreenenter"",""1"",""2361""
","
","
","""event"",""trial"",""time""
""fullscreenenter"",""1"",""2361""
","
","","","-1","","","22","13457","5869","&#9826;","elianto","#f73b6a7A","-1","-1","1","0","[]","0","0","3","","","","","","","",""
"pit-trial","75","610976","0.0-2.0-14.3-1.3","battery-v0.2","","""event"",""trial"",""time""
""fullscreenenter"",""1"",""2361""
","
","
","""event"",""trial"",""time""
""fullscreenenter"",""1"",""2361""
","
","","","-1","","","22","13457","5869","&#9826;","elianto","#f73b6a7A","-1","-1","1","0","[]","0","0","3","","","","","","","",""
"pit-trial","76","614677","0.0-2.0-14.3-2.3","battery-v0.2","","""event"",""trial"",""time""
""fullscreenenter"",""1"",""2361""
","
","
","""event"",""trial"",""time""
""fullscreenenter"",""1"",""2361""
","
","","","846.7000000029802","","","22","13457","5869","&#9826;","elianto","#f73b6a7A","-1"," ","0","-10","[1697]","1","0","3","","","","","","","",""
"pit-trial","77","619533","0.0-2.0-14.3-3.3","battery-v0.2","","""event"",""trial"",""time""
""fullscreenenter"",""1"",""2361""
","
","
","""event"",""trial"",""time""
""fullscreenenter"",""1"",""2361""
","
","","","-1","","","22","13457","5869","&#9826;","elianto","#f73b6a7A","-1","-1","1","-10","[]","0","0","3","","","","","","","",""
"pit-trial","78","624389","0.0-2.0-14.3-4.3","battery-v0.2","","""event"",""trial"",""time""
""fullscreenenter"",""1"",""2361""
","
","
","""event"",""trial"",""time""
""fullscreenenter"",""1"",""2361""
","
","","","-1","","","22","13457","5869","&#9826;","elianto","#f73b6a7A","-1","-1","1","0","[]","0","0","3","","","","","","","",""
"call-function","79","624391","0.0-2.0-15.0","battery-v0.2","","""event"",""trial"",""time""
""fullscreenenter"",""1"",""2361""
","
","
","""event"",""trial"",""time""
""fullscreenenter"",""1"",""2361""
","
","","","","","","","","","","","","","","","","","","","","","","","","","","",""
"pit-instructions","80","649588","0.0-2.0-16.0","battery-v0.2","","""event"",""trial"",""time""
""fullscreenenter"",""1"",""2361""
","
","
","""event"",""trial"",""time""
""fullscreenenter"",""1"",""2361""
","
","","[{""page_index"":0,""viewing_time"":6923.29999999702},{""page_index"":1,""viewing_time"":8312},{""page_index"":2,""viewing_time"":4750.70000000298},{""page_index"":3,""viewing_time"":5208.79999999702}]","25195.10000000149","","","","","","","","","","","","","","","","","","","","","","","",""
"pit-trial","81","653096","0.0-2.0-17.0-0.0","battery-v0.2","","""event"",""trial"",""time""
""fullscreenenter"",""1"",""2361""
","
","
","""event"",""trial"",""time""
""fullscreenenter"",""1"",""2361""
","
","","","653","","","22","13457","5869","&#9789;","elianto","#f73b6a7A"," "," ","1","0","[1504.1000000014901]","1","0","4","","","","","","","",""
"pit-trial","82","656397","0.0-2.0-17.0-1.0","battery-v0.2","","""event"",""trial"",""time""
""fullscreenenter"",""1"",""2361""
","
","
","""event"",""trial"",""time""
""fullscreenenter"",""1"",""2361""
","
","","","446.69999999552965","","","22","13457","5869","&#9789;","elianto","#f73b6a7A"," "," ","1","0","[1297.1000000014901]","1","0","4","","","","","","","",""
"pit-trial","83","659741","0.0-2.0-17.0-2.0","battery-v0.2","","""event"",""trial"",""time""
""fullscreenenter"",""1"",""2361""
","
","
","""event"",""trial"",""time""
""fullscreenenter"",""1"",""2361""
","
","","","488.79999999701977","","","22","13457","5869","&#9789;","elianto","#f73b6a7A"," "," ","1","0","[1340.1000000014901]","1","0","4","","","","","","","",""
"pit-trial","84","663036","0.0-2.0-17.0-3.0","battery-v0.2","","""event"",""trial"",""time""
""fullscreenenter"",""1"",""2361""
","
","
","""event"",""trial"",""time""
""fullscreenenter"",""1"",""2361""
","
","","","439.1000000014901","","","22","13457","5869","&#9789;","elianto","#f73b6a7A"," "," ","1","-10","[1289.5]","1","0","4","","","","","","","",""
"pit-trial","85","666400","0.0-2.0-17.0-4.0","battery-v0.2","","""event"",""trial"",""time""
""fullscreenenter"",""1"",""2361""
","
","
","""event"",""trial"",""time""
""fullscreenenter"",""1"",""2361""
","
","","","508.30000000447035","","","22","13457","5869","&#9789;","elianto","#f73b6a7A"," "," ","1","0","[1359.3000000044703]","1","0","4","","","","","","","",""
"pit-trial","86","669863","0.0-2.0-17.1-0.1","battery-v0.2","","""event"",""trial"",""time""
""fullscreenenter"",""1"",""2361""
","
","
","""event"",""trial"",""time""
""fullscreenenter"",""1"",""2361""
","
","","","606.8999999985099","","","22","13457","5869","&#9789;","elianto","#f73b6a7A"," "," ","1","0","[1457.3999999985099]","1","0","4","","","","","","","",""
"pit-trial","87","673244","0.0-2.0-17.1-1.1","battery-v0.2","","""event"",""trial"",""time""
""fullscreenenter"",""1"",""2361""
","
","
","""event"",""trial"",""time""
""fullscreenenter"",""1"",""2361""
","
","","","526","","","22","13457","5869","&#9789;","elianto","#f73b6a7A"," "," ","1","0","[1376.2000000029802]","1","0","4","","","","","","","",""
"pit-trial","88","678100","0.0-2.0-17.1-2.1","battery-v0.2","","""event"",""trial"",""time""
""fullscreenenter"",""1"",""2361""
","
","
","""event"",""trial"",""time""
""fullscreenenter"",""1"",""2361""
","
","","","-1","","","22","13457","5869","&#9789;","elianto","#f73b6a7A"," ","-1","0","-10","[]","0","0","4","","","","","","","",""
"pit-trial","89","681669","0.0-2.0-17.1-3.1","battery-v0.2","","""event"",""trial"",""time""
""fullscreenenter"",""1"",""2361""
","
","
","""event"",""trial"",""time""
""fullscreenenter"",""1"",""2361""
","
","","","713","","","22","13457","5869","&#9789;","elianto","#f73b6a7A"," "," ","1","-10","[1564.1000000014901]","1","0","4","","","","","","","",""
"pit-trial","90","685035","0.0-2.0-17.1-4.1","battery-v0.2","","""event"",""trial"",""time""
""fullscreenenter"",""1"",""2361""
","
","
","""event"",""trial"",""time""
""fullscreenenter"",""1"",""2361""
","
","","","511.8999999985099","","","22","13457","5869","&#9789;","elianto","#f73b6a7A"," "," ","1","0","[1363.6000000014901]","1","0","4","","","","","","","",""
"pit-trial","91","689134","0.0-2.0-17.2-0.2","battery-v0.2","","""event"",""trial"",""time""
""fullscreenenter"",""1"",""2361""
","
","
","""event"",""trial"",""time""
""fullscreenenter"",""1"",""2361""
","
","","","1242.6000000014901","","","22","13457","5869","&#9789;","elianto","#f73b6a7A"," "," ","1","0","[2093.60000000149]","1","0","4","","","","","","","",""
"pit-trial","92","692726","0.0-2.0-17.2-1.2","battery-v0.2","","""event"",""trial"",""time""
""fullscreenenter"",""1"",""2361""
","
","
","""event"",""trial"",""time""
""fullscreenenter"",""1"",""2361""
","
","","","735.6000000014901","","","22","13457","5869","&#9789;","elianto","#f73b6a7A"," "," ","1","0","[1586.2999999970198]","1","0","4","","","","","","","",""
"pit-trial","93","696181","0.0-2.0-17.2-2.2","battery-v0.2","","""event"",""trial"",""time""
""fullscreenenter"",""1"",""2361""
","
","
","""event"",""trial"",""time""
""fullscreenenter"",""1"",""2361""
","
","","","601.1999999955297","","","22","13457","5869","&#9789;","elianto","#f73b6a7A"," "," ","1","0","[1451.5]","1","0","4","","","","","","","",""
"pit-trial","94","701037","0.0-2.0-17.2-3.2","battery-v0.2","","""event"",""trial"",""time""
""fullscreenenter"",""1"",""2361""
","
","
","""event"",""trial"",""time""
""fullscreenenter"",""1"",""2361""
","
","","","-1","","","22","13457","5869","&#9789;","elianto","#f73b6a7A"," ","-1","0","0","[]","0","0","4","","","","","","","",""
"pit-trial","95","704662","0.0-2.0-17.2-4.2","battery-v0.2","","""event"",""trial"",""time""
""fullscreenenter"",""1"",""2361""
","
","
","""event"",""trial"",""time""
""fullscreenenter"",""1"",""2361""
","
","","","769.1999999955297","","","22","13457","5869","&#9789;","elianto","#f73b6a7A"," "," ","1","0","[1619.7999999970198]","1","0","4","","","","","","","",""
"pit-trial","96","708009","0.0-2.0-17.3-0.3","battery-v0.2","","""event"",""trial"",""time""
""fullscreenenter"",""1"",""2361""
","
","
","""event"",""trial"",""time""
""fullscreenenter"",""1"",""2361""
","
","","","490.70000000298023","","","22","13457","5869","&#9789;","elianto","#f73b6a7A"," "," ","1","0","[1341.5]","1","0","4","","","","","","","",""
"pit-trial","97","711297","0.0-2.0-17.3-1.3","battery-v0.2","","""event"",""trial"",""time""
""fullscreenenter"",""1"",""2361""
","
","
","""event"",""trial"",""time""
""fullscreenenter"",""1"",""2361""
","
","","","433.59999999403954","","","22","13457","5869","&#9789;","elianto","#f73b6a7A"," "," ","1","0","[1284.0999999940395]","1","0","4","","","","","","","",""
"pit-trial","98","714652","0.0-2.0-17.3-2.3","battery-v0.2","","""event"",""trial"",""time""
""fullscreenenter"",""1"",""2361""
","
","
","""event"",""trial"",""time""
""fullscreenenter"",""1"",""2361""
","
","","","500","","","22","13457","5869","&#9789;","elianto","#f73b6a7A"," "," ","1","0","[1350.8999999985099]","1","0","4","","","","","","","",""
"pit-trial","99","719507","0.0-2.0-17.3-3.3","battery-v0.2","","""event"",""trial"",""time""
""fullscreenenter"",""1"",""2361""
","
","
","""event"",""trial"",""time""
""fullscreenenter"",""1"",""2361""
","
","","","-1","","","22","13457","5869","&#9789;","elianto","#f73b6a7A"," ","-1","0","0","[]","0","0","4","","","","","","","",""
"pit-trial","100","722806","0.0-2.0-17.3-4.3","battery-v0.2","","""event"",""trial"",""time""
""fullscreenenter"",""1"",""2361""
","
","
","""event"",""trial"",""time""
""fullscreenenter"",""1"",""2361""
","
","","","445.8999999985099","","","22","13457","5869","&#9789;","elianto","#f73b6a7A"," "," ","1","0","[1296]","1","0","4","","","","","","","",""
"call-function","101","722809","0.0-2.0-18.0","battery-v0.2","","""event"",""trial"",""time""
""fullscreenenter"",""1"",""2361""
","
","
","""event"",""trial"",""time""
""fullscreenenter"",""1"",""2361""
","
","","","","","","","","","","","","","","","","","","","","","","","","","","",""
"pit-instructions","102","794694","0.0-2.0-19.0","battery-v0.2","","""event"",""trial"",""time""
""fullscreenenter"",""1"",""2361""
","
","
","""event"",""trial"",""time""
""fullscreenenter"",""1"",""2361""
","
","","[{""page_index"":0,""viewing_time"":7257},{""page_index"":1,""viewing_time"":5890.89999999851},{""page_index"":2,""viewing_time"":14085.30000000447},{""page_index"":3,""viewing_time"":7978.79999999702},{""page_index"":4,""viewing_time"":8429.20000000298},{""page_index"":5,""viewing_time"":9063.5},{""page_index"":6,""viewing_time"":8521.69999999553},{""page_index"":7,""viewing_time"":6458.5},{""page_index"":8,""viewing_time"":4197.9000000059605}]","71883.10000000149","","","","","","","","","","","","","","","","","","","","","","","",""
"pit-comprehension","103","799366","0.0-2.0-20.0-0.0","battery-v0.2","","""event"",""trial"",""time""
""fullscreenenter"",""1"",""2361""
","
","
","""event"",""trial"",""time""
""fullscreenenter"",""1"",""2361""
","
","","","4668.60000000149","[""SPACE""]","0","22","13457","5869","","","","","","","","","","","","","","","","","","",""
"pit-instructions","104","802111","0.0-2.0-20.0-1.0","battery-v0.2","","""event"",""trial"",""time""
""fullscreenenter"",""1"",""2361""
","
","
","""event"",""trial"",""time""
""fullscreenenter"",""1"",""2361""
","
","","[{""page_index"":0,""viewing_time"":2707.2999999970198}]","2707.7000000029802","","","","","","","","","","","","","","","","","","","","","","","",""
"pit-comprehension","105","808327","0.0-2.0-21.0-0.0","battery-v0.2","","""event"",""trial"",""time""
""fullscreenenter"",""1"",""2361""
","
","
","""event"",""trial"",""time""
""fullscreenenter"",""1"",""2361""
","
","","","6211.5","[""10""]","0","22","13457","5869","","","","","","","","","","","","","","","","","","",""
"pit-instructions","106","810218","0.0-2.0-21.0-1.0","battery-v0.2","","""event"",""trial"",""time""
""fullscreenenter"",""1"",""2361""
","
","
","""event"",""trial"",""time""
""fullscreenenter"",""1"",""2361""
","
","","[{""page_index"":0,""viewing_time"":1850.7000000029802}]","1851.4000000059605","","","","","","","","","","","","","","","","","","","","","","","",""
"pit-comprehension","107","816804","0.0-2.0-22.0-0.0","battery-v0.2","","""event"",""trial"",""time""
""fullscreenenter"",""1"",""2361""
","
","
","""event"",""trial"",""time""
""fullscreenenter"",""1"",""2361""
","
","","","6582","[""0""]","0","22","13457","5869","","","","","","","","","","","","","","","","","","",""
"pit-instructions","108","819558","0.0-2.0-22.0-1.0","battery-v0.2","","""event"",""trial"",""time""
""fullscreenenter"",""1"",""2361""
","
","
","""event"",""trial"",""time""
""fullscreenenter"",""1"",""2361""
","
","","[{""page_index"":0,""viewing_time"":2717.5}]","2717.8000000044703","","","","","","","","","","","","","","","","","","","","","","","",""
"pit-comprehension","109","828170","0.0-2.0-23.0-0.0","battery-v0.2","","""event"",""trial"",""time""
""fullscreenenter"",""1"",""2361""
","
","
","""event"",""trial"",""time""
""fullscreenenter"",""1"",""2361""
","
","","","8608.29999999702","[""True""]","0","22","13457","5869","","","","","","","","","","","","","","","","","","",""
"pit-instructions","110","830350","0.0-2.0-23.0-1.0","battery-v0.2","","""event"",""trial"",""time""
""fullscreenenter"",""1"",""2361""
","
","
","""event"",""trial"",""time""
""fullscreenenter"",""1"",""2361""
","
","","[{""page_index"":0,""viewing_time"":2141.39999999851}]","2141.6999999955297","","","","","","","","","","","","","","","","","","","","","","","",""
"pit-comprehension","111","838001","0.0-2.0-24.0-0.0","battery-v0.2","","""event"",""trial"",""time""
""fullscreenenter"",""1"",""2361""
","
","
","""event"",""trial"",""time""
""fullscreenenter"",""1"",""2361""
","
","","","7647.39999999851","[""True""]","0","22","13457","5869","","","","","","","","","","","","","","","","","","",""
"pit-instructions","112","840018","0.0-2.0-24.0-1.0","battery-v0.2","","""event"",""trial"",""time""
""fullscreenenter"",""1"",""2361""
","
","
","""event"",""trial"",""time""
""fullscreenenter"",""1"",""2361""
","
","","[{""page_index"":0,""viewing_time"":1979.7000000029802}]","1980.1000000014901","","","","","","","","","","","","","","","","","","","","","","","",""
"pit-comprehension","113","846901","0.0-2.0-25.0-0.0","battery-v0.2","","""event"",""trial"",""time""
""fullscreenenter"",""1"",""2361""
","
","
","""event"",""trial"",""time""
""fullscreenenter"",""1"",""2361""
","
","","","6877.5","[""True""]","0","22","13457","5869","","","","","","","","","","","","","","","","","","",""
"pit-instructions","114","849230","0.0-2.0-25.0-1.0","battery-v0.2","","""event"",""trial"",""time""
""fullscreenenter"",""1"",""2361""
","
","
","""event"",""trial"",""time""
""fullscreenenter"",""1"",""2361""
","
","","[{""page_index"":0,""viewing_time"":2289.5}]","2290","","","","","","","","","","","","","","","","","","","","","","","",""
"pit-comprehension","115","854527","0.0-2.0-26.0-0.0","battery-v0.2","","""event"",""trial"",""time""
""fullscreenenter"",""1"",""2361""
","
","
","""event"",""trial"",""time""
""fullscreenenter"",""1"",""2361""
","
","","","5292.29999999702","[""False""]","0","22","13457","5869","","","","","","","","","","","","","","","","","","",""
"pit-instructions","116","856555","0.0-2.0-26.0-1.0","battery-v0.2","","""event"",""trial"",""time""
""fullscreenenter"",""1"",""2361""
","
","
","""event"",""trial"",""time""
""fullscreenenter"",""1"",""2361""
","
","","[{""page_index"":0,""viewing_time"":1988.2999999970198}]","1988.6999999955297","","","","","","","","","","","","","","","","","","","","","","","",""
"pit-instructions","117","873512","0.0-3.0","battery-v0.2","","""event"",""trial"",""time""
""fullscreenenter"",""1"",""2361""
","
","
","""event"",""trial"",""time""
""fullscreenenter"",""1"",""2361""
","
","","[{""page_index"":0,""viewing_time"":3788.7000000029802},{""page_index"":1,""viewing_time"":5259.69999999553},{""page_index"":2,""viewing_time"":7904.4000000059605}]","16953.20000000298","","","","","","","","","","","","","","","","","","","","","","","",""
"pit-trial","118","877045","0.0-4.0","battery-v0.2","","""event"",""trial"",""time""
""fullscreenenter"",""1"",""2361""
","
","
","""event"",""trial"",""time""
""fullscreenenter"",""1"",""2361""
","
","","","672.7999999970198","","","22","13457","5869","&#9752;","elianto","#f73b6a7A"," "," ","1","0","[1523.6000000014901]","1","1","","","13457","1","3","3","lose","go","0"
"pit-trial","119","880710","0.0-5.0","battery-v0.2","","""event"",""trial"",""time""
""fullscreenenter"",""1"",""2361""
","
","
","""event"",""trial"",""time""
""fullscreenenter"",""1"",""2361""
","
","","","809.1999999955297","","","22","13457","5869","&#9728;","elianto","#f73b6a7A","-1"," ","0","-10","[1661.3999999985099]","1","1","","","13457","2","0","4","lose","no-go","0"
"pit-trial","120","884592","0.0-6.0","battery-v0.2","","""event"",""trial"",""time""
""fullscreenenter"",""1"",""2361""
","
","
","""event"",""trial"",""time""
""fullscreenenter"",""1"",""2361""
","
","","","1026.8000000044703","","","22","13457","5869","&#9733;","elianto","#3366ff99","-1"," ","0","0","[1877.6000000014901]","1","1","","","13457","3","2","2","win","no-go","0"
"pit-trial","121","888350","0.0-7.0","battery-v0.2","","""event"",""trial"",""time""
""fullscreenenter"",""1"",""2361""
","
","
","""event"",""trial"",""time""
""fullscreenenter"",""1"",""2361""
","
","","","902.7000000029802","","","22","13457","5869","&#9730;","elianto","#3366ff99"," "," ","1","+10","[1753.9000000059605]","1","1","","","13457","4","1","1","win","go","0"
"pit-trial","122","891918","0.0-8.0","battery-v0.2","","""event"",""trial"",""time""
""fullscreenenter"",""1"",""2361""
","
","
","""event"",""trial"",""time""
""fullscreenenter"",""1"",""2361""
","
","","","711.2000000029802","","","22","13457","5869","&#9730;","elianto","#3366ff99"," "," ","1","+10","[1562.5]","1","1","","","13457","5","1","1","win","go","0"
"pit-trial","123","895769","0.0-9.0","battery-v0.2","","""event"",""trial"",""time""
""fullscreenenter"",""1"",""2361""
","
","
","""event"",""trial"",""time""
""fullscreenenter"",""1"",""2361""
","
","","","995.9000000059605","","","22","13457","5869","&#9733;","elianto","#3366ff99","-1"," ","0","+10","[1847]","1","1","","","13457","6","2","2","win","no-go","1"
"pit-trial","124","900624","0.0-10.0","battery-v0.2","","""event"",""trial"",""time""
""fullscreenenter"",""1"",""2361""
","
","
","""event"",""trial"",""time""
""fullscreenenter"",""1"",""2361""
","
","","","-1","","","22","13457","5869","&#9752;","elianto","#f73b6a7A"," ","-1","0","0","[]","0","1","","","13457","7","3","3","lose","go","1"
"pit-trial","125","905481","0.0-11.0","battery-v0.2","","""event"",""trial"",""time""
""fullscreenenter"",""1"",""2361""
","
","
","""event"",""trial"",""time""
""fullscreenenter"",""1"",""2361""
","
","","","-1","","","22","13457","5869","&#9728;","elianto","#f73b6a7A","-1","-1","1","0","[]","0","1","","","13457","8","0","4","lose","no-go","0"
"pit-trial","126","910336","0.0-12.0","battery-v0.2","","""event"",""trial"",""time""
""fullscreenenter"",""1"",""2361""
","
","
","""event"",""trial"",""time""
""fullscreenenter"",""1"",""2361""
","
","","","-1","","","22","13457","5869","&#9752;","elianto","#f73b6a7A"," ","-1","0","-10","[]","0","1","","","13457","9","3","3","lose","go","0"
"pit-trial","127","913950","0.0-13.0","battery-v0.2","","""event"",""trial"",""time""
""fullscreenenter"",""1"",""2361""
","
","
","""event"",""trial"",""time""
""fullscreenenter"",""1"",""2361""
","
","","","758.7999999970198","","","22","13457","5869","&#9733;","elianto","#3366ff99","-1"," ","0","0","[1609.7999999970198]","1","1","","","13457","10","2","2","win","no-go","0"
"pit-trial","128","918806","0.0-14.0","battery-v0.2","","""event"",""trial"",""time""
""fullscreenenter"",""1"",""2361""
","
","
","""event"",""trial"",""time""
""fullscreenenter"",""1"",""2361""
","
","","","-1","","","22","13457","5869","&#9728;","elianto","#f73b6a7A","-1","-1","1","0","[]","0","1","","","13457","11","0","4","lose","no-go","0"
"pit-trial","129","922443","0.0-15.0","battery-v0.2","","""event"",""trial"",""time""
""fullscreenenter"",""1"",""2361""
","
","
","""event"",""trial"",""time""
""fullscreenenter"",""1"",""2361""
","
","","","782.2999999970198","","","22","13457","5869","&#9730;","elianto","#3366ff99"," "," ","1","+10","[1633.0999999940395]","1","1","","","13457","12","1","1","win","go","0"
"pit-trial","130","927300","0.0-16.0","battery-v0.2","","""event"",""trial"",""time""
""fullscreenenter"",""1"",""2361""
","
","
","""event"",""trial"",""time""
""fullscreenenter"",""1"",""2361""
","
","","","-1","","","22","13457","5869","&#9752;","elianto","#f73b6a7A"," ","-1","0","-10","[]","0","1","","","13457","13","3","3","lose","go","0"
"pit-trial","131","930785","0.0-17.0","battery-v0.2","","""event"",""trial"",""time""
""fullscreenenter"",""1"",""2361""
","
","
","""event"",""trial"",""time""
""fullscreenenter"",""1"",""2361""
","
","","","631.2999999970198","","","22","13457","5869","&#9730;","elianto","#3366ff99"," "," ","1","+10","[1482.1000000014901]","1","1","","","13457","14","1","1","win","go","0"
"pit-trial","132","935642","0.0-18.0","battery-v0.2","","""event"",""trial"",""time""
""fullscreenenter"",""1"",""2361""
","
","
","""event"",""trial"",""time""
""fullscreenenter"",""1"",""2361""
","
","","","-1","","","22","13457","5869","&#9728;","elianto","#f73b6a7A","-1","-1","1","0","[]","0","1","","","13457","15","0","4","lose","no-go","0"
"pit-trial","133","939175","0.0-19.0","battery-v0.2","","""event"",""trial"",""time""
""fullscreenenter"",""1"",""2361""
","
","
","""event"",""trial"",""time""
""fullscreenenter"",""1"",""2361""
","
","","","676.8999999985099","","","22","13457","5869","&#9733;","elianto","#3366ff99","-1"," ","0","0","[1527.7000000029802]","1","1","","","13457","16","2","2","win","no-go","0"
"pit-trial","134","942698","0.0-20.0","battery-v0.2","","""event"",""trial"",""time""
""fullscreenenter"",""1"",""2361""
","
","
","""event"",""trial"",""time""
""fullscreenenter"",""1"",""2361""
","
","","","665.6999999955297","","","22","13457","5869","&#9728;","elianto","#f73b6a7A","-1"," ","0","0","[1518.6999999955297]","1","1","","","13457","17","0","4","lose","no-go","1"
"pit-trial","135","946187","0.0-21.0","battery-v0.2","","""event"",""trial"",""time""
""fullscreenenter"",""1"",""2361""
","
","
","""event"",""trial"",""time""
""fullscreenenter"",""1"",""2361""
","
","","","631.6000000014901","","","22","13457","5869","&#9730;","elianto","#3366ff99"," "," ","1","+10","[1483.1000000014901]","1","1","","","13457","18","1","1","win","go","0"
"pit-trial","136","949667","0.0-22.0","battery-v0.2","","""event"",""trial"",""time""
""fullscreenenter"",""1"",""2361""
","
","
","""event"",""trial"",""time""
""fullscreenenter"",""1"",""2361""
","
","","","625.2999999970198","","","22","13457","5869","&#9752;","elianto","#f73b6a7A"," "," ","1","0","[1476.7999999970198]","1","1","","","13457","19","3","3","lose","go","0"
"pit-trial","137","953047","0.0-23.0","battery-v0.2","","""event"",""trial"",""time""
""fullscreenenter"",""1"",""2361""
","
","
","""event"",""trial"",""time""
""fullscreenenter"",""1"",""2361""
","
","","","526.2999999970198","","","22","13457","5869","&#9733;","elianto","#3366ff99","-1"," ","0","0","[1376.8999999985099]","1","1","","","13457","20","2","2","win","no-go","0"
"pit-instructions","138","966138","0.0-24.0","battery-v0.2","","""event"",""trial"",""time""
""fullscreenenter"",""1"",""2361""
","
","
","""event"",""trial"",""time""
""fullscreenenter"",""1"",""2361""
","
","","[{""page_index"":0,""viewing_time"":5953.70000000298},{""page_index"":1,""viewing_time"":7133.89999999851}]","13088","","","","","","","","","","","","","","","","","","","","","","","",""
"pit-trial","139","969756","0.0-25.0","battery-v0.2","","""event"",""trial"",""time""
""fullscreenenter"",""1"",""2361""
","
","
","""event"",""trial"",""time""
""fullscreenenter"",""1"",""2361""
","
","","","761.8000000044703","","","22","13457","5869","h","elianto","#f73b6a7A","-1"," ","0","-10","[1612.8999999985099]","1","2","","","13457","21","3","4","lose","no-go","0"
"pit-trial","140","973282","0.0-26.0","battery-v0.2","","""event"",""trial"",""time""
""fullscreenenter"",""1"",""2361""
","
","
","""event"",""trial"",""time""
""fullscreenenter"",""1"",""2361""
","
","","","669.2999999970198","","","22","13457","5869","r","elianto","#3366ff99","-1"," ","0","+10","[1521.2000000029802]","1","2","","","13457","22","1","2","win","no-go","1"
"pit-trial","141","976887","0.0-27.0","battery-v0.2","","""event"",""trial"",""time""
""fullscreenenter"",""1"",""2361""
","
","
","""event"",""trial"",""time""
""fullscreenenter"",""1"",""2361""
","
","","","746.3000000044703","","","22","13457","5869","m","elianto","#f73b6a7A"," "," ","1","-10","[1598.8000000044703]","1","2","","","13457","23","0","3","lose","go","1"
"pit-trial","142","980552","0.0-28.0","battery-v0.2","","""event"",""trial"",""time""
""fullscreenenter"",""1"",""2361""
","
","
","""event"",""trial"",""time""
""fullscreenenter"",""1"",""2361""
","
","","","811.2000000029802","","","22","13457","5869","y","elianto","#f73b6a7A"," "," ","1","-10","[1661.6000000014901]","1","2","","","13457","24","2","3","lose","go","1"
"pit-trial","143","985407","0.0-29.0","battery-v0.2","","""event"",""trial"",""time""
""fullscreenenter"",""1"",""2361""
","
","
","""event"",""trial"",""time""
""fullscreenenter"",""1"",""2361""
","
","","","-1","","","22","13457","5869","h","elianto","#f73b6a7A","-1","-1","1","0","[]","0","2","","","13457","25","3","4","lose","no-go","0"
"pit-trial","144","990264","0.0-30.0","battery-v0.2","","""event"",""trial"",""time""
""fullscreenenter"",""1"",""2361""
","
","
","""event"",""trial"",""time""
""fullscreenenter"",""1"",""2361""
","
","","","-1","","","22","13457","5869","y","elianto","#f73b6a7A"," ","-1","0","0","[]","0","2","","","13457","26","2","3","lose","go","1"
"pit-trial","145","995118","0.0-31.0","battery-v0.2","","""event"",""trial"",""time""
""fullscreenenter"",""1"",""2361""
","
","
","""event"",""trial"",""time""
""fullscreenenter"",""1"",""2361""
","
","","","-1","","","22","13457","5869","m","elianto","#f73b6a7A"," ","-1","0","-10","[]","0","2","","","13457","27","0","3","lose","go","0"
"pit-trial","146","998591","0.0-32.0","battery-v0.2","","""event"",""trial"",""time""
""fullscreenenter"",""1"",""2361""
","
","
","""event"",""trial"",""time""
""fullscreenenter"",""1"",""2361""
","
","","","617.8999999985099","","","22","13457","5869","r","elianto","#3366ff99","-1"," ","0","+10","[1468.1999999955297]","1","2","","","13457","28","1","2","win","no-go","1"
"pit-trial","147","1003448","0.0-33.0","battery-v0.2","","""event"",""trial"",""time""
""fullscreenenter"",""1"",""2361""
","
","
","""event"",""trial"",""time""
""fullscreenenter"",""1"",""2361""
","
","","","-1","","","22","13457","5869","h","elianto","#f73b6a7A","-1","-1","1","0","[]","0","2","","","13457","29","3","4","lose","no-go","0"
"pit-trial","148","1008303","0.0-34.0","battery-v0.2","","""event"",""trial"",""time""
""fullscreenenter"",""1"",""2361""
","
","
","""event"",""trial"",""time""
""fullscreenenter"",""1"",""2361""
","
","","","-1","","","22","13457","5869","y","elianto","#f73b6a7A"," ","-1","0","-10","[]","0","2","","","13457","30","2","3","lose","go","0"
"pit-trial","149","1013159","0.0-35.0","battery-v0.2","","""event"",""trial"",""time""
""fullscreenenter"",""1"",""2361""
","
","
","""event"",""trial"",""time""
""fullscreenenter"",""1"",""2361""
","
","","","-1","","","22","13457","5869","m","elianto","#f73b6a7A"," ","-1","0","-10","[]","0","2","","","13457","31","0","3","lose","go","0"
"pit-trial","150","1016567","0.0-36.0","battery-v0.2","","""event"",""trial"",""time""
""fullscreenenter"",""1"",""2361""
","
","
","""event"",""trial"",""time""
""fullscreenenter"",""1"",""2361""
","
","","","552","","","22","13457","5869","r","elianto","#3366ff99","-1"," ","0","+10","[1404.3000000044703]","1","2","","","13457","32","1","2","win","no-go","1"
"pit-trial","151","1021423","0.0-37.0","battery-v0.2","","""event"",""trial"",""time""
""fullscreenenter"",""1"",""2361""
","
","
","""event"",""trial"",""time""
""fullscreenenter"",""1"",""2361""
","
","","","-1","","","22","13457","5869","h","elianto","#f73b6a7A","-1","-1","1","0","[]","0","2","","","13457","33","3","4","lose","no-go","0"
"pit-trial","152","1025008","0.0-38.0","battery-v0.2","","""event"",""trial"",""time""
""fullscreenenter"",""1"",""2361""
","
","
","""event"",""trial"",""time""
""fullscreenenter"",""1"",""2361""
","
","","","729.1000000014901","","","22","13457","5869","r","elianto","#3366ff99","-1"," ","0","0","[1579.2000000029802]","1","2","","","13457","34","1","2","win","no-go","0"
"pit-trial","153","1028806","0.0-39.0","battery-v0.2","","""event"",""trial"",""time""
""fullscreenenter"",""1"",""2361""
","
","
","""event"",""trial"",""time""
""fullscreenenter"",""1"",""2361""
","
","","","944.5","","","22","13457","5869","y","elianto","#f73b6a7A"," "," ","1","0","[1794.5999999940395]","1","2","","","13457","35","2","3","lose","go","0"
"pit-trial","154","1032358","0.0-40.0","battery-v0.2","","""event"",""trial"",""time""
""fullscreenenter"",""1"",""2361""
","
","
","""event"",""trial"",""time""
""fullscreenenter"",""1"",""2361""
","
","","","694.8999999985099","","","22","13457","5869","m","elianto","#f73b6a7A"," "," ","1","0","[1546.1999999955297]","1","2","","","13457","36","0","3","lose","go","0"
"pit-trial","155","1035723","0.0-41.0","battery-v0.2","","""event"",""trial"",""time""
""fullscreenenter"",""1"",""2361""
","
","
","""event"",""trial"",""time""
""fullscreenenter"",""1"",""2361""
","
","","","509.8999999985099","","","22","13457","5869","r","elianto","#3366ff99","-1"," ","0","0","[1360.5]","1","2","","","13457","37","1","2","win","no-go","0"
"pit-trial","156","1039544","0.0-42.0","battery-v0.2","","""event"",""trial"",""time""
""fullscreenenter"",""1"",""2361""
","
","
","""event"",""trial"",""time""
""fullscreenenter"",""1"",""2361""
","
","","","964.8000000044703","","","22","13457","5869","h","elianto","#f73b6a7A","-1"," ","0","0","[1815.7000000029802]","1","2","","","13457","38","3","4","lose","no-go","1"
"pit-trial","157","1043150","0.0-43.0","battery-v0.2","","""event"",""trial"",""time""
""fullscreenenter"",""1"",""2361""
","
","
","""event"",""trial"",""time""
""fullscreenenter"",""1"",""2361""
","
","","","751.8999999985099","","","22","13457","5869","y","elianto","#f73b6a7A"," "," ","1","0","[1602.5]","1","2","","","13457","39","2","3","lose","go","0"
"pit-trial","158","1046696","0.0-44.0","battery-v0.2","","""event"",""trial"",""time""
""fullscreenenter"",""1"",""2361""
","
","
","""event"",""trial"",""time""
""fullscreenenter"",""1"",""2361""
","
","","","688.6999999955297","","","22","13457","5869","m","elianto","#f73b6a7A"," "," ","1","0","[1540.6999999955297]","1","2","","","13457","40","0","3","lose","go","0"
"pit-trial","159","1050345","0.0-45.0","battery-v0.2","","""event"",""trial"",""time""
""fullscreenenter"",""1"",""2361""
","
","
","""event"",""trial"",""time""
""fullscreenenter"",""1"",""2361""
","
","","","794.2000000029802","","","22","13457","5869","y","elianto","#f73b6a7A"," "," ","1","0","[1644.7000000029802]","1","2","","","13457","41","2","3","lose","go","0"
"pit-trial","160","1053732","0.0-46.0","battery-v0.2","","""event"",""trial"",""time""
""fullscreenenter"",""1"",""2361""
","
","
","""event"",""trial"",""time""
""fullscreenenter"",""1"",""2361""
","
","","","532.2999999970198","","","22","13457","5869","r","elianto","#3366ff99","-1"," ","0","0","[1383.1999999955297]","1","2","","","13457","42","1","2","win","no-go","0"
"pit-trial","161","1057304","0.0-47.0","battery-v0.2","","""event"",""trial"",""time""
""fullscreenenter"",""1"",""2361""
","
","
","""event"",""trial"",""time""
""fullscreenenter"",""1"",""2361""
","
","","","715.2999999970198","","","22","13457","5869","m","elianto","#f73b6a7A"," "," ","1","0","[1567.0999999940395]","1","2","","","13457","43","0","3","lose","go","0"
"pit-trial","162","1060985","0.0-48.0","battery-v0.2","","""event"",""trial"",""time""
""fullscreenenter"",""1"",""2361""
","
","
","""event"",""trial"",""time""
""fullscreenenter"",""1"",""2361""
","
","","","825.2999999970198","","","22","13457","5869","h","elianto","#f73b6a7A","-1"," ","0","-10","[1676.7000000029802]","1","2","","","13457","44","3","4","lose","no-go","0"
"pit-trial","163","1065841","0.0-49.0","battery-v0.2","","""event"",""trial"",""time""
""fullscreenenter"",""1"",""2361""
","
","
","""event"",""trial"",""time""
""fullscreenenter"",""1"",""2361""
","
","","","-1","","","22","13457","5869","h","elianto","#f73b6a7A","-1","-1","1","-10","[]","0","2","","","13457","45","3","4","lose","no-go","1"
"pit-trial","164","1069392","0.0-50.0","battery-v0.2","","""event"",""trial"",""time""
""fullscreenenter"",""1"",""2361""
","
","
","""event"",""trial"",""time""
""fullscreenenter"",""1"",""2361""
","
","","","696","","","22","13457","5869","y","elianto","#f73b6a7A"," "," ","1","0","[1547.1000000014901]","1","2","","","13457","46","2","3","lose","go","0"
"pit-trial","165","1073060","0.0-51.0","battery-v0.2","","""event"",""trial"",""time""
""fullscreenenter"",""1"",""2361""
","
","
","""event"",""trial"",""time""
""fullscreenenter"",""1"",""2361""
","
","","","812.8000000044703","","","22","13457","5869","m","elianto","#f73b6a7A"," "," ","1","0","[1663.8000000044703]","1","2","","","13457","47","0","3","lose","go","0"
"pit-trial","166","1076539","0.0-52.0","battery-v0.2","","""event"",""trial"",""time""
""fullscreenenter"",""1"",""2361""
","
","
","""event"",""trial"",""time""
""fullscreenenter"",""1"",""2361""
","
","","","622.2999999970198","","","22","13457","5869","r","elianto","#3366ff99","-1"," ","0","+10","[1473.6000000014901]","1","2","","","13457","48","1","2","win","no-go","1"
"pit-trial","167","1080236","0.0-53.0","battery-v0.2","","""event"",""trial"",""time""
""fullscreenenter"",""1"",""2361""
","
","
","""event"",""trial"",""time""
""fullscreenenter"",""1"",""2361""
","
","","","841.1000000014901","","","22","13457","5869","y","elianto","#f73b6a7A"," "," ","1","0","[1692.7999999970198]","1","2","","","13457","49","2","3","lose","go","0"
"pit-trial","168","1084511","0.0-54.0","battery-v0.2","","""event"",""trial"",""time""
""fullscreenenter"",""1"",""2361""
","
","
","""event"",""trial"",""time""
""fullscreenenter"",""1"",""2361""
","
","","","1420.5","","","22","13457","5869","h","elianto","#f73b6a7A","-1"," ","0","-10","[2272]","1","2","","","13457","50","3","4","lose","no-go","0"
"pit-trial","169","1089366","0.0-55.0","battery-v0.2","","""event"",""trial"",""time""
""fullscreenenter"",""1"",""2361""
","
","
","""event"",""trial"",""time""
""fullscreenenter"",""1"",""2361""
","
","","","-1","","","22","13457","5869","m","elianto","#f73b6a7A"," ","-1","0","-10","[]","0","2","","","13457","51","0","3","lose","go","0"
"pit-trial","170","1092726","0.0-56.0","battery-v0.2","","""event"",""trial"",""time""
""fullscreenenter"",""1"",""2361""
","
","
","""event"",""trial"",""time""
""fullscreenenter"",""1"",""2361""
","
","","","504.1000000014901","","","22","13457","5869","r","elianto","#3366ff99","-1"," ","0","0","[1355.7000000029802]","1","2","","","13457","52","1","2","win","no-go","0"
"pit-trial","171","1097581","0.0-57.0","battery-v0.2","","""event"",""trial"",""time""
""fullscreenenter"",""1"",""2361""
","
","
","""event"",""trial"",""time""
""fullscreenenter"",""1"",""2361""
","
","","","-1","","","22","13457","5869","m","elianto","#f73b6a7A"," ","-1","0","-10","[]","0","2","","","13457","53","0","3","lose","go","0"
"pit-trial","172","1101003","0.0-58.0","battery-v0.2","","""event"",""trial"",""time""
""fullscreenenter"",""1"",""2361""
","
","
","""event"",""trial"",""time""
""fullscreenenter"",""1"",""2361""
","
","","","566.6000000014901","","","22","13457","5869","r","elianto","#3366ff99","-1"," ","0","0","[1417.2999999970198]","1","2","","","13457","54","1","2","win","no-go","0"
"pit-trial","173","1105858","0.0-59.0","battery-v0.2","","""event"",""trial"",""time""
""fullscreenenter"",""1"",""2361""
","
","
","""event"",""trial"",""time""
""fullscreenenter"",""1"",""2361""
","
","","","-1","","","22","13457","5869","h","elianto","#f73b6a7A","-1","-1","1","-10","[]","0","2","","","13457","55","3","4","lose","no-go","1"
"pit-trial","174","1109762","0.0-60.0","battery-v0.2","","""event"",""trial"",""time""
""fullscreenenter"",""1"",""2361""
","
","
","""event"",""trial"",""time""
""fullscreenenter"",""1"",""2361""
","
","","","1050","","","22","13457","5869","y","elianto","#f73b6a7A"," "," ","1","0","[1900.6999999955297]","1","2","","","13457","56","2","3","lose","go","0"
"pit-trial","175","1113299","0.0-61.0","battery-v0.2","","""event"",""trial"",""time""
""fullscreenenter"",""1"",""2361""
","
","
","""event"",""trial"",""time""
""fullscreenenter"",""1"",""2361""
","
","","","682.8999999985099","","","22","13457","5869","y","elianto","#f73b6a7A"," "," ","1","0","[1533.3999999985099]","1","2","","","13457","57","2","3","lose","go","0"
"pit-trial","176","1116909","0.0-62.0","battery-v0.2","","""event"",""trial"",""time""
""fullscreenenter"",""1"",""2361""
","
","
","""event"",""trial"",""time""
""fullscreenenter"",""1"",""2361""
","
","","","753.2000000029802","","","22","13457","5869","z","elianto","#3366ff99"," "," ","1","+10","[1604.5]","1","2","","","13457","58","4","1","win","go","0"
"pit-trial","177","1120577","0.0-63.0","battery-v0.2","","""event"",""trial"",""time""
""fullscreenenter"",""1"",""2361""
","
","
","""event"",""trial"",""time""
""fullscreenenter"",""1"",""2361""
","
","","","812.7999999970198","","","22","13457","5869","h","elianto","#f73b6a7A","-1"," ","0","-10","[1663.3000000044703]","1","2","","","13457","59","3","4","lose","no-go","0"
"pit-trial","178","1124333","0.0-64.0","battery-v0.2","","""event"",""trial"",""time""
""fullscreenenter"",""1"",""2361""
","
","
","""event"",""trial"",""time""
""fullscreenenter"",""1"",""2361""
","
","","","899.6000000014901","","","22","13457","5869","m","elianto","#f73b6a7A"," "," ","1","0","[1751.3999999985099]","1","2","","","13457","60","0","3","lose","go","0"
"pit-trial","179","1128056","0.0-65.0","battery-v0.2","","""event"",""trial"",""time""
""fullscreenenter"",""1"",""2361""
","
","
","""event"",""trial"",""time""
""fullscreenenter"",""1"",""2361""
","
","","","867.3000000044703","","","22","13457","5869","y","elianto","#f73b6a7A"," "," ","1","0","[1718.2000000029802]","1","2","","","13457","61","2","3","lose","go","0"
"pit-trial","180","1131459","0.0-66.0","battery-v0.2","","""event"",""trial"",""time""
""fullscreenenter"",""1"",""2361""
","
","
","""event"",""trial"",""time""
""fullscreenenter"",""1"",""2361""
","
","","","546.5","","","22","13457","5869","r","elianto","#3366ff99","-1"," ","0","0","[1398.2000000029802]","1","2","","","13457","62","1","2","win","no-go","0"
"pit-trial","181","1136313","0.0-67.0","battery-v0.2","","""event"",""trial"",""time""
""fullscreenenter"",""1"",""2361""
","
","
","""event"",""trial"",""time""
""fullscreenenter"",""1"",""2361""
","
","","","-1","","","22","13457","5869","h","elianto","#f73b6a7A","-1","-1","1","0","[]","0","2","","","13457","63","3","4","lose","no-go","0"
"pit-trial","182","1139799","0.0-68.0","battery-v0.2","","""event"",""trial"",""time""
""fullscreenenter"",""1"",""2361""
","
","
","""event"",""trial"",""time""
""fullscreenenter"",""1"",""2361""
","
","","","629.7000000029802","","","22","13457","5869","z","elianto","#3366ff99"," "," ","1","+10","[1480.8999999985099]","1","2","","","13457","64","4","1","win","go","0"
"pit-trial","183","1143262","0.0-69.0","battery-v0.2","","""event"",""trial"",""time""
""fullscreenenter"",""1"",""2361""
","
","
","""event"",""trial"",""time""
""fullscreenenter"",""1"",""2361""
","
","","","607.1000000014901","","","22","13457","5869","z","elianto","#3366ff99"," "," ","1","0","[1457.6999999955297]","1","2","","","13457","65","4","1","win","go","1"
"pit-trial","184","1146813","0.0-70.0","battery-v0.2","","""event"",""trial"",""time""
""fullscreenenter"",""1"",""2361""
","
","
","""event"",""trial"",""time""
""fullscreenenter"",""1"",""2361""
","
","","","692.5","","","22","13457","5869","r","elianto","#3366ff99","-1"," ","0","0","[1548.5]","1","2","","","13457","66","1","2","win","no-go","0"
"pit-trial","185","1150385","0.0-71.0","battery-v0.2","","""event"",""trial"",""time""
""fullscreenenter"",""1"",""2361""
","
","
","""event"",""trial"",""time""
""fullscreenenter"",""1"",""2361""
","
","","","716.3999999985099","","","22","13457","5869","c","elianto","#3366ff99","-1"," ","0","+10","[1567.1000000014901]","1","2","","","13457","67","5","2","win","no-go","1"
"pit-trial","186","1155242","0.0-72.0","battery-v0.2","","""event"",""trial"",""time""
""fullscreenenter"",""1"",""2361""
","
","
","""event"",""trial"",""time""
""fullscreenenter"",""1"",""2361""
","
","","","-1","","","22","13457","5869","h","elianto","#f73b6a7A","-1","-1","1","-10","[]","0","2","","","13457","68","3","4","lose","no-go","1"
"pit-trial","187","1158640","0.0-73.0","battery-v0.2","","""event"",""trial"",""time""
""fullscreenenter"",""1"",""2361""
","
","
","""event"",""trial"",""time""
""fullscreenenter"",""1"",""2361""
","
","","","543.1000000014901","","","22","13457","5869","c","elianto","#3366ff99","-1"," ","0","0","[1393.2999999970198]","1","2","","","13457","69","5","2","win","no-go","0"
"pit-trial","188","1163495","0.0-74.0","battery-v0.2","","""event"",""trial"",""time""
""fullscreenenter"",""1"",""2361""
","
","
","""event"",""trial"",""time""
""fullscreenenter"",""1"",""2361""
","
","","","-1","","","22","13457","5869","r","elianto","#3366ff99","-1","-1","1","+10","[]","0","2","","","13457","70","1","2","win","no-go","0"
"pit-trial","189","1168351","0.0-75.0","battery-v0.2","","""event"",""trial"",""time""
""fullscreenenter"",""1"",""2361""
","
","
","""event"",""trial"",""time""
""fullscreenenter"",""1"",""2361""
","
","","","-1","","","22","13457","5869","z","elianto","#3366ff99"," ","-1","0","+10","[]","0","2","","","13457","71","4","1","win","go","1"
"pit-trial","190","1173206","0.0-76.0","battery-v0.2","","""event"",""trial"",""time""
""fullscreenenter"",""1"",""2361""
","
","
","""event"",""trial"",""time""
""fullscreenenter"",""1"",""2361""
","
","","","-1","","","22","13457","5869","y","elianto","#f73b6a7A"," ","-1","0","0","[]","0","2","","","13457","72","2","3","lose","go","1"
"pit-trial","191","1178063","0.0-77.0","battery-v0.2","","""event"",""trial"",""time""
""fullscreenenter"",""1"",""2361""
","
","
","""event"",""trial"",""time""
""fullscreenenter"",""1"",""2361""
","
","","","-1","","","22","13457","5869","c","elianto","#3366ff99","-1","-1","1","+10","[]","0","2","","","13457","73","5","2","win","no-go","0"
"pit-trial","192","1182141","0.0-78.0","battery-v0.2","","""event"",""trial"",""time""
""fullscreenenter"",""1"",""2361""
","
","
","""event"",""trial"",""time""
""fullscreenenter"",""1"",""2361""
","
","","","1223.4000000059605","","","22","13457","5869","r","elianto","#3366ff99","-1"," ","0","0","[2074.2000000029802]","1","2","","","13457","74","1","2","win","no-go","0"
"pit-trial","193","1186998","0.0-79.0","battery-v0.2","","""event"",""trial"",""time""
""fullscreenenter"",""1"",""2361""
","
","
","""event"",""trial"",""time""
""fullscreenenter"",""1"",""2361""
","
","","","-1","","","22","13457","5869","z","elianto","#3366ff99"," ","-1","0","0","[]","0","2","","","13457","75","4","1","win","go","0"
"pit-trial","194","1191854","0.0-80.0","battery-v0.2","","""event"",""trial"",""time""
""fullscreenenter"",""1"",""2361""
","
","
","""event"",""trial"",""time""
""fullscreenenter"",""1"",""2361""
","
","","","-1","","","22","13457","5869","h","elianto","#f73b6a7A","-1","-1","1","0","[]","0","2","","","13457","76","3","4","lose","no-go","0"
"pit-trial","195","1195940","0.0-81.0","battery-v0.2","","""event"",""trial"",""time""
""fullscreenenter"",""1"",""2361""
","
","
","""event"",""trial"",""time""
""fullscreenenter"",""1"",""2361""
","
","","","1231.1000000014901","","","22","13457","5869","z","elianto","#3366ff99"," "," ","1","+10","[2082.2999999970198]","1","2","","","13457","77","4","1","win","go","0"
"pit-trial","196","1200797","0.0-82.0","battery-v0.2","","""event"",""trial"",""time""
""fullscreenenter"",""1"",""2361""
","
","
","""event"",""trial"",""time""
""fullscreenenter"",""1"",""2361""
","
","","","-1","","","22","13457","5869","h","elianto","#f73b6a7A","-1","-1","1","0","[]","0","2","","","13457","78","3","4","lose","no-go","0"
"pit-trial","197","1205651","0.0-83.0","battery-v0.2","","""event"",""trial"",""time""
""fullscreenenter"",""1"",""2361""
","
","
","""event"",""trial"",""time""
""fullscreenenter"",""1"",""2361""
","
","","","-1","","","22","13457","5869","c","elianto","#3366ff99","-1","-1","1","+10","[]","0","2","","","13457","79","5","2","win","no-go","0"
"pit-trial","198","1210507","0.0-84.0","battery-v0.2","","""event"",""trial"",""time""
""fullscreenenter"",""1"",""2361""
","
","
","""event"",""trial"",""time""
""fullscreenenter"",""1"",""2361""
","
","","","-1","","","22","13457","5869","z","elianto","#3366ff99"," ","-1","0","0","[]","0","2","","","13457","80","4","1","win","go","0"
"pit-trial","199","1214656","0.0-85.0","battery-v0.2","","""event"",""trial"",""time""
""fullscreenenter"",""1"",""2361""
","
","
","""event"",""trial"",""time""
""fullscreenenter"",""1"",""2361""
","
","","","1293","","","22","13457","5869","t","elianto","#f73b6a7A","-1"," ","0","0","[2144.3000000044703]","1","2","","","13457","81","7","4","lose","no-go","1"
"pit-trial","200","1219512","0.0-86.0","battery-v0.2","","""event"",""trial"",""time""
""fullscreenenter"",""1"",""2361""
","
","
","""event"",""trial"",""time""
""fullscreenenter"",""1"",""2361""
","
","","","-1","","","22","13457","5869","z","elianto","#3366ff99"," ","-1","0","0","[]","0","2","","","13457","82","4","1","win","go","0"
"pit-trial","201","1224368","0.0-87.0","battery-v0.2","","""event"",""trial"",""time""
""fullscreenenter"",""1"",""2361""
","
","
","""event"",""trial"",""time""
""fullscreenenter"",""1"",""2361""
","
","","","-1","","","22","13457","5869","c","elianto","#3366ff99","-1","-1","1","+10","[]","0","2","","","13457","83","5","2","win","no-go","0"
"pit-trial","202","1229225","0.0-88.0","battery-v0.2","","""event"",""trial"",""time""
""fullscreenenter"",""1"",""2361""
","
","
","""event"",""trial"",""time""
""fullscreenenter"",""1"",""2361""
","
","","","-1","","","22","13457","5869","h","elianto","#f73b6a7A","-1","-1","1","0","[]","0","2","","","13457","84","3","4","lose","no-go","0"
"pit-trial","203","1234081","0.0-89.0","battery-v0.2","","""event"",""trial"",""time""
""fullscreenenter"",""1"",""2361""
","
","
","""event"",""trial"",""time""
""fullscreenenter"",""1"",""2361""
","
","","","-1","","","22","13457","5869","t","elianto","#f73b6a7A","-1","-1","1","0","[]","0","2","","","13457","85","7","4","lose","no-go","0"
"pit-trial","204","1238937","0.0-90.0","battery-v0.2","","""event"",""trial"",""time""
""fullscreenenter"",""1"",""2361""
","
","
","""event"",""trial"",""time""
""fullscreenenter"",""1"",""2361""
","
","","","-1","","","22","13457","5869","c","elianto","#3366ff99","-1","-1","1","+10","[]","0","2","","","13457","86","5","2","win","no-go","0"
"pit-trial","205","1243793","0.0-91.0","battery-v0.2","","""event"",""trial"",""time""
""fullscreenenter"",""1"",""2361""
","
","
","""event"",""trial"",""time""
""fullscreenenter"",""1"",""2361""
","
","","","-1","","","22","13457","5869","z","elianto","#3366ff99"," ","-1","0","0","[]","0","2","","","13457","87","4","1","win","go","0"
"pit-trial","206","1247970","0.0-92.0","battery-v0.2","","""event"",""trial"",""time""
""fullscreenenter"",""1"",""2361""
","
","
","""event"",""trial"",""time""
""fullscreenenter"",""1"",""2361""
","
","","","1321.6000000014901","","","22","13457","5869","b","elianto","#f73b6a7A"," "," ","1","-10","[2171.7999999970198]","1","2","","","13457","88","6","3","lose","go","1"
"pit-trial","207","1252825","0.0-93.0","battery-v0.2","","""event"",""trial"",""time""
""fullscreenenter"",""1"",""2361""
","
","
","""event"",""trial"",""time""
""fullscreenenter"",""1"",""2361""
","
","","","-1","","","22","13457","5869","b","elianto","#f73b6a7A"," ","-1","0","0","[]","0","2","","","13457","89","6","3","lose","go","1"
"pit-trial","208","1256351","0.0-94.0","battery-v0.2","","""event"",""trial"",""time""
""fullscreenenter"",""1"",""2361""
","
","
","""event"",""trial"",""time""
""fullscreenenter"",""1"",""2361""
","
","","","671.3000000044703","","","22","13457","5869","z","elianto","#3366ff99"," "," ","1","0","[1522.4000000059605]","1","2","","","13457","90","4","1","win","go","1"
"pit-trial","209","1261207","0.0-95.0","battery-v0.2","","""event"",""trial"",""time""
""fullscreenenter"",""1"",""2361""
","
","
","""event"",""trial"",""time""
""fullscreenenter"",""1"",""2361""
","
","","","-1","","","22","13457","5869","c","elianto","#3366ff99","-1","-1","1","+10","[]","0","2","","","13457","91","5","2","win","no-go","0"
"pit-trial","210","1266063","0.0-96.0","battery-v0.2","","""event"",""trial"",""time""
""fullscreenenter"",""1"",""2361""
","
","
","""event"",""trial"",""time""
""fullscreenenter"",""1"",""2361""
","
","","","-1","","","22","13457","5869","t","elianto","#f73b6a7A","-1","-1","1","-10","[]","0","2","","","13457","92","7","4","lose","no-go","1"
"pit-trial","211","1270920","0.0-97.0","battery-v0.2","","""event"",""trial"",""time""
""fullscreenenter"",""1"",""2361""
","
","
","""event"",""trial"",""time""
""fullscreenenter"",""1"",""2361""
","
","","","-1","","","22","13457","5869","t","elianto","#f73b6a7A","-1","-1","1","0","[]","0","2","","","13457","93","7","4","lose","no-go","0"
"pit-trial","212","1275775","0.0-98.0","battery-v0.2","","""event"",""trial"",""time""
""fullscreenenter"",""1"",""2361""
","
","
","""event"",""trial"",""time""
""fullscreenenter"",""1"",""2361""
","
","","","-1","","","22","13457","5869","c","elianto","#3366ff99","-1","-1","1","0","[]","0","2","","","13457","94","5","2","win","no-go","1"
"pit-trial","213","1279854","0.0-99.0","battery-v0.2","","""event"",""trial"",""time""
""fullscreenenter"",""1"",""2361""
","
","
","""event"",""trial"",""time""
""fullscreenenter"",""1"",""2361""
","
","","","1225","","","22","13457","5869","f","elianto","#3366ff99"," "," ","1","0","[2075.7000000029802]","1","2","","","13457","95","8","1","win","go","1"
"pit-trial","214","1284710","0.0-100.0","battery-v0.2","","""event"",""trial"",""time""
""fullscreenenter"",""1"",""2361""
","
","
","""event"",""trial"",""time""
""fullscreenenter"",""1"",""2361""
","
","","","-1","","","22","13457","5869","b","elianto","#f73b6a7A"," ","-1","0","-10","[]","0","2","","","13457","96","6","3","lose","go","0"
"pit-trial","215","1289567","0.0-101.0","battery-v0.2","","""event"",""trial"",""time""
""fullscreenenter"",""1"",""2361""
","
","
","""event"",""trial"",""time""
""fullscreenenter"",""1"",""2361""
","
","","","-1","","","22","13457","5869","t","elianto","#f73b6a7A","-1","-1","1","0","[]","0","2","","","13457","97","7","4","lose","no-go","0"
"pit-trial","216","1293595","0.0-102.0","battery-v0.2","","""event"",""trial"",""time""
""fullscreenenter"",""1"",""2361""
","
","
","""event"",""trial"",""time""
""fullscreenenter"",""1"",""2361""
","
","","","1172.7999999970198","","","22","13457","5869","f","elianto","#3366ff99"," "," ","1","+10","[2023.7000000029802]","1","2","","","13457","98","8","1","win","go","0"
"pit-trial","217","1298451","0.0-103.0","battery-v0.2","","""event"",""trial"",""time""
""fullscreenenter"",""1"",""2361""
","
","
","""event"",""trial"",""time""
""fullscreenenter"",""1"",""2361""
","
","","","-1","","","22","13457","5869","b","elianto","#f73b6a7A"," ","-1","0","-10","[]","0","2","","","13457","99","6","3","lose","go","0"
"pit-trial","218","1303307","0.0-104.0","battery-v0.2","","""event"",""trial"",""time""
""fullscreenenter"",""1"",""2361""
","
","
","""event"",""trial"",""time""
""fullscreenenter"",""1"",""2361""
","
","","","-1","","","22","13457","5869","c","elianto","#3366ff99","-1","-1","1","+10","[]","0","2","","","13457","100","5","2","win","no-go","0"
"pit-trial","219","1308163","0.0-105.0","battery-v0.2","","""event"",""trial"",""time""
""fullscreenenter"",""1"",""2361""
","
","
","""event"",""trial"",""time""
""fullscreenenter"",""1"",""2361""
","
","","","-1","","","22","13457","5869","t","elianto","#f73b6a7A","-1","-1","1","0","[]","0","2","","","13457","101","7","4","lose","no-go","0"
"pit-trial","220","1311635","0.0-106.0","battery-v0.2","","""event"",""trial"",""time""
""fullscreenenter"",""1"",""2361""
","
","
","""event"",""trial"",""time""
""fullscreenenter"",""1"",""2361""
","
","","","617.6000000014901","","","22","13457","5869","f","elianto","#3366ff99"," "," ","1","+10","[1467.7000000029802]","1","2","","","13457","102","8","1","win","go","0"
"pit-trial","221","1316491","0.0-107.0","battery-v0.2","","""event"",""trial"",""time""
""fullscreenenter"",""1"",""2361""
","
","
","""event"",""trial"",""time""
""fullscreenenter"",""1"",""2361""
","
","","","-1","","","22","13457","5869","c","elianto","#3366ff99","-1","-1","1","+10","[]","0","2","","","13457","103","5","2","win","no-go","0"
"pit-trial","222","1320521","0.0-108.0","battery-v0.2","","""event"",""trial"",""time""
""fullscreenenter"",""1"",""2361""
","
","
","""event"",""trial"",""time""
""fullscreenenter"",""1"",""2361""
","
","","","1174.3000000044703","","","22","13457","5869","n","elianto","#3366ff99"," "," ","1","+10","[2025.2000000029802]","1","2","","","13457","104","9","1","win","go","0"
"pit-trial","223","1324731","0.0-109.0","battery-v0.2","","""event"",""trial"",""time""
""fullscreenenter"",""1"",""2361""
","
","
","""event"",""trial"",""time""
""fullscreenenter"",""1"",""2361""
","
","","","1354.7000000029802","","","22","13457","5869","b","elianto","#f73b6a7A"," "," ","1","0","[2205.60000000149]","1","2","","","13457","105","6","3","lose","go","0"
"pit-trial","224","1329587","0.0-110.0","battery-v0.2","","""event"",""trial"",""time""
""fullscreenenter"",""1"",""2361""
","
","
","""event"",""trial"",""time""
""fullscreenenter"",""1"",""2361""
","
","","","-1","","","22","13457","5869","z","elianto","#3366ff99"," ","-1","0","0","[]","0","2","","","13457","106","4","1","win","go","0"
"pit-trial","225","1333272","0.0-111.0","battery-v0.2","","""event"",""trial"",""time""
""fullscreenenter"",""1"",""2361""
","
","
","""event"",""trial"",""time""
""fullscreenenter"",""1"",""2361""
","
","","","829.8000000044703","","","22","13457","5869","f","elianto","#3366ff99"," "," ","1","+10","[1681.3000000044703]","1","2","","","13457","107","8","1","win","go","0"
"pit-trial","226","1337010","0.0-112.0","battery-v0.2","","""event"",""trial"",""time""
""fullscreenenter"",""1"",""2361""
","
","
","""event"",""trial"",""time""
""fullscreenenter"",""1"",""2361""
","
","","","882.1000000014901","","","22","13457","5869","n","elianto","#3366ff99"," "," ","1","+10","[1733.7999999970198]","1","2","","","13457","108","9","1","win","go","0"
"pit-trial","227","1341028","0.0-113.0","battery-v0.2","","""event"",""trial"",""time""
""fullscreenenter"",""1"",""2361""
","
","
","""event"",""trial"",""time""
""fullscreenenter"",""1"",""2361""
","
","","","1163.3000000044703","","","22","13457","5869","f","elianto","#3366ff99"," "," ","1","+10","[2013.8000000044703]","1","2","","","13457","109","8","1","win","go","0"
"pit-trial","228","1344749","0.0-114.0","battery-v0.2","","""event"",""trial"",""time""
""fullscreenenter"",""1"",""2361""
","
","
","""event"",""trial"",""time""
""fullscreenenter"",""1"",""2361""
","
","","","866.2999999970198","","","22","13457","5869","n","elianto","#3366ff99"," "," ","1","+10","[1716.7000000029802]","1","2","","","13457","110","9","1","win","go","0"
"pit-trial","229","1349604","0.0-115.0","battery-v0.2","","""event"",""trial"",""time""
""fullscreenenter"",""1"",""2361""
","
","
","""event"",""trial"",""time""
""fullscreenenter"",""1"",""2361""
","
","","","-1","","","22","13457","5869","c","elianto","#3366ff99","-1","-1","1","+10","[]","0","2","","","13457","111","5","2","win","no-go","0"
"pit-trial","230","1353971","0.0-116.0","battery-v0.2","","""event"",""trial"",""time""
""fullscreenenter"",""1"",""2361""
","
","
","""event"",""trial"",""time""
""fullscreenenter"",""1"",""2361""
","
","","","1510.8999999985099","","","22","13457","5869","b","elianto","#f73b6a7A"," "," ","1","0","[2362.5]","1","2","","","13457","112","6","3","lose","go","0"
"pit-trial","231","1357544","0.0-117.0","battery-v0.2","","""event"",""trial"",""time""
""fullscreenenter"",""1"",""2361""
","
","
","""event"",""trial"",""time""
""fullscreenenter"",""1"",""2361""
","
","","","717.3999999985099","","","22","13457","5869","n","elianto","#3366ff99"," "," ","1","+10","[1568.3999999985099]","1","2","","","13457","113","9","1","win","go","0"
"pit-trial","232","1361170","0.0-118.0","battery-v0.2","","""event"",""trial"",""time""
""fullscreenenter"",""1"",""2361""
","
","
","""event"",""trial"",""time""
""fullscreenenter"",""1"",""2361""
","
","","","771","","","22","13457","5869","b","elianto","#f73b6a7A"," "," ","1","0","[1621.6000000014901]","1","2","","","13457","114","6","3","lose","go","0"
"pit-trial","233","1366025","0.0-119.0","battery-v0.2","","""event"",""trial"",""time""
""fullscreenenter"",""1"",""2361""
","
","
","""event"",""trial"",""time""
""fullscreenenter"",""1"",""2361""
","
","","","-1","","","22","13457","5869","c","elianto","#3366ff99","-1","-1","1","+10","[]","0","2","","","13457","115","5","2","win","no-go","0"
"pit-trial","234","1369889","0.0-120.0","battery-v0.2","","""event"",""trial"",""time""
""fullscreenenter"",""1"",""2361""
","
","
","""event"",""trial"",""time""
""fullscreenenter"",""1"",""2361""
","
","","","1007.1000000014901","","","22","13457","5869","f","elianto","#3366ff99"," "," ","1","+10","[1859.6000000014901]","1","2","","","13457","116","8","1","win","go","0"
"pit-trial","235","1373468","0.0-121.0","battery-v0.2","","""event"",""trial"",""time""
""fullscreenenter"",""1"",""2361""
","
","
","""event"",""trial"",""time""
""fullscreenenter"",""1"",""2361""
","
","","","724.1000000014901","","","22","13457","5869","f","elianto","#3366ff99"," "," ","1","+10","[1575]","1","2","","","13457","117","8","1","win","go","0"
"pit-trial","236","1378325","0.0-122.0","battery-v0.2","","""event"",""trial"",""time""
""fullscreenenter"",""1"",""2361""
","
","
","""event"",""trial"",""time""
""fullscreenenter"",""1"",""2361""
","
","","","-1","","","22","13457","5869","c","elianto","#3366ff99","-1","-1","1","0","[]","0","2","","","13457","118","5","2","win","no-go","1"
"pit-trial","237","1382029","0.0-123.0","battery-v0.2","","""event"",""trial"",""time""
""fullscreenenter"",""1"",""2361""
","
","
","""event"",""trial"",""time""
""fullscreenenter"",""1"",""2361""
","
","","","848.3999999985099","","","22","13457","5869","b","elianto","#f73b6a7A"," "," ","1","0","[1698.7000000029802]","1","2","","","13457","119","6","3","lose","go","0"
"pit-trial","238","1385526","0.0-124.0","battery-v0.2","","""event"",""trial"",""time""
""fullscreenenter"",""1"",""2361""
","
","
","""event"",""trial"",""time""
""fullscreenenter"",""1"",""2361""
","
","","","642","","","22","13457","5869","n","elianto","#3366ff99"," "," ","1","0","[1492.2000000029802]","1","2","","","13457","120","9","1","win","go","1"
"pit-trial","239","1389122","0.0-125.0","battery-v0.2","","""event"",""trial"",""time""
""fullscreenenter"",""1"",""2361""
","
","
","""event"",""trial"",""time""
""fullscreenenter"",""1"",""2361""
","
","","","739.0999999940395","","","22","13457","5869","b","elianto","#f73b6a7A"," "," ","1","0","[1591.6999999955297]","1","2","","","13457","121","6","3","lose","go","0"
"pit-trial","240","1392646","0.0-126.0","battery-v0.2","","""event"",""trial"",""time""
""fullscreenenter"",""1"",""2361""
","
","
","""event"",""trial"",""time""
""fullscreenenter"",""1"",""2361""
","
","","","667.7000000029802","","","22","13457","5869","n","elianto","#3366ff99"," "," ","1","+10","[1518.7999999970198]","1","2","","","13457","122","9","1","win","go","0"
"pit-trial","241","1397502","0.0-127.0","battery-v0.2","","""event"",""trial"",""time""
""fullscreenenter"",""1"",""2361""
","
","
","""event"",""trial"",""time""
""fullscreenenter"",""1"",""2361""
","
","","","-1","","","22","13457","5869","t","elianto","#f73b6a7A","-1","-1","1","0","[]","0","2","","","13457","123","7","4","lose","no-go","0"
"pit-trial","242","1401096","0.0-128.0","battery-v0.2","","""event"",""trial"",""time""
""fullscreenenter"",""1"",""2361""
","
","
","""event"",""trial"",""time""
""fullscreenenter"",""1"",""2361""
","
","","","738.5","","","22","13457","5869","f","elianto","#3366ff99"," "," ","1","+10","[1589]","1","2","","","13457","124","8","1","win","go","0"
"pit-trial","243","1405146","0.0-129.0","battery-v0.2","","""event"",""trial"",""time""
""fullscreenenter"",""1"",""2361""
","
","
","""event"",""trial"",""time""
""fullscreenenter"",""1"",""2361""
","
","","","1193.8000000044703","","","22","13457","5869","b","elianto","#f73b6a7A"," "," ","1","0","[2044.4000000059605]","1","2","","","13457","125","6","3","lose","go","0"
"pit-trial","244","1408612","0.0-130.0","battery-v0.2","","""event"",""trial"",""time""
""fullscreenenter"",""1"",""2361""
","
","
","""event"",""trial"",""time""
""fullscreenenter"",""1"",""2361""
","
","","","611.3999999985099","","","22","13457","5869","n","elianto","#3366ff99"," "," ","1","+10","[1461.7999999970198]","1","2","","","13457","126","9","1","win","go","0"
"pit-trial","245","1413470","0.0-131.0","battery-v0.2","","""event"",""trial"",""time""
""fullscreenenter"",""1"",""2361""
","
","
","""event"",""trial"",""time""
""fullscreenenter"",""1"",""2361""
","
","","","-1","","","22","13457","5869","t","elianto","#f73b6a7A","-1","-1","1","0","[]","0","2","","","13457","127","7","4","lose","no-go","0"
"pit-trial","246","1416862","0.0-132.0","battery-v0.2","","""event"",""trial"",""time""
""fullscreenenter"",""1"",""2361""
","
","
","""event"",""trial"",""time""
""fullscreenenter"",""1"",""2361""
","
","","","537.3999999985099","","","22","13457","5869","f","elianto","#3366ff99"," "," ","1","+10","[1387.6000000014901]","1","2","","","13457","128","8","1","win","go","0"
"pit-trial","247","1421719","0.0-133.0","battery-v0.2","","""event"",""trial"",""time""
""fullscreenenter"",""1"",""2361""
","
","
","""event"",""trial"",""time""
""fullscreenenter"",""1"",""2361""
","
","","","-1","","","22","13457","5869","t","elianto","#f73b6a7A","-1","-1","1","0","[]","0","2","","","13457","129","7","4","lose","no-go","0"
"pit-trial","248","1425126","0.0-134.0","battery-v0.2","","""event"",""trial"",""time""
""fullscreenenter"",""1"",""2361""
","
","
","""event"",""trial"",""time""
""fullscreenenter"",""1"",""2361""
","
","","","552","","","22","13457","5869","n","elianto","#3366ff99"," "," ","1","+10","[1402.7999999970198]","1","2","","","13457","130","9","1","win","go","0"
"pit-trial","249","1428664","0.0-135.0","battery-v0.2","","""event"",""trial"",""time""
""fullscreenenter"",""1"",""2361""
","
","
","""event"",""trial"",""time""
""fullscreenenter"",""1"",""2361""
","
","","","682.1000000014901","","","22","13457","5869","f","elianto","#3366ff99"," "," ","1","+10","[1532.5]","1","2","","","13457","131","8","1","win","go","0"
"pit-trial","250","1432480","0.0-136.0","battery-v0.2","","""event"",""trial"",""time""
""fullscreenenter"",""1"",""2361""
","
","
","""event"",""trial"",""time""
""fullscreenenter"",""1"",""2361""
","
","","","959.7000000029802","","","22","13457","5869","b","elianto","#f73b6a7A"," "," ","1","0","[1811.6000000014901]","1","2","","","13457","132","6","3","lose","go","0"
"pit-trial","251","1436006","0.0-137.0","battery-v0.2","","""event"",""trial"",""time""
""fullscreenenter"",""1"",""2361""
","
","
","""event"",""trial"",""time""
""fullscreenenter"",""1"",""2361""
","
","","","672.1000000014901","","","22","13457","5869","f","elianto","#3366ff99"," "," ","1","+10","[1522.3000000044703]","1","2","","","13457","133","8","1","win","go","0"
"pit-trial","252","1439491","0.0-138.0","battery-v0.2","","""event"",""trial"",""time""
""fullscreenenter"",""1"",""2361""
","
","
","""event"",""trial"",""time""
""fullscreenenter"",""1"",""2361""
","
","","","629","","","22","13457","5869","n","elianto","#3366ff99"," "," ","1","+10","[1480.1000000014901]","1","2","","","13457","134","9","1","win","go","0"
"pit-trial","253","1443075","0.0-139.0","battery-v0.2","","""event"",""trial"",""time""
""fullscreenenter"",""1"",""2361""
","
","
","""event"",""trial"",""time""
""fullscreenenter"",""1"",""2361""
","
","","","727.5","","","22","13457","5869","b","elianto","#f73b6a7A"," "," ","1","0","[1579.2999999970198]","1","2","","","13457","135","6","3","lose","go","0"
"pit-trial","254","1447931","0.0-140.0","battery-v0.2","","""event"",""trial"",""time""
""fullscreenenter"",""1"",""2361""
","
","
","""event"",""trial"",""time""
""fullscreenenter"",""1"",""2361""
","
","","","-1","","","22","13457","5869","t","elianto","#f73b6a7A","-1","-1","1","0","[]","0","2","","","13457","136","7","4","lose","no-go","0"
"pit-trial","255","1451289","0.0-141.0","battery-v0.2","","""event"",""trial"",""time""
""fullscreenenter"",""1"",""2361""
","
","
","""event"",""trial"",""time""
""fullscreenenter"",""1"",""2361""
","
","","","502.70000000298023","","","22","13457","5869","n","elianto","#3366ff99"," "," ","1","+10","[1353.1000000014901]","1","2","","","13457","137","9","1","win","go","0"
"pit-trial","256","1454841","0.0-142.0","battery-v0.2","","""event"",""trial"",""time""
""fullscreenenter"",""1"",""2361""
","
","
","""event"",""trial"",""time""
""fullscreenenter"",""1"",""2361""
","
","","","696.7000000029802","","","22","13457","5869","b","elianto","#f73b6a7A"," "," ","1","0","[1547.5]","1","2","","","13457","138","6","3","lose","go","0"
"pit-trial","257","1459696","0.0-143.0","battery-v0.2","","""event"",""trial"",""time""
""fullscreenenter"",""1"",""2361""
","
","
","""event"",""trial"",""time""
""fullscreenenter"",""1"",""2361""
","
","","","-1","","","22","13457","5869","t","elianto","#f73b6a7A","-1","-1","1","0","[]","0","2","","","13457","139","7","4","lose","no-go","0"
"pit-trial","258","1463084","0.0-144.0","battery-v0.2","","""event"",""trial"",""time""
""fullscreenenter"",""1"",""2361""
","
","
","""event"",""trial"",""time""
""fullscreenenter"",""1"",""2361""
","
","","","532.5","","","22","13457","5869","f","elianto","#3366ff99"," "," ","1","0","[1383.6999999955297]","1","2","","","13457","140","8","1","win","go","1"
"pit-instructions","259","1483434","0.0-145.0","battery-v0.2","","""event"",""trial"",""time""
""fullscreenenter"",""1"",""2361""
","
","
","""event"",""trial"",""time""
""fullscreenenter"",""1"",""2361""
","
","","[{""page_index"":0,""viewing_time"":11108.39999999851},{""page_index"":1,""viewing_time"":9238.60000000149}]","20347.19999999553","","","","","","","","","","","","","","","","","","","","","","","",""
"pit-trial","260","1487181","0.0-146.0","battery-v0.2","","""event"",""trial"",""time""
""fullscreenenter"",""1"",""2361""
","
","
","""event"",""trial"",""time""
""fullscreenenter"",""1"",""2361""
","
","","","887.6999999955297","","","22","13457","5869","a","elianto","#f73b6a7A","-1"," ","0","-10","[1738.6000000014901]","1","3","","","13457","141","2","4","lose","no-go","0"
"pit-trial","261","1490796","0.0-147.0","battery-v0.2","","""event"",""trial"",""time""
""fullscreenenter"",""1"",""2361""
","
","
","""event"",""trial"",""time""
""fullscreenenter"",""1"",""2361""
","
","","","759.6000000014901","","","22","13457","5869","u","elianto","#f73b6a7A","-1"," ","0","0","[1610.1000000014901]","1","3","","","13457","142","0","4","lose","no-go","1"
"pit-trial","262","1494348","0.0-148.0","battery-v0.2","","""event"",""trial"",""time""
""fullscreenenter"",""1"",""2361""
","
","
","""event"",""trial"",""time""
""fullscreenenter"",""1"",""2361""
","
","","","696.3000000044703","","","22","13457","5869","l","elianto","#3366ff99"," "," ","1","+10","[1548.6000000014901]","1","3","","","13457","143","1","1","win","go","0"
"pit-trial","263","1498278","0.0-149.0","battery-v0.2","","""event"",""trial"",""time""
""fullscreenenter"",""1"",""2361""
","
","
","""event"",""trial"",""time""
""fullscreenenter"",""1"",""2361""
","
","","","1074.1000000014901","","","22","13457","5869","g","elianto","#f73b6a7A"," "," ","1","0","[1925]","1","3","","","13457","144","3","3","lose","go","0"
"pit-trial","264","1502309","0.0-150.0","battery-v0.2","","""event"",""trial"",""time""
""fullscreenenter"",""1"",""2361""
","
","
","""event"",""trial"",""time""
""fullscreenenter"",""1"",""2361""
","
","","","1174.2000000029802","","","22","13457","5869","u","elianto","#f73b6a7A","-1"," ","0","0","[2026.2999999970198]","1","3","","","13457","145","0","4","lose","no-go","1"
"pit-trial","265","1506092","0.0-151.0","battery-v0.2","","""event"",""trial"",""time""
""fullscreenenter"",""1"",""2361""
","
","
","""event"",""trial"",""time""
""fullscreenenter"",""1"",""2361""
","
","","","926.8999999985099","","","22","13457","5869","g","elianto","#f73b6a7A"," "," ","1","0","[1777.6000000014901]","1","3","","","13457","146","3","3","lose","go","0"
"pit-trial","266","1509749","0.0-152.0","battery-v0.2","","""event"",""trial"",""time""
""fullscreenenter"",""1"",""2361""
","
","
","""event"",""trial"",""time""
""fullscreenenter"",""1"",""2361""
","
