"trial_type","trial_index","time_elapsed","internal_node_id","task_version","subject_id","interactions","blur_events","focus_events","fullscreenenter_events","fullscreenexit_events","success","view_history","rt","responses","num_errors","age","subject","participantId","rune","rune_set","hex","correct","choice","accuracy","outcome","keys","total_keys","block","practice","value","sub","trial","stimulus","robot","valence","action","sham"
"pavlovia","0","26","0.0-0.0","battery-v0.2","","""event"",""trial"",""time""
""fullscreenenter"",""1"",""2319""
","
","
","""event"",""trial"",""time""
""fullscreenenter"",""1"",""2319""
","
","","","","","","","","","","","","","","","","","","","","","","","","","","",""
"fullscreen","1","3301","0.0-1.0","battery-v0.2","","""event"",""trial"",""time""
""fullscreenenter"",""1"",""2319""
","
","
","""event"",""trial"",""time""
""fullscreenenter"",""1"",""2319""
","
","true","","","","","","","","","","","","","","","","","","","","","","","","","",""
"pit-instructions","2","10278","0.0-2.0-0.0","battery-v0.2","","""event"",""trial"",""time""
""fullscreenenter"",""1"",""2319""
","
","
","""event"",""trial"",""time""
""fullscreenenter"",""1"",""2319""
","
","","[{""page_index"":0,""viewing_time"":6972.69999999553}]","6973.5","","","","","","","","","","","","","","","","","","","","","","","",""
"pit-comprehension","3","14131","0.0-2.0-1.0-0.0","battery-v0.2","","""event"",""trial"",""time""
""fullscreenenter"",""1"",""2319""
","
","
","""event"",""trial"",""time""
""fullscreenenter"",""1"",""2319""
","
","","","3847.6999999955297","[""shark""]","0","10","10898","18","","","","","","","","","","","","","","","","","","",""
"pit-instructions","4","22297","0.0-2.0-1.0-1.0","battery-v0.2","","""event"",""trial"",""time""
""fullscreenenter"",""1"",""2319""
","
","
","""event"",""trial"",""time""
""fullscreenenter"",""1"",""2319""
","
","","[{""page_index"":0,""viewing_time"":8135.5999999940395}]","8136","","","","","","","","","","","","","","","","","","","","","","","",""
"pit-comprehension","5","26044","0.0-2.0-2.0-0.0","battery-v0.2","","""event"",""trial"",""time""
""fullscreenenter"",""1"",""2319""
","
","
","""event"",""trial"",""time""
""fullscreenenter"",""1"",""2319""
","
","","","3744.2000000029802","[""tiger""]","0","10","10898","18","","","","","","","","","","","","","","","","","","",""
"pit-instructions","6","27312","0.0-2.0-2.0-1.0","battery-v0.2","","""event"",""trial"",""time""
""fullscreenenter"",""1"",""2319""
","
","
","""event"",""trial"",""time""
""fullscreenenter"",""1"",""2319""
","
","","[{""page_index"":0,""viewing_time"":1264.5}]","1264.8999999985099","","","","","","","","","","","","","","","","","","","","","","","",""
"pit-instructions","7","125973","0.0-2.0-3.0","battery-v0.2","","""event"",""trial"",""time""
""fullscreenenter"",""1"",""2319""
","
","
","""event"",""trial"",""time""
""fullscreenenter"",""1"",""2319""
","
","","[{""page_index"":0,""viewing_time"":9318},{""page_index"":1,""viewing_time"":6689.5},{""page_index"":2,""viewing_time"":8126},{""page_index"":3,""viewing_time"":5242.60000000149},{""page_index"":4,""viewing_time"":5774},{""page_index"":5,""viewing_time"":6724},{""page_index"":6,""viewing_time"":8444},{""page_index"":7,""viewing_time"":6578},{""page_index"":8,""viewing_time"":7628.79999999702},{""page_index"":9,""viewing_time"":7589.30000000447},{""page_index"":10,""viewing_time"":7342.39999999851},{""page_index"":11,""viewing_time"":6735},{""page_index"":12,""viewing_time"":7434.60000000149},{""page_index"":13,""viewing_time"":5035.79999999702}]","98662.5","","","","","","","","","","","","","","","","","","","","","","","",""
"pit-trial","8","129494","0.0-2.0-4.0-0.0","battery-v0.2","","""event"",""trial"",""time""
""fullscreenenter"",""1"",""2319""
","
","
","""event"",""trial"",""time""
""fullscreenenter"",""1"",""2319""
","
","","","662.1000000014901","","","10","10898","18","&#9784;","elianto","#FFFFF080"," "," ","1","&#10004","[1514.1000000014901]","1","0","0","","","","","","","",""
"pit-trial","9","133173","0.0-2.0-4.1-0.1","battery-v0.2","","""event"",""trial"",""time""
""fullscreenenter"",""1"",""2319""
","
","
","""event"",""trial"",""time""
""fullscreenenter"",""1"",""2319""
","
","","","815.4000000059605","","","10","10898","18","&#9784;","elianto","#FFFFF080"," "," ","1","&#10004","[1675.3000000044703]","1","0","0","","","","","","","",""
"pit-trial","10","136759","0.0-2.0-4.2-0.2","battery-v0.2","","""event"",""trial"",""time""
""fullscreenenter"",""1"",""2319""
","
","
","""event"",""trial"",""time""
""fullscreenenter"",""1"",""2319""
","
","","","730.3999999985099","","","10","10898","18","&#9784;","elianto","#FFFFF080"," "," ","1","&#10004","[1581.3000000044703]","1","0","0","","","","","","","",""
"pit-trial","11","140352","0.0-2.0-4.3-0.3","battery-v0.2","","""event"",""trial"",""time""
""fullscreenenter"",""1"",""2319""
","
","
","""event"",""trial"",""time""
""fullscreenenter"",""1"",""2319""
","
","","","736.2000000029802","","","10","10898","18","&#9784;","elianto","#FFFFF080"," "," ","1","&#10004","[1587.5]","1","0","0","","","","","","","",""
"pit-trial","12","144122","0.0-2.0-4.4-0.4","battery-v0.2","","""event"",""trial"",""time""
""fullscreenenter"",""1"",""2319""
","
","
","""event"",""trial"",""time""
""fullscreenenter"",""1"",""2319""
","
","","","906.4000000059605","","","10","10898","18","&#9784;","elianto","#FFFFF080"," "," ","1","&#10004","[1763]","1","0","0","","","","","","","",""
"pit-instructions","13","164478","0.0-2.0-5.0","battery-v0.2","","""event"",""trial"",""time""
""fullscreenenter"",""1"",""2319""
","
","
","""event"",""trial"",""time""
""fullscreenenter"",""1"",""2319""
","
","","[{""page_index"":0,""viewing_time"":4945.39999999851},{""page_index"":1,""viewing_time"":5237.5},{""page_index"":2,""viewing_time"":4937.89999999851},{""page_index"":3,""viewing_time"":5232.20000000298}]","20353.60000000149","","","","","","","","","","","","","","","","","","","","","","","",""
"pit-trial","14","169337","0.0-2.0-6.0-0.0","battery-v0.2","","""event"",""trial"",""time""
""fullscreenenter"",""1"",""2319""
","
","
","""event"",""trial"",""time""
""fullscreenenter"",""1"",""2319""
","
","","","-1","","","10","10898","18","&#9854;","elianto","#FFFFF080","-1","-1","1","&#10004","[]","0","0","1","","","","","","","",""
"pit-trial","15","174196","0.0-2.0-6.1-0.1","battery-v0.2","","""event"",""trial"",""time""
""fullscreenenter"",""1"",""2319""
","
","
","""event"",""trial"",""time""
""fullscreenenter"",""1"",""2319""
","
","","","-1","","","10","10898","18","&#9854;","elianto","#FFFFF080","-1","-1","1","&#10004","[]","0","0","1","","","","","","","",""
"pit-trial","16","179054","0.0-2.0-6.2-0.2","battery-v0.2","","""event"",""trial"",""time""
""fullscreenenter"",""1"",""2319""
","
","
","""event"",""trial"",""time""
""fullscreenenter"",""1"",""2319""
","
","","","-1","","","10","10898","18","&#9854;","elianto","#FFFFF080","-1","-1","1","&#10004","[]","0","0","1","","","","","","","",""
"pit-trial","17","183912","0.0-2.0-6.3-0.3","battery-v0.2","","""event"",""trial"",""time""
""fullscreenenter"",""1"",""2319""
","
","
","""event"",""trial"",""time""
""fullscreenenter"",""1"",""2319""
","
","","","-1","","","10","10898","18","&#9854;","elianto","#FFFFF080","-1","-1","1","&#10004","[]","0","0","1","","","","","","","",""
"pit-trial","18","188771","0.0-2.0-6.4-0.4","battery-v0.2","","""event"",""trial"",""time""
""fullscreenenter"",""1"",""2319""
","
","
","""event"",""trial"",""time""
""fullscreenenter"",""1"",""2319""
","
","","","-1","","","10","10898","18","&#9854;","elianto","#FFFFF080","-1","-1","1","&#10004","[]","0","0","1","","","","","","","",""
"pit-instructions","19","301396","0.0-2.0-7.0","battery-v0.2","","""event"",""trial"",""time""
""fullscreenenter"",""1"",""2319""
","
","
","""event"",""trial"",""time""
""fullscreenenter"",""1"",""2319""
","
","","[{""page_index"":0,""viewing_time"":5716.20000000298},{""page_index"":1,""viewing_time"":7011.89999999851},{""page_index"":2,""viewing_time"":5624.20000000298},{""page_index"":3,""viewing_time"":6177.89999999851},{""page_index"":4,""viewing_time"":6072},{""page_index"":5,""viewing_time"":5384.10000000149},{""page_index"":6,""viewing_time"":4514.19999999553},{""page_index"":7,""viewing_time"":7887.70000000298},{""page_index"":8,""viewing_time"":6554.10000000149},{""page_index"":9,""viewing_time"":5946.19999999553},{""page_index"":10,""viewing_time"":6371.60000000149},{""page_index"":11,""viewing_time"":4379.80000000447},{""page_index"":12,""viewing_time"":6648.19999999553},{""page_index"":13,""viewing_time"":6372.20000000298},{""page_index"":14,""viewing_time"":7697.89999999851},{""page_index"":15,""viewing_time"":6852.29999999702},{""page_index"":16,""viewing_time"":6372},{""page_index"":17,""viewing_time"":7043.60000000149}]","112626.5","","","","","","","","","","","","","","","","","","","","","","","",""
"pit-trial","20","304825","0.0-2.0-8.0-0.0","battery-v0.2","","""event"",""trial"",""time""
""fullscreenenter"",""1"",""2319""
","
","
","""event"",""trial"",""time""
""fullscreenenter"",""1"",""2319""
","
","","","566.5","","","10","10898","18","&#9776;","elianto","#3366ff99"," "," ","1","+10","[1421.8999999985099]","1","0","1","","","","","","","",""
"pit-trial","21","308313","0.0-2.0-8.0-1.0","battery-v0.2","","""event"",""trial"",""time""
""fullscreenenter"",""1"",""2319""
","
","
","""event"",""trial"",""time""
""fullscreenenter"",""1"",""2319""
","
","","","633.7000000029802","","","10","10898","18","&#9776;","elianto","#3366ff99"," "," ","1","+10","[1483.8999999985099]","1","0","1","","","","","","","",""
"pit-trial","22","311753","0.0-2.0-8.0-2.0","battery-v0.2","","""event"",""trial"",""time""
""fullscreenenter"",""1"",""2319""
","
","
","""event"",""trial"",""time""
""fullscreenenter"",""1"",""2319""
","
","","","580.8999999985099","","","10","10898","18","&#9776;","elianto","#3366ff99"," "," ","1","+10","[1435.1000000014901]","1","0","1","","","","","","","",""
"pit-trial","23","315250","0.0-2.0-8.0-3.0","battery-v0.2","","""event"",""trial"",""time""
""fullscreenenter"",""1"",""2319""
","
","
","""event"",""trial"",""time""
""fullscreenenter"",""1"",""2319""
","
","","","641","","","10","10898","18","&#9776;","elianto","#3366ff99"," "," ","1","0","[1491.3000000044703]","1","0","1","","","","","","","",""
"pit-trial","24","318703","0.0-2.0-8.0-4.0","battery-v0.2","","""event"",""trial"",""time""
""fullscreenenter"",""1"",""2319""
","
","
","""event"",""trial"",""time""
""fullscreenenter"",""1"",""2319""
","
","","","600.5","","","10","10898","18","&#9776;","elianto","#3366ff99"," "," ","1","+10","[1450.6999999955297]","1","0","1","","","","","","","",""
"pit-trial","25","322355","0.0-2.0-8.1-0.1","battery-v0.2","","""event"",""trial"",""time""
""fullscreenenter"",""1"",""2319""
","
","
","""event"",""trial"",""time""
""fullscreenenter"",""1"",""2319""
","
","","","794","","","10","10898","18","&#9776;","elianto","#3366ff99"," "," ","1","+10","[1645.0999999940395]","1","0","1","","","","","","","",""
"pit-trial","26","325817","0.0-2.0-8.1-1.1","battery-v0.2","","""event"",""trial"",""time""
""fullscreenenter"",""1"",""2319""
","
","
","""event"",""trial"",""time""
""fullscreenenter"",""1"",""2319""
","
","","","604.7000000029802","","","10","10898","18","&#9776;","elianto","#3366ff99"," "," ","1","+10","[1457.5]","1","0","1","","","","","","","",""
"pit-trial","27","329752","0.0-2.0-8.1-2.1","battery-v0.2","","""event"",""trial"",""time""
""fullscreenenter"",""1"",""2319""
","
","
","""event"",""trial"",""time""
""fullscreenenter"",""1"",""2319""
","
","","","1074.6999999955297","","","10","10898","18","&#9776;","elianto","#3366ff99"," "," ","1","+10","[1930.7999999970198]","1","0","1","","","","","","","",""
"pit-trial","28","333471","0.0-2.0-8.1-3.1","battery-v0.2","","""event"",""trial"",""time""
""fullscreenenter"",""1"",""2319""
","
","
","""event"",""trial"",""time""
""fullscreenenter"",""1"",""2319""
","
","","","861.7000000029802","","","10","10898","18","&#9776;","elianto","#3366ff99"," "," ","1","0","[1714.7999999970198]","1","0","1","","","","","","","",""
"pit-trial","29","337082","0.0-2.0-8.1-4.1","battery-v0.2","","""event"",""trial"",""time""
""fullscreenenter"",""1"",""2319""
","
","
","""event"",""trial"",""time""
""fullscreenenter"",""1"",""2319""
","
","","","754.6000000014901","","","10","10898","18","&#9776;","elianto","#3366ff99"," "," ","1","+10","[1605]","1","0","1","","","","","","","",""
"pit-trial","30","341016","0.0-2.0-8.2-0.2","battery-v0.2","","""event"",""trial"",""time""
""fullscreenenter"",""1"",""2319""
","
","
","""event"",""trial"",""time""
""fullscreenenter"",""1"",""2319""
","
","","","1077.7000000029802","","","10","10898","18","&#9776;","elianto","#3366ff99"," "," ","1","+10","[1928.3999999985099]","1","0","1","","","","","","","",""
"pit-trial","31","344543","0.0-2.0-8.2-1.2","battery-v0.2","","""event"",""trial"",""time""
""fullscreenenter"",""1"",""2319""
","
","
","""event"",""trial"",""time""
""fullscreenenter"",""1"",""2319""
","
","","","673","","","10","10898","18","&#9776;","elianto","#3366ff99"," "," ","1","+10","[1523.3000000044703]","1","0","1","","","","","","","",""
"pit-trial","32","348209","0.0-2.0-8.2-2.2","battery-v0.2","","""event"",""trial"",""time""
""fullscreenenter"",""1"",""2319""
","
","
","""event"",""trial"",""time""
""fullscreenenter"",""1"",""2319""
","
","","","789.2000000029802","","","10","10898","18","&#9776;","elianto","#3366ff99"," "," ","1","+10","[1659.3999999985099]","1","0","1","","","","","","","",""
"pit-trial","33","352342","0.0-2.0-8.2-3.2","battery-v0.2","","""event"",""trial"",""time""
""fullscreenenter"",""1"",""2319""
","
","
","""event"",""trial"",""time""
""fullscreenenter"",""1"",""2319""
","
","","","1265.6000000014901","","","10","10898","18","&#9776;","elianto","#3366ff99"," "," ","1","0","[2127]","1","0","1","","","","","","","",""
"pit-trial","34","355967","0.0-2.0-8.2-4.2","battery-v0.2","","""event"",""trial"",""time""
""fullscreenenter"",""1"",""2319""
","
","
","""event"",""trial"",""time""
""fullscreenenter"",""1"",""2319""
","
","","","764.6000000014901","","","10","10898","18","&#9776;","elianto","#3366ff99"," "," ","1","+10","[1618.7999999970198]","1","0","1","","","","","","","",""
"call-function","35","355968","0.0-2.0-9.0","battery-v0.2","","""event"",""trial"",""time""
""fullscreenenter"",""1"",""2319""
","
","
","""event"",""trial"",""time""
""fullscreenenter"",""1"",""2319""
","
","","","","","","","","","","","","","","","","","","","","","","","","","","",""
"pit-instructions","36","395330","0.0-2.0-10.0","battery-v0.2","","""event"",""trial"",""time""
""fullscreenenter"",""1"",""2319""
","
","
","""event"",""trial"",""time""
""fullscreenenter"",""1"",""2319""
","
","","[{""page_index"":0,""viewing_time"":6117.89999999851},{""page_index"":1,""viewing_time"":7138.30000000447},{""page_index"":2,""viewing_time"":9401.5},{""page_index"":3,""viewing_time"":8934.10000000149},{""page_index"":4,""viewing_time"":7770.5}]","39362.70000000298","","","","","","","","","","","","","","","","","","","","","","","",""
"pit-trial","37","398908","0.0-2.0-11.0-0.0","battery-v0.2","","""event"",""trial"",""time""
""fullscreenenter"",""1"",""2319""
","
","
","""event"",""trial"",""time""
""fullscreenenter"",""1"",""2319""
","
","","","723.6999999955297","","","10","10898","18","&#9761;","elianto","#3366ff99","-1"," ","0","0","[1574.5999999940395]","1","0","2","","","","","","","",""
"pit-trial","38","402245","0.0-2.0-11.0-1.0","battery-v0.2","","""event"",""trial"",""time""
""fullscreenenter"",""1"",""2319""
","
","
","""event"",""trial"",""time""
""fullscreenenter"",""1"",""2319""
","
","","","473","","","10","10898","18","&#9761;","elianto","#3366ff99","-1"," ","0","0","[1331.2000000029802]","1","0","2","","","","","","","",""
"pit-trial","39","407104","0.0-2.0-11.0-2.0","battery-v0.2","","""event"",""trial"",""time""
""fullscreenenter"",""1"",""2319""
","
","
","""event"",""trial"",""time""
""fullscreenenter"",""1"",""2319""
","
","","","-1","","","10","10898","18","&#9761;","elianto","#3366ff99","-1","-1","1","+10","[]","0","0","2","","","","","","","",""
"pit-trial","40","411963","0.0-2.0-11.0-3.0","battery-v0.2","","""event"",""trial"",""time""
""fullscreenenter"",""1"",""2319""
","
","
","""event"",""trial"",""time""
""fullscreenenter"",""1"",""2319""
","
","","","-1","","","10","10898","18","&#9761;","elianto","#3366ff99","-1","-1","1","0","[]","0","0","2","","","","","","","",""
"pit-trial","41","416821","0.0-2.0-11.0-4.0","battery-v0.2","","""event"",""trial"",""time""
""fullscreenenter"",""1"",""2319""
","
","
","""event"",""trial"",""time""
""fullscreenenter"",""1"",""2319""
","
","","","-1","","","10","10898","18","&#9761;","elianto","#3366ff99","-1","-1","1","+10","[]","0","0","2","","","","","","","",""
"pit-trial","42","421680","0.0-2.0-11.1-0.1","battery-v0.2","","""event"",""trial"",""time""
""fullscreenenter"",""1"",""2319""
","
","
","""event"",""trial"",""time""
""fullscreenenter"",""1"",""2319""
","
","","","-1","","","10","10898","18","&#9761;","elianto","#3366ff99","-1","-1","1","+10","[]","0","0","2","","","","","","","",""
"pit-trial","43","426538","0.0-2.0-11.1-1.1","battery-v0.2","","""event"",""trial"",""time""
""fullscreenenter"",""1"",""2319""
","
","
","""event"",""trial"",""time""
""fullscreenenter"",""1"",""2319""
","
","","","-1","","","10","10898","18","&#9761;","elianto","#3366ff99","-1","-1","1","+10","[]","0","0","2","","","","","","","",""
"pit-trial","44","431400","0.0-2.0-11.1-2.1","battery-v0.2","","""event"",""trial"",""time""
""fullscreenenter"",""1"",""2319""
","
","
","""event"",""trial"",""time""
""fullscreenenter"",""1"",""2319""
","
","","","-1","","","10","10898","18","&#9761;","elianto","#3366ff99","-1","-1","1","+10","[]","0","0","2","","","","","","","",""
"pit-trial","45","436260","0.0-2.0-11.1-3.1","battery-v0.2","","""event"",""trial"",""time""
""fullscreenenter"",""1"",""2319""
","
","
","""event"",""trial"",""time""
""fullscreenenter"",""1"",""2319""
","
","","","-1","","","10","10898","18","&#9761;","elianto","#3366ff99","-1","-1","1","0","[]","0","0","2","","","","","","","",""
"pit-trial","46","441119","0.0-2.0-11.1-4.1","battery-v0.2","","""event"",""trial"",""time""
""fullscreenenter"",""1"",""2319""
","
","
","""event"",""trial"",""time""
""fullscreenenter"",""1"",""2319""
","
","","","-1","","","10","10898","18","&#9761;","elianto","#3366ff99","-1","-1","1","+10","[]","0","0","2","","","","","","","",""
"pit-trial","47","445981","0.0-2.0-11.2-0.2","battery-v0.2","","""event"",""trial"",""time""
""fullscreenenter"",""1"",""2319""
","
","
","""event"",""trial"",""time""
""fullscreenenter"",""1"",""2319""
","
","","","-1","","","10","10898","18","&#9761;","elianto","#3366ff99","-1","-1","1","+10","[]","0","0","2","","","","","","","",""
"pit-trial","48","450841","0.0-2.0-11.2-1.2","battery-v0.2","","""event"",""trial"",""time""
""fullscreenenter"",""1"",""2319""
","
","
","""event"",""trial"",""time""
""fullscreenenter"",""1"",""2319""
","
","","","-1","","","10","10898","18","&#9761;","elianto","#3366ff99","-1","-1","1","+10","[]","0","0","2","","","","","","","",""
"pit-trial","49","455700","0.0-2.0-11.2-2.2","battery-v0.2","","""event"",""trial"",""time""
""fullscreenenter"",""1"",""2319""
","
","
","""event"",""trial"",""time""
""fullscreenenter"",""1"",""2319""
","
","","","-1","","","10","10898","18","&#9761;","elianto","#3366ff99","-1","-1","1","+10","[]","0","0","2","","","","","","","",""
"pit-trial","50","460556","0.0-2.0-11.2-3.2","battery-v0.2","","""event"",""trial"",""time""
""fullscreenenter"",""1"",""2319""
","
","
","""event"",""trial"",""time""
""fullscreenenter"",""1"",""2319""
","
","","","-1","","","10","10898","18","&#9761;","elianto","#3366ff99","-1","-1","1","0","[]","0","0","2","","","","","","","",""
"pit-trial","51","465415","0.0-2.0-11.2-4.2","battery-v0.2","","""event"",""trial"",""time""
""fullscreenenter"",""1"",""2319""
","
","
","""event"",""trial"",""time""
""fullscreenenter"",""1"",""2319""
","
","","","-1","","","10","10898","18","&#9761;","elianto","#3366ff99","-1","-1","1","+10","[]","0","0","2","","","","","","","",""
"pit-trial","52","470273","0.0-2.0-11.3-0.3","battery-v0.2","","""event"",""trial"",""time""
""fullscreenenter"",""1"",""2319""
","
","
","""event"",""trial"",""time""
""fullscreenenter"",""1"",""2319""
","
","","","-1","","","10","10898","18","&#9761;","elianto","#3366ff99","-1","-1","1","+10","[]","0","0","2","","","","","","","",""
"pit-trial","53","475132","0.0-2.0-11.3-1.3","battery-v0.2","","""event"",""trial"",""time""
""fullscreenenter"",""1"",""2319""
","
","
","""event"",""trial"",""time""
""fullscreenenter"",""1"",""2319""
","
","","","-1","","","10","10898","18","&#9761;","elianto","#3366ff99","-1","-1","1","+10","[]","0","0","2","","","","","","","",""
"pit-trial","54","479990","0.0-2.0-11.3-2.3","battery-v0.2","","""event"",""trial"",""time""
""fullscreenenter"",""1"",""2319""
","
","
","""event"",""trial"",""time""
""fullscreenenter"",""1"",""2319""
","
","","","-1","","","10","10898","18","&#9761;","elianto","#3366ff99","-1","-1","1","+10","[]","0","0","2","","","","","","","",""
"pit-trial","55","484848","0.0-2.0-11.3-3.3","battery-v0.2","","""event"",""trial"",""time""
""fullscreenenter"",""1"",""2319""
","
","
","""event"",""trial"",""time""
""fullscreenenter"",""1"",""2319""
","
","","","-1","","","10","10898","18","&#9761;","elianto","#3366ff99","-1","-1","1","0","[]","0","0","2","","","","","","","",""
"pit-trial","56","489709","0.0-2.0-11.3-4.3","battery-v0.2","","""event"",""trial"",""time""
""fullscreenenter"",""1"",""2319""
","
","
","""event"",""trial"",""time""
""fullscreenenter"",""1"",""2319""
","
","","","-1","","","10","10898","18","&#9761;","elianto","#3366ff99","-1","-1","1","+10","[]","0","0","2","","","","","","","",""
"call-function","57","489710","0.0-2.0-12.0","battery-v0.2","","""event"",""trial"",""time""
""fullscreenenter"",""1"",""2319""
","
","
","""event"",""trial"",""time""
""fullscreenenter"",""1"",""2319""
","
","","","","","","","","","","","","","","","","","","","","","","","","","","",""
"pit-instructions","58","523326","0.0-2.0-13.0","battery-v0.2","","""event"",""trial"",""time""
""fullscreenenter"",""1"",""2319""
","
","
","""event"",""trial"",""time""
""fullscreenenter"",""1"",""2319""
","
","","[{""page_index"":0,""viewing_time"":5717.89999999851},{""page_index"":1,""viewing_time"":8994.39999999851},{""page_index"":2,""viewing_time"":3275.8000000044703},{""page_index"":3,""viewing_time"":10642.19999999553},{""page_index"":4,""viewing_time"":4985.80000000447}]","33616.29999999702","","","","","","","","","","","","","","","","","","","","","","","",""
"pit-trial","59","526787","0.0-2.0-14.0-0.0","battery-v0.2","","""event"",""trial"",""time""
""fullscreenenter"",""1"",""2319""
","
","
","""event"",""trial"",""time""
""fullscreenenter"",""1"",""2319""
","
","","","594.6000000014901","","","10","10898","18","&#9826;","elianto","#f73b6a7A","-1"," ","0","-10","[1454.5]","1","0","3","","","","","","","",""
"pit-trial","60","530026","0.0-2.0-14.0-1.0","battery-v0.2","","""event"",""trial"",""time""
""fullscreenenter"",""1"",""2319""
","
","
","""event"",""trial"",""time""
""fullscreenenter"",""1"",""2319""
","
","","","372.3999999985099","","","10","10898","18","&#9826;","elianto","#f73b6a7A","-1"," ","0","-10","[1232.6000000014901]","1","0","3","","","","","","","",""
"pit-trial","61","533457","0.0-2.0-14.0-2.0","battery-v0.2","","""event"",""trial"",""time""
""fullscreenenter"",""1"",""2319""
","
","
","""event"",""trial"",""time""
""fullscreenenter"",""1"",""2319""
","
","","","571.2999999970198","","","10","10898","18","&#9826;","elianto","#f73b6a7A","-1"," ","0","-10","[1426.8999999985099]","1","0","3","","","","","","","",""
"pit-trial","62","538315","0.0-2.0-14.0-3.0","battery-v0.2","","""event"",""trial"",""time""
""fullscreenenter"",""1"",""2319""
","
","
","""event"",""trial"",""time""
""fullscreenenter"",""1"",""2319""
","
","","","-1","","","10","10898","18","&#9826;","elianto","#f73b6a7A","-1","-1","1","-10","[]","0","0","3","","","","","","","",""
"pit-trial","63","543174","0.0-2.0-14.0-4.0","battery-v0.2","","""event"",""trial"",""time""
""fullscreenenter"",""1"",""2319""
","
","
","""event"",""trial"",""time""
""fullscreenenter"",""1"",""2319""
","
","","","-1","","","10","10898","18","&#9826;","elianto","#f73b6a7A","-1","-1","1","0","[]","0","0","3","","","","","","","",""
"pit-trial","64","548032","0.0-2.0-14.1-0.1","battery-v0.2","","""event"",""trial"",""time""
""fullscreenenter"",""1"",""2319""
","
","
","""event"",""trial"",""time""
""fullscreenenter"",""1"",""2319""
","
","","","-1","","","10","10898","18","&#9826;","elianto","#f73b6a7A","-1","-1","1","0","[]","0","0","3","","","","","","","",""
"pit-trial","65","552891","0.0-2.0-14.1-1.1","battery-v0.2","","""event"",""trial"",""time""
""fullscreenenter"",""1"",""2319""
","
","
","""event"",""trial"",""time""
""fullscreenenter"",""1"",""2319""
","
","","","-1","","","10","10898","18","&#9826;","elianto","#f73b6a7A","-1","-1","1","0","[]","0","0","3","","","","","","","",""
"pit-trial","66","557749","0.0-2.0-14.1-2.1","battery-v0.2","","""event"",""trial"",""time""
""fullscreenenter"",""1"",""2319""
","
","
","""event"",""trial"",""time""
""fullscreenenter"",""1"",""2319""
","
","","","-1","","","10","10898","18","&#9826;","elianto","#f73b6a7A","-1","-1","1","0","[]","0","0","3","","","","","","","",""
"pit-trial","67","562608","0.0-2.0-14.1-3.1","battery-v0.2","","""event"",""trial"",""time""
""fullscreenenter"",""1"",""2319""
","
","
","""event"",""trial"",""time""
""fullscreenenter"",""1"",""2319""
","
","","","-1","","","10","10898","18","&#9826;","elianto","#f73b6a7A","-1","-1","1","-10","[]","0","0","3","","","","","","","",""
"pit-trial","68","567466","0.0-2.0-14.1-4.1","battery-v0.2","","""event"",""trial"",""time""
""fullscreenenter"",""1"",""2319""
","
","
","""event"",""trial"",""time""
""fullscreenenter"",""1"",""2319""
","
","","","-1","","","10","10898","18","&#9826;","elianto","#f73b6a7A","-1","-1","1","0","[]","0","0","3","","","","","","","",""
"pit-trial","69","572326","0.0-2.0-14.2-0.2","battery-v0.2","","""event"",""trial"",""time""
""fullscreenenter"",""1"",""2319""
","
","
","""event"",""trial"",""time""
""fullscreenenter"",""1"",""2319""
","
","","","-1","","","10","10898","18","&#9826;","elianto","#f73b6a7A","-1","-1","1","0","[]","0","0","3","","","","","","","",""
"pit-trial","70","577187","0.0-2.0-14.2-1.2","battery-v0.2","","""event"",""trial"",""time""
""fullscreenenter"",""1"",""2319""
","
","
","""event"",""trial"",""time""
""fullscreenenter"",""1"",""2319""
","
","","","-1","","","10","10898","18","&#9826;","elianto","#f73b6a7A","-1","-1","1","0","[]","0","0","3","","","","","","","",""
"pit-trial","71","582046","0.0-2.0-14.2-2.2","battery-v0.2","","""event"",""trial"",""time""
""fullscreenenter"",""1"",""2319""
","
","
","""event"",""trial"",""time""
""fullscreenenter"",""1"",""2319""
","
","","","-1","","","10","10898","18","&#9826;","elianto","#f73b6a7A","-1","-1","1","0","[]","0","0","3","","","","","","","",""
"pit-trial","72","586906","0.0-2.0-14.2-3.2","battery-v0.2","","""event"",""trial"",""time""
""fullscreenenter"",""1"",""2319""
","
","
","""event"",""trial"",""time""
""fullscreenenter"",""1"",""2319""
","
","","","-1","","","10","10898","18","&#9826;","elianto","#f73b6a7A","-1","-1","1","-10","[]","0","0","3","","","","","","","",""
"pit-trial","73","591763","0.0-2.0-14.2-4.2","battery-v0.2","","""event"",""trial"",""time""
""fullscreenenter"",""1"",""2319""
","
","
","""event"",""trial"",""time""
""fullscreenenter"",""1"",""2319""
","
","","","-1","","","10","10898","18","&#9826;","elianto","#f73b6a7A","-1","-1","1","0","[]","0","0","3","","","","","","","",""
"pit-trial","74","596619","0.0-2.0-14.3-0.3","battery-v0.2","","""event"",""trial"",""time""
""fullscreenenter"",""1"",""2319""
","
","
","""event"",""trial"",""time""
""fullscreenenter"",""1"",""2319""
","
","","","-1","","","10","10898","18","&#9826;","elianto","#f73b6a7A","-1","-1","1","0","[]","0","0","3","","","","","","","",""
"pit-trial","75","601479","0.0-2.0-14.3-1.3","battery-v0.2","","""event"",""trial"",""time""
""fullscreenenter"",""1"",""2319""
","
","
","""event"",""trial"",""time""
""fullscreenenter"",""1"",""2319""
","
","","","-1","","","10","10898","18","&#9826;","elianto","#f73b6a7A","-1","-1","1","0","[]","0","0","3","","","","","","","",""
"pit-trial","76","606335","0.0-2.0-14.3-2.3","battery-v0.2","","""event"",""trial"",""time""
""fullscreenenter"",""1"",""2319""
","
","
","""event"",""trial"",""time""
""fullscreenenter"",""1"",""2319""
","
","","","-1","","","10","10898","18","&#9826;","elianto","#f73b6a7A","-1","-1","1","0","[]","0","0","3","","","","","","","",""
"pit-trial","77","611192","0.0-2.0-14.3-3.3","battery-v0.2","","""event"",""trial"",""time""
""fullscreenenter"",""1"",""2319""
","
","
","""event"",""trial"",""time""
""fullscreenenter"",""1"",""2319""
","
","","","-1","","","10","10898","18","&#9826;","elianto","#f73b6a7A","-1","-1","1","-10","[]","0","0","3","","","","","","","",""
"pit-trial","78","616056","0.0-2.0-14.3-4.3","battery-v0.2","","""event"",""trial"",""time""
""fullscreenenter"",""1"",""2319""
","
","
","""event"",""trial"",""time""
""fullscreenenter"",""1"",""2319""
","
","","","-1","","","10","10898","18","&#9826;","elianto","#f73b6a7A","-1","-1","1","0","[]","0","0","3","","","","","","","",""
"call-function","79","616058","0.0-2.0-15.0","battery-v0.2","","""event"",""trial"",""time""
""fullscreenenter"",""1"",""2319""
","
","
","""event"",""trial"",""time""
""fullscreenenter"",""1"",""2319""
","
","","","","","","","","","","","","","","","","","","","","","","","","","","",""
"pit-instructions","80","641127","0.0-2.0-16.0","battery-v0.2","","""event"",""trial"",""time""
""fullscreenenter"",""1"",""2319""
","
","
","""event"",""trial"",""time""
""fullscreenenter"",""1"",""2319""
","
","","[{""page_index"":0,""viewing_time"":7361.60000000149},{""page_index"":1,""viewing_time"":8271.5},{""page_index"":2,""viewing_time"":4572.10000000149},{""page_index"":3,""viewing_time"":4864}]","25069.70000000298","","","","","","","","","","","","","","","","","","","","","","","",""
"pit-trial","81","644301","0.0-2.0-17.0-0.0","battery-v0.2","","""event"",""trial"",""time""
""fullscreenenter"",""1"",""2319""
","
","
","""event"",""trial"",""time""
""fullscreenenter"",""1"",""2319""
","
","","","315.6000000014901","","","10","10898","18","&#9789;","elianto","#f73b6a7A"," "," ","1","0","[1166.8000000044703]","1","0","4","","","","","","","",""
"pit-trial","82","647650","0.0-2.0-17.0-1.0","battery-v0.2","","""event"",""trial"",""time""
""fullscreenenter"",""1"",""2319""
","
","
","""event"",""trial"",""time""
""fullscreenenter"",""1"",""2319""
","
","","","490.20000000298023","","","10","10898","18","&#9789;","elianto","#f73b6a7A"," "," ","1","0","[1344.6000000014901]","1","0","4","","","","","","","",""
"pit-trial","83","650924","0.0-2.0-17.0-2.0","battery-v0.2","","""event"",""trial"",""time""
""fullscreenenter"",""1"",""2319""
","
","
","""event"",""trial"",""time""
""fullscreenenter"",""1"",""2319""
","
","","","410","","","10","10898","18","&#9789;","elianto","#f73b6a7A"," "," ","1","0","[1267.5]","1","0","4","","","","","","","",""
"pit-trial","84","654115","0.0-2.0-17.0-3.0","battery-v0.2","","""event"",""trial"",""time""
""fullscreenenter"",""1"",""2319""
","
","
","""event"",""trial"",""time""
""fullscreenenter"",""1"",""2319""
","
","","","323.5","","","10","10898","18","&#9789;","elianto","#f73b6a7A"," "," ","1","-10","[1185.1000000014901]","1","0","4","","","","","","","",""
"pit-trial","85","657537","0.0-2.0-17.0-4.0","battery-v0.2","","""event"",""trial"",""time""
""fullscreenenter"",""1"",""2319""
","
","
","""event"",""trial"",""time""
""fullscreenenter"",""1"",""2319""
","
","","","565.7999999970198","","","10","10898","18","&#9789;","elianto","#f73b6a7A"," "," ","1","0","[1417.3999999985099]","1","0","4","","","","","","","",""
"pit-trial","86","660926","0.0-2.0-17.1-0.1","battery-v0.2","","""event"",""trial"",""time""
""fullscreenenter"",""1"",""2319""
","
","
","""event"",""trial"",""time""
""fullscreenenter"",""1"",""2319""
","
","","","518.0999999940395","","","10","10898","18","&#9789;","elianto","#f73b6a7A"," "," ","1","0","[1370.6000000014901]","1","0","4","","","","","","","",""
"pit-trial","87","664383","0.0-2.0-17.1-1.1","battery-v0.2","","""event"",""trial"",""time""
""fullscreenenter"",""1"",""2319""
","
","
","""event"",""trial"",""time""
""fullscreenenter"",""1"",""2319""
","
","","","603.5","","","10","10898","18","&#9789;","elianto","#f73b6a7A"," "," ","1","0","[1455.2999999970198]","1","0","4","","","","","","","",""
"pit-trial","88","667810","0.0-2.0-17.1-2.1","battery-v0.2","","""event"",""trial"",""time""
""fullscreenenter"",""1"",""2319""
","
","
","""event"",""trial"",""time""
""fullscreenenter"",""1"",""2319""
","
","","","564.0999999940395","","","10","10898","18","&#9789;","elianto","#f73b6a7A"," "," ","1","0","[1421.5]","1","0","4","","","","","","","",""
"pit-trial","89","671379","0.0-2.0-17.1-3.1","battery-v0.2","","""event"",""trial"",""time""
""fullscreenenter"",""1"",""2319""
","
","
","""event"",""trial"",""time""
""fullscreenenter"",""1"",""2319""
","
","","","706","","","10","10898","18","&#9789;","elianto","#f73b6a7A"," "," ","1","-10","[1562.4000000059605]","1","0","4","","","","","","","",""
"pit-trial","90","674963","0.0-2.0-17.1-4.1","battery-v0.2","","""event"",""trial"",""time""
""fullscreenenter"",""1"",""2319""
","
","
","""event"",""trial"",""time""
""fullscreenenter"",""1"",""2319""
","
","","","716.5","","","10","10898","18","&#9789;","elianto","#f73b6a7A"," "," ","1","0","[1577.8999999985099]","1","0","4","","","","","","","",""
"pit-trial","91","678930","0.0-2.0-17.2-0.2","battery-v0.2","","""event"",""trial"",""time""
""fullscreenenter"",""1"",""2319""
","
","
","""event"",""trial"",""time""
""fullscreenenter"",""1"",""2319""
","
","","","1110.3000000044703","","","10","10898","18","&#9789;","elianto","#f73b6a7A"," "," ","1","0","[1961.2000000029802]","1","0","4","","","","","","","",""
"pit-trial","92","682634","0.0-2.0-17.2-1.2","battery-v0.2","","""event"",""trial"",""time""
""fullscreenenter"",""1"",""2319""
","
","
","""event"",""trial"",""time""
""fullscreenenter"",""1"",""2319""
","
","","","847.2000000029802","","","10","10898","18","&#9789;","elianto","#f73b6a7A"," "," ","1","0","[1697.7000000029802]","1","0","4","","","","","","","",""
"pit-trial","93","686250","0.0-2.0-17.2-2.2","battery-v0.2","","""event"",""trial"",""time""
""fullscreenenter"",""1"",""2319""
","
","
","""event"",""trial"",""time""
""fullscreenenter"",""1"",""2319""
","
","","","759.8000000044703","","","10","10898","18","&#9789;","elianto","#f73b6a7A"," "," ","1","0","[1610.3999999985099]","1","0","4","","","","","","","",""
"pit-trial","94","690522","0.0-2.0-17.2-3.2","battery-v0.2","","""event"",""trial"",""time""
""fullscreenenter"",""1"",""2319""
","
","
","""event"",""trial"",""time""
""fullscreenenter"",""1"",""2319""
","
","","","1414.0999999940395","","","10","10898","18","&#9789;","elianto","#f73b6a7A"," "," ","1","-10","[2266.1999999955297]","1","0","4","","","","","","","",""
"pit-trial","95","694594","0.0-2.0-17.2-4.2","battery-v0.2","","""event"",""trial"",""time""
""fullscreenenter"",""1"",""2319""
","
","
","""event"",""trial"",""time""
""fullscreenenter"",""1"",""2319""
","
","","","1215","","","10","10898","18","&#9789;","elianto","#f73b6a7A"," "," ","1","0","[2065.2999999970198]","1","0","4","","","","","","","",""
"pit-trial","96","698362","0.0-2.0-17.3-0.3","battery-v0.2","","""event"",""trial"",""time""
""fullscreenenter"",""1"",""2319""
","
","
","""event"",""trial"",""time""
""fullscreenenter"",""1"",""2319""
","
","","","909.7999999970198","","","10","10898","18","&#9789;","elianto","#f73b6a7A"," "," ","1","0","[1761.3999999985099]","1","0","4","","","","","","","",""
"pit-trial","97","701943","0.0-2.0-17.3-1.3","battery-v0.2","","""event"",""trial"",""time""
""fullscreenenter"",""1"",""2319""
","
","
","""event"",""trial"",""time""
""fullscreenenter"",""1"",""2319""
","
","","","714.5","","","10","10898","18","&#9789;","elianto","#f73b6a7A"," "," ","1","0","[1576.7999999970198]","1","0","4","","","","","","","",""
"pit-trial","98","705474","0.0-2.0-17.3-2.3","battery-v0.2","","""event"",""trial"",""time""
""fullscreenenter"",""1"",""2319""
","
","
","""event"",""trial"",""time""
""fullscreenenter"",""1"",""2319""
","
","","","670.3999999985099","","","10","10898","18","&#9789;","elianto","#f73b6a7A"," "," ","1","0","[1524.3999999985099]","1","0","4","","","","","","","",""
"pit-trial","99","709098","0.0-2.0-17.3-3.3","battery-v0.2","","""event"",""trial"",""time""
""fullscreenenter"",""1"",""2319""
","
","
","""event"",""trial"",""time""
""fullscreenenter"",""1"",""2319""
","
","","","760.7999999970198","","","10","10898","18","&#9789;","elianto","#f73b6a7A"," "," ","1","-10","[1617.7999999970198]","1","0","4","","","","","","","",""
"pit-trial","100","712370","0.0-2.0-17.3-4.3","battery-v0.2","","""event"",""trial"",""time""
""fullscreenenter"",""1"",""2319""
","
","
","""event"",""trial"",""time""
""fullscreenenter"",""1"",""2319""
","
","","","404","","","10","10898","18","&#9789;","elianto","#f73b6a7A"," "," ","1","0","[1265.8999999985099]","1","0","4","","","","","","","",""
"call-function","101","712371","0.0-2.0-18.0","battery-v0.2","","""event"",""trial"",""time""
""fullscreenenter"",""1"",""2319""
","
","
","""event"",""trial"",""time""
""fullscreenenter"",""1"",""2319""
","
","","","","","","","","","","","","","","","","","","","","","","","","","","",""
"pit-instructions","102","775209","0.0-2.0-19.0","battery-v0.2","","""event"",""trial"",""time""
""fullscreenenter"",""1"",""2319""
","
","
","""event"",""trial"",""time""
""fullscreenenter"",""1"",""2319""
","
","","[{""page_index"":0,""viewing_time"":6854.5},{""page_index"":1,""viewing_time"":7089.19999999553},{""page_index"":2,""viewing_time"":11275},{""page_index"":3,""viewing_time"":7121.60000000149},{""page_index"":4,""viewing_time"":6158.30000000447},{""page_index"":5,""viewing_time"":8477.79999999702},{""page_index"":6,""viewing_time"":5715.89999999851},{""page_index"":7,""viewing_time"":6148.5},{""page_index"":8,""viewing_time"":3933.7000000029802}]","62775.10000000149","","","","","","","","","","","","","","","","","","","","","","","",""
"pit-comprehension","103","781296","0.0-2.0-20.0-0.0","battery-v0.2","","""event"",""trial"",""time""
""fullscreenenter"",""1"",""2319""
","
","
","""event"",""trial"",""time""
""fullscreenenter"",""1"",""2319""
","
","","","6084","[""SPACE""]","0","10","10898","18","","","","","","","","","","","","","","","","","","",""
"pit-instructions","104","783933","0.0-2.0-20.0-1.0","battery-v0.2","","""event"",""trial"",""time""
""fullscreenenter"",""1"",""2319""
","
","
","""event"",""trial"",""time""
""fullscreenenter"",""1"",""2319""
","
","","[{""page_index"":0,""viewing_time"":2600.7999999970198}]","2601.2999999970198","","","","","","","","","","","","","","","","","","","","","","","",""
"pit-comprehension","105","789930","0.0-2.0-21.0-0.0","battery-v0.2","","""event"",""trial"",""time""
""fullscreenenter"",""1"",""2319""
","
","
","""event"",""trial"",""time""
""fullscreenenter"",""1"",""2319""
","
","","","5994","[""10""]","0","10","10898","18","","","","","","","","","","","","","","","","","","",""
"pit-instructions","106","792511","0.0-2.0-21.0-1.0","battery-v0.2","","""event"",""trial"",""time""
""fullscreenenter"",""1"",""2319""
","
","
","""event"",""trial"",""time""
""fullscreenenter"",""1"",""2319""
","
","","[{""page_index"":0,""viewing_time"":2548.1999999955297}]","2548.5999999940395","","","","","","","","","","","","","","","","","","","","","","","",""
"pit-comprehension","107","799046","0.0-2.0-22.0-0.0","battery-v0.2","","""event"",""trial"",""time""
""fullscreenenter"",""1"",""2319""
","
","
","""event"",""trial"",""time""
""fullscreenenter"",""1"",""2319""
","
","","","6531.80000000447","[""0""]","0","10","10898","18","","","","","","","","","","","","","","","","","","",""
"pit-instructions","108","800391","0.0-2.0-22.0-1.0","battery-v0.2","","""event"",""trial"",""time""
""fullscreenenter"",""1"",""2319""
","
","
","""event"",""trial"",""time""
""fullscreenenter"",""1"",""2319""
","
","","[{""page_index"":0,""viewing_time"":1312.2999999970198}]","1312.6000000014901","","","","","","","","","","","","","","","","","","","","","","","",""
"pit-comprehension","109","808946","0.0-2.0-23.0-0.0","battery-v0.2","","""event"",""trial"",""time""
""fullscreenenter"",""1"",""2319""
","
","
","""event"",""trial"",""time""
""fullscreenenter"",""1"",""2319""
","
","","","8551.30000000447","[""True""]","0","10","10898","18","","","","","","","","","","","","","","","","","","",""
"pit-instructions","110","810537","0.0-2.0-23.0-1.0","battery-v0.2","","""event"",""trial"",""time""
""fullscreenenter"",""1"",""2319""
","
","
","""event"",""trial"",""time""
""fullscreenenter"",""1"",""2319""
","
","","[{""page_index"":0,""viewing_time"":1555.2999999970198}]","1555.5999999940395","","","","","","","","","","","","","","","","","","","","","","","",""
"pit-comprehension","111","818132","0.0-2.0-24.0-0.0","battery-v0.2","","""event"",""trial"",""time""
""fullscreenenter"",""1"",""2319""
","
","
","""event"",""trial"",""time""
""fullscreenenter"",""1"",""2319""
","
","","","7592.10000000149","[""True""]","0","10","10898","18","","","","","","","","","","","","","","","","","","",""
"pit-instructions","112","822200","0.0-2.0-24.0-1.0","battery-v0.2","","""event"",""trial"",""time""
""fullscreenenter"",""1"",""2319""
","
","
","""event"",""trial"",""time""
""fullscreenenter"",""1"",""2319""
","
","","[{""page_index"":0,""viewing_time"":4033.5}]","4033.8000000044703","","","","","","","","","","","","","","","","","","","","","","","",""
"pit-comprehension","113","828680","0.0-2.0-25.0-0.0","battery-v0.2","","""event"",""trial"",""time""
""fullscreenenter"",""1"",""2319""
","
","
","""event"",""trial"",""time""
""fullscreenenter"",""1"",""2319""
","
","","","6477.20000000298","[""True""]","0","10","10898","18","","","","","","","","","","","","","","","","","","",""
"pit-instructions","114","831234","0.0-2.0-25.0-1.0","battery-v0.2","","""event"",""trial"",""time""
""fullscreenenter"",""1"",""2319""
","
","
","""event"",""trial"",""time""
""fullscreenenter"",""1"",""2319""
","
","","[{""page_index"":0,""viewing_time"":2520.7999999970198}]","2521.10000000149","","","","","","","","","","","","","","","","","","","","","","","",""
"pit-comprehension","115","835959","0.0-2.0-26.0-0.0","battery-v0.2","","""event"",""trial"",""time""
""fullscreenenter"",""1"",""2319""
","
","
","""event"",""trial"",""time""
""fullscreenenter"",""1"",""2319""
","
","","","4721.5","[""False""]","0","10","10898","18","","","","","","","","","","","","","","","","","","",""
"pit-instructions","116","837753","0.0-2.0-26.0-1.0","battery-v0.2","","""event"",""trial"",""time""
""fullscreenenter"",""1"",""2319""
","
","
","""event"",""trial"",""time""
""fullscreenenter"",""1"",""2319""
","
","","[{""page_index"":0,""viewing_time"":1760.6000000014901}]","1760.8000000044703","","","","","","","","","","","","","","","","","","","","","","","",""
"pit-instructions","117","854583","0.0-3.0","battery-v0.2","","""event"",""trial"",""time""
""fullscreenenter"",""1"",""2319""
","
","
","""event"",""trial"",""time""
""fullscreenenter"",""1"",""2319""
","
","","[{""page_index"":0,""viewing_time"":4115.70000000298},{""page_index"":1,""viewing_time"":5145.29999999702},{""page_index"":2,""viewing_time"":7566.70000000298}]","16828","","","","","","","","","","","","","","","","","","","","","","","",""
"pit-trial","118","858471","0.0-4.0","battery-v0.2","","""event"",""trial"",""time""
""fullscreenenter"",""1"",""2319""
","
","
","""event"",""trial"",""time""
""fullscreenenter"",""1"",""2319""
","
","","","988.8999999985099","","","10","10898","18","&#9730;","elianto","#3366ff99"," "," ","1","+10","[1880.8999999985099]","1","1","","","10898","1","1","1","win","go","0"
"pit-trial","119","862287","0.0-5.0","battery-v0.2","","""event"",""trial"",""time""
""fullscreenenter"",""1"",""2319""
","
","
","""event"",""trial"",""time""
""fullscreenenter"",""1"",""2319""
","
","","","941.2999999970198","","","10","10898","18","&#9752;","elianto","#f73b6a7A"," "," ","1","0","[1811.6000000014901]","1","1","","","10898","2","3","3","lose","go","0"
"pit-trial","120","866136","0.0-6.0","battery-v0.2","","""event"",""trial"",""time""
""fullscreenenter"",""1"",""2319""
","
","
","""event"",""trial"",""time""
""fullscreenenter"",""1"",""2319""
","
","","","993.3000000044703","","","10","10898","18","&#9733;","elianto","#3366ff99","-1"," ","0","0","[1844.1000000014901]","1","1","","","10898","3","2","2","win","no-go","0"
"pit-trial","121","869972","0.0-7.0","battery-v0.2","","""event"",""trial"",""time""
""fullscreenenter"",""1"",""2319""
","
","
","""event"",""trial"",""time""
""fullscreenenter"",""1"",""2319""
","
","","","981.7999999970198","","","10","10898","18","&#9728;","elianto","#f73b6a7A","-1"," ","0","-10","[1834.1000000014901]","1","1","","","10898","4","0","4","lose","no-go","0"
"pit-trial","122","873658","0.0-8.0","battery-v0.2","","""event"",""trial"",""time""
""fullscreenenter"",""1"",""2319""
","
","
","""event"",""trial"",""time""
""fullscreenenter"",""1"",""2319""
","
","","","827","","","10","10898","18","&#9730;","elianto","#3366ff99"," "," ","1","+10","[1678.8000000044703]","1","1","","","10898","5","1","1","win","go","0"
"pit-trial","123","877889","0.0-9.0","battery-v0.2","","""event"",""trial"",""time""
""fullscreenenter"",""1"",""2319""
","
","
","""event"",""trial"",""time""
""fullscreenenter"",""1"",""2319""
","
","","","1369.1999999955297","","","10","10898","18","&#9728;","elianto","#f73b6a7A","-1"," ","0","-10","[2225.2000000029802]","1","1","","","10898","6","0","4","lose","no-go","0"
"pit-trial","124","882749","0.0-10.0","battery-v0.2","","""event"",""trial"",""time""
""fullscreenenter"",""1"",""2319""
","
","
","""event"",""trial"",""time""
""fullscreenenter"",""1"",""2319""
","
","","","-1","","","10","10898","18","&#9752;","elianto","#f73b6a7A"," ","-1","0","-10","[2922.39999999851]","1","1","","","10898","7","3","3","lose","go","0"
"pit-trial","125","886569","0.0-11.0","battery-v0.2","","""event"",""trial"",""time""
""fullscreenenter"",""1"",""2319""
","
","
","""event"",""trial"",""time""
""fullscreenenter"",""1"",""2319""
","
","","","952.2999999970198","","","10","10898","18","&#9733;","elianto","#3366ff99","-1"," ","0","0","[1814.5]","1","1","","","10898","8","2","2","win","no-go","0"
"pit-trial","126","890342","0.0-12.0","battery-v0.2","","""event"",""trial"",""time""
""fullscreenenter"",""1"",""2319""
","
","
","""event"",""trial"",""time""
""fullscreenenter"",""1"",""2319""
","
","","","920","","","10","10898","18","&#9730;","elianto","#3366ff99"," "," ","1","+10","[1770.3999999985099]","1","1","","","10898","9","1","1","win","go","0"
"pit-trial","127","895201","0.0-13.0","battery-v0.2","","""event"",""trial"",""time""
""fullscreenenter"",""1"",""2319""
","
","
","""event"",""trial"",""time""
""fullscreenenter"",""1"",""2319""
","
","","","-1","","","10","10898","18","&#9733;","elianto","#3366ff99","-1","-1","1","+10","[]","0","1","","","10898","10","2","2","win","no-go","0"
"pit-trial","128","900059","0.0-14.0","battery-v0.2","","""event"",""trial"",""time""
""fullscreenenter"",""1"",""2319""
","
","
","""event"",""trial"",""time""
""fullscreenenter"",""1"",""2319""
","
","","","-1","","","10","10898","18","&#9728;","elianto","#f73b6a7A","-1","-1","1","0","[]","0","1","","","10898","11","0","4","lose","no-go","0"
"pit-trial","129","903787","0.0-15.0","battery-v0.2","","""event"",""trial"",""time""
""fullscreenenter"",""1"",""2319""
","
","
","""event"",""trial"",""time""
""fullscreenenter"",""1"",""2319""
","
","","","865.2999999970198","","","10","10898","18","&#9752;","elianto","#f73b6a7A"," "," ","1","0","[1720.6000000014901]","1","1","","","10898","12","3","3","lose","go","0"
"pit-trial","130","907841","0.0-16.0","battery-v0.2","","""event"",""trial"",""time""
""fullscreenenter"",""1"",""2319""
","
","
","""event"",""trial"",""time""
""fullscreenenter"",""1"",""2319""
","
","","","1196","","","10","10898","18","&#9752;","elianto","#f73b6a7A"," "," ","1","0","[2049.9000000059605]","1","1","","","10898","13","3","3","lose","go","0"
"pit-trial","131","912700","0.0-17.0","battery-v0.2","","""event"",""trial"",""time""
""fullscreenenter"",""1"",""2319""
","
","
","""event"",""trial"",""time""
""fullscreenenter"",""1"",""2319""
","
","","","-1","","","10","10898","18","&#9733;","elianto","#3366ff99","-1","-1","1","+10","[]","0","1","","","10898","14","2","2","win","no-go","0"
"pit-trial","132","916500","0.0-18.0","battery-v0.2","","""event"",""trial"",""time""
""fullscreenenter"",""1"",""2319""
","
","
","""event"",""trial"",""time""
""fullscreenenter"",""1"",""2319""
","
","","","944.0999999940395","","","10","10898","18","&#9730;","elianto","#3366ff99"," "," ","1","+10","[1794.3999999985099]","1","1","","","10898","15","1","1","win","go","0"
"pit-trial","133","921361","0.0-19.0","battery-v0.2","","""event"",""trial"",""time""
""fullscreenenter"",""1"",""2319""
","
","
","""event"",""trial"",""time""
""fullscreenenter"",""1"",""2319""
","
","","","-1","","","10","10898","18","&#9728;","elianto","#f73b6a7A","-1","-1","1","0","[]","0","1","","","10898","16","0","4","lose","no-go","0"
"pit-trial","134","926220","0.0-20.0","battery-v0.2","","""event"",""trial"",""time""
""fullscreenenter"",""1"",""2319""
","
","
","""event"",""trial"",""time""
""fullscreenenter"",""1"",""2319""
","
","","","-1","","","10","10898","18","&#9733;","elianto","#3366ff99","-1","-1","1","0","[]","0","1","","","10898","17","2","2","win","no-go","1"
"pit-trial","135","929852","0.0-21.0","battery-v0.2","","""event"",""trial"",""time""
""fullscreenenter"",""1"",""2319""
","
","
","""event"",""trial"",""time""
""fullscreenenter"",""1"",""2319""
","
","","","775","","","10","10898","18","&#9730;","elianto","#3366ff99"," "," ","1","+10","[1628.7000000029802]","1","1","","","10898","18","1","1","win","go","0"
"pit-trial","136","934711","0.0-22.0","battery-v0.2","","""event"",""trial"",""time""
""fullscreenenter"",""1"",""2319""
","
","
","""event"",""trial"",""time""
""fullscreenenter"",""1"",""2319""
","
","","","-1","","","10","10898","18","&#9728;","elianto","#f73b6a7A","-1","-1","1","0","[]","0","1","","","10898","19","0","4","lose","no-go","0"
"pit-trial","137","938606","0.0-23.0","battery-v0.2","","""event"",""trial"",""time""
""fullscreenenter"",""1"",""2319""
","
","
","""event"",""trial"",""time""
""fullscreenenter"",""1"",""2319""
","
","","","1039.2000000029802","","","10","10898","18","&#9752;","elianto","#f73b6a7A"," "," ","1","0","[1889.8999999985099]","1","1","","","10898","20","3","3","lose","go","0"
"pit-instructions","138","951675","0.0-24.0","battery-v0.2","","""event"",""trial"",""time""
""fullscreenenter"",""1"",""2319""
","
","
","""event"",""trial"",""time""
""fullscreenenter"",""1"",""2319""
","
","","[{""page_index"":0,""viewing_time"":7053.10000000149},{""page_index"":1,""viewing_time"":6014.10000000149}]","13067.5","","","","","","","","","","","","","","","","","","","","","","","",""
"pit-trial","139","955447","0.0-25.0","battery-v0.2","","""event"",""trial"",""time""
""fullscreenenter"",""1"",""2319""
","
","
","""event"",""trial"",""time""
""fullscreenenter"",""1"",""2319""
","
","","","904.0999999940395","","","10","10898","18","f","elianto","#3366ff99"," "," ","1","+10","[1764.0999999940395]","1","2","","","10898","21","1","1","win","go","0"
"pit-trial","140","959351","0.0-26.0","battery-v0.2","","""event"",""trial"",""time""
""fullscreenenter"",""1"",""2319""
","
","
","""event"",""trial"",""time""
""fullscreenenter"",""1"",""2319""
","
","","","1032","","","10","10898","18","b","elianto","#f73b6a7A"," "," ","1","0","[1898.2000000029802]","1","2","","","10898","22","3","3","lose","go","0"
"pit-trial","141","963047","0.0-27.0","battery-v0.2","","""event"",""trial"",""time""
""fullscreenenter"",""1"",""2319""
","
","
","""event"",""trial"",""time""
""fullscreenenter"",""1"",""2319""
","
","","","839.7999999970198","","","10","10898","18","t","elianto","#f73b6a7A","-1"," ","0","0","[1690.2999999970198]","1","2","","","10898","23","2","4","lose","no-go","1"
"pit-trial","142","966575","0.0-28.0","battery-v0.2","","""event"",""trial"",""time""
""fullscreenenter"",""1"",""2319""
","
","
","""event"",""trial"",""time""
""fullscreenenter"",""1"",""2319""
","
","","","671.6999999955297","","","10","10898","18","n","elianto","#f73b6a7A","-1"," ","0","-10","[1522.3999999985099]","1","2","","","10898","24","0","4","lose","no-go","0"
"pit-trial","143","970766","0.0-29.0","battery-v0.2","","""event"",""trial"",""time""
""fullscreenenter"",""1"",""2319""
","
","
","""event"",""trial"",""time""
""fullscreenenter"",""1"",""2319""
","
","","","1325.7999999970198","","","10","10898","18","b","elianto","#f73b6a7A"," "," ","1","0","[2187]","1","2","","","10898","25","3","3","lose","go","0"
"pit-trial","144","975626","0.0-30.0","battery-v0.2","","""event"",""trial"",""time""
""fullscreenenter"",""1"",""2319""
","
","
","""event"",""trial"",""time""
""fullscreenenter"",""1"",""2319""
","
","","","-1","","","10","10898","18","n","elianto","#f73b6a7A","-1","-1","1","0","[]","0","2","","","10898","26","0","4","lose","no-go","0"
"pit-trial","145","979213","0.0-31.0","battery-v0.2","","""event"",""trial"",""time""
""fullscreenenter"",""1"",""2319""
","
","
","""event"",""trial"",""time""
""fullscreenenter"",""1"",""2319""
","
","","","733.1000000014901","","","10","10898","18","t","elianto","#f73b6a7A","-1"," ","0","-10","[1583.5]","1","2","","","10898","27","2","4","lose","no-go","0"
"pit-trial","146","982894","0.0-32.0","battery-v0.2","","""event"",""trial"",""time""
""fullscreenenter"",""1"",""2319""
","
","
","""event"",""trial"",""time""
""fullscreenenter"",""1"",""2319""
","
","","","811.5","","","10","10898","18","f","elianto","#3366ff99"," "," ","1","+10","[1676.8999999985099]","1","2","","","10898","28","1","1","win","go","0"
"pit-trial","147","986904","0.0-33.0","battery-v0.2","","""event"",""trial"",""time""
""fullscreenenter"",""1"",""2319""
","
","
","""event"",""trial"",""time""
""fullscreenenter"",""1"",""2319""
","
","","","1153.8999999985099","","","10","10898","18","f","elianto","#3366ff99"," "," ","1","+10","[2004.2999999970198]","1","2","","","10898","29","1","1","win","go","0"
"pit-trial","148","991763","0.0-34.0","battery-v0.2","","""event"",""trial"",""time""
""fullscreenenter"",""1"",""2319""
","
","
","""event"",""trial"",""time""
""fullscreenenter"",""1"",""2319""
","
","","","-1","","","10","10898","18","n","elianto","#f73b6a7A","-1","-1","1","0","[]","0","2","","","10898","30","0","4","lose","no-go","0"
"pit-trial","149","995758","0.0-35.0","battery-v0.2","","""event"",""trial"",""time""
""fullscreenenter"",""1"",""2319""
","
","
","""event"",""trial"",""time""
""fullscreenenter"",""1"",""2319""
","
","","","1132.1000000014901","","","10","10898","18","b","elianto","#f73b6a7A"," "," ","1","-10","[1991.6000000014901]","1","2","","","10898","31","3","3","lose","go","1"
"pit-trial","150","1000617","0.0-36.0","battery-v0.2","","""event"",""trial"",""time""
""fullscreenenter"",""1"",""2319""
","
","
","""event"",""trial"",""time""
""fullscreenenter"",""1"",""2319""
","
","","","-1","","","10","10898","18","t","elianto","#f73b6a7A","-1","-1","1","0","[]","0","2","","","10898","32","2","4","lose","no-go","0"
"pit-trial","151","1005476","0.0-37.0","battery-v0.2","","""event"",""trial"",""time""
""fullscreenenter"",""1"",""2319""
","
","
","""event"",""trial"",""time""
""fullscreenenter"",""1"",""2319""
","
","","","-1","","","10","10898","18","n","elianto","#f73b6a7A","-1","-1","1","0","[]","0","2","","","10898","33","0","4","lose","no-go","0"
"pit-trial","152","1009961","0.0-38.0","battery-v0.2","","""event"",""trial"",""time""
""fullscreenenter"",""1"",""2319""
","
","
","""event"",""trial"",""time""
""fullscreenenter"",""1"",""2319""
","
","","","1628","","","10","10898","18","b","elianto","#f73b6a7A"," "," ","1","-10","[2479.60000000149]","1","2","","","10898","34","3","3","lose","go","1"
"pit-trial","153","1014820","0.0-39.0","battery-v0.2","","""event"",""trial"",""time""
""fullscreenenter"",""1"",""2319""
","
","
","""event"",""trial"",""time""
""fullscreenenter"",""1"",""2319""
","
","","","-1","","","10","10898","18","t","elianto","#f73b6a7A","-1","-1","1","-10","[]","0","2","","","10898","35","2","4","lose","no-go","1"
"pit-trial","154","1018671","0.0-40.0","battery-v0.2","","""event"",""trial"",""time""
""fullscreenenter"",""1"",""2319""
","
","
","""event"",""trial"",""time""
""fullscreenenter"",""1"",""2319""
","
","","","996.1000000014901","","","10","10898","18","f","elianto","#3366ff99"," "," ","1","+10","[1846.6000000014901]","1","2","","","10898","36","1","1","win","go","0"
"pit-trial","155","1022624","0.0-41.0","battery-v0.2","","""event"",""trial"",""time""
""fullscreenenter"",""1"",""2319""
","
","
","""event"",""trial"",""time""
""fullscreenenter"",""1"",""2319""
","
","","","1096.6000000014901","","","10","10898","18","t","elianto","#f73b6a7A","-1"," ","0","-10","[1946.7999999970198]","1","2","","","10898","37","2","4","lose","no-go","0"
"pit-trial","156","1027483","0.0-42.0","battery-v0.2","","""event"",""trial"",""time""
""fullscreenenter"",""1"",""2319""
","
","
","""event"",""trial"",""time""
""fullscreenenter"",""1"",""2319""
","
","","","-1","","","10","10898","18","n","elianto","#f73b6a7A","-1","-1","1","0","[]","0","2","","","10898","38","0","4","lose","no-go","0"
"pit-trial","157","1031128","0.0-43.0","battery-v0.2","","""event"",""trial"",""time""
""fullscreenenter"",""1"",""2319""
","
","
","""event"",""trial"",""time""
""fullscreenenter"",""1"",""2319""
","
","","","788.2000000029802","","","10","10898","18","b","elianto","#f73b6a7A"," "," ","1","0","[1639.3000000044703]","1","2","","","10898","39","3","3","lose","go","0"
"pit-trial","158","1035119","0.0-44.0","battery-v0.2","","""event"",""trial"",""time""
""fullscreenenter"",""1"",""2319""
","
","
","""event"",""trial"",""time""
""fullscreenenter"",""1"",""2319""
","
","","","1135.3000000044703","","","10","10898","18","f","elianto","#3366ff99"," "," ","1","+10","[1985.6000000014901]","1","2","","","10898","40","1","1","win","go","0"
"pit-trial","159","1038879","0.0-45.0","battery-v0.2","","""event"",""trial"",""time""
""fullscreenenter"",""1"",""2319""
","
","
","""event"",""trial"",""time""
""fullscreenenter"",""1"",""2319""
","
","","","898.3000000044703","","","10","10898","18","f","elianto","#3366ff99"," "," ","1","+10","[1756]","1","2","","","10898","41","1","1","win","go","0"
"pit-trial","160","1043738","0.0-46.0","battery-v0.2","","""event"",""trial"",""time""
""fullscreenenter"",""1"",""2319""
","
","
","""event"",""trial"",""time""
""fullscreenenter"",""1"",""2319""
","
","","","-1","","","10","10898","18","n","elianto","#f73b6a7A","-1","-1","1","0","[]","0","2","","","10898","42","0","4","lose","no-go","0"
"pit-trial","161","1048207","0.0-47.0","battery-v0.2","","""event"",""trial"",""time""
""fullscreenenter"",""1"",""2319""
","
","
","""event"",""trial"",""time""
""fullscreenenter"",""1"",""2319""
","
","","","1608","","","10","10898","18","t","elianto","#f73b6a7A","-1"," ","0","-10","[2462.8000000044703]","1","2","","","10898","43","2","4","lose","no-go","0"
"pit-trial","162","1053066","0.0-48.0","battery-v0.2","","""event"",""trial"",""time""
""fullscreenenter"",""1"",""2319""
","
","
","""event"",""trial"",""time""
""fullscreenenter"",""1"",""2319""
","
","","","-1","","","10","10898","18","b","elianto","#f73b6a7A"," ","-1","0","-10","[]","0","2","","","10898","44","3","3","lose","go","0"
"pit-trial","163","1056815","0.0-49.0","battery-v0.2","","""event"",""trial"",""time""
""fullscreenenter"",""1"",""2319""
","
","
","""event"",""trial"",""time""
""fullscreenenter"",""1"",""2319""
","
","","","884.5","","","10","10898","18","c","elianto","#3366ff99","-1"," ","0","0","[1744.7999999970198]","1","2","","","10898","45","4","2","win","no-go","0"
"pit-trial","164","1060845","0.0-50.0","battery-v0.2","","""event"",""trial"",""time""
""fullscreenenter"",""1"",""2319""
","
","
","""event"",""trial"",""time""
""fullscreenenter"",""1"",""2319""
","
","","","1174.8999999985099","","","10","10898","18","b","elianto","#f73b6a7A"," "," ","1","-10","[2026.2000000029802]","1","2","","","10898","46","3","3","lose","go","1"
"pit-trial","165","1065706","0.0-51.0","battery-v0.2","","""event"",""trial"",""time""
""fullscreenenter"",""1"",""2319""
","
","
","""event"",""trial"",""time""
""fullscreenenter"",""1"",""2319""
","
","","","-1","","","10","10898","18","t","elianto","#f73b6a7A","-1","-1","1","0","[]","0","2","","","10898","47","2","4","lose","no-go","0"
"pit-trial","166","1070565","0.0-52.0","battery-v0.2","","""event"",""trial"",""time""
""fullscreenenter"",""1"",""2319""
","
","
","""event"",""trial"",""time""
""fullscreenenter"",""1"",""2319""
","
","","","-1","","","10","10898","18","n","elianto","#f73b6a7A","-1","-1","1","0","[]","0","2","","","10898","48","0","4","lose","no-go","0"
"pit-trial","167","1074435","0.0-53.0","battery-v0.2","","""event"",""trial"",""time""
""fullscreenenter"",""1"",""2319""
","
","
","""event"",""trial"",""time""
""fullscreenenter"",""1"",""2319""
","
","","","1013.6000000014901","","","10","10898","18","f","elianto","#3366ff99"," "," ","1","+10","[1864.3999999985099]","1","2","","","10898","49","1","1","win","go","0"
"pit-trial","168","1079296","0.0-54.0","battery-v0.2","","""event"",""trial"",""time""
""fullscreenenter"",""1"",""2319""
","
","
","""event"",""trial"",""time""
""fullscreenenter"",""1"",""2319""
","
","","","-1","","","10","10898","18","c","elianto","#3366ff99","-1","-1","1","+10","[]","0","2","","","10898","50","4","2","win","no-go","0"
"pit-trial","169","1084155","0.0-55.0","battery-v0.2","","""event"",""trial"",""time""
""fullscreenenter"",""1"",""2319""
","
","
","""event"",""trial"",""time""
""fullscreenenter"",""1"",""2319""
","
","","","-1","","","10","10898","18","n","elianto","#f73b6a7A","-1","-1","1","0","[]","0","2","","","10898","51","0","4","lose","no-go","0"
"pit-trial","170","1089014","0.0-56.0","battery-v0.2","","""event"",""trial"",""time""
""fullscreenenter"",""1"",""2319""
","
","
","""event"",""trial"",""time""
""fullscreenenter"",""1"",""2319""
","
","","","-1","","","10","10898","18","b","elianto","#f73b6a7A"," ","-1","0","-10","[]","0","2","","","10898","52","3","3","lose","go","0"
"pit-trial","171","1092832","0.0-57.0","battery-v0.2","","""event"",""trial"",""time""
""fullscreenenter"",""1"",""2319""
","
","
","""event"",""trial"",""time""
""fullscreenenter"",""1"",""2319""
","
","","","954.3999999985099","","","10","10898","18","c","elianto","#3366ff99","-1"," ","0","0","[1812]","1","2","","","10898","53","4","2","win","no-go","0"
"pit-trial","172","1097692","0.0-58.0","battery-v0.2","","""event"",""trial"",""time""
""fullscreenenter"",""1"",""2319""
","
","
","""event"",""trial"",""time""
""fullscreenenter"",""1"",""2319""
","
","","","-1","","","10","10898","18","n","elianto","#f73b6a7A","-1","-1","1","0","[]","0","2","","","10898","54","0","4","lose","no-go","0"
"pit-trial","173","1101655","0.0-59.0","battery-v0.2","","""event"",""trial"",""time""
""fullscreenenter"",""1"",""2319""
","
","
","""event"",""trial"",""time""
""fullscreenenter"",""1"",""2319""
","
","","","1103.6000000014901","","","10","10898","18","f","elianto","#3366ff99"," "," ","1","+10","[1957]","1","2","","","10898","55","1","1","win","go","0"
"pit-trial","174","1106514","0.0-60.0","battery-v0.2","","""event"",""trial"",""time""
""fullscreenenter"",""1"",""2319""
","
","
","""event"",""trial"",""time""
""fullscreenenter"",""1"",""2319""
","
","","","-1","","","10","10898","18","t","elianto","#f73b6a7A","-1","-1","1","0","[]","0","2","","","10898","56","2","4","lose","no-go","0"
"pit-trial","175","1111373","0.0-61.0","battery-v0.2","","""event"",""trial"",""time""
""fullscreenenter"",""1"",""2319""
","
","
","""event"",""trial"",""time""
""fullscreenenter"",""1"",""2319""
","
","","","-1","","","10","10898","18","b","elianto","#f73b6a7A"," ","-1","0","-10","[]","0","2","","","10898","57","3","3","lose","go","0"
"pit-trial","176","1116232","0.0-62.0","battery-v0.2","","""event"",""trial"",""time""
""fullscreenenter"",""1"",""2319""
","
","
","""event"",""trial"",""time""
""fullscreenenter"",""1"",""2319""
","
","","","-1","","","10","10898","18","c","elianto","#3366ff99","-1","-1","1","+10","[]","0","2","","","10898","58","4","2","win","no-go","0"
"pit-trial","177","1120626","0.0-63.0","battery-v0.2","","""event"",""trial"",""time""
""fullscreenenter"",""1"",""2319""
","
","
","""event"",""trial"",""time""
""fullscreenenter"",""1"",""2319""
","
","","","1536.3999999985099","","","10","10898","18","f","elianto","#3366ff99"," "," ","1","+10","[2390.60000000149]","1","2","","","10898","59","1","1","win","go","0"
"pit-trial","178","1125485","0.0-64.0","battery-v0.2","","""event"",""trial"",""time""
""fullscreenenter"",""1"",""2319""
","
","
","""event"",""trial"",""time""
""fullscreenenter"",""1"",""2319""
","
","","","-1","","","10","10898","18","n","elianto","#f73b6a7A","-1","-1","1","0","[]","0","2","","","10898","60","0","4","lose","no-go","0"
"pit-trial","179","1129125","0.0-65.0","battery-v0.2","","""event"",""trial"",""time""
""fullscreenenter"",""1"",""2319""
","
","
","""event"",""trial"",""time""
""fullscreenenter"",""1"",""2319""
","
","","","783.1000000014901","","","10","10898","18","b","elianto","#f73b6a7A"," "," ","1","0","[1633.7999999970198]","1","2","","","10898","61","3","3","lose","go","0"
"pit-trial","180","1132892","0.0-66.0","battery-v0.2","","""event"",""trial"",""time""
""fullscreenenter"",""1"",""2319""
","
","
","""event"",""trial"",""time""
""fullscreenenter"",""1"",""2319""
","
","","","911.7000000029802","","","10","10898","18","f","elianto","#3366ff99"," "," ","1","+10","[1762.2000000029802]","1","2","","","10898","62","1","1","win","go","0"
"pit-trial","181","1137751","0.0-67.0","battery-v0.2","","""event"",""trial"",""time""
""fullscreenenter"",""1"",""2319""
","
","
","""event"",""trial"",""time""
""fullscreenenter"",""1"",""2319""
","
","","","-1","","","10","10898","18","t","elianto","#f73b6a7A","-1","-1","1","0","[]","0","2","","","10898","63","2","4","lose","no-go","0"
"pit-trial","182","1142610","0.0-68.0","battery-v0.2","","""event"",""trial"",""time""
""fullscreenenter"",""1"",""2319""
","
","
","""event"",""trial"",""time""
""fullscreenenter"",""1"",""2319""
","
","","","-1","","","10","10898","18","c","elianto","#3366ff99","-1","-1","1","+10","[]","0","2","","","10898","64","4","2","win","no-go","0"
"pit-trial","183","1147468","0.0-69.0","battery-v0.2","","""event"",""trial"",""time""
""fullscreenenter"",""1"",""2319""
","
","
","""event"",""trial"",""time""
""fullscreenenter"",""1"",""2319""
","
","","","-1","","","10","10898","18","b","elianto","#f73b6a7A"," ","-1","0","0","[]","0","2","","","10898","65","3","3","lose","go","1"
"pit-trial","184","1152327","0.0-70.0","battery-v0.2","","""event"",""trial"",""time""
""fullscreenenter"",""1"",""2319""
","
","
","""event"",""trial"",""time""
""fullscreenenter"",""1"",""2319""
","
","","","-1","","","10","10898","18","t","elianto","#f73b6a7A","-1","-1","1","0","[]","0","2","","","10898","66","2","4","lose","no-go","0"
"pit-trial","185","1156258","0.0-71.0","battery-v0.2","","""event"",""trial"",""time""
""fullscreenenter"",""1"",""2319""
","
","
","""event"",""trial"",""time""
""fullscreenenter"",""1"",""2319""
","
","","","1074","","","10","10898","18","f","elianto","#3366ff99"," "," ","1","+10","[1924.1999999955297]","1","2","","","10898","67","1","1","win","go","0"
"pit-trial","186","1161117","0.0-72.0","battery-v0.2","","""event"",""trial"",""time""
""fullscreenenter"",""1"",""2319""
","
","
","""event"",""trial"",""time""
""fullscreenenter"",""1"",""2319""
","
","","","-1","","","10","10898","18","c","elianto","#3366ff99","-1","-1","1","+10","[]","0","2","","","10898","68","4","2","win","no-go","0"
"pit-trial","187","1165976","0.0-73.0","battery-v0.2","","""event"",""trial"",""time""
""fullscreenenter"",""1"",""2319""
","
","
","""event"",""trial"",""time""
""fullscreenenter"",""1"",""2319""
","
","","","-1","","","10","10898","18","c","elianto","#3366ff99","-1","-1","1","+10","[]","0","2","","","10898","69","4","2","win","no-go","0"
"pit-trial","188","1170834","0.0-74.0","battery-v0.2","","""event"",""trial"",""time""
""fullscreenenter"",""1"",""2319""
","
","
","""event"",""trial"",""time""
""fullscreenenter"",""1"",""2319""
","
","","","-1","","","10","10898","18","b","elianto","#f73b6a7A"," ","-1","0","0","[]","0","2","","","10898","70","3","3","lose","go","1"
"pit-trial","189","1174579","0.0-75.0","battery-v0.2","","""event"",""trial"",""time""
""fullscreenenter"",""1"",""2319""
","
","
","""event"",""trial"",""time""
""fullscreenenter"",""1"",""2319""
","
","","","889.5999999940395","","","10","10898","18","f","elianto","#3366ff99"," "," ","1","+10","[1741.3999999985099]","1","2","","","10898","71","1","1","win","go","0"
"pit-trial","190","1178867","0.0-76.0","battery-v0.2","","""event"",""trial"",""time""
""fullscreenenter"",""1"",""2319""
","
","
","""event"",""trial"",""time""
""fullscreenenter"",""1"",""2319""
","
","","","1430.8999999985099","","","10","10898","18","z","elianto","#3366ff99"," "," ","1","+10","[2281.2999999970198]","1","2","","","10898","72","5","1","win","go","0"
"pit-trial","191","1182648","0.0-77.0","battery-v0.2","","""event"",""trial"",""time""
""fullscreenenter"",""1"",""2319""
","
","
","""event"",""trial"",""time""
""fullscreenenter"",""1"",""2319""
","
","","","927.5","","","10","10898","18","z","elianto","#3366ff99"," "," ","1","+10","[1778.2000000029802]","1","2","","","10898","73","5","1","win","go","0"
"pit-trial","192","1187507","0.0-78.0","battery-v0.2","","""event"",""trial"",""time""
""fullscreenenter"",""1"",""2319""
","
","
","""event"",""trial"",""time""
""fullscreenenter"",""1"",""2319""
","
","","","-1","","","10","10898","18","b","elianto","#f73b6a7A"," ","-1","0","0","[]","0","2","","","10898","74","3","3","lose","go","1"
"pit-trial","193","1191077","0.0-79.0","battery-v0.2","","""event"",""trial"",""time""
""fullscreenenter"",""1"",""2319""
","
","
","""event"",""trial"",""time""
""fullscreenenter"",""1"",""2319""
","
","","","712.3999999985099","","","10","10898","18","f","elianto","#3366ff99"," "," ","1","+10","[1564.1999999955297]","1","2","","","10898","75","1","1","win","go","0"
"pit-trial","194","1195939","0.0-80.0","battery-v0.2","","""event"",""trial"",""time""
""fullscreenenter"",""1"",""2319""
","
","
","""event"",""trial"",""time""
""fullscreenenter"",""1"",""2319""
","
","","","-1","","","10","10898","18","c","elianto","#3366ff99","-1","-1","1","+10","[]","0","2","","","10898","76","4","2","win","no-go","0"
"pit-trial","195","1200798","0.0-81.0","battery-v0.2","","""event"",""trial"",""time""
""fullscreenenter"",""1"",""2319""
","
","
","""event"",""trial"",""time""
""fullscreenenter"",""1"",""2319""
","
","","","-1","","","10","10898","18","c","elianto","#3366ff99","-1","-1","1","+10","[]","0","2","","","10898","77","4","2","win","no-go","0"
"pit-trial","196","1205657","0.0-82.0","battery-v0.2","","""event"",""trial"",""time""
""fullscreenenter"",""1"",""2319""
","
","
","""event"",""trial"",""time""
""fullscreenenter"",""1"",""2319""
","
","","","-1","","","10","10898","18","b","elianto","#f73b6a7A"," ","-1","0","0","[]","0","2","","","10898","78","3","3","lose","go","1"
"pit-trial","197","1209625","0.0-83.0","battery-v0.2","","""event"",""trial"",""time""
""fullscreenenter"",""1"",""2319""
","
","
","""event"",""trial"",""time""
""fullscreenenter"",""1"",""2319""
","
","","","1110.5999999940395","","","10","10898","18","z","elianto","#3366ff99"," "," ","1","+10","[1963.0999999940395]","1","2","","","10898","79","5","1","win","go","0"
"pit-trial","198","1214041","0.0-84.0","battery-v0.2","","""event"",""trial"",""time""
""fullscreenenter"",""1"",""2319""
","
","
","""event"",""trial"",""time""
""fullscreenenter"",""1"",""2319""
","
","","","1555.6999999955297","","","10","10898","18","h","elianto","#f73b6a7A","-1"," ","0","0","[2409.3000000044703]","1","2","","","10898","80","6","4","lose","no-go","1"
"pit-trial","199","1217822","0.0-85.0","battery-v0.2","","""event"",""trial"",""time""
""fullscreenenter"",""1"",""2319""
","
","
","""event"",""trial"",""time""
""fullscreenenter"",""1"",""2319""
","
","","","924.7999999970198","","","10","10898","18","z","elianto","#3366ff99"," "," ","1","+10","[1778.3999999985099]","1","2","","","10898","81","5","1","win","go","0"
"pit-trial","200","1221742","0.0-86.0","battery-v0.2","","""event"",""trial"",""time""
""fullscreenenter"",""1"",""2319""
","
","
","""event"",""trial"",""time""
""fullscreenenter"",""1"",""2319""
","
","","","1044.7000000029802","","","10","10898","18","y","elianto","#f73b6a7A"," "," ","1","0","[1915.5]","1","2","","","10898","82","7","3","lose","go","0"
"pit-trial","201","1225606","0.0-87.0","battery-v0.2","","""event"",""trial"",""time""
""fullscreenenter"",""1"",""2319""
","
","
","""event"",""trial"",""time""
""fullscreenenter"",""1"",""2319""
","
","","","1009.2000000029802","","","10","10898","18","h","elianto","#f73b6a7A","-1"," ","0","-10","[1859.8999999985099]","1","2","","","10898","83","6","4","lose","no-go","0"
"pit-trial","202","1230468","0.0-88.0","battery-v0.2","","""event"",""trial"",""time""
""fullscreenenter"",""1"",""2319""
","
","
","""event"",""trial"",""time""
""fullscreenenter"",""1"",""2319""
","
","","","-1","","","10","10898","18","c","elianto","#3366ff99","-1","-1","1","0","[]","0","2","","","10898","84","4","2","win","no-go","1"
"pit-trial","203","1234732","0.0-89.0","battery-v0.2","","""event"",""trial"",""time""
""fullscreenenter"",""1"",""2319""
","
","
","""event"",""trial"",""time""
""fullscreenenter"",""1"",""2319""
","
","","","1391.8999999985099","","","10","10898","18","y","elianto","#f73b6a7A"," "," ","1","0","[2259.2999999970198]","1","2","","","10898","85","7","3","lose","go","0"
"pit-trial","204","1239593","0.0-90.0","battery-v0.2","","""event"",""trial"",""time""
""fullscreenenter"",""1"",""2319""
","
","
","""event"",""trial"",""time""
""fullscreenenter"",""1"",""2319""
","
","","","-1","","","10","10898","18","c","elianto","#3366ff99","-1","-1","1","+10","[]","0","2","","","10898","86","4","2","win","no-go","0"
"pit-trial","205","1243988","0.0-91.0","battery-v0.2","","""event"",""trial"",""time""
""fullscreenenter"",""1"",""2319""
","
","
","""event"",""trial"",""time""
""fullscreenenter"",""1"",""2319""
","
","","","1537.1999999955297","","","10","10898","18","h","elianto","#f73b6a7A","-1"," ","0","-10","[2388.39999999851]","1","2","","","10898","87","6","4","lose","no-go","0"
"pit-trial","206","1247663","0.0-92.0","battery-v0.2","","""event"",""trial"",""time""
""fullscreenenter"",""1"",""2319""
","
","
","""event"",""trial"",""time""
""fullscreenenter"",""1"",""2319""
","
","","","813.7000000029802","","","10","10898","18","z","elianto","#3366ff99"," "," ","1","+10","[1669.5999999940395]","1","2","","","10898","88","5","1","win","go","0"
"pit-trial","207","1252522","0.0-93.0","battery-v0.2","","""event"",""trial"",""time""
""fullscreenenter"",""1"",""2319""
","
","
","""event"",""trial"",""time""
""fullscreenenter"",""1"",""2319""
","
","","","-1","","","10","10898","18","h","elianto","#f73b6a7A","-1","-1","1","0","[]","0","2","","","10898","89","6","4","lose","no-go","0"
"pit-trial","208","1257381","0.0-94.0","battery-v0.2","","""event"",""trial"",""time""
""fullscreenenter"",""1"",""2319""
","
","
","""event"",""trial"",""time""
""fullscreenenter"",""1"",""2319""
","
","","","-1","","","10","10898","18","c","elianto","#3366ff99","-1","-1","1","+10","[]","0","2","","","10898","90","4","2","win","no-go","0"
"pit-trial","209","1261221","0.0-95.0","battery-v0.2","","""event"",""trial"",""time""
""fullscreenenter"",""1"",""2319""
","
","
","""event"",""trial"",""time""
""fullscreenenter"",""1"",""2319""
","
","","","979.5","","","10","10898","18","z","elianto","#3366ff99"," "," ","1","+10","[1836.3999999985099]","1","2","","","10898","91","5","1","win","go","0"
"pit-trial","210","1265376","0.0-96.0","battery-v0.2","","""event"",""trial"",""time""
""fullscreenenter"",""1"",""2319""
","
","
","""event"",""trial"",""time""
""fullscreenenter"",""1"",""2319""
","
","","","1288.8999999985099","","","10","10898","18","y","elianto","#f73b6a7A"," "," ","1","0","[2147.89999999851]","1","2","","","10898","92","7","3","lose","go","0"
"pit-trial","211","1269463","0.0-97.0","battery-v0.2","","""event"",""trial"",""time""
""fullscreenenter"",""1"",""2319""
","
","
","""event"",""trial"",""time""
""fullscreenenter"",""1"",""2319""
","
","","","1229.5999999940395","","","10","10898","18","r","elianto","#3366ff99","-1"," ","0","0","[2081.2000000029802]","1","2","","","10898","93","8","2","win","no-go","0"
"pit-trial","212","1274319","0.0-98.0","battery-v0.2","","""event"",""trial"",""time""
""fullscreenenter"",""1"",""2319""
","
","
","""event"",""trial"",""time""
""fullscreenenter"",""1"",""2319""
","
","","","-1","","","10","10898","18","h","elianto","#f73b6a7A","-1","-1","1","0","[]","0","2","","","10898","94","6","4","lose","no-go","0"
"pit-trial","213","1278187","0.0-99.0","battery-v0.2","","""event"",""trial"",""time""
""fullscreenenter"",""1"",""2319""
","
","
","""event"",""trial"",""time""
""fullscreenenter"",""1"",""2319""
","
","","","1005.8999999985099","","","10","10898","18","z","elianto","#3366ff99"," "," ","1","+10","[1860.2999999970198]","1","2","","","10898","95","5","1","win","go","0"
"pit-trial","214","1282165","0.0-100.0","battery-v0.2","","""event"",""trial"",""time""
""fullscreenenter"",""1"",""2319""
","
","
","""event"",""trial"",""time""
""fullscreenenter"",""1"",""2319""
","
","","","1113.2000000029802","","","10","10898","18","y","elianto","#f73b6a7A"," "," ","1","0","[1974.8999999985099]","1","2","","","10898","96","7","3","lose","go","0"
"pit-trial","215","1286203","0.0-101.0","battery-v0.2","","""event"",""trial"",""time""
""fullscreenenter"",""1"",""2319""
","
","
","""event"",""trial"",""time""
""fullscreenenter"",""1"",""2319""
","
","","","1183.8000000044703","","","10","10898","18","y","elianto","#f73b6a7A"," "," ","1","-10","[2034.5]","1","2","","","10898","97","7","3","lose","go","1"
"pit-trial","216","1289862","0.0-102.0","battery-v0.2","","""event"",""trial"",""time""
""fullscreenenter"",""1"",""2319""
","
","
","""event"",""trial"",""time""
""fullscreenenter"",""1"",""2319""
","
","","","781.3999999985099","","","10","10898","18","z","elianto","#3366ff99"," "," ","1","+10","[1652.1000000014901]","1","2","","","10898","98","5","1","win","go","0"
"pit-trial","217","1294720","0.0-103.0","battery-v0.2","","""event"",""trial"",""time""
""fullscreenenter"",""1"",""2319""
","
","
","""event"",""trial"",""time""
""fullscreenenter"",""1"",""2319""
","
","","","-1","","","10","10898","18","h","elianto","#f73b6a7A","-1","-1","1","0","[]","0","2","","","10898","99","6","4","lose","no-go","0"
"pit-trial","218","1298943","0.0-104.0","battery-v0.2","","""event"",""trial"",""time""
""fullscreenenter"",""1"",""2319""
","
","
","""event"",""trial"",""time""
""fullscreenenter"",""1"",""2319""
","
","","","1363.3999999985099","","","10","10898","18","r","elianto","#3366ff99","-1"," ","0","0","[2216.7999999970198]","1","2","","","10898","100","8","2","win","no-go","0"
"pit-trial","219","1303803","0.0-105.0","battery-v0.2","","""event"",""trial"",""time""
""fullscreenenter"",""1"",""2319""
","
","
","""event"",""trial"",""time""
""fullscreenenter"",""1"",""2319""
","
","","","-1","","","10","10898","18","h","elianto","#f73b6a7A","-1","-1","1","-10","[]","0","2","","","10898","101","6","4","lose","no-go","1"
"pit-trial","220","1307462","0.0-106.0","battery-v0.2","","""event"",""trial"",""time""
""fullscreenenter"",""1"",""2319""
","
","
","""event"",""trial"",""time""
""fullscreenenter"",""1"",""2319""
","
","","","796.8999999985099","","","10","10898","18","z","elianto","#3366ff99"," "," ","1","+10","[1653.1000000014901]","1","2","","","10898","102","5","1","win","go","0"
"pit-trial","221","1312318","0.0-107.0","battery-v0.2","","""event"",""trial"",""time""
""fullscreenenter"",""1"",""2319""
","
","
","""event"",""trial"",""time""
""fullscreenenter"",""1"",""2319""
","
","","","-1","","","10","10898","18","r","elianto","#3366ff99","-1","-1","1","0","[]","0","2","","","10898","103","8","2","win","no-go","1"
"pit-trial","222","1316470","0.0-108.0","battery-v0.2","","""event"",""trial"",""time""
""fullscreenenter"",""1"",""2319""
","
","
","""event"",""trial"",""time""
""fullscreenenter"",""1"",""2319""
","
","","","1283.6999999955297","","","10","10898","18","m","elianto","#3366ff99","-1"," ","0","+10","[2145.89999999851]","1","2","","","10898","104","9","2","win","no-go","1"
"pit-trial","223","1321329","0.0-109.0","battery-v0.2","","""event"",""trial"",""time""
""fullscreenenter"",""1"",""2319""
","
","
","""event"",""trial"",""time""
""fullscreenenter"",""1"",""2319""
","
","","","-1","","","10","10898","18","h","elianto","#f73b6a7A","-1","-1","1","0","[]","0","2","","","10898","105","6","4","lose","no-go","0"
"pit-trial","224","1325308","0.0-110.0","battery-v0.2","","""event"",""trial"",""time""
""fullscreenenter"",""1"",""2319""
","
","
","""event"",""trial"",""time""
""fullscreenenter"",""1"",""2319""
","
","","","1114.7000000029802","","","10","10898","18","z","elianto","#3366ff99"," "," ","1","+10","[1972.7000000029802]","1","2","","","10898","106","5","1","win","go","0"
"pit-trial","225","1330167","0.0-111.0","battery-v0.2","","""event"",""trial"",""time""
""fullscreenenter"",""1"",""2319""
","
","
","""event"",""trial"",""time""
""fullscreenenter"",""1"",""2319""
","
","","","-1","","","10","10898","18","r","elianto","#3366ff99","-1","-1","1","+10","[]","0","2","","","10898","107","8","2","win","no-go","0"
"pit-trial","226","1334296","0.0-112.0","battery-v0.2","","""event"",""trial"",""time""
""fullscreenenter"",""1"",""2319""
","
","
","""event"",""trial"",""time""
""fullscreenenter"",""1"",""2319""
","
","","","1269.2999999970198","","","10","10898","18","m","elianto","#3366ff99","-1"," ","0","0","[2124.7999999970198]","1","2","","","10898","108","9","2","win","no-go","0"
"pit-trial","227","1339155","0.0-113.0","battery-v0.2","","""event"",""trial"",""time""
""fullscreenenter"",""1"",""2319""
","
","
","""event"",""trial"",""time""
""fullscreenenter"",""1"",""2319""
","
","","","-1","","","10","10898","18","r","elianto","#3366ff99","-1","-1","1","0","[]","0","2","","","10898","109","8","2","win","no-go","1"
"pit-trial","228","1342951","0.0-114.0","battery-v0.2","","""event"",""trial"",""time""
""fullscreenenter"",""1"",""2319""
","
","
","""event"",""trial"",""time""
""fullscreenenter"",""1"",""2319""
","
","","","933.8000000044703","","","10","10898","18","z","elianto","#3366ff99"," "," ","1","+10","[1791.3000000044703]","1","2","","","10898","110","5","1","win","go","0"
"pit-trial","229","1346813","0.0-115.0","battery-v0.2","","""event"",""trial"",""time""
""fullscreenenter"",""1"",""2319""
","
","
","""event"",""trial"",""time""
""fullscreenenter"",""1"",""2319""
","
","","","1007.5","","","10","10898","18","m","elianto","#3366ff99","-1"," ","0","0","[1859.3000000044703]","1","2","","","10898","111","9","2","win","no-go","0"
"pit-trial","230","1351671","0.0-116.0","battery-v0.2","","""event"",""trial"",""time""
""fullscreenenter"",""1"",""2319""
","
","
","""event"",""trial"",""time""
""fullscreenenter"",""1"",""2319""
","
","","","-1","","","10","10898","18","h","elianto","#f73b6a7A","-1","-1","1","0","[]","0","2","","","10898","112","6","4","lose","no-go","0"
"pit-trial","231","1355447","0.0-117.0","battery-v0.2","","""event"",""trial"",""time""
""fullscreenenter"",""1"",""2319""
","
","
","""event"",""trial"",""time""
""fullscreenenter"",""1"",""2319""
","
","","","905","","","10","10898","18","z","elianto","#3366ff99"," "," ","1","+10","[1770.7000000029802]","1","2","","","10898","113","5","1","win","go","0"
"pit-trial","232","1360306","0.0-118.0","battery-v0.2","","""event"",""trial"",""time""
""fullscreenenter"",""1"",""2319""
","
","
","""event"",""trial"",""time""
""fullscreenenter"",""1"",""2319""
","
","","","-1","","","10","10898","18","m","elianto","#3366ff99","-1","-1","1","0","[]","0","2","","","10898","114","9","2","win","no-go","1"
"pit-trial","233","1364361","0.0-119.0","battery-v0.2","","""event"",""trial"",""time""
""fullscreenenter"",""1"",""2319""
","
","
","""event"",""trial"",""time""
""fullscreenenter"",""1"",""2319""
","
","","","1197.2000000029802","","","10","10898","18","y","elianto","#f73b6a7A"," "," ","1","0","[2049.2000000029802]","1","2","","","10898","115","7","3","lose","go","0"
"pit-trial","234","1369220","0.0-120.0","battery-v0.2","","""event"",""trial"",""time""
""fullscreenenter"",""1"",""2319""
","
","
","""event"",""trial"",""time""
""fullscreenenter"",""1"",""2319""
","
","","","-1","","","10","10898","18","r","elianto","#3366ff99","-1","-1","1","+10","[]","0","2","","","10898","116","8","2","win","no-go","0"
"pit-trial","235","1374079","0.0-121.0","battery-v0.2","","""event"",""trial"",""time""
""fullscreenenter"",""1"",""2319""
","
","
","""event"",""trial"",""time""
""fullscreenenter"",""1"",""2319""
","
","","","-1","","","10","10898","18","m","elianto","#3366ff99","-1","-1","1","0","[]","0","2","","","10898","117","9","2","win","no-go","1"
"pit-trial","236","1378938","0.0-122.0","battery-v0.2","","""event"",""trial"",""time""
""fullscreenenter"",""1"",""2319""
","
","
","""event"",""trial"",""time""
""fullscreenenter"",""1"",""2319""
","
","","","-1","","","10","10898","18","h","elianto","#f73b6a7A","-1","-1","1","0","[]","0","2","","","10898","118","6","4","lose","no-go","0"
"pit-trial","237","1383797","0.0-123.0","battery-v0.2","","""event"",""trial"",""time""
""fullscreenenter"",""1"",""2319""
","
","
","""event"",""trial"",""time""
""fullscreenenter"",""1"",""2319""
","
","","","-1","","","10","10898","18","r","elianto","#3366ff99","-1","-1","1","+10","[]","0","2","","","10898","119","8","2","win","no-go","0"
"pit-trial","238","1387442","0.0-124.0","battery-v0.2","","""event"",""trial"",""time""
""fullscreenenter"",""1"",""2319""
","
","
","""event"",""trial"",""time""
""fullscreenenter"",""1"",""2319""
","
","","","786.5","","","10","10898","18","z","elianto","#3366ff99"," "," ","1","+10","[1639]","1","2","","","10898","120","5","1","win","go","0"
"pit-trial","239","1392302","0.0-125.0","battery-v0.2","","""event"",""trial"",""time""
""fullscreenenter"",""1"",""2319""
","
","
","""event"",""trial"",""time""
""fullscreenenter"",""1"",""2319""
","
","","","-1","","","10","10898","18","r","elianto","#3366ff99","-1","-1","1","+10","[]","0","2","","","10898","121","8","2","win","no-go","0"
"pit-trial","240","1396074","0.0-126.0","battery-v0.2","","""event"",""trial"",""time""
""fullscreenenter"",""1"",""2319""
","
","
","""event"",""trial"",""time""
""fullscreenenter"",""1"",""2319""
","
","","","911.2000000029802","","","10","10898","18","m","elianto","#3366ff99","-1"," ","0","0","[1765.8000000044703]","1","2","","","10898","122","9","2","win","no-go","0"
"pit-trial","241","1400033","0.0-127.0","battery-v0.2","","""event"",""trial"",""time""
""fullscreenenter"",""1"",""2319""
","
","
","""event"",""trial"",""time""
""fullscreenenter"",""1"",""2319""
","
","","","1099.7999999970198","","","10","10898","18","y","elianto","#f73b6a7A"," "," ","1","0","[1953.2999999970198]","1","2","","","10898","123","7","3","lose","go","0"
"pit-trial","242","1403691","0.0-128.0","battery-v0.2","","""event"",""trial"",""time""
""fullscreenenter"",""1"",""2319""
","
","
","""event"",""trial"",""time""
""fullscreenenter"",""1"",""2319""
","
","","","796.2999999970198","","","10","10898","18","z","elianto","#3366ff99"," "," ","1","+10","[1650.5999999940395]","1","2","","","10898","124","5","1","win","go","0"
"pit-trial","243","1407650","0.0-129.0","battery-v0.2","","""event"",""trial"",""time""
""fullscreenenter"",""1"",""2319""
","
","
","""event"",""trial"",""time""
""fullscreenenter"",""1"",""2319""
","
","","","1094.7000000029802","","","10","10898","18","m","elianto","#3366ff99","-1"," ","0","0","[1953.2000000029802]","1","2","","","10898","125","9","2","win","no-go","0"
"pit-trial","244","1412510","0.0-130.0","battery-v0.2","","""event"",""trial"",""time""
""fullscreenenter"",""1"",""2319""
","
","
","""event"",""trial"",""time""
""fullscreenenter"",""1"",""2319""
","
","","","-1","","","10","10898","18","h","elianto","#f73b6a7A","-1","-1","1","0","[]","0","2","","","10898","126","6","4","lose","no-go","0"
"pit-trial","245","1417369","0.0-131.0","battery-v0.2","","""event"",""trial"",""time""
""fullscreenenter"",""1"",""2319""
","
","
","""event"",""trial"",""time""
""fullscreenenter"",""1"",""2319""
","
","","","-1","","","10","10898","18","r","elianto","#3366ff99","-1","-1","1","+10","[]","0","2","","","10898","127","8","2","win","no-go","0"
"pit-trial","246","1421042","0.0-132.0","battery-v0.2","","""event"",""trial"",""time""
""fullscreenenter"",""1"",""2319""
","
","
","""event"",""trial"",""time""
""fullscreenenter"",""1"",""2319""
","
","","","816.6000000014901","","","10","10898","18","y","elianto","#f73b6a7A"," "," ","1","0","[1667.1999999955297]","1","2","","","10898","128","7","3","lose","go","0"
"pit-trial","247","1425902","0.0-133.0","battery-v0.2","","""event"",""trial"",""time""
""fullscreenenter"",""1"",""2319""
","
","
","""event"",""trial"",""time""
""fullscreenenter"",""1"",""2319""
","
","","","-1","","","10","10898","18","r","elianto","#3366ff99","-1","-1","1","+10","[]","0","2","","","10898","129","8","2","win","no-go","0"
"pit-trial","248","1430762","0.0-134.0","battery-v0.2","","""event"",""trial"",""time""
""fullscreenenter"",""1"",""2319""
","
","
","""event"",""trial"",""time""
""fullscreenenter"",""1"",""2319""
","
","","","-1","","","10","10898","18","m","elianto","#3366ff99","-1","-1","1","+10","[]","0","2","","","10898","130","9","2","win","no-go","0"
"pit-trial","249","1434516","0.0-135.0","battery-v0.2","","""event"",""trial"",""time""
""fullscreenenter"",""1"",""2319""
","
","
","""event"",""trial"",""time""
""fullscreenenter"",""1"",""2319""
","
","","","891.5","","","10","10898","18","y","elianto","#f73b6a7A"," "," ","1","0","[1747.8999999985099]","1","2","","","10898","131","7","3","lose","go","0"
"pit-trial","250","1439375","0.0-136.0","battery-v0.2","","""event"",""trial"",""time""
""fullscreenenter"",""1"",""2319""
","
","
","""event"",""trial"",""time""
""fullscreenenter"",""1"",""2319""
","
","","","-1","","","10","10898","18","h","elianto","#f73b6a7A","-1","-1","1","0","[]","0","2","","","10898","132","6","4","lose","no-go","0"
"pit-trial","251","1444234","0.0-137.0","battery-v0.2","","""event"",""trial"",""time""
""fullscreenenter"",""1"",""2319""
","
","
","""event"",""trial"",""time""
""fullscreenenter"",""1"",""2319""
","
","","","-1","","","10","10898","18","h","elianto","#f73b6a7A","-1","-1","1","-10","[]","0","2","","","10898","133","6","4","lose","no-go","1"
"pit-trial","252","1448113","0.0-138.0","battery-v0.2","","""event"",""trial"",""time""
""fullscreenenter"",""1"",""2319""
","
","
","""event"",""trial"",""time""
""fullscreenenter"",""1"",""2319""
","
","","","1022.2000000029802","","","10","10898","18","y","elianto","#f73b6a7A"," "," ","1","-10","[1875.5]","1","2","","","10898","134","7","3","lose","go","1"
"pit-trial","253","1452975","0.0-139.0","battery-v0.2","","""event"",""trial"",""time""
""fullscreenenter"",""1"",""2319""
","
","
","""event"",""trial"",""time""
""fullscreenenter"",""1"",""2319""
","
","","","-1","","","10","10898","18","r","elianto","#3366ff99","-1","-1","1","0","[]","0","2","","","10898","135","8","2","win","no-go","1"
"pit-trial","254","1457157","0.0-140.0","battery-v0.2","","""event"",""trial"",""time""
""fullscreenenter"",""1"",""2319""
","
","
","""event"",""trial"",""time""
""fullscreenenter"",""1"",""2319""
","
","","","1324.1000000014901","","","10","10898","18","m","elianto","#3366ff99","-1"," ","0","0","[2175.39999999851]","1","2","","","10898","136","9","2","win","no-go","0"
"pit-trial","255","1462016","0.0-141.0","battery-v0.2","","""event"",""trial"",""time""
""fullscreenenter"",""1"",""2319""
","
","
","""event"",""trial"",""time""
""fullscreenenter"",""1"",""2319""
","
","","","-1","","","10","10898","18","m","elianto","#3366ff99","-1","-1","1","+10","[]","0","2","","","10898","137","9","2","win","no-go","0"
"pit-trial","256","1465680","0.0-142.0","battery-v0.2","","""event"",""trial"",""time""
""fullscreenenter"",""1"",""2319""
","
","
","""event"",""trial"",""time""
""fullscreenenter"",""1"",""2319""
","
","","","808","","","10","10898","18","y","elianto","#f73b6a7A"," "," ","1","0","[1659.2000000029802]","1","2","","","10898","138","7","3","lose","go","0"
"pit-trial","257","1470539","0.0-143.0","battery-v0.2","","""event"",""trial"",""time""
""fullscreenenter"",""1"",""2319""
","
","
","""event"",""trial"",""time""
""fullscreenenter"",""1"",""2319""
","
","","","-1","","","10","10898","18","r","elianto","#3366ff99","-1","-1","1","0","[]","0","2","","","10898","139","8","2","win","no-go","1"
"pit-trial","258","1475398","0.0-144.0","battery-v0.2","","""event"",""trial"",""time""
""fullscreenenter"",""1"",""2319""
","
","
","""event"",""trial"",""time""
""fullscreenenter"",""1"",""2319""
","
","","","-1","","","10","10898","18","h","elianto","#f73b6a7A","-1","-1","1","0","[]","0","2","","","10898","140","6","4","lose","no-go","0"
"pit-instructions","259","1496806","0.0-145.0","battery-v0.2","","""event"",""trial"",""time""
""fullscreenenter"",""1"",""2319""
","
","
","""event"",""trial"",""time""
""fullscreenenter"",""1"",""2319""
","
","","[{""page_index"":0,""viewing_time"":13330},{""page_index"":1,""viewing_time"":8076.0999999940395}]","21406.59999999404","","","","","","","","","","","","","","","","","","","","","","","",""
"pit-trial","260","1501254","0.0-146.0","battery-v0.2","","""event"",""trial"",""time""
""fullscreenenter"",""1"",""2319""
","
","
","""event"",""trial"",""time""
""fullscreenenter"",""1"",""2319""
","
","","","1588.3999999985099","","","10","10898","18","d","elianto","#3366ff99","-1"," ","0","0","[2439.39999999851]","1","3","","","10898","141","1","2","win","no-go","0"
"pit-trial","261","1505571","0.0-147.0","battery-v0.2","","""event"",""trial"",""time""
""fullscreenenter"",""1"",""2319""
","
","
","""event"",""trial"",""time""
""fullscreenenter"",""1"",""2319""
","
","","","1461.5","","","10","10898","18","w","elianto","#f73b6a7A","-1"," ","0","-10","[2312.7999999970198]","1","3","","","10898","142","3","4","lose","no-go","0"
"pit-trial","262","1509291","0.0-148.0","battery-v0.2","","""event"",""trial"",""time""
""fullscreenenter"",""1"",""2319""
","
","
","""event"",""trial"",""time""
""fullscreenenter"",""1"",""2319""
","
","","","860.3000000044703","","","10","10898","18","j","elianto","#f73b6a7A"," "," ","1","0","[1715.7000000029802]","1","3","","","10898","143","0","3","lose","go","0"
"pit-trial","263","1513361","0.0-149.0","battery-v0.2","","""event"",""trial"",""time""
""fullscreenenter"",""1"",""2319""
","
","
","""event"",""trial"",""time""
""fullscreenenter"",""1"",""2319""
","
","","","1216.6000000014901","","","10","10898","18","e","elianto","#f73b6a7A"," "," ","1","0","[2067.5]","1","3","","","10898","144","2","3","lose","go","0"
"pit-trial","264","1517275","0.0-150.0","battery-v0.2","","""event"",""trial"",""time""
""fullscreenenter"",""1"",""2319""
","
","
","""event"",""trial"",""time""
""fullscreenenter"",""1"",""2319""
","
","","","1057.5","","","10","10898","18","j","elianto","#f73b6a7A"," "," ","1","0","[1909.1999999955297]","1","3","","","10898","145","0","3","lose","go","0"
"pit-trial","265","1522134","0.0-151.0","battery-v0.2","","""event"",""trial"",""time""
""fullscreenenter"",""1"",""2319""
","
","
","""event"",""trial"",""time""
""fullscreenenter"",""1"",""2319""
","
","","","-1","","","10","10898","18","d","elianto","#3366ff99","-1","-1","1","+10","[]","0","3","","","10898","146","1","2","win","no-go","0"
"pit-trial","266","1526992","0.0-152.0","battery-v0.2","","""event"",""trial"",""time""
""fullscreenenter"",""1"",""2319""
","
","
","""event"",""trial"",""time""
""fullscreenenter"",""1"",""2319""
","
","","","-1","","","10","10898","18","w","elianto","#f73b6a7A","-1","-1","1","0","[]","0","3","","","10898","147","3","4","lose","no-go","0"
"pit-trial","267","1530597","0.0-153.0","battery-v0.2","","""event"",""trial"",""time""
""fullscreenenter"",""1"",""2319""
","
","
","""event"",""trial"",""time""
""fullscreenenter"",""1"",""2319""
","
","","","739.1000000014901","","","10","10898","18","e","elianto","#f73b6a7A"," "," ","1","0","[1598.7999999970198]","1","3","","","10898","148","2","3","lose","go","0"
"pit-trial","268","1534341","0.0-154.0","battery-v0.2","","""event"",""trial"",""time""
""fullscreenenter"",""1"",""2319""
","
","
","""event"",""trial"",""time""
""fullscreenenter"",""1"",""2319""
","
