"trial_type","trial_index","time_elapsed","internal_node_id","task_version","subject_id","interactions","blur_events","focus_events","fullscreenenter_events","fullscreenexit_events","success","view_history","rt","responses","num_errors","age","subject","participantId","rune","rune_set","hex","correct","choice","accuracy","outcome","keys","total_keys","block","practice","value","sub","trial","stimulus","robot","valence","action","sham"
"pavlovia","0","8","0.0-0.0","battery-v0.2","","""event"",""trial"",""time""
""fullscreenenter"",""1"",""2754""
","
","
","""event"",""trial"",""time""
""fullscreenenter"",""1"",""2754""
","
","","","","","","","","","","","","","","","","","","","","","","","","","","",""
"fullscreen","1","3747","0.0-1.0","battery-v0.2","","""event"",""trial"",""time""
""fullscreenenter"",""1"",""2754""
","
","
","""event"",""trial"",""time""
""fullscreenenter"",""1"",""2754""
","
","true","","","","","","","","","","","","","","","","","","","","","","","","","",""
"pit-instructions","2","10362","0.0-2.0-0.0","battery-v0.2","","""event"",""trial"",""time""
""fullscreenenter"",""1"",""2754""
","
","
","""event"",""trial"",""time""
""fullscreenenter"",""1"",""2754""
","
","","[{""page_index"":0,""viewing_time"":6608.4000000003725}]","6609.5999999996275","","","","","","","","","","","","","","","","","","","","","","","",""
"pit-comprehension","3","13563","0.0-2.0-1.0-0.0","battery-v0.2","","""event"",""trial"",""time""
""fullscreenenter"",""1"",""2754""
","
","
","""event"",""trial"",""time""
""fullscreenenter"",""1"",""2754""
","
","","","3193.300000000745","[""shark""]","0","20","3337","2752","","","","","","","","","","","","","","","","","","",""
"pit-instructions","4","18628","0.0-2.0-1.0-1.0","battery-v0.2","","""event"",""trial"",""time""
""fullscreenenter"",""1"",""2754""
","
","
","""event"",""trial"",""time""
""fullscreenenter"",""1"",""2754""
","
","","[{""page_index"":0,""viewing_time"":5050.300000000745}]","5051.10000000149","","","","","","","","","","","","","","","","","","","","","","","",""
"pit-comprehension","5","21095","0.0-2.0-2.0-0.0","battery-v0.2","","""event"",""trial"",""time""
""fullscreenenter"",""1"",""2754""
","
","
","""event"",""trial"",""time""
""fullscreenenter"",""1"",""2754""
","
","","","2458.300000000745","[""tiger""]","0","20","3337","2752","","","","","","","","","","","","","","","","","","",""
"pit-instructions","6","22078","0.0-2.0-2.0-1.0","battery-v0.2","","""event"",""trial"",""time""
""fullscreenenter"",""1"",""2754""
","
","
","""event"",""trial"",""time""
""fullscreenenter"",""1"",""2754""
","
","","[{""page_index"":0,""viewing_time"":974.5999999996275}]","975.4000000003725","","","","","","","","","","","","","","","","","","","","","","","",""
"pit-instructions","7","118311","0.0-2.0-3.0","battery-v0.2","","""event"",""trial"",""time""
""fullscreenenter"",""1"",""2754""
","
","
","""event"",""trial"",""time""
""fullscreenenter"",""1"",""2754""
","
","","[{""page_index"":0,""viewing_time"":8676.300000000745},{""page_index"":1,""viewing_time"":6767.300000000745},{""page_index"":2,""viewing_time"":6016.5999999996275},{""page_index"":3,""viewing_time"":5816.5},{""page_index"":4,""viewing_time"":6800.699999999255},{""page_index"":5,""viewing_time"":5733.0999999996275},{""page_index"":6,""viewing_time"":7500.5},{""page_index"":7,""viewing_time"":6184.800000000745},{""page_index"":8,""viewing_time"":6149.300000000745},{""page_index"":9,""viewing_time"":8117.0999999996275},{""page_index"":10,""viewing_time"":8223.799999998882},{""page_index"":11,""viewing_time"":7560},{""page_index"":12,""viewing_time"":6912.60000000149},{""page_index"":13,""viewing_time"":5770.89999999851}]","96230.5","","","","","","","","","","","","","","","","","","","","","","","",""
"pit-trial","8","121711","0.0-2.0-4.0-0.0","battery-v0.2","","""event"",""trial"",""time""
""fullscreenenter"",""1"",""2754""
","
","
","""event"",""trial"",""time""
""fullscreenenter"",""1"",""2754""
","
","","","534.1999999992549","","","20","3337","2752","&#9784;","elianto","#FFFFF080"," "," ","1","&#10004","[1387,3173]","2","0","0","","","","","","","",""
"pit-trial","9","125178","0.0-2.0-4.1-0.1","battery-v0.2","","""event"",""trial"",""time""
""fullscreenenter"",""1"",""2754""
","
","
","""event"",""trial"",""time""
""fullscreenenter"",""1"",""2754""
","
","","","601.2999999988824","","","20","3337","2752","&#9784;","elianto","#FFFFF080"," "," ","1","&#10004","[1452]","1","0","0","","","","","","","",""
"pit-trial","10","128676","0.0-2.0-4.2-0.2","battery-v0.2","","""event"",""trial"",""time""
""fullscreenenter"",""1"",""2754""
","
","
","""event"",""trial"",""time""
""fullscreenenter"",""1"",""2754""
","
","","","637.8000000007451","","","20","3337","2752","&#9784;","elianto","#FFFFF080"," "," ","1","&#10004","[1490.7000000011176]","1","0","0","","","","","","","",""
"pit-trial","11","132143","0.0-2.0-4.3-0.3","battery-v0.2","","""event"",""trial"",""time""
""fullscreenenter"",""1"",""2754""
","
","
","""event"",""trial"",""time""
""fullscreenenter"",""1"",""2754""
","
","","","608.2000000011176","","","20","3337","2752","&#9784;","elianto","#FFFFF080"," "," ","1","&#10004","[1460.4000000003725]","1","0","0","","","","","","","",""
"pit-trial","12","135783","0.0-2.0-4.4-0.4","battery-v0.2","","""event"",""trial"",""time""
""fullscreenenter"",""1"",""2754""
","
","
","""event"",""trial"",""time""
""fullscreenenter"",""1"",""2754""
","
","","","776.9000000003725","","","20","3337","2752","&#9784;","elianto","#FFFFF080"," "," ","1","&#10004","[1629.5]","1","0","0","","","","","","","",""
"pit-instructions","13","159210","0.0-2.0-5.0","battery-v0.2","","""event"",""trial"",""time""
""fullscreenenter"",""1"",""2754""
","
","
","""event"",""trial"",""time""
""fullscreenenter"",""1"",""2754""
","
","","[{""page_index"":0,""viewing_time"":5503.4000000003725},{""page_index"":1,""viewing_time"":5934.0999999996275},{""page_index"":2,""viewing_time"":6316.800000000745},{""page_index"":3,""viewing_time"":5666.800000000745}]","23421.700000001118","","","","","","","","","","","","","","","","","","","","","","","",""
"pit-trial","14","164073","0.0-2.0-6.0-0.0","battery-v0.2","","""event"",""trial"",""time""
""fullscreenenter"",""1"",""2754""
","
","
","""event"",""trial"",""time""
""fullscreenenter"",""1"",""2754""
","
","","","-1","","","20","3337","2752","&#9854;","elianto","#FFFFF080","-1","-1","1","&#10004","[]","0","0","1","","","","","","","",""
"pit-trial","15","168938","0.0-2.0-6.1-0.1","battery-v0.2","","""event"",""trial"",""time""
""fullscreenenter"",""1"",""2754""
","
","
","""event"",""trial"",""time""
""fullscreenenter"",""1"",""2754""
","
","","","-1","","","20","3337","2752","&#9854;","elianto","#FFFFF080","-1","-1","1","&#10004","[]","0","0","1","","","","","","","",""
"pit-trial","16","173806","0.0-2.0-6.2-0.2","battery-v0.2","","""event"",""trial"",""time""
""fullscreenenter"",""1"",""2754""
","
","
","""event"",""trial"",""time""
""fullscreenenter"",""1"",""2754""
","
","","","-1","","","20","3337","2752","&#9854;","elianto","#FFFFF080","-1","-1","1","&#10004","[]","0","0","1","","","","","","","",""
"pit-trial","17","178671","0.0-2.0-6.3-0.3","battery-v0.2","","""event"",""trial"",""time""
""fullscreenenter"",""1"",""2754""
","
","
","""event"",""trial"",""time""
""fullscreenenter"",""1"",""2754""
","
","","","-1","","","20","3337","2752","&#9854;","elianto","#FFFFF080","-1","-1","1","&#10004","[]","0","0","1","","","","","","","",""
"pit-trial","18","183536","0.0-2.0-6.4-0.4","battery-v0.2","","""event"",""trial"",""time""
""fullscreenenter"",""1"",""2754""
","
","
","""event"",""trial"",""time""
""fullscreenenter"",""1"",""2754""
","
","","","-1","","","20","3337","2752","&#9854;","elianto","#FFFFF080","-1","-1","1","&#10004","[]","0","0","1","","","","","","","",""
"pit-instructions","19","309861","0.0-2.0-7.0","battery-v0.2","","""event"",""trial"",""time""
""fullscreenenter"",""1"",""2754""
","
","
","""event"",""trial"",""time""
""fullscreenenter"",""1"",""2754""
","
","","[{""page_index"":0,""viewing_time"":5601.299999998882},{""page_index"":1,""viewing_time"":10433.700000001118},{""page_index"":2,""viewing_time"":6999.9000000003725},{""page_index"":3,""viewing_time"":8400.199999999255},{""page_index"":4,""viewing_time"":6699.800000000745},{""page_index"":5,""viewing_time"":5416.39999999851},{""page_index"":6,""viewing_time"":4968.10000000149},{""page_index"":7,""viewing_time"":7916.799999998882},{""page_index"":8,""viewing_time"":8266.700000001118},{""page_index"":9,""viewing_time"":8433.799999998882},{""page_index"":10,""viewing_time"":7356.4000000003725},{""page_index"":11,""viewing_time"":4393.9000000003725},{""page_index"":12,""viewing_time"":7267.199999999255},{""page_index"":13,""viewing_time"":7133.300000000745},{""page_index"":14,""viewing_time"":7100.299999998882},{""page_index"":15,""viewing_time"":6850.5},{""page_index"":16,""viewing_time"":6416.200000001118},{""page_index"":17,""viewing_time"":6667.5999999996275}]","126323.79999999888","","","","","","","","","","","","","","","","","","","","","","","",""
"pit-trial","20","313385","0.0-2.0-8.0-0.0","battery-v0.2","","""event"",""trial"",""time""
""fullscreenenter"",""1"",""2754""
","
","
","""event"",""trial"",""time""
""fullscreenenter"",""1"",""2754""
","
","","","658.5999999996275","","","20","3337","2752","&#9776;","elianto","#3366ff99"," "," ","1","+10","[1510.7999999988824]","1","0","1","","","","","","","",""
"pit-trial","21","316700","0.0-2.0-8.0-1.0","battery-v0.2","","""event"",""trial"",""time""
""fullscreenenter"",""1"",""2754""
","
","
","""event"",""trial"",""time""
""fullscreenenter"",""1"",""2754""
","
","","","454.2000000011176","","","20","3337","2752","&#9776;","elianto","#3366ff99"," "," ","1","+10","[1304.800000000745]","1","0","1","","","","","","","",""
"pit-trial","22","320021","0.0-2.0-8.0-2.0","battery-v0.2","","""event"",""trial"",""time""
""fullscreenenter"",""1"",""2754""
","
","
","""event"",""trial"",""time""
""fullscreenenter"",""1"",""2754""
","
","","","459.09999999962747","","","20","3337","2752","&#9776;","elianto","#3366ff99"," "," ","1","+10","[1309.800000000745]","1","0","1","","","","","","","",""
"pit-trial","23","323388","0.0-2.0-8.0-3.0","battery-v0.2","","""event"",""trial"",""time""
""fullscreenenter"",""1"",""2754""
","
","
","""event"",""trial"",""time""
""fullscreenenter"",""1"",""2754""
","
","","","509.09999999962747","","","20","3337","2752","&#9776;","elianto","#3366ff99"," "," ","1","0","[1359.800000000745]","1","0","1","","","","","","","",""
"pit-trial","24","326693","0.0-2.0-8.0-4.0","battery-v0.2","","""event"",""trial"",""time""
""fullscreenenter"",""1"",""2754""
","
","
","""event"",""trial"",""time""
""fullscreenenter"",""1"",""2754""
","
","","","445.40000000037253","","","20","3337","2752","&#9776;","elianto","#3366ff99"," "," ","1","+10","[1295.5]","1","0","1","","","","","","","",""
"call-function","25","326700","0.0-2.0-9.0","battery-v0.2","","""event"",""trial"",""time""
""fullscreenenter"",""1"",""2754""
","
","
","""event"",""trial"",""time""
""fullscreenenter"",""1"",""2754""
","
","","","","","","","","","","","","","","","","","","","","","","","","","","",""
"pit-instructions","26","367243","0.0-2.0-10.0","battery-v0.2","","""event"",""trial"",""time""
""fullscreenenter"",""1"",""2754""
","
","
","""event"",""trial"",""time""
""fullscreenenter"",""1"",""2754""
","
","","[{""page_index"":0,""viewing_time"":6458.4000000003725},{""page_index"":1,""viewing_time"":7299.800000000745},{""page_index"":2,""viewing_time"":10316.699999999255},{""page_index"":3,""viewing_time"":8600.5},{""page_index"":4,""viewing_time"":7867.4000000003725}]","40543.5","","","","","","","","","","","","","","","","","","","","","","","",""
"pit-trial","27","371251","0.0-2.0-11.0-0.0","battery-v0.2","","""event"",""trial"",""time""
""fullscreenenter"",""1"",""2754""
","
","
","""event"",""trial"",""time""
""fullscreenenter"",""1"",""2754""
","
","","","1145.5","","","20","3337","2752","&#9761;","elianto","#3366ff99","-1"," ","0","0","[1997.7000000011176]","1","0","2","","","","","","","",""
"pit-trial","28","374807","0.0-2.0-11.0-1.0","battery-v0.2","","""event"",""trial"",""time""
""fullscreenenter"",""1"",""2754""
","
","
","""event"",""trial"",""time""
""fullscreenenter"",""1"",""2754""
","
","","","695.0999999996275","","","20","3337","2752","&#9761;","elianto","#3366ff99","-1"," ","0","0","[1545.4000000003725]","1","0","2","","","","","","","",""
"pit-trial","29","378318","0.0-2.0-11.0-2.0","battery-v0.2","","""event"",""trial"",""time""
""fullscreenenter"",""1"",""2754""
","
","
","""event"",""trial"",""time""
""fullscreenenter"",""1"",""2754""
","
","","","649.3000000007451","","","20","3337","2752","&#9761;","elianto","#3366ff99","-1"," ","0","0","[1501.7000000011176]","1","0","2","","","","","","","",""
"pit-trial","30","383184","0.0-2.0-11.0-3.0","battery-v0.2","","""event"",""trial"",""time""
""fullscreenenter"",""1"",""2754""
","
","
","""event"",""trial"",""time""
""fullscreenenter"",""1"",""2754""
","
","","","-1","","","20","3337","2752","&#9761;","elianto","#3366ff99","-1","-1","1","0","[3229.0999999996275]","1","0","2","","","","","","","",""
"pit-trial","31","388047","0.0-2.0-11.0-4.0","battery-v0.2","","""event"",""trial"",""time""
""fullscreenenter"",""1"",""2754""
","
","
","""event"",""trial"",""time""
""fullscreenenter"",""1"",""2754""
","
","","","-1","","","20","3337","2752","&#9761;","elianto","#3366ff99","-1","-1","1","+10","[]","0","0","2","","","","","","","",""
"pit-trial","32","392593","0.0-2.0-11.1-0.1","battery-v0.2","","""event"",""trial"",""time""
""fullscreenenter"",""1"",""2754""
","
","
","""event"",""trial"",""time""
""fullscreenenter"",""1"",""2754""
","
","","","1681.5","","","20","3337","2752","&#9761;","elianto","#3366ff99","-1"," ","0","0","[2531.9000000003725]","1","0","2","","","","","","","",""
"pit-trial","33","397458","0.0-2.0-11.1-1.1","battery-v0.2","","""event"",""trial"",""time""
""fullscreenenter"",""1"",""2754""
","
","
","""event"",""trial"",""time""
""fullscreenenter"",""1"",""2754""
","
","","","-1","","","20","3337","2752","&#9761;","elianto","#3366ff99","-1","-1","1","+10","[]","0","0","2","","","","","","","",""
"pit-trial","34","400952","0.0-2.0-11.1-2.1","battery-v0.2","","""event"",""trial"",""time""
""fullscreenenter"",""1"",""2754""
","
","
","""event"",""trial"",""time""
""fullscreenenter"",""1"",""2754""
","
","","","632.4000000003725","","","20","3337","2752","&#9761;","elianto","#3366ff99","-1"," ","0","0","[1483.4000000003725]","1","0","2","","","","","","","",""
"pit-trial","35","404562","0.0-2.0-11.1-3.1","battery-v0.2","","""event"",""trial"",""time""
""fullscreenenter"",""1"",""2754""
","
","
","""event"",""trial"",""time""
""fullscreenenter"",""1"",""2754""
","
","","","750.4000000003725","","","20","3337","2752","&#9761;","elianto","#3366ff99","-1"," ","0","+10","[1601.5]","1","0","2","","","","","","","",""
"pit-trial","36","408061","0.0-2.0-11.1-4.1","battery-v0.2","","""event"",""trial"",""time""
""fullscreenenter"",""1"",""2754""
","
","
","""event"",""trial"",""time""
""fullscreenenter"",""1"",""2754""
","
","","","637.4000000003725","","","20","3337","2752","&#9761;","elianto","#3366ff99","-1"," ","0","0","[1488]","1","0","2","","","","","","","",""
"pit-trial","37","412930","0.0-2.0-11.2-0.2","battery-v0.2","","""event"",""trial"",""time""
""fullscreenenter"",""1"",""2754""
","
","
","""event"",""trial"",""time""
""fullscreenenter"",""1"",""2754""
","
","","","-1","","","20","3337","2752","&#9761;","elianto","#3366ff99","-1","-1","1","+10","[]","0","0","2","","","","","","","",""
"pit-trial","38","417794","0.0-2.0-11.2-1.2","battery-v0.2","","""event"",""trial"",""time""
""fullscreenenter"",""1"",""2754""
","
","
","""event"",""trial"",""time""
""fullscreenenter"",""1"",""2754""
","
","","","-1","","","20","3337","2752","&#9761;","elianto","#3366ff99","-1","-1","1","+10","[2953.9000000003725]","1","0","2","","","","","","","",""
"pit-trial","39","421154","0.0-2.0-11.2-2.2","battery-v0.2","","""event"",""trial"",""time""
""fullscreenenter"",""1"",""2754""
","
","
","""event"",""trial"",""time""
""fullscreenenter"",""1"",""2754""
","
","","","496.40000000037253","","","20","3337","2752","&#9761;","elianto","#3366ff99","-1"," ","0","0","[1348]","1","0","2","","","","","","","",""
"pit-trial","40","424513","0.0-2.0-11.2-3.2","battery-v0.2","","""event"",""trial"",""time""
""fullscreenenter"",""1"",""2754""
","
","
","""event"",""trial"",""time""
""fullscreenenter"",""1"",""2754""
","
","","","498.7999999988824","","","20","3337","2752","&#9761;","elianto","#3366ff99","-1"," ","0","+10","[1349.0999999996275]","1","0","2","","","","","","","",""
"pit-trial","41","428055","0.0-2.0-11.2-4.2","battery-v0.2","","""event"",""trial"",""time""
""fullscreenenter"",""1"",""2754""
","
","
","""event"",""trial"",""time""
""fullscreenenter"",""1"",""2754""
","
","","","681.6999999992549","","","20","3337","2752","&#9761;","elianto","#3366ff99","-1"," ","0","0","[1533.5999999996275]","1","0","2","","","","","","","",""
"pit-trial","42","430993","0.0-2.0-11.3-0.3","battery-v0.2","","""event"",""trial"",""time""
""fullscreenenter"",""1"",""2754""
","
","
","""event"",""trial"",""time""
""fullscreenenter"",""1"",""2754""
","
","","","78.40000000037253","","","20","3337","2752","&#9761;","elianto","#3366ff99","-1"," ","0","0","[928.7999999988824]","1","0","2","","","","","","","",""
"pit-trial","43","435856","0.0-2.0-11.3-1.3","battery-v0.2","","""event"",""trial"",""time""
""fullscreenenter"",""1"",""2754""
","
","
","""event"",""trial"",""time""
""fullscreenenter"",""1"",""2754""
","
","","","-1","","","20","3337","2752","&#9761;","elianto","#3366ff99","-1","-1","1","+10","[]","0","0","2","","","","","","","",""
"pit-trial","44","440720","0.0-2.0-11.3-2.3","battery-v0.2","","""event"",""trial"",""time""
""fullscreenenter"",""1"",""2754""
","
","
","""event"",""trial"",""time""
""fullscreenenter"",""1"",""2754""
","
","","","-1","","","20","3337","2752","&#9761;","elianto","#3366ff99","-1","-1","1","+10","[]","0","0","2","","","","","","","",""
"pit-trial","45","445584","0.0-2.0-11.3-3.3","battery-v0.2","","""event"",""trial"",""time""
""fullscreenenter"",""1"",""2754""
","
","
","""event"",""trial"",""time""
""fullscreenenter"",""1"",""2754""
","
","","","-1","","","20","3337","2752","&#9761;","elianto","#3366ff99","-1","-1","1","0","[]","0","0","2","","","","","","","",""
"pit-trial","46","450448","0.0-2.0-11.3-4.3","battery-v0.2","","""event"",""trial"",""time""
""fullscreenenter"",""1"",""2754""
","
","
","""event"",""trial"",""time""
""fullscreenenter"",""1"",""2754""
","
","","","-1","","","20","3337","2752","&#9761;","elianto","#3366ff99","-1","-1","1","+10","[]","0","0","2","","","","","","","",""
"call-function","47","450455","0.0-2.0-12.0","battery-v0.2","","""event"",""trial"",""time""
""fullscreenenter"",""1"",""2754""
","
","
","""event"",""trial"",""time""
""fullscreenenter"",""1"",""2754""
","
","","","","","","","","","","","","","","","","","","","","","","","","","","",""
"pit-instructions","48","485059","0.0-2.0-13.0","battery-v0.2","","""event"",""trial"",""time""
""fullscreenenter"",""1"",""2754""
","
","
","""event"",""trial"",""time""
""fullscreenenter"",""1"",""2754""
","
","","[{""page_index"":0,""viewing_time"":5935.5},{""page_index"":1,""viewing_time"":7717.0999999996275},{""page_index"":2,""viewing_time"":3083.9000000003725},{""page_index"":3,""viewing_time"":12700.199999999255},{""page_index"":4,""viewing_time"":5167.200000001118}]","34604.59999999963","","","","","","","","","","","","","","","","","","","","","","","",""
"pit-trial","49","489463","0.0-2.0-14.0-0.0","battery-v0.2","","""event"",""trial"",""time""
""fullscreenenter"",""1"",""2754""
","
","
","""event"",""trial"",""time""
""fullscreenenter"",""1"",""2754""
","
","","","1541.9000000003725","","","20","3337","2752","&#9826;","elianto","#f73b6a7A","-1"," ","0","-10","[2393.0999999996275]","1","0","3","","","","","","","",""
"pit-trial","50","492579","0.0-2.0-14.0-1.0","battery-v0.2","","""event"",""trial"",""time""
""fullscreenenter"",""1"",""2754""
","
","
","""event"",""trial"",""time""
""fullscreenenter"",""1"",""2754""
","
","","","252","","","20","3337","2752","&#9826;","elianto","#f73b6a7A","-1"," ","0","-10","[1102.4000000003725]","1","0","3","","","","","","","",""
"pit-trial","51","497439","0.0-2.0-14.0-2.0","battery-v0.2","","""event"",""trial"",""time""
""fullscreenenter"",""1"",""2754""
","
","
","""event"",""trial"",""time""
""fullscreenenter"",""1"",""2754""
","
","","","-1","","","20","3337","2752","&#9826;","elianto","#f73b6a7A","-1","-1","1","0","[]","0","0","3","","","","","","","",""
"pit-trial","52","502303","0.0-2.0-14.0-3.0","battery-v0.2","","""event"",""trial"",""time""
""fullscreenenter"",""1"",""2754""
","
","
","""event"",""trial"",""time""
""fullscreenenter"",""1"",""2754""
","
","","","-1","","","20","3337","2752","&#9826;","elianto","#f73b6a7A","-1","-1","1","-10","[]","0","0","3","","","","","","","",""
"pit-trial","53","507166","0.0-2.0-14.0-4.0","battery-v0.2","","""event"",""trial"",""time""
""fullscreenenter"",""1"",""2754""
","
","
","""event"",""trial"",""time""
""fullscreenenter"",""1"",""2754""
","
","","","-1","","","20","3337","2752","&#9826;","elianto","#f73b6a7A","-1","-1","1","0","[]","0","0","3","","","","","","","",""
"pit-trial","54","512030","0.0-2.0-14.1-0.1","battery-v0.2","","""event"",""trial"",""time""
""fullscreenenter"",""1"",""2754""
","
","
","""event"",""trial"",""time""
""fullscreenenter"",""1"",""2754""
","
","","","-1","","","20","3337","2752","&#9826;","elianto","#f73b6a7A","-1","-1","1","0","[]","0","0","3","","","","","","","",""
"pit-trial","55","516894","0.0-2.0-14.1-1.1","battery-v0.2","","""event"",""trial"",""time""
""fullscreenenter"",""1"",""2754""
","
","
","""event"",""trial"",""time""
""fullscreenenter"",""1"",""2754""
","
","","","-1","","","20","3337","2752","&#9826;","elianto","#f73b6a7A","-1","-1","1","0","[]","0","0","3","","","","","","","",""
"pit-trial","56","521758","0.0-2.0-14.1-2.1","battery-v0.2","","""event"",""trial"",""time""
""fullscreenenter"",""1"",""2754""
","
","
","""event"",""trial"",""time""
""fullscreenenter"",""1"",""2754""
","
","","","-1","","","20","3337","2752","&#9826;","elianto","#f73b6a7A","-1","-1","1","0","[]","0","0","3","","","","","","","",""
"pit-trial","57","526623","0.0-2.0-14.1-3.1","battery-v0.2","","""event"",""trial"",""time""
""fullscreenenter"",""1"",""2754""
","
","
","""event"",""trial"",""time""
""fullscreenenter"",""1"",""2754""
","
","","","-1","","","20","3337","2752","&#9826;","elianto","#f73b6a7A","-1","-1","1","-10","[]","0","0","3","","","","","","","",""
"pit-trial","58","531486","0.0-2.0-14.1-4.1","battery-v0.2","","""event"",""trial"",""time""
""fullscreenenter"",""1"",""2754""
","
","
","""event"",""trial"",""time""
""fullscreenenter"",""1"",""2754""
","
","","","-1","","","20","3337","2752","&#9826;","elianto","#f73b6a7A","-1","-1","1","0","[]","0","0","3","","","","","","","",""
"call-function","59","531492","0.0-2.0-15.0","battery-v0.2","","""event"",""trial"",""time""
""fullscreenenter"",""1"",""2754""
","
","
","""event"",""trial"",""time""
""fullscreenenter"",""1"",""2754""
","
","","","","","","","","","","","","","","","","","","","","","","","","","","",""
"pit-instructions","60","561776","0.0-2.0-16.0","battery-v0.2","","""event"",""trial"",""time""
""fullscreenenter"",""1"",""2754""
","
","
","""event"",""trial"",""time""
""fullscreenenter"",""1"",""2754""
","
","","[{""page_index"":0,""viewing_time"":7479.799999998882},{""page_index"":1,""viewing_time"":9501.700000001118},{""page_index"":2,""viewing_time"":6817.299999998882},{""page_index"":3,""viewing_time"":6484.10000000149}]","30284.199999999255","","","","","","","","","","","","","","","","","","","","","","","",""
"pit-trial","61","566637","0.0-2.0-17.0-0.0","battery-v0.2","","""event"",""trial"",""time""
""fullscreenenter"",""1"",""2754""
","
","
","""event"",""trial"",""time""
""fullscreenenter"",""1"",""2754""
","
","","","-1","","","20","3337","2752","&#9789;","elianto","#f73b6a7A"," ","-1","0","-10","[]","0","0","4","","","","","","","",""
"pit-trial","62","571502","0.0-2.0-17.0-1.0","battery-v0.2","","""event"",""trial"",""time""
""fullscreenenter"",""1"",""2754""
","
","
","""event"",""trial"",""time""
""fullscreenenter"",""1"",""2754""
","
","","","-1","","","20","3337","2752","&#9789;","elianto","#f73b6a7A"," ","-1","0","-10","[]","0","0","4","","","","","","","",""
"pit-trial","63","576365","0.0-2.0-17.0-2.0","battery-v0.2","","""event"",""trial"",""time""
""fullscreenenter"",""1"",""2754""
","
","
","""event"",""trial"",""time""
""fullscreenenter"",""1"",""2754""
","
","","","-1","","","20","3337","2752","&#9789;","elianto","#f73b6a7A"," ","-1","0","-10","[]","0","0","4","","","","","","","",""
"pit-trial","64","581228","0.0-2.0-17.0-3.0","battery-v0.2","","""event"",""trial"",""time""
""fullscreenenter"",""1"",""2754""
","
","
","""event"",""trial"",""time""
""fullscreenenter"",""1"",""2754""
","
","","","-1","","","20","3337","2752","&#9789;","elianto","#f73b6a7A"," ","-1","0","0","[]","0","0","4","","","","","","","",""
"pit-trial","65","586093","0.0-2.0-17.0-4.0","battery-v0.2","","""event"",""trial"",""time""
""fullscreenenter"",""1"",""2754""
","
","
","""event"",""trial"",""time""
""fullscreenenter"",""1"",""2754""
","
","","","-1","","","20","3337","2752","&#9789;","elianto","#f73b6a7A"," ","-1","0","-10","[]","0","0","4","","","","","","","",""
"pit-trial","66","590960","0.0-2.0-17.1-0.1","battery-v0.2","","""event"",""trial"",""time""
""fullscreenenter"",""1"",""2754""
","
","
","""event"",""trial"",""time""
""fullscreenenter"",""1"",""2754""
","
","","","-1","","","20","3337","2752","&#9789;","elianto","#f73b6a7A"," ","-1","0","-10","[]","0","0","4","","","","","","","",""
"pit-trial","67","595824","0.0-2.0-17.1-1.1","battery-v0.2","","""event"",""trial"",""time""
""fullscreenenter"",""1"",""2754""
","
","
","""event"",""trial"",""time""
""fullscreenenter"",""1"",""2754""
","
","","","-1","","","20","3337","2752","&#9789;","elianto","#f73b6a7A"," ","-1","0","-10","[]","0","0","4","","","","","","","",""
"pit-trial","68","600688","0.0-2.0-17.1-2.1","battery-v0.2","","""event"",""trial"",""time""
""fullscreenenter"",""1"",""2754""
","
","
","""event"",""trial"",""time""
""fullscreenenter"",""1"",""2754""
","
","","","-1","","","20","3337","2752","&#9789;","elianto","#f73b6a7A"," ","-1","0","-10","[]","0","0","4","","","","","","","",""
"pit-trial","69","605552","0.0-2.0-17.1-3.1","battery-v0.2","","""event"",""trial"",""time""
""fullscreenenter"",""1"",""2754""
","
","
","""event"",""trial"",""time""
""fullscreenenter"",""1"",""2754""
","
","","","-1","","","20","3337","2752","&#9789;","elianto","#f73b6a7A"," ","-1","0","0","[]","0","0","4","","","","","","","",""
"pit-trial","70","610415","0.0-2.0-17.1-4.1","battery-v0.2","","""event"",""trial"",""time""
""fullscreenenter"",""1"",""2754""
","
","
","""event"",""trial"",""time""
""fullscreenenter"",""1"",""2754""
","
","","","-1","","","20","3337","2752","&#9789;","elianto","#f73b6a7A"," ","-1","0","-10","[]","0","0","4","","","","","","","",""
"pit-trial","71","615279","0.0-2.0-17.2-0.2","battery-v0.2","","""event"",""trial"",""time""
""fullscreenenter"",""1"",""2754""
","
","
","""event"",""trial"",""time""
""fullscreenenter"",""1"",""2754""
","
","","","-1","","","20","3337","2752","&#9789;","elianto","#f73b6a7A"," ","-1","0","-10","[]","0","0","4","","","","","","","",""
"pit-trial","72","620143","0.0-2.0-17.2-1.2","battery-v0.2","","""event"",""trial"",""time""
""fullscreenenter"",""1"",""2754""
","
","
","""event"",""trial"",""time""
""fullscreenenter"",""1"",""2754""
","
","","","-1","","","20","3337","2752","&#9789;","elianto","#f73b6a7A"," ","-1","0","-10","[]","0","0","4","","","","","","","",""
"pit-trial","73","623980","0.0-2.0-17.2-2.2","battery-v0.2","","""event"",""trial"",""time""
""fullscreenenter"",""1"",""2754""
","
","
","""event"",""trial"",""time""
""fullscreenenter"",""1"",""2754""
","
","","","977.5999999996275","","","20","3337","2752","&#9789;","elianto","#f73b6a7A"," "," ","1","0","[1828]","1","0","4","","","","","","","",""
"pit-trial","74","628847","0.0-2.0-17.2-3.2","battery-v0.2","","""event"",""trial"",""time""
""fullscreenenter"",""1"",""2754""
","
","
","""event"",""trial"",""time""
""fullscreenenter"",""1"",""2754""
","
","","","-1","","","20","3337","2752","&#9789;","elianto","#f73b6a7A"," ","-1","0","0","[]","0","0","4","","","","","","","",""
"pit-trial","75","633712","0.0-2.0-17.2-4.2","battery-v0.2","","""event"",""trial"",""time""
""fullscreenenter"",""1"",""2754""
","
","
","""event"",""trial"",""time""
""fullscreenenter"",""1"",""2754""
","
","","","-1","","","20","3337","2752","&#9789;","elianto","#f73b6a7A"," ","-1","0","-10","[]","0","0","4","","","","","","","",""
"pit-trial","76","638580","0.0-2.0-17.3-0.3","battery-v0.2","","""event"",""trial"",""time""
""fullscreenenter"",""1"",""2754""
","
","
","""event"",""trial"",""time""
""fullscreenenter"",""1"",""2754""
","
","","","-1","","","20","3337","2752","&#9789;","elianto","#f73b6a7A"," ","-1","0","-10","[]","0","0","4","","","","","","","",""
"pit-trial","77","643443","0.0-2.0-17.3-1.3","battery-v0.2","","""event"",""trial"",""time""
""fullscreenenter"",""1"",""2754""
","
","
","""event"",""trial"",""time""
""fullscreenenter"",""1"",""2754""
","
","","","-1","","","20","3337","2752","&#9789;","elianto","#f73b6a7A"," ","-1","0","-10","[]","0","0","4","","","","","","","",""
"pit-trial","78","648307","0.0-2.0-17.3-2.3","battery-v0.2","","""event"",""trial"",""time""
""fullscreenenter"",""1"",""2754""
","
","
","""event"",""trial"",""time""
""fullscreenenter"",""1"",""2754""
","
","","","-1","","","20","3337","2752","&#9789;","elianto","#f73b6a7A"," ","-1","0","-10","[]","0","0","4","","","","","","","",""
"pit-trial","79","651640","0.0-2.0-17.3-3.3","battery-v0.2","","""event"",""trial"",""time""
""fullscreenenter"",""1"",""2754""
","
","
","""event"",""trial"",""time""
""fullscreenenter"",""1"",""2754""
","
","","","472.7999999988824","","","20","3337","2752","&#9789;","elianto","#f73b6a7A"," "," ","1","-10","[712.4000000003725,1324,2881.300000000745,2994.800000000745]","4","0","4","","","","","","","",""
"pit-trial","80","655266","0.0-2.0-17.3-4.3","battery-v0.2","","""event"",""trial"",""time""
""fullscreenenter"",""1"",""2754""
","
","
","""event"",""trial"",""time""
""fullscreenenter"",""1"",""2754""
","
","","","766.0999999996275","","","20","3337","2752","&#9789;","elianto","#f73b6a7A"," "," ","1","0","[1618.300000000745]","1","0","4","","","","","","","",""
"pit-trial","81","658376","0.0-2.0-17.4-0.4","battery-v0.2","","""event"",""trial"",""time""
""fullscreenenter"",""1"",""2754""
","
","
","""event"",""trial"",""time""
""fullscreenenter"",""1"",""2754""
","
","","","248.69999999925494","","","20","3337","2752","&#9789;","elianto","#f73b6a7A"," "," ","1","0","[1099.7999999988824]","1","0","4","","","","","","","",""
"pit-trial","82","661490","0.0-2.0-17.4-1.4","battery-v0.2","","""event"",""trial"",""time""
""fullscreenenter"",""1"",""2754""
","
","
","""event"",""trial"",""time""
""fullscreenenter"",""1"",""2754""
","
","","","254.7000000011176","","","20","3337","2752","&#9789;","elianto","#f73b6a7A"," "," ","1","0","[1107.1000000014901]","1","0","4","","","","","","","",""
"pit-trial","83","664898","0.0-2.0-17.4-2.4","battery-v0.2","","""event"",""trial"",""time""
""fullscreenenter"",""1"",""2754""
","
","
","""event"",""trial"",""time""
""fullscreenenter"",""1"",""2754""
","
","","","544.0999999996275","","","20","3337","2752","&#9789;","elianto","#f73b6a7A"," "," ","1","0","[1396.2000000011176]","1","0","4","","","","","","","",""
"pit-trial","84","669762","0.0-2.0-17.4-3.4","battery-v0.2","","""event"",""trial"",""time""
""fullscreenenter"",""1"",""2754""
","
","
","""event"",""trial"",""time""
""fullscreenenter"",""1"",""2754""
","
","","","-1","","","20","3337","2752","&#9789;","elianto","#f73b6a7A"," ","-1","0","0","[]","0","0","4","","","","","","","",""
"pit-trial","85","673175","0.0-2.0-17.4-4.4","battery-v0.2","","""event"",""trial"",""time""
""fullscreenenter"",""1"",""2754""
","
","
","""event"",""trial"",""time""
""fullscreenenter"",""1"",""2754""
","
","","","553.4000000003725","","","20","3337","2752","&#9789;","elianto","#f73b6a7A"," "," ","1","0","[1403.699999999255]","1","0","4","","","","","","","",""
"pit-instructions","86","694290","0.0-2.0-17.4-5.4-0.4","battery-v0.2","","""event"",""trial"",""time""
""fullscreenenter"",""1"",""2754""
","
","
","""event"",""trial"",""time""
""fullscreenenter"",""1"",""2754""
","
","","[{""page_index"":0,""viewing_time"":6575.5},{""page_index"":1,""viewing_time"":5783.5},{""page_index"":2,""viewing_time"":8750.099999999627}]","21110.199999999255","","","","","","","","","","","","","","","","","","","","","","","",""
"pit-trial","87","697679","0.0-2.0-17.5-0.5","battery-v0.2","","""event"",""trial"",""time""
""fullscreenenter"",""1"",""2754""
","
","
","""event"",""trial"",""time""
""fullscreenenter"",""1"",""2754""
","
","","","526.3000000007451","","","20","3337","2752","&#9789;","elianto","#f73b6a7A"," "," ","1","0","[1379.1000000014901]","1","0","4","","","","","","","",""
"pit-trial","88","700879","0.0-2.0-17.5-1.5","battery-v0.2","","""event"",""trial"",""time""
""fullscreenenter"",""1"",""2754""
","
","
","""event"",""trial"",""time""
""fullscreenenter"",""1"",""2754""
","
","","","336.09999999962747","","","20","3337","2752","&#9789;","elianto","#f73b6a7A"," "," ","1","0","[1186.2999999988824]","1","0","4","","","","","","","",""
"pit-trial","89","703793","0.0-2.0-17.5-2.5","battery-v0.2","","""event"",""trial"",""time""
""fullscreenenter"",""1"",""2754""
","
","
","""event"",""trial"",""time""
""fullscreenenter"",""1"",""2754""
","
","","","53.70000000111759","","","20","3337","2752","&#9789;","elianto","#f73b6a7A"," "," ","1","0","[905.1000000014901]","1","0","4","","","","","","","",""
"pit-trial","90","707196","0.0-2.0-17.5-3.5","battery-v0.2","","""event"",""trial"",""time""
""fullscreenenter"",""1"",""2754""
","
","
","""event"",""trial"",""time""
""fullscreenenter"",""1"",""2754""
","
","","","543.9000000003725","","","20","3337","2752","&#9789;","elianto","#f73b6a7A"," "," ","1","-10","[826.0999999996275,1395.0999999996275]","2","0","4","","","","","","","",""
"pit-trial","91","710131","0.0-2.0-17.5-4.5","battery-v0.2","","""event"",""trial"",""time""
""fullscreenenter"",""1"",""2754""
","
","
","""event"",""trial"",""time""
""fullscreenenter"",""1"",""2754""
","
","","","73.5","","","20","3337","2752","&#9789;","elianto","#f73b6a7A"," "," ","1","0","[923.5999999996275]","1","0","4","","","","","","","",""
"call-function","92","710138","0.0-2.0-18.0","battery-v0.2","","""event"",""trial"",""time""
""fullscreenenter"",""1"",""2754""
""blur"",""93"",""764299""
""focus"",""93"",""765355""
","""event"",""trial"",""time""
""blur"",""93"",""764299""
","""event"",""trial"",""time""
""focus"",""93"",""765355""
","""event"",""trial"",""time""
""fullscreenenter"",""1"",""2754""
","
","","","","","","","","","","","","","","","","","","","","","","","","","","",""
"pit-instructions","93","785957","0.0-2.0-19.0","battery-v0.2","","""event"",""trial"",""time""
""fullscreenenter"",""1"",""2754""
""blur"",""93"",""764299""
""focus"",""93"",""765355""
","""event"",""trial"",""time""
""blur"",""93"",""764299""
","""event"",""trial"",""time""
""focus"",""93"",""765355""
","""event"",""trial"",""time""
""fullscreenenter"",""1"",""2754""
","
","","[{""page_index"":0,""viewing_time"":7034.4000000003725},{""page_index"":1,""viewing_time"":7450},{""page_index"":2,""viewing_time"":12117.400000000373},{""page_index"":3,""viewing_time"":7933.5999999996275},{""page_index"":4,""viewing_time"":9066.700000001118},{""page_index"":5,""viewing_time"":8767.39999999851},{""page_index"":6,""viewing_time"":11067.10000000149},{""page_index"":7,""viewing_time"":7816.299999998882},{""page_index"":8,""viewing_time"":4567.4000000003725}]","75821.5","","","","","","","","","","","","","","","","","","","","","","","",""
"pit-comprehension","94","790425","0.0-2.0-20.0-0.0","battery-v0.2","","""event"",""trial"",""time""
""fullscreenenter"",""1"",""2754""
""blur"",""93"",""764299""
""focus"",""93"",""765355""
","""event"",""trial"",""time""
""blur"",""93"",""764299""
","""event"",""trial"",""time""
""focus"",""93"",""765355""
","""event"",""trial"",""time""
""fullscreenenter"",""1"",""2754""
","
","","","4461.0999999996275","[""SPACE""]","0","20","3337","2752","","","","","","","","","","","","","","","","","","",""
"pit-instructions","95","793723","0.0-2.0-20.0-1.0","battery-v0.2","","""event"",""trial"",""time""
""fullscreenenter"",""1"",""2754""
""blur"",""93"",""764299""
""focus"",""93"",""765355""
","""event"",""trial"",""time""
""blur"",""93"",""764299""
","""event"",""trial"",""time""
""focus"",""93"",""765355""
","""event"",""trial"",""time""
""fullscreenenter"",""1"",""2754""
","
","","[{""page_index"":0,""viewing_time"":3266.9000000003725}]","3267.5999999996275","","","","","","","","","","","","","","","","","","","","","","","",""
"pit-comprehension","96","798423","0.0-2.0-21.0-0.0","battery-v0.2","","""event"",""trial"",""time""
""fullscreenenter"",""1"",""2754""
""blur"",""93"",""764299""
""focus"",""93"",""765355""
","""event"",""trial"",""time""
""blur"",""93"",""764299""
","""event"",""trial"",""time""
""focus"",""93"",""765355""
","""event"",""trial"",""time""
""fullscreenenter"",""1"",""2754""
","
","","","4693.5","[""10""]","0","20","3337","2752","","","","","","","","","","","","","","","","","","",""
"pit-instructions","97","801672","0.0-2.0-21.0-1.0","battery-v0.2","","""event"",""trial"",""time""
""fullscreenenter"",""1"",""2754""
""blur"",""93"",""764299""
""focus"",""93"",""765355""
","""event"",""trial"",""time""
""blur"",""93"",""764299""
","""event"",""trial"",""time""
""focus"",""93"",""765355""
","""event"",""trial"",""time""
""fullscreenenter"",""1"",""2754""
","
","","[{""page_index"":0,""viewing_time"":3223.2000000011176}]","3223.9000000003725","","","","","","","","","","","","","","","","","","","","","","","",""
"pit-comprehension","98","808174","0.0-2.0-22.0-0.0","battery-v0.2","","""event"",""trial"",""time""
""fullscreenenter"",""1"",""2754""
""blur"",""93"",""764299""
""focus"",""93"",""765355""
","""event"",""trial"",""time""
""blur"",""93"",""764299""
","""event"",""trial"",""time""
""focus"",""93"",""765355""
","""event"",""trial"",""time""
""fullscreenenter"",""1"",""2754""
","
","","","6493.800000000745","[""0""]","0","20","3337","2752","","","","","","","","","","","","","","","","","","",""
"pit-instructions","99","813156","0.0-2.0-22.0-1.0","battery-v0.2","","""event"",""trial"",""time""
""fullscreenenter"",""1"",""2754""
""blur"",""93"",""764299""
""focus"",""93"",""765355""
","""event"",""trial"",""time""
""blur"",""93"",""764299""
","""event"",""trial"",""time""
""focus"",""93"",""765355""
","""event"",""trial"",""time""
""fullscreenenter"",""1"",""2754""
","
","","[{""page_index"":0,""viewing_time"":4950.4000000003725}]","4951.200000001118","","","","","","","","","","","","","","","","","","","","","","","",""
"pit-comprehension","100","821590","0.0-2.0-23.0-0.0","battery-v0.2","","""event"",""trial"",""time""
""fullscreenenter"",""1"",""2754""
""blur"",""93"",""764299""
""focus"",""93"",""765355""
","""event"",""trial"",""time""
""blur"",""93"",""764299""
","""event"",""trial"",""time""
""focus"",""93"",""765355""
","""event"",""trial"",""time""
""fullscreenenter"",""1"",""2754""
","
","","","8426","[""True""]","0","20","3337","2752","","","","","","","","","","","","","","","","","","",""
"pit-instructions","101","826023","0.0-2.0-23.0-1.0","battery-v0.2","","""event"",""trial"",""time""
""fullscreenenter"",""1"",""2754""
""blur"",""93"",""764299""
""focus"",""93"",""765355""
","""event"",""trial"",""time""
""blur"",""93"",""764299""
","""event"",""trial"",""time""
""focus"",""93"",""765355""
","""event"",""trial"",""time""
""fullscreenenter"",""1"",""2754""
","
","","[{""page_index"":0,""viewing_time"":4400.300000000745}]","4401.10000000149","","","","","","","","","","","","","","","","","","","","","","","",""
"pit-comprehension","102","833523","0.0-2.0-24.0-0.0","battery-v0.2","","""event"",""trial"",""time""
""fullscreenenter"",""1"",""2754""
""blur"",""93"",""764299""
""focus"",""93"",""765355""
","""event"",""trial"",""time""
""blur"",""93"",""764299""
","""event"",""trial"",""time""
""focus"",""93"",""765355""
","""event"",""trial"",""time""
""fullscreenenter"",""1"",""2754""
","
","","","7492","[""True""]","0","20","3337","2752","","","","","","","","","","","","","","","","","","",""
"pit-instructions","103","835089","0.0-2.0-24.0-1.0","battery-v0.2","","""event"",""trial"",""time""
""fullscreenenter"",""1"",""2754""
""blur"",""93"",""764299""
""focus"",""93"",""765355""
","""event"",""trial"",""time""
""blur"",""93"",""764299""
","""event"",""trial"",""time""
""focus"",""93"",""765355""
","""event"",""trial"",""time""
""fullscreenenter"",""1"",""2754""
","
","","[{""page_index"":0,""viewing_time"":1531.7999999988824}]","1532.699999999255","","","","","","","","","","","","","","","","","","","","","","","",""
"pit-comprehension","104","841623","0.0-2.0-25.0-0.0","battery-v0.2","","""event"",""trial"",""time""
""fullscreenenter"",""1"",""2754""
""blur"",""93"",""764299""
""focus"",""93"",""765355""
","""event"",""trial"",""time""
""blur"",""93"",""764299""
","""event"",""trial"",""time""
""focus"",""93"",""765355""
","""event"",""trial"",""time""
""fullscreenenter"",""1"",""2754""
","
","","","6525.5999999996275","[""True""]","0","20","3337","2752","","","","","","","","","","","","","","","","","","",""
"pit-instructions","105","844222","0.0-2.0-25.0-1.0","battery-v0.2","","""event"",""trial"",""time""
""fullscreenenter"",""1"",""2754""
""blur"",""93"",""764299""
""focus"",""93"",""765355""
","""event"",""trial"",""time""
""blur"",""93"",""764299""
","""event"",""trial"",""time""
""focus"",""93"",""765355""
","""event"",""trial"",""time""
""fullscreenenter"",""1"",""2754""
","
","","[{""page_index"":0,""viewing_time"":2567.5}]","2568.39999999851","","","","","","","","","","","","","","","","","","","","","","","",""
"pit-comprehension","106","848807","0.0-2.0-26.0-0.0","battery-v0.2","","""event"",""trial"",""time""
""fullscreenenter"",""1"",""2754""
""blur"",""93"",""764299""
""focus"",""93"",""765355""
","""event"",""trial"",""time""
""blur"",""93"",""764299""
","""event"",""trial"",""time""
""focus"",""93"",""765355""
","""event"",""trial"",""time""
""fullscreenenter"",""1"",""2754""
","
","","","4576.199999999255","[""False""]","0","20","3337","2752","","","","","","","","","","","","","","","","","","",""
"pit-instructions","107","850522","0.0-2.0-26.0-1.0","battery-v0.2","","""event"",""trial"",""time""
""fullscreenenter"",""1"",""2754""
""blur"",""93"",""764299""
""focus"",""93"",""765355""
","""event"",""trial"",""time""
""blur"",""93"",""764299""
","""event"",""trial"",""time""
""focus"",""93"",""765355""
","""event"",""trial"",""time""
""fullscreenenter"",""1"",""2754""
","
","","[{""page_index"":0,""viewing_time"":1685.5}]","1686.199999999255","","","","","","","","","","","","","","","","","","","","","","","",""
"pit-instructions","108","869356","0.0-3.0","battery-v0.2","","""event"",""trial"",""time""
""fullscreenenter"",""1"",""2754""
""blur"",""93"",""764299""
""focus"",""93"",""765355""
","""event"",""trial"",""time""
""blur"",""93"",""764299""
","""event"",""trial"",""time""
""focus"",""93"",""765355""
","""event"",""trial"",""time""
""fullscreenenter"",""1"",""2754""
","
","","[{""page_index"":0,""viewing_time"":5093.5},{""page_index"":1,""viewing_time"":6150.89999999851},{""page_index"":2,""viewing_time"":7584.10000000149}]","18829.199999999255","","","","","","","","","","","","","","","","","","","","","","","",""
"pit-trial","109","873131","0.0-4.0","battery-v0.2","","""event"",""trial"",""time""
""fullscreenenter"",""1"",""2754""
""blur"",""93"",""764299""
""focus"",""93"",""765355""
","""event"",""trial"",""time""
""blur"",""93"",""764299""
","""event"",""trial"",""time""
""focus"",""93"",""765355""
","""event"",""trial"",""time""
""fullscreenenter"",""1"",""2754""
","
","","","914","","","20","3337","2752","&#9733;","elianto","#3366ff99","-1"," ","0","0","[1764.699999999255]","1","1","","","3337","1","2","2","win","no-go","0"
"pit-trial","110","876201","0.0-5.0","battery-v0.2","","""event"",""trial"",""time""
""fullscreenenter"",""1"",""2754""
""blur"",""93"",""764299""
""focus"",""93"",""765355""
","""event"",""trial"",""time""
""blur"",""93"",""764299""
","""event"",""trial"",""time""
""focus"",""93"",""765355""
","""event"",""trial"",""time""
""fullscreenenter"",""1"",""2754""
","
","","","207.30000000074506","","","20","3337","2752","&#9728;","elianto","#f73b6a7A","-1"," ","0","-10","[1058]","1","1","","","3337","2","0","4","lose","no-go","0"
"pit-trial","111","879592","0.0-6.0","battery-v0.2","","""event"",""trial"",""time""
""fullscreenenter"",""1"",""2754""
""blur"",""93"",""764299""
""focus"",""93"",""765355""
","""event"",""trial"",""time""
""blur"",""93"",""764299""
","""event"",""trial"",""time""
""focus"",""93"",""765355""
","""event"",""trial"",""time""
""fullscreenenter"",""1"",""2754""
","
","","","530.9000000003725","","","20","3337","2752","&#9730;","elianto","#3366ff99"," "," ","1","0","[1381.5999999996275]","1","1","","","3337","3","1","1","win","go","1"
"pit-trial","112","883566","0.0-7.0","battery-v0.2","","""event"",""trial"",""time""
""fullscreenenter"",""1"",""2754""
""blur"",""93"",""764299""
""focus"",""93"",""765355""
","""event"",""trial"",""time""
""blur"",""93"",""764299""
","""event"",""trial"",""time""
""focus"",""93"",""765355""
","""event"",""trial"",""time""
""fullscreenenter"",""1"",""2754""
","
","","","1111.8999999985099","","","20","3337","2752","&#9752;","elianto","#f73b6a7A"," "," ","1","-10","[1962.0999999996275]","1","1","","","3337","4","3","3","lose","go","1"
"pit-trial","113","887242","0.0-8.0","battery-v0.2","","""event"",""trial"",""time""
""fullscreenenter"",""1"",""2754""
""blur"",""93"",""764299""
""focus"",""93"",""765355""
","""event"",""trial"",""time""
""blur"",""93"",""764299""
","""event"",""trial"",""time""
""focus"",""93"",""765355""
","""event"",""trial"",""time""
""fullscreenenter"",""1"",""2754""
","
","","","814.3000000007451","","","20","3337","2752","&#9733;","elianto","#3366ff99","-1"," ","0","+10","[1665.0999999996275]","1","1","","","3337","5","2","2","win","no-go","1"
"pit-trial","114","891008","0.0-9.0","battery-v0.2","","""event"",""trial"",""time""
""fullscreenenter"",""1"",""2754""
""blur"",""93"",""764299""
""focus"",""93"",""765355""
","""event"",""trial"",""time""
""blur"",""93"",""764299""
","""event"",""trial"",""time""
""focus"",""93"",""765355""
","""event"",""trial"",""time""
""fullscreenenter"",""1"",""2754""
","
","","","902.5","","","20","3337","2752","&#9728;","elianto","#f73b6a7A","-1"," ","0","-10","[1754]","1","1","","","3337","6","0","4","lose","no-go","0"
"pit-trial","115","895533","0.0-10.0","battery-v0.2","","""event"",""trial"",""time""
""fullscreenenter"",""1"",""2754""
""blur"",""93"",""764299""
""focus"",""93"",""765355""
","""event"",""trial"",""time""
""blur"",""93"",""764299""
","""event"",""trial"",""time""
""focus"",""93"",""765355""
","""event"",""trial"",""time""
""fullscreenenter"",""1"",""2754""
","
","","","1661.4000000003725","","","20","3337","2752","&#9730;","elianto","#3366ff99"," "," ","1","+10","[2512.5]","1","1","","","3337","7","1","1","win","go","0"
"pit-trial","116","900398","0.0-11.0","battery-v0.2","","""event"",""trial"",""time""
""fullscreenenter"",""1"",""2754""
""blur"",""93"",""764299""
""focus"",""93"",""765355""
","""event"",""trial"",""time""
""blur"",""93"",""764299""
","""event"",""trial"",""time""
""focus"",""93"",""765355""
","""event"",""trial"",""time""
""fullscreenenter"",""1"",""2754""
","
","","","-1","","","20","3337","2752","&#9752;","elianto","#f73b6a7A"," ","-1","0","0","[]","0","1","","","3337","8","3","3","lose","go","1"
"pit-trial","117","905262","0.0-12.0","battery-v0.2","","""event"",""trial"",""time""
""fullscreenenter"",""1"",""2754""
""blur"",""93"",""764299""
""focus"",""93"",""765355""
","""event"",""trial"",""time""
""blur"",""93"",""764299""
","""event"",""trial"",""time""
""focus"",""93"",""765355""
","""event"",""trial"",""time""
""fullscreenenter"",""1"",""2754""
","
","","","-1","","","20","3337","2752","&#9752;","elianto","#f73b6a7A"," ","-1","0","-10","[]","0","1","","","3337","9","3","3","lose","go","0"
"pit-trial","118","910125","0.0-13.0","battery-v0.2","","""event"",""trial"",""time""
""fullscreenenter"",""1"",""2754""
""blur"",""93"",""764299""
""focus"",""93"",""765355""
","""event"",""trial"",""time""
""blur"",""93"",""764299""
","""event"",""trial"",""time""
""focus"",""93"",""765355""
","""event"",""trial"",""time""
""fullscreenenter"",""1"",""2754""
","
","","","-1","","","20","3337","2752","&#9733;","elianto","#3366ff99","-1","-1","1","+10","[]","0","1","","","3337","10","2","2","win","no-go","0"
"pit-trial","119","914989","0.0-14.0","battery-v0.2","","""event"",""trial"",""time""
""fullscreenenter"",""1"",""2754""
""blur"",""93"",""764299""
""focus"",""93"",""765355""
","""event"",""trial"",""time""
""blur"",""93"",""764299""
","""event"",""trial"",""time""
""focus"",""93"",""765355""
","""event"",""trial"",""time""
""fullscreenenter"",""1"",""2754""
","
","","","-1","","","20","3337","2752","&#9730;","elianto","#3366ff99"," ","-1","0","0","[3039.9000000003725]","1","1","","","3337","11","1","1","win","go","0"
"pit-trial","120","919849","0.0-15.0","battery-v0.2","","""event"",""trial"",""time""
""fullscreenenter"",""1"",""2754""
""blur"",""93"",""764299""
""focus"",""93"",""765355""
","""event"",""trial"",""time""
""blur"",""93"",""764299""
","""event"",""trial"",""time""
""focus"",""93"",""765355""
","""event"",""trial"",""time""
""fullscreenenter"",""1"",""2754""
","
","","","-1","","","20","3337","2752","&#9728;","elianto","#f73b6a7A","-1","-1","1","0","[]","0","1","","","3337","12","0","4","lose","no-go","0"
"pit-trial","121","923479","0.0-16.0","battery-v0.2","","""event"",""trial"",""time""
""fullscreenenter"",""1"",""2754""
""blur"",""93"",""764299""
""focus"",""93"",""765355""
","""event"",""trial"",""time""
""blur"",""93"",""764299""
","""event"",""trial"",""time""
""focus"",""93"",""765355""
","""event"",""trial"",""time""
""fullscreenenter"",""1"",""2754""
","
","","","770","","","20","3337","2752","&#9730;","elianto","#3366ff99"," "," ","1","+10","[1621.2999999988824]","1","1","","","3337","13","1","1","win","go","0"
"pit-trial","122","928343","0.0-17.0","battery-v0.2","","""event"",""trial"",""time""
""fullscreenenter"",""1"",""2754""
""blur"",""93"",""764299""
""focus"",""93"",""765355""
","""event"",""trial"",""time""
""blur"",""93"",""764299""
","""event"",""trial"",""time""
""focus"",""93"",""765355""
","""event"",""trial"",""time""
""fullscreenenter"",""1"",""2754""
","
","","","-1","","","20","3337","2752","&#9728;","elianto","#f73b6a7A","-1","-1","1","0","[]","0","1","","","3337","14","0","4","lose","no-go","0"
"pit-trial","123","932284","0.0-18.0","battery-v0.2","","""event"",""trial"",""time""
""fullscreenenter"",""1"",""2754""
""blur"",""93"",""764299""
""focus"",""93"",""765355""
","""event"",""trial"",""time""
""blur"",""93"",""764299""
","""event"",""trial"",""time""
""focus"",""93"",""765355""
","""event"",""trial"",""time""
""fullscreenenter"",""1"",""2754""
","
","","","1082.5","","","20","3337","2752","&#9733;","elianto","#3366ff99","-1"," ","0","0","[1932.6000000014901]","1","1","","","3337","15","2","2","win","no-go","0"
"pit-trial","124","937143","0.0-19.0","battery-v0.2","","""event"",""trial"",""time""
""fullscreenenter"",""1"",""2754""
""blur"",""93"",""764299""
""focus"",""93"",""765355""
","""event"",""trial"",""time""
""blur"",""93"",""764299""
","""event"",""trial"",""time""
""focus"",""93"",""765355""
","""event"",""trial"",""time""
""fullscreenenter"",""1"",""2754""
","
","","","-1","","","20","3337","2752","&#9752;","elianto","#f73b6a7A"," ","-1","0","0","[]","0","1","","","3337","16","3","3","lose","go","1"
"pit-trial","125","942006","0.0-20.0","battery-v0.2","","""event"",""trial"",""time""
""fullscreenenter"",""1"",""2754""
""blur"",""93"",""764299""
""focus"",""93"",""765355""
","""event"",""trial"",""time""
""blur"",""93"",""764299""
","""event"",""trial"",""time""
""focus"",""93"",""765355""
","""event"",""trial"",""time""
""fullscreenenter"",""1"",""2754""
","
","","","-1","","","20","3337","2752","&#9752;","elianto","#f73b6a7A"," ","-1","0","0","[]","0","1","","","3337","17","3","3","lose","go","1"
"pit-trial","126","946870","0.0-21.0","battery-v0.2","","""event"",""trial"",""time""
""fullscreenenter"",""1"",""2754""
""blur"",""93"",""764299""
""focus"",""93"",""765355""
","""event"",""trial"",""time""
""blur"",""93"",""764299""
","""event"",""trial"",""time""
""focus"",""93"",""765355""
","""event"",""trial"",""time""
""fullscreenenter"",""1"",""2754""
","
","","","-1","","","20","3337","2752","&#9728;","elianto","#f73b6a7A","-1","-1","1","-10","[]","0","1","","","3337","18","0","4","lose","no-go","1"
"pit-trial","127","951254","0.0-22.0","battery-v0.2","","""event"",""trial"",""time""
""fullscreenenter"",""1"",""2754""
""blur"",""93"",""764299""
""focus"",""93"",""765355""
","""event"",""trial"",""time""
""blur"",""93"",""764299""
","""event"",""trial"",""time""
""focus"",""93"",""765355""
","""event"",""trial"",""time""
""fullscreenenter"",""1"",""2754""
","
","","","1522.1000000014901","","","20","3337","2752","&#9730;","elianto","#3366ff99"," "," ","1","+10","[2372.9000000003725]","1","1","","","3337","19","1","1","win","go","0"
"pit-trial","128","955003","0.0-23.0","battery-v0.2","","""event"",""trial"",""time""
""fullscreenenter"",""1"",""2754""
""blur"",""93"",""764299""
""focus"",""93"",""765355""
","""event"",""trial"",""time""
""blur"",""93"",""764299""
","""event"",""trial"",""time""
""focus"",""93"",""765355""
","""event"",""trial"",""time""
""fullscreenenter"",""1"",""2754""
","
","","","887.6999999992549","","","20","3337","2752","&#9733;","elianto","#3366ff99","-1"," ","0","+10","[1739.7000000011176]","1","1","","","3337","20","2","2","win","no-go","1"
"pit-instructions","129","967738","0.0-24.0","battery-v0.2","","""event"",""trial"",""time""
""fullscreenenter"",""1"",""2754""
""blur"",""93"",""764299""
""focus"",""93"",""765355""
","""event"",""trial"",""time""
""blur"",""93"",""764299""
","""event"",""trial"",""time""
""focus"",""93"",""765355""
","""event"",""trial"",""time""
""fullscreenenter"",""1"",""2754""
","
","","[{""page_index"":0,""viewing_time"":5611.4000000003725},{""page_index"":1,""viewing_time"":7117.199999999255}]","12729.5","","","","","","","","","","","","","","","","","","","","","","","",""
"pit-trial","130","972541","0.0-25.0","battery-v0.2","","""event"",""trial"",""time""
""fullscreenenter"",""1"",""2754""
""blur"",""93"",""764299""
""focus"",""93"",""765355""
","""event"",""trial"",""time""
""blur"",""93"",""764299""
","""event"",""trial"",""time""
""focus"",""93"",""765355""
","""event"",""trial"",""time""
""fullscreenenter"",""1"",""2754""
","
","","","1937.2999999988824","","","20","3337","2752","d","elianto","#3366ff99"," "," ","1","+10","[2790.2999999988824]","1","2","","","3337","21","1","1","win","go","0"
"pit-trial","131","977409","0.0-26.0","battery-v0.2","","""event"",""trial"",""time""
""fullscreenenter"",""1"",""2754""
""blur"",""93"",""764299""
""focus"",""93"",""765355""
","""event"",""trial"",""time""
""blur"",""93"",""764299""
","""event"",""trial"",""time""
""focus"",""93"",""765355""
","""event"",""trial"",""time""
""fullscreenenter"",""1"",""2754""
","
","","","-1","","","20","3337","2752","e","elianto","#f73b6a7A","-1","-1","1","0","[]","0","2","","","3337","22","2","4","lose","no-go","0"
"pit-trial","132","982275","0.0-27.0","battery-v0.2","","""event"",""trial"",""time""
""fullscreenenter"",""1"",""2754""
""blur"",""93"",""764299""
""focus"",""93"",""765355""
","""event"",""trial"",""time""
""blur"",""93"",""764299""
","""event"",""trial"",""time""
""focus"",""93"",""765355""
","""event"",""trial"",""time""
""fullscreenenter"",""1"",""2754""
","
","","","-1","","","20","3337","2752","j","elianto","#f73b6a7A","-1","-1","1","0","[]","0","2","","","3337","23","0","4","lose","no-go","0"
"pit-trial","133","987140","0.0-28.0","battery-v0.2","","""event"",""trial"",""time""
""fullscreenenter"",""1"",""2754""
""blur"",""93"",""764299""
""focus"",""93"",""765355""
","""event"",""trial"",""time""
""blur"",""93"",""764299""
","""event"",""trial"",""time""
""focus"",""93"",""765355""
","""event"",""trial"",""time""
""fullscreenenter"",""1"",""2754""
","
","","","-1","","","20","3337","2752","w","elianto","#f73b6a7A"," ","-1","0","0","[]","0","2","","","3337","24","3","3","lose","go","1"
"pit-trial","134","990732","0.0-29.0","battery-v0.2","","""event"",""trial"",""time""
""fullscreenenter"",""1"",""2754""
""blur"",""93"",""764299""
""focus"",""93"",""765355""
","""event"",""trial"",""time""
""blur"",""93"",""764299""
","""event"",""trial"",""time""
""focus"",""93"",""765355""
","""event"",""trial"",""time""
""fullscreenenter"",""1"",""2754""
","
","","","730.1000000014901","","","20","3337","2752","d","elianto","#3366ff99"," "," ","1","+10","[1581.4000000003725]","1","2","","","3337","25","1","1","win","go","0"
"pit-trial","135","995597","0.0-30.0","battery-v0.2","","""event"",""trial"",""time""
""fullscreenenter"",""1"",""2754""
""blur"",""93"",""764299""
""focus"",""93"",""765355""
","""event"",""trial"",""time""
""blur"",""93"",""764299""
","""event"",""trial"",""time""
""focus"",""93"",""765355""
","""event"",""trial"",""time""
""fullscreenenter"",""1"",""2754""
","
","","","-1","","","20","3337","2752","e","elianto","#f73b6a7A","-1","-1","1","0","[]","0","2","","","3337","26","2","4","lose","no-go","0"
"pit-trial","136","1000459","0.0-31.0","battery-v0.2","","""event"",""trial"",""time""
""fullscreenenter"",""1"",""2754""
""blur"",""93"",""764299""
""focus"",""93"",""765355""
","""event"",""trial"",""time""
""blur"",""93"",""764299""
","""event"",""trial"",""time""
""focus"",""93"",""765355""
","""event"",""trial"",""time""
""fullscreenenter"",""1"",""2754""
","
","","","-1","","","20","3337","2752","j","elianto","#f73b6a7A","-1","-1","1","0","[]","0","2","","","3337","27","0","4","lose","no-go","0"
"pit-trial","137","1004811","0.0-32.0","battery-v0.2","","""event"",""trial"",""time""
""fullscreenenter"",""1"",""2754""
""blur"",""93"",""764299""
""focus"",""93"",""765355""
","""event"",""trial"",""time""
""blur"",""93"",""764299""
","""event"",""trial"",""time""
""focus"",""93"",""765355""
","""event"",""trial"",""time""
""fullscreenenter"",""1"",""2754""
","
","","","1491.5999999996275","","","20","3337","2752","w","elianto","#f73b6a7A"," "," ","1","0","[2342.89999999851]","1","2","","","3337","28","3","3","lose","go","0"
"pit-trial","138","1008608","0.0-33.0","battery-v0.2","","""event"",""trial"",""time""
""fullscreenenter"",""1"",""2754""
""blur"",""93"",""764299""
""focus"",""93"",""765355""
","""event"",""trial"",""time""
""blur"",""93"",""764299""
","""event"",""trial"",""time""
""focus"",""93"",""765355""
","""event"",""trial"",""time""
""fullscreenenter"",""1"",""2754""
","
","","","937.1999999992549","","","20","3337","2752","e","elianto","#f73b6a7A","-1"," ","0","-10","[1787.699999999255]","1","2","","","3337","29","2","4","lose","no-go","0"
"pit-trial","139","1012176","0.0-34.0","battery-v0.2","","""event"",""trial"",""time""
""fullscreenenter"",""1"",""2754""
""blur"",""93"",""764299""
""focus"",""93"",""765355""
","""event"",""trial"",""time""
""blur"",""93"",""764299""
","""event"",""trial"",""time""
""focus"",""93"",""765355""
","""event"",""trial"",""time""
""fullscreenenter"",""1"",""2754""
","
","","","705.5","","","20","3337","2752","d","elianto","#3366ff99"," "," ","1","+10","[1556.300000000745]","1","2","","","3337","30","1","1","win","go","0"
"pit-trial","140","1017039","0.0-35.0","battery-v0.2","","""event"",""trial"",""time""
""fullscreenenter"",""1"",""2754""
""blur"",""93"",""764299""
""focus"",""93"",""765355""
","""event"",""trial"",""time""
""blur"",""93"",""764299""
","""event"",""trial"",""time""
""focus"",""93"",""765355""
","""event"",""trial"",""time""
""fullscreenenter"",""1"",""2754""
","
","","","-1","","","20","3337","2752","j","elianto","#f73b6a7A","-1","-1","1","0","[]","0","2","","","3337","31","0","4","lose","no-go","0"
"pit-trial","141","1021903","0.0-36.0","battery-v0.2","","""event"",""trial"",""time""
""fullscreenenter"",""1"",""2754""
""blur"",""93"",""764299""
""focus"",""93"",""765355""
","""event"",""trial"",""time""
""blur"",""93"",""764299""
","""event"",""trial"",""time""
""focus"",""93"",""765355""
","""event"",""trial"",""time""
""fullscreenenter"",""1"",""2754""
","
","","","-1","","","20","3337","2752","w","elianto","#f73b6a7A"," ","-1","0","-10","[]","0","2","","","3337","32","3","3","lose","go","0"
"pit-trial","142","1025551","0.0-37.0","battery-v0.2","","""event"",""trial"",""time""
""fullscreenenter"",""1"",""2754""
""blur"",""93"",""764299""
""focus"",""93"",""765355""
","""event"",""trial"",""time""
""blur"",""93"",""764299""
","""event"",""trial"",""time""
""focus"",""93"",""765355""
","""event"",""trial"",""time""
""fullscreenenter"",""1"",""2754""
","
","","","787.2000000011176","","","20","3337","2752","d","elianto","#3366ff99"," "," ","1","+10","[1639.5]","1","2","","","3337","33","1","1","win","go","0"
"pit-trial","143","1030415","0.0-38.0","battery-v0.2","","""event"",""trial"",""time""
""fullscreenenter"",""1"",""2754""
""blur"",""93"",""764299""
""focus"",""93"",""765355""
","""event"",""trial"",""time""
""blur"",""93"",""764299""
","""event"",""trial"",""time""
""focus"",""93"",""765355""
","""event"",""trial"",""time""
""fullscreenenter"",""1"",""2754""
","
","","","-1","","","20","3337","2752","e","elianto","#f73b6a7A","-1","-1","1","0","[]","0","2","","","3337","34","2","4","lose","no-go","0"
"pit-trial","144","1035274","0.0-39.0","battery-v0.2","","""event"",""trial"",""time""
""fullscreenenter"",""1"",""2754""
""blur"",""93"",""764299""
""focus"",""93"",""765355""
","""event"",""trial"",""time""
""blur"",""93"",""764299""
","""event"",""trial"",""time""
""focus"",""93"",""765355""
","""event"",""trial"",""time""
""fullscreenenter"",""1"",""2754""
","
","","","-1","","","20","3337","2752","j","elianto","#f73b6a7A","-1","-1","1","-10","[]","0","2","","","3337","35","0","4","lose","no-go","1"
"pit-trial","145","1040143","0.0-40.0","battery-v0.2","","""event"",""trial"",""time""
""fullscreenenter"",""1"",""2754""
""blur"",""93"",""764299""
""focus"",""93"",""765355""
","""event"",""trial"",""time""
""blur"",""93"",""764299""
","""event"",""trial"",""time""
""focus"",""93"",""765355""
","""event"",""trial"",""time""
""fullscreenenter"",""1"",""2754""
","
","","","-1","","","20","3337","2752","w","elianto","#f73b6a7A"," ","-1","0","-10","[]","0","2","","","3337","36","3","3","lose","go","0"
"pit-trial","146","1043610","0.0-41.0","battery-v0.2","","""event"",""trial"",""time""
""fullscreenenter"",""1"",""2754""
""blur"",""93"",""764299""
""focus"",""93"",""765355""
","""event"",""trial"",""time""
""blur"",""93"",""764299""
","""event"",""trial"",""time""
""focus"",""93"",""765355""
","""event"",""trial"",""time""
""fullscreenenter"",""1"",""2754""
","
","","","608","","","20","3337","2752","w","elianto","#f73b6a7A"," "," ","1","-10","[1458.199999999255]","1","2","","","3337","37","3","3","lose","go","1"
"pit-trial","147","1047102","0.0-42.0","battery-v0.2","","""event"",""trial"",""time""
""fullscreenenter"",""1"",""2754""
""blur"",""93"",""764299""
""focus"",""93"",""765355""
","""event"",""trial"",""time""
""blur"",""93"",""764299""
","""event"",""trial"",""time""
""focus"",""93"",""765355""
","""event"",""trial"",""time""
""fullscreenenter"",""1"",""2754""
","
","","","629.5","","","20","3337","2752","d","elianto","#3366ff99"," "," ","1","+10","[1479.5999999996275]","1","2","","","3337","38","1","1","win","go","0"
"pit-trial","148","1051314","0.0-43.0","battery-v0.2","","""event"",""trial"",""time""
""fullscreenenter"",""1"",""2754""
""blur"",""93"",""764299""
""focus"",""93"",""765355""
","""event"",""trial"",""time""
""blur"",""93"",""764299""
","""event"",""trial"",""time""
""focus"",""93"",""765355""
","""event"",""trial"",""time""
""fullscreenenter"",""1"",""2754""
","
","","","1348.300000000745","","","20","3337","2752","e","elianto","#f73b6a7A","-1"," ","0","-10","[2199.10000000149]","1","2","","","3337","39","2","4","lose","no-go","0"
"pit-trial","149","1056179","0.0-44.0","battery-v0.2","","""event"",""trial"",""time""
""fullscreenenter"",""1"",""2754""
""blur"",""93"",""764299""
""focus"",""93"",""765355""
","""event"",""trial"",""time""
""blur"",""93"",""764299""
","""event"",""trial"",""time""
""focus"",""93"",""765355""
","""event"",""trial"",""time""
""fullscreenenter"",""1"",""2754""
","
","","","-1","","","20","3337","2752","j","elianto","#f73b6a7A","-1","-1","1","0","[]","0","2","","","3337","40","0","4","lose","no-go","0"
"pit-trial","150","1059817","0.0-45.0","battery-v0.2","","""event"",""trial"",""time""
""fullscreenenter"",""1"",""2754""
""blur"",""93"",""764299""
""focus"",""93"",""765355""
","""event"",""trial"",""time""
""blur"",""93"",""764299""
","""event"",""trial"",""time""
""focus"",""93"",""765355""
","""event"",""trial"",""time""
""fullscreenenter"",""1"",""2754""
","
","","","776.2999999988824","","","20","3337","2752","d","elianto","#3366ff99"," "," ","1","0","[1626.5]","1","2","","","3337","41","1","1","win","go","1"
"pit-trial","151","1064680","0.0-46.0","battery-v0.2","","""event"",""trial"",""time""
""fullscreenenter"",""1"",""2754""
""blur"",""93"",""764299""
""focus"",""93"",""765355""
","""event"",""trial"",""time""
""blur"",""93"",""764299""
","""event"",""trial"",""time""
""focus"",""93"",""765355""
","""event"",""trial"",""time""
""fullscreenenter"",""1"",""2754""
","
","","","-1","","","20","3337","2752","e","elianto","#f73b6a7A","-1","-1","1","0","[]","0","2","","","3337","42","2","4","lose","no-go","0"
"pit-trial","152","1069544","0.0-47.0","battery-v0.2","","""event"",""trial"",""time""
""fullscreenenter"",""1"",""2754""
""blur"",""93"",""764299""
""focus"",""93"",""765355""
","""event"",""trial"",""time""
""blur"",""93"",""764299""
","""event"",""trial"",""time""
""focus"",""93"",""765355""
","""event"",""trial"",""time""
""fullscreenenter"",""1"",""2754""
","
","","","-1","","","20","3337","2752","j","elianto","#f73b6a7A","-1","-1","1","0","[]","0","2","","","3337","43","0","4","lose","no-go","0"
"pit-trial","153","1074408","0.0-48.0","battery-v0.2","","""event"",""trial"",""time""
""fullscreenenter"",""1"",""2754""
""blur"",""93"",""764299""
""focus"",""93"",""765355""
","""event"",""trial"",""time""
""blur"",""93"",""764299""
","""event"",""trial"",""time""
""focus"",""93"",""765355""
","""event"",""trial"",""time""
""fullscreenenter"",""1"",""2754""
","
","","","-1","","","20","3337","2752","w","elianto","#f73b6a7A"," ","-1","0","-10","[]","0","2","","","3337","44","3","3","lose","go","0"
"pit-trial","154","1079271","0.0-49.0","battery-v0.2","","""event"",""trial"",""time""
""fullscreenenter"",""1"",""2754""
""blur"",""93"",""764299""
""focus"",""93"",""765355""
","""event"",""trial"",""time""
""blur"",""93"",""764299""
","""event"",""trial"",""time""
""focus"",""93"",""765355""
","""event"",""trial"",""time""
""fullscreenenter"",""1"",""2754""
","
","","","-1","","","20","3337","2752","e","elianto","#f73b6a7A","-1","-1","1","0","[]","0","2","","","3337","45","2","4","lose","no-go","0"
"pit-trial","155","1083516","0.0-50.0","battery-v0.2","","""event"",""trial"",""time""
""fullscreenenter"",""1"",""2754""
""blur"",""93"",""764299""
""focus"",""93"",""765355""
","""event"",""trial"",""time""
""blur"",""93"",""764299""
","""event"",""trial"",""time""
""focus"",""93"",""765355""
","""event"",""trial"",""time""
""fullscreenenter"",""1"",""2754""
","
","","","1381.5999999996275","","","20","3337","2752","s","elianto","#3366ff99","-1"," ","0","0","[2234.699999999255]","1","2","","","3337","46","4","2","win","no-go","0"
"pit-trial","156","1088380","0.0-51.0","battery-v0.2","","""event"",""trial"",""time""
""fullscreenenter"",""1"",""2754""
""blur"",""93"",""764299""
""focus"",""93"",""765355""
","""event"",""trial"",""time""
""blur"",""93"",""764299""
","""event"",""trial"",""time""
""focus"",""93"",""765355""
","""event"",""trial"",""time""
""fullscreenenter"",""1"",""2754""
","
","","","-1","","","20","3337","2752","w","elianto","#f73b6a7A"," ","-1","0","-10","[]","0","2","","","3337","47","3","3","lose","go","0"
"pit-trial","157","1093244","0.0-52.0","battery-v0.2","","""event"",""trial"",""time""
""fullscreenenter"",""1"",""2754""
""blur"",""93"",""764299""
""focus"",""93"",""765355""
","""event"",""trial"",""time""
""blur"",""93"",""764299""
","""event"",""trial"",""time""
""focus"",""93"",""765355""
","""event"",""trial"",""time""
""fullscreenenter"",""1"",""2754""
","
","","","-1","","","20","3337","2752","j","elianto","#f73b6a7A","-1","-1","1","0","[]","0","2","","","3337","48","0","4","lose","no-go","0"
"pit-trial","158","1098108","0.0-53.0","battery-v0.2","","""event"",""trial"",""time""
""fullscreenenter"",""1"",""2754""
""blur"",""93"",""764299""
""focus"",""93"",""765355""
","""event"",""trial"",""time""
""blur"",""93"",""764299""
","""event"",""trial"",""time""
""focus"",""93"",""765355""
","""event"",""trial"",""time""
""fullscreenenter"",""1"",""2754""
","
","","","-1","","","20","3337","2752","j","elianto","#f73b6a7A","-1","-1","1","0","[2904]","1","2","","","3337","49","0","4","lose","no-go","0"
"pit-trial","159","1101548","0.0-54.0","battery-v0.2","","""event"",""trial"",""time""
""fullscreenenter"",""1"",""2754""
""blur"",""93"",""764299""
""focus"",""93"",""765355""
","""event"",""trial"",""time""
""blur"",""93"",""764299""
","""event"",""trial"",""time""
""focus"",""93"",""765355""
","""event"",""trial"",""time""
""fullscreenenter"",""1"",""2754""
","
","","","580.5","","","20","3337","2752","s","elianto","#3366ff99","-1"," ","0","0","[1430.699999999255]","1","2","","","3337","50","4","2","win","no-go","0"
"pit-trial","160","1105537","0.0-55.0","battery-v0.2","","""event"",""trial"",""time""
""fullscreenenter"",""1"",""2754""
""blur"",""93"",""764299""
""focus"",""93"",""765355""
","""event"",""trial"",""time""
""blur"",""93"",""764299""
","""event"",""trial"",""time""
""focus"",""93"",""765355""
","""event"",""trial"",""time""
""fullscreenenter"",""1"",""2754""
","
","","","1130.6000000014901","","","20","3337","2752","d","elianto","#3366ff99"," "," ","1","+10","[1981.5]","1","2","","","3337","51","1","1","win","go","0"
"pit-trial","161","1110400","0.0-56.0","battery-v0.2","","""event"",""trial"",""time""
""fullscreenenter"",""1"",""2754""
""blur"",""93"",""764299""
""focus"",""93"",""765355""
","""event"",""trial"",""time""
""blur"",""93"",""764299""
","""event"",""trial"",""time""
""focus"",""93"",""765355""
","""event"",""trial"",""time""
""fullscreenenter"",""1"",""2754""
","
","","","-1","","","20","3337","2752","w","elianto","#f73b6a7A"," ","-1","0","-10","[2919.5999999996275]","1","2","","","3337","52","3","3","lose","go","0"
"pit-trial","162","1115265","0.0-57.0","battery-v0.2","","""event"",""trial"",""time""
""fullscreenenter"",""1"",""2754""
""blur"",""93"",""764299""
""focus"",""93"",""765355""
","""event"",""trial"",""time""
""blur"",""93"",""764299""
","""event"",""trial"",""time""
""focus"",""93"",""765355""
","""event"",""trial"",""time""
""fullscreenenter"",""1"",""2754""
","
","","","-1","","","20","3337","2752","j","elianto","#f73b6a7A","-1","-1","1","0","[]","0","2","","","3337","53","0","4","lose","no-go","0"
"pit-trial","163","1118720","0.0-58.0","battery-v0.2","","""event"",""trial"",""time""
""fullscreenenter"",""1"",""2754""
""blur"",""93"",""764299""
""focus"",""93"",""765355""
","""event"",""trial"",""time""
""blur"",""93"",""764299""
","""event"",""trial"",""time""
""focus"",""93"",""765355""
","""event"",""trial"",""time""
""fullscreenenter"",""1"",""2754""
","
","","","591.4000000003725","","","20","3337","2752","s","elianto","#3366ff99","-1"," ","0","0","[1442.699999999255]","1","2","","","3337","54","4","2","win","no-go","0"
"pit-trial","164","1122166","0.0-59.0","battery-v0.2","","""event"",""trial"",""time""
""fullscreenenter"",""1"",""2754""
""blur"",""93"",""764299""
""focus"",""93"",""765355""
","""event"",""trial"",""time""
""blur"",""93"",""764299""
","""event"",""trial"",""time""
""focus"",""93"",""765355""
","""event"",""trial"",""time""
""fullscreenenter"",""1"",""2754""
","
","","","585","","","20","3337","2752","d","elianto","#3366ff99"," "," ","1","0","[1436.300000000745]","1","2","","","3337","55","1","1","win","go","1"
"pit-trial","165","1127029","0.0-60.0","battery-v0.2","","""event"",""trial"",""time""
""fullscreenenter"",""1"",""2754""
""blur"",""93"",""764299""
""focus"",""93"",""765355""
","""event"",""trial"",""time""
""blur"",""93"",""764299""
","""event"",""trial"",""time""
""focus"",""93"",""765355""
","""event"",""trial"",""time""
""fullscreenenter"",""1"",""2754""
","
","","","-1","","","20","3337","2752","e","elianto","#f73b6a7A","-1","-1","1","-10","[]","0","2","","","3337","56","2","4","lose","no-go","1"
"pit-trial","166","1131893","0.0-61.0","battery-v0.2","","""event"",""trial"",""time""
""fullscreenenter"",""1"",""2754""
""blur"",""93"",""764299""
""focus"",""93"",""765355""
","""event"",""trial"",""time""
""blur"",""93"",""764299""
","""event"",""trial"",""time""
""focus"",""93"",""765355""
","""event"",""trial"",""time""
""fullscreenenter"",""1"",""2754""
","
","","","-1","","","20","3337","2752","j","elianto","#f73b6a7A","-1","-1","1","-10","[]","0","2","","","3337","57","0","4","lose","no-go","1"
"pit-trial","167","1135386","0.0-62.0","battery-v0.2","","""event"",""trial"",""time""
""fullscreenenter"",""1"",""2754""
""blur"",""93"",""764299""
""focus"",""93"",""765355""
","""event"",""trial"",""time""
""blur"",""93"",""764299""
","""event"",""trial"",""time""
""focus"",""93"",""765355""
","""event"",""trial"",""time""
""fullscreenenter"",""1"",""2754""
","
","","","630.8000000007451","","","20","3337","2752","s","elianto","#3366ff99","-1"," ","0","0","[1481.5]","1","2","","","3337","58","4","2","win","no-go","0"
"pit-trial","168","1140249","0.0-63.0","battery-v0.2","","""event"",""trial"",""time""
""fullscreenenter"",""1"",""2754""
""blur"",""93"",""764299""
""focus"",""93"",""765355""
","""event"",""trial"",""time""
""blur"",""93"",""764299""
","""event"",""trial"",""time""
""focus"",""93"",""765355""
","""event"",""trial"",""time""
""fullscreenenter"",""1"",""2754""
","
","","","-1","","","20","3337","2752","w","elianto","#f73b6a7A"," ","-1","0","-10","[]","0","2","","","3337","59","3","3","lose","go","0"
"pit-trial","169","1143632","0.0-64.0","battery-v0.2","","""event"",""trial"",""time""
""fullscreenenter"",""1"",""2754""
""blur"",""93"",""764299""
""focus"",""93"",""765355""
","""event"",""trial"",""time""
""blur"",""93"",""764299""
","""event"",""trial"",""time""
""focus"",""93"",""765355""
","""event"",""trial"",""time""
""fullscreenenter"",""1"",""2754""
","
","","","523.1000000014901","","","20","3337","2752","d","elianto","#3366ff99"," "," ","1","+10","[1374.199999999255]","1","2","","","3337","60","1","1","win","go","0"
"pit-trial","170","1148495","0.0-65.0","battery-v0.2","","""event"",""trial"",""time""
""fullscreenenter"",""1"",""2754""
""blur"",""93"",""764299""
""focus"",""93"",""765355""
","""event"",""trial"",""time""
""blur"",""93"",""764299""
","""event"",""trial"",""time""
""focus"",""93"",""765355""
","""event"",""trial"",""time""
""fullscreenenter"",""1"",""2754""
","
","","","-1","","","20","3337","2752","w","elianto","#f73b6a7A"," ","-1","0","0","[]","0","2","","","3337","61","3","3","lose","go","1"
"pit-trial","171","1152043","0.0-66.0","battery-v0.2","","""event"",""trial"",""time""
""fullscreenenter"",""1"",""2754""
""blur"",""93"",""764299""
""focus"",""93"",""765355""
","""event"",""trial"",""time""
""blur"",""93"",""764299""
","""event"",""trial"",""time""
""focus"",""93"",""765355""
","""event"",""trial"",""time""
""fullscreenenter"",""1"",""2754""
","
","","","687.5","","","20","3337","2752","s","elianto","#3366ff99","-1"," ","0","+10","[1537.699999999255]","1","2","","","3337","62","4","2","win","no-go","1"
"pit-trial","172","1155513","0.0-67.0","battery-v0.2","","""event"",""trial"",""time""
""fullscreenenter"",""1"",""2754""
""blur"",""93"",""764299""
""focus"",""93"",""765355""
","""event"",""trial"",""time""
""blur"",""93"",""764299""
","""event"",""trial"",""time""
""focus"",""93"",""765355""
","""event"",""trial"",""time""
""fullscreenenter"",""1"",""2754""
","
","","","607.2999999988824","","","20","3337","2752","d","elianto","#3366ff99"," "," ","1","+10","[1458]","1","2","","","3337","63","1","1","win","go","0"
"pit-trial","173","1160382","0.0-68.0","battery-v0.2","","""event"",""trial"",""time""
""fullscreenenter"",""1"",""2754""
""blur"",""93"",""764299""
""focus"",""93"",""765355""
","""event"",""trial"",""time""
""blur"",""93"",""764299""
","""event"",""trial"",""time""
""focus"",""93"",""765355""
","""event"",""trial"",""time""
""fullscreenenter"",""1"",""2754""
","
","","","-1","","","20","3337","2752","e","elianto","#f73b6a7A","-1","-1","1","0","[]","0","2","","","3337","64","2","4","lose","no-go","0"
"pit-trial","174","1165245","0.0-69.0","battery-v0.2","","""event"",""trial"",""time""
""fullscreenenter"",""1"",""2754""
""blur"",""93"",""764299""
""focus"",""93"",""765355""
","""event"",""trial"",""time""
""blur"",""93"",""764299""
","""event"",""trial"",""time""
""focus"",""93"",""765355""
","""event"",""trial"",""time""
""fullscreenenter"",""1"",""2754""
","
","","","-1","","","20","3337","2752","e","elianto","#f73b6a7A","-1","-1","1","0","[]","0","2","","","3337","65","2","4","lose","no-go","0"
"pit-trial","175","1168702","0.0-70.0","battery-v0.2","","""event"",""trial"",""time""
""fullscreenenter"",""1"",""2754""
""blur"",""93"",""764299""
""focus"",""93"",""765355""
","""event"",""trial"",""time""
""blur"",""93"",""764299""
","""event"",""trial"",""time""
""focus"",""93"",""765355""
","""event"",""trial"",""time""
""fullscreenenter"",""1"",""2754""
","
","","","594.5999999996275","","","20","3337","2752","d","elianto","#3366ff99"," "," ","1","+10","[1445]","1","2","","","3337","66","1","1","win","go","0"
"pit-trial","176","1172238","0.0-71.0","battery-v0.2","","""event"",""trial"",""time""
""fullscreenenter"",""1"",""2754""
""blur"",""93"",""764299""
""focus"",""93"",""765355""
","""event"",""trial"",""time""
""blur"",""93"",""764299""
","""event"",""trial"",""time""
""focus"",""93"",""765355""
","""event"",""trial"",""time""
""fullscreenenter"",""1"",""2754""
","
","","","676.5","","","20","3337","2752","s","elianto","#3366ff99","-1"," ","0","0","[1527.6000000014901]","1","2","","","3337","67","4","2","win","no-go","0"
"pit-trial","177","1177101","0.0-72.0","battery-v0.2","","""event"",""trial"",""time""
""fullscreenenter"",""1"",""2754""
""blur"",""93"",""764299""
""focus"",""93"",""765355""
","""event"",""trial"",""time""
""blur"",""93"",""764299""
","""event"",""trial"",""time""
""focus"",""93"",""765355""
","""event"",""trial"",""time""
""fullscreenenter"",""1"",""2754""
","
","","","-1","","","20","3337","2752","w","elianto","#f73b6a7A"," ","-1","0","-10","[]","0","2","","","3337","68","3","3","lose","go","0"
"pit-trial","178","1180594","0.0-73.0","battery-v0.2","","""event"",""trial"",""time""
""fullscreenenter"",""1"",""2754""
""blur"",""93"",""764299""
""focus"",""93"",""765355""
","""event"",""trial"",""time""
""blur"",""93"",""764299""
","""event"",""trial"",""time""
""focus"",""93"",""765355""
","""event"",""trial"",""time""
""fullscreenenter"",""1"",""2754""
","
","","","628.9000000003725","","","20","3337","2752","s","elianto","#3366ff99","-1"," ","0","0","[1479]","1","2","","","3337","69","4","2","win","no-go","0"
"pit-trial","179","1183960","0.0-74.0","battery-v0.2","","""event"",""trial"",""time""
""fullscreenenter"",""1"",""2754""
""blur"",""93"",""764299""
""focus"",""93"",""765355""
","""event"",""trial"",""time""
""blur"",""93"",""764299""
","""event"",""trial"",""time""
""focus"",""93"",""765355""
","""event"",""trial"",""time""
""fullscreenenter"",""1"",""2754""
","
","","","505.80000000074506","","","20","3337","2752","d","elianto","#3366ff99"," "," ","1","+10","[1356.699999999255]","1","2","","","3337","70","1","1","win","go","0"
"pit-trial","180","1187682","0.0-75.0","battery-v0.2","","""event"",""trial"",""time""
""fullscreenenter"",""1"",""2754""
""blur"",""93"",""764299""
""focus"",""93"",""765355""
","""event"",""trial"",""time""
""blur"",""93"",""764299""
","""event"",""trial"",""time""
""focus"",""93"",""765355""
","""event"",""trial"",""time""
""fullscreenenter"",""1"",""2754""
","
","","","864.2999999988824","","","20","3337","2752","p","elianto","#3366ff99"," "," ","1","0","[1714.5999999996275,2782.0999999996275]","2","2","","","3337","71","5","1","win","go","1"
"pit-trial","181","1192546","0.0-76.0","battery-v0.2","","""event"",""trial"",""time""
""fullscreenenter"",""1"",""2754""
""blur"",""93"",""764299""
""focus"",""93"",""765355""
","""event"",""trial"",""time""
""blur"",""93"",""764299""
","""event"",""trial"",""time""
""focus"",""93"",""765355""
","""event"",""trial"",""time""
""fullscreenenter"",""1"",""2754""
","
","","","-1","","","20","3337","2752","w","elianto","#f73b6a7A"," ","-1","0","-10","[]","0","2","","","3337","72","3","3","lose","go","0"
"pit-trial","182","1195917","0.0-77.0","battery-v0.2","","""event"",""trial"",""time""
""fullscreenenter"",""1"",""2754""
""blur"",""93"",""764299""
""focus"",""93"",""765355""
","""event"",""trial"",""time""
""blur"",""93"",""764299""
","""event"",""trial"",""time""
""focus"",""93"",""765355""
","""event"",""trial"",""time""
""fullscreenenter"",""1"",""2754""
","
","","","507.40000000037253","","","20","3337","2752","s","elianto","#3366ff99","-1"," ","0","0","[1358.2999999988824]","1","2","","","3337","73","4","2","win","no-go","0"
"pit-trial","183","1199378","0.0-78.0","battery-v0.2","","""event"",""trial"",""time""
""fullscreenenter"",""1"",""2754""
""blur"",""93"",""764299""
""focus"",""93"",""765355""
","""event"",""trial"",""time""
""blur"",""93"",""764299""
","""event"",""trial"",""time""
""focus"",""93"",""765355""
","""event"",""trial"",""time""
""fullscreenenter"",""1"",""2754""
","
","","","598.7999999988824","","","20","3337","2752","d","elianto","#3366ff99"," "," ","1","0","[1449.5]","1","2","","","3337","74","1","1","win","go","1"
"pit-trial","184","1202860","0.0-79.0","battery-v0.2","","""event"",""trial"",""time""
""fullscreenenter"",""1"",""2754""
""blur"",""93"",""764299""
""focus"",""93"",""765355""
","""event"",""trial"",""time""
""blur"",""93"",""764299""
","""event"",""trial"",""time""
""focus"",""93"",""765355""
","""event"",""trial"",""time""
""fullscreenenter"",""1"",""2754""
","
","","","622.3000000007451","","","20","3337","2752","p","elianto","#3366ff99"," "," ","1","0","[1472.7000000011176]","1","2","","","3337","75","5","1","win","go","1"
"pit-trial","185","1207724","0.0-80.0","battery-v0.2","","""event"",""trial"",""time""
""fullscreenenter"",""1"",""2754""
""blur"",""93"",""764299""
""focus"",""93"",""765355""
","""event"",""trial"",""time""
""blur"",""93"",""764299""
","""event"",""trial"",""time""
""focus"",""93"",""765355""
","""event"",""trial"",""time""
""fullscreenenter"",""1"",""2754""
","
","","","-1","","","20","3337","2752","w","elianto","#f73b6a7A"," ","-1","0","-10","[]","0","2","","","3337","76","3","3","lose","go","0"
"pit-trial","186","1212129","0.0-81.0","battery-v0.2","","""event"",""trial"",""time""
""fullscreenenter"",""1"",""2754""
""blur"",""93"",""764299""
""focus"",""93"",""765355""
","""event"",""trial"",""time""
""blur"",""93"",""764299""
","""event"",""trial"",""time""
""focus"",""93"",""765355""
","""event"",""trial"",""time""
""fullscreenenter"",""1"",""2754""
","
","","","1544.699999999255","","","20","3337","2752","s","elianto","#3366ff99","-1"," ","0","0","[2395]","1","2","","","3337","77","4","2","win","no-go","0"
"pit-trial","187","1216993","0.0-82.0","battery-v0.2","","""event"",""trial"",""time""
""fullscreenenter"",""1"",""2754""
""blur"",""93"",""764299""
""focus"",""93"",""765355""
","""event"",""trial"",""time""
""blur"",""93"",""764299""
","""event"",""trial"",""time""
""focus"",""93"",""765355""
","""event"",""trial"",""time""
""fullscreenenter"",""1"",""2754""
","
","","","-1","","","20","3337","2752","g","elianto","#f73b6a7A","-1","-1","1","0","[]","0","2","","","3337","78","6","4","lose","no-go","0"
"pit-trial","188","1221857","0.0-83.0","battery-v0.2","","""event"",""trial"",""time""
""fullscreenenter"",""1"",""2754""
""blur"",""93"",""764299""
""focus"",""93"",""765355""
","""event"",""trial"",""time""
""blur"",""93"",""764299""
","""event"",""trial"",""time""
""focus"",""93"",""765355""
","""event"",""trial"",""time""
""fullscreenenter"",""1"",""2754""
","
","","","-1","","","20","3337","2752","w","elianto","#f73b6a7A"," ","-1","0","-10","[]","0","2","","","3337","79","3","3","lose","go","0"
"pit-trial","189","1225835","0.0-84.0","battery-v0.2","","""event"",""trial"",""time""
""fullscreenenter"",""1"",""2754""
""blur"",""93"",""764299""
""focus"",""93"",""765355""
","""event"",""trial"",""time""
""blur"",""93"",""764299""
","""event"",""trial"",""time""
""focus"",""93"",""765355""
","""event"",""trial"",""time""
""fullscreenenter"",""1"",""2754""
","
","","","1115.800000000745","","","20","3337","2752","p","elianto","#3366ff99"," "," ","1","+10","[1966.6000000014901]","1","2","","","3337","80","5","1","win","go","0"
"pit-trial","190","1230699","0.0-85.0","battery-v0.2","","""event"",""trial"",""time""
""fullscreenenter"",""1"",""2754""
""blur"",""93"",""764299""
""focus"",""93"",""765355""
","""event"",""trial"",""time""
""blur"",""93"",""764299""
","""event"",""trial"",""time""
""focus"",""93"",""765355""
","""event"",""trial"",""time""
""fullscreenenter"",""1"",""2754""
","
","","","-1","","","20","3337","2752","a","elianto","#f73b6a7A"," ","-1","0","-10","[]","0","2","","","3337","81","7","3","lose","go","0"
"pit-trial","191","1235563","0.0-86.0","battery-v0.2","","""event"",""trial"",""time""
""fullscreenenter"",""1"",""2754""
""blur"",""93"",""764299""
""focus"",""93"",""765355""
","""event"",""trial"",""time""
""blur"",""93"",""764299""
","""event"",""trial"",""time""
""focus"",""93"",""765355""
","""event"",""trial"",""time""
""fullscreenenter"",""1"",""2754""
","
","","","-1","","","20","3337","2752","g","elianto","#f73b6a7A","-1","-1","1","0","[]","0","2","","","3337","82","6","4","lose","no-go","0"
"pit-trial","192","1239669","0.0-87.0","battery-v0.2","","""event"",""trial"",""time""
""fullscreenenter"",""1"",""2754""
""blur"",""93"",""764299""
""focus"",""93"",""765355""
","""event"",""trial"",""time""
""blur"",""93"",""764299""
","""event"",""trial"",""time""
""focus"",""93"",""765355""
","""event"",""trial"",""time""
""fullscreenenter"",""1"",""2754""
","
","","","1246.699999999255","","","20","3337","2752","p","elianto","#3366ff99"," "," ","1","+10","[2097.5]","1","2","","","3337","83","5","1","win","go","0"
"pit-trial","193","1243664","0.0-88.0","battery-v0.2","","""event"",""trial"",""time""
""fullscreenenter"",""1"",""2754""
""blur"",""93"",""764299""
""focus"",""93"",""765355""
","""event"",""trial"",""time""
""blur"",""93"",""764299""
","""event"",""trial"",""time""
""focus"",""93"",""765355""
","""event"",""trial"",""time""
""fullscreenenter"",""1"",""2754""
","
","","","1135.300000000745","","","20","3337","2752","s","elianto","#3366ff99","-1"," ","0","+10","[1986.5]","1","2","","","3337","84","4","2","win","no-go","1"
"pit-trial","194","1247845","0.0-89.0","battery-v0.2","","""event"",""trial"",""time""
""fullscreenenter"",""1"",""2754""
""blur"",""93"",""764299""
""focus"",""93"",""765355""
","""event"",""trial"",""time""
""blur"",""93"",""764299""
","""event"",""trial"",""time""
""focus"",""93"",""765355""
","""event"",""trial"",""time""
""fullscreenenter"",""1"",""2754""
","
","","","1318.300000000745","","","20","3337","2752","p","elianto","#3366ff99"," "," ","1","+10","[2169]","1","2","","","3337","85","5","1","win","go","0"
"pit-trial","195","1252708","0.0-90.0","battery-v0.2","","""event"",""trial"",""time""
""fullscreenenter"",""1"",""2754""
""blur"",""93"",""764299""
""focus"",""93"",""765355""
","""event"",""trial"",""time""
""blur"",""93"",""764299""
","""event"",""trial"",""time""
""focus"",""93"",""765355""
","""event"",""trial"",""time""
""fullscreenenter"",""1"",""2754""
","
","","","-1","","","20","3337","2752","a","elianto","#f73b6a7A"," ","-1","0","-10","[]","0","2","","","3337","86","7","3","lose","go","0"
"pit-trial","196","1257572","0.0-91.0","battery-v0.2","","""event"",""trial"",""time""
""fullscreenenter"",""1"",""2754""
""blur"",""93"",""764299""
""focus"",""93"",""765355""
","""event"",""trial"",""time""
""blur"",""93"",""764299""
","""event"",""trial"",""time""
""focus"",""93"",""765355""
","""event"",""trial"",""time""
""fullscreenenter"",""1"",""2754""
","
","","","-1","","","20","3337","2752","g","elianto","#f73b6a7A","-1","-1","1","0","[]","0","2","","","3337","87","6","4","lose","no-go","0"
"pit-trial","197","1261172","0.0-92.0","battery-v0.2","","""event"",""trial"",""time""
""fullscreenenter"",""1"",""2754""
""blur"",""93"",""764299""
""focus"",""93"",""765355""
","""event"",""trial"",""time""
""blur"",""93"",""764299""
","""event"",""trial"",""time""
""focus"",""93"",""765355""
","""event"",""trial"",""time""
""fullscreenenter"",""1"",""2754""
","
","","","740.4000000003725","","","20","3337","2752","s","elianto","#3366ff99","-1"," ","0","+10","[1590.8999999985099]","1","2","","","3337","88","4","2","win","no-go","1"
"pit-trial","198","1264884","0.0-93.0","battery-v0.2","","""event"",""trial"",""time""
""fullscreenenter"",""1"",""2754""
""blur"",""93"",""764299""
""focus"",""93"",""765355""
","""event"",""trial"",""time""
""blur"",""93"",""764299""
","""event"",""trial"",""time""
""focus"",""93"",""765355""
","""event"",""trial"",""time""
""fullscreenenter"",""1"",""2754""
","
","","","848.1000000014901","","","20","3337","2752","p","elianto","#3366ff99"," "," ","1","+10","[1699.2999999988824]","1","2","","","3337","89","5","1","win","go","0"
"pit-trial","199","1269748","0.0-94.0","battery-v0.2","","""event"",""trial"",""time""
""fullscreenenter"",""1"",""2754""
""blur"",""93"",""764299""
""focus"",""93"",""765355""
","""event"",""trial"",""time""
""blur"",""93"",""764299""
","""event"",""trial"",""time""
""focus"",""93"",""765355""
","""event"",""trial"",""time""
""fullscreenenter"",""1"",""2754""
","
","","","-1","","","20","3337","2752","a","elianto","#f73b6a7A"," ","-1","0","0","[]","0","2","","","3337","90","7","3","lose","go","1"
"pit-trial","200","1274612","0.0-95.0","battery-v0.2","","""event"",""trial"",""time""
""fullscreenenter"",""1"",""2754""
""blur"",""93"",""764299""
""focus"",""93"",""765355""
","""event"",""trial"",""time""
""blur"",""93"",""764299""
","""event"",""trial"",""time""
""focus"",""93"",""765355""
","""event"",""trial"",""time""
""fullscreenenter"",""1"",""2754""
","
","","","-1","","","20","3337","2752","s","elianto","#3366ff99","-1","-1","1","+10","[3395.89999999851]","1","2","","","3337","91","4","2","win","no-go","0"
"pit-trial","201","1279476","0.0-96.0","battery-v0.2","","""event"",""trial"",""time""
""fullscreenenter"",""1"",""2754""
""blur"",""93"",""764299""
""focus"",""93"",""765355""
","""event"",""trial"",""time""
""blur"",""93"",""764299""
","""event"",""trial"",""time""
""focus"",""93"",""765355""
","""event"",""trial"",""time""
""fullscreenenter"",""1"",""2754""
","
","","","-1","","","20","3337","2752","g","elianto","#f73b6a7A","-1","-1","1","0","[]","0","2","","","3337","92","6","4","lose","no-go","0"
"pit-trial","202","1284339","0.0-97.0","battery-v0.2","","""event"",""trial"",""time""
""fullscreenenter"",""1"",""2754""
""blur"",""93"",""764299""
""focus"",""93"",""765355""
","""event"",""trial"",""time""
""blur"",""93"",""764299""
","""event"",""trial"",""time""
""focus"",""93"",""765355""
","""event"",""trial"",""time""
""fullscreenenter"",""1"",""2754""
","
","","","-1","","","20","3337","2752","g","elianto","#f73b6a7A","-1","-1","1","0","[]","0","2","","","3337","93","6","4","lose","no-go","0"
"pit-trial","203","1289203","0.0-98.0","battery-v0.2","","""event"",""trial"",""time""
""fullscreenenter"",""1"",""2754""
""blur"",""93"",""764299""
""focus"",""93"",""765355""
","""event"",""trial"",""time""
""blur"",""93"",""764299""
","""event"",""trial"",""time""
""focus"",""93"",""765355""
","""event"",""trial"",""time""
""fullscreenenter"",""1"",""2754""
","
","","","-1","","","20","3337","2752","a","elianto","#f73b6a7A"," ","-1","0","-10","[]","0","2","","","3337","94","7","3","lose","go","0"
"pit-trial","204","1292958","0.0-99.0","battery-v0.2","","""event"",""trial"",""time""
""fullscreenenter"",""1"",""2754""
""blur"",""93"",""764299""
""focus"",""93"",""765355""
","""event"",""trial"",""time""
""blur"",""93"",""764299""
","""event"",""trial"",""time""
""focus"",""93"",""765355""
","""event"",""trial"",""time""
""fullscreenenter"",""1"",""2754""
","
","","","890.7000000011176","","","20","3337","2752","p","elianto","#3366ff99"," "," ","1","+10","[1743.300000000745]","1","2","","","3337","95","5","1","win","go","0"
"pit-trial","205","1296595","0.0-100.0","battery-v0.2","","""event"",""trial"",""time""
""fullscreenenter"",""1"",""2754""
""blur"",""93"",""764299""
""focus"",""93"",""765355""
","""event"",""trial"",""time""
""blur"",""93"",""764299""
","""event"",""trial"",""time""
""focus"",""93"",""765355""
","""event"",""trial"",""time""
""fullscreenenter"",""1"",""2754""
","
","","","774.3999999985099","","","20","3337","2752","l","elianto","#3366ff99","-1"," ","0","+10","[1624.5999999996275]","1","2","","","3337","96","8","2","win","no-go","1"
"pit-trial","206","1301459","0.0-101.0","battery-v0.2","","""event"",""trial"",""time""
""fullscreenenter"",""1"",""2754""
""blur"",""93"",""764299""
""focus"",""93"",""765355""
","""event"",""trial"",""time""
""blur"",""93"",""764299""
","""event"",""trial"",""time""
""focus"",""93"",""765355""
","""event"",""trial"",""time""
""fullscreenenter"",""1"",""2754""
","
","","","-1","","","20","3337","2752","g","elianto","#f73b6a7A","-1","-1","1","0","[]","0","2","","","3337","97","6","4","lose","no-go","0"
"pit-trial","207","1306322","0.0-102.0","battery-v0.2","","""event"",""trial"",""time""
""fullscreenenter"",""1"",""2754""
""blur"",""93"",""764299""
""focus"",""93"",""765355""
","""event"",""trial"",""time""
""blur"",""93"",""764299""
","""event"",""trial"",""time""
""focus"",""93"",""765355""
","""event"",""trial"",""time""
""fullscreenenter"",""1"",""2754""
","
","","","-1","","","20","3337","2752","a","elianto","#f73b6a7A"," ","-1","0","-10","[]","0","2","","","3337","98","7","3","lose","go","0"
"pit-trial","208","1309831","0.0-103.0","battery-v0.2","","""event"",""trial"",""time""
""fullscreenenter"",""1"",""2754""
""blur"",""93"",""764299""
""focus"",""93"",""765355""
","""event"",""trial"",""time""
""blur"",""93"",""764299""
","""event"",""trial"",""time""
""focus"",""93"",""765355""
","""event"",""trial"",""time""
""fullscreenenter"",""1"",""2754""
","
","","","647.0999999996275","","","20","3337","2752","p","elianto","#3366ff99"," "," ","1","+10","[1497.199999999255]","1","2","","","3337","99","5","1","win","go","0"
"pit-trial","209","1313303","0.0-104.0","battery-v0.2","","""event"",""trial"",""time""
""fullscreenenter"",""1"",""2754""
""blur"",""93"",""764299""
""focus"",""93"",""765355""
","""event"",""trial"",""time""
""blur"",""93"",""764299""
","""event"",""trial"",""time""
""focus"",""93"",""765355""
","""event"",""trial"",""time""
""fullscreenenter"",""1"",""2754""
","
","","","609.9000000003725","","","20","3337","2752","l","elianto","#3366ff99","-1"," ","0","0","[1461.4000000003725]","1","2","","","3337","100","8","2","win","no-go","0"
"pit-trial","210","1316727","0.0-105.0","battery-v0.2","","""event"",""trial"",""time""
""fullscreenenter"",""1"",""2754""
""blur"",""93"",""764299""
""focus"",""93"",""765355""
","""event"",""trial"",""time""
""blur"",""93"",""764299""
","""event"",""trial"",""time""
""focus"",""93"",""765355""
","""event"",""trial"",""time""
""fullscreenenter"",""1"",""2754""
","
","","","562.3000000007451","","","20","3337","2752","u","elianto","#3366ff99","-1"," ","0","0","[1413.7999999988824]","1","2","","","3337","101","9","2","win","no-go","0"
"pit-trial","211","1320087","0.0-106.0","battery-v0.2","","""event"",""trial"",""time""
""fullscreenenter"",""1"",""2754""
""blur"",""93"",""764299""
""focus"",""93"",""765355""
","""event"",""trial"",""time""
""blur"",""93"",""764299""
","""event"",""trial"",""time""
""focus"",""93"",""765355""
","""event"",""trial"",""time""
""fullscreenenter"",""1"",""2754""
","
","","","500","","","20","3337","2752","p","elianto","#3366ff99"," "," ","1","+10","[1350.6000000014901]","1","2","","","3337","102","5","1","win","go","0"
