"trial_type","trial_index","time_elapsed","internal_node_id","task_version","subject_id","interactions","blur_events","focus_events","fullscreenenter_events","fullscreenexit_events","success","view_history","rt","responses","num_errors","age","subject","participantId","rune","rune_set","hex","correct","choice","accuracy","outcome","keys","total_keys","block","practice","value","sub","trial","stimulus","robot","valence","action","sham"
"pavlovia","0","98","0.0-0.0","battery-v0.2","","""event"",""trial"",""time""
""focus"",""1"",""7287""
""fullscreenenter"",""1"",""8931""
","
","""event"",""trial"",""time""
""focus"",""1"",""7287""
","""event"",""trial"",""time""
""fullscreenenter"",""1"",""8931""
","
","","","","","","","","","","","","","","","","","","","","","","","","","","",""
"fullscreen","1","9545","0.0-1.0","battery-v0.2","","""event"",""trial"",""time""
""focus"",""1"",""7287""
""fullscreenenter"",""1"",""8931""
","
","""event"",""trial"",""time""
""focus"",""1"",""7287""
","""event"",""trial"",""time""
""fullscreenenter"",""1"",""8931""
","
","true","","","","","","","","","","","","","","","","","","","","","","","","","",""
"pit-instructions","2","12987","0.0-2.0-0.0","battery-v0.2","","""event"",""trial"",""time""
""focus"",""1"",""7287""
""fullscreenenter"",""1"",""8931""
","
","""event"",""trial"",""time""
""focus"",""1"",""7287""
","""event"",""trial"",""time""
""fullscreenenter"",""1"",""8931""
","
","","[{""page_index"":0,""viewing_time"":3436}]","3436","","","","","","","","","","","","","","","","","","","","","","","",""
"pit-comprehension","3","17424","0.0-2.0-1.0-0.0","battery-v0.2","","""event"",""trial"",""time""
""focus"",""1"",""7287""
""fullscreenenter"",""1"",""8931""
","
","""event"",""trial"",""time""
""focus"",""1"",""7287""
","""event"",""trial"",""time""
""fullscreenenter"",""1"",""8931""
","
","","","4424","[""shark""]","0","23","8856","1801","","","","","","","","","","","","","","","","","","",""
"pit-instructions","4","18811","0.0-2.0-1.0-1.0","battery-v0.2","","""event"",""trial"",""time""
""focus"",""1"",""7287""
""fullscreenenter"",""1"",""8931""
","
","""event"",""trial"",""time""
""focus"",""1"",""7287""
","""event"",""trial"",""time""
""fullscreenenter"",""1"",""8931""
","
","","[{""page_index"":0,""viewing_time"":1376}]","1377","","","","","","","","","","","","","","","","","","","","","","","",""
"pit-comprehension","5","21901","0.0-2.0-2.0-0.0","battery-v0.2","","""event"",""trial"",""time""
""focus"",""1"",""7287""
""fullscreenenter"",""1"",""8931""
","
","""event"",""trial"",""time""
""focus"",""1"",""7287""
","""event"",""trial"",""time""
""fullscreenenter"",""1"",""8931""
","
","","","3080","[""tiger""]","0","23","8856","1801","","","","","","","","","","","","","","","","","","",""
"pit-instructions","6","22903","0.0-2.0-2.0-1.0","battery-v0.2","","""event"",""trial"",""time""
""focus"",""1"",""7287""
""fullscreenenter"",""1"",""8931""
","
","""event"",""trial"",""time""
""focus"",""1"",""7287""
","""event"",""trial"",""time""
""fullscreenenter"",""1"",""8931""
","
","","[{""page_index"":0,""viewing_time"":990}]","990","","","","","","","","","","","","","","","","","","","","","","","",""
"pit-instructions","7","123396","0.0-2.0-3.0","battery-v0.2","","""event"",""trial"",""time""
""focus"",""1"",""7287""
""fullscreenenter"",""1"",""8931""
","
","""event"",""trial"",""time""
""focus"",""1"",""7287""
","""event"",""trial"",""time""
""fullscreenenter"",""1"",""8931""
","
","","[{""page_index"":0,""viewing_time"":7698},{""page_index"":1,""viewing_time"":7069},{""page_index"":2,""viewing_time"":7298},{""page_index"":3,""viewing_time"":5383},{""page_index"":4,""viewing_time"":5830},{""page_index"":5,""viewing_time"":6730},{""page_index"":6,""viewing_time"":8293},{""page_index"":7,""viewing_time"":7485},{""page_index"":8,""viewing_time"":7062},{""page_index"":9,""viewing_time"":9265},{""page_index"":10,""viewing_time"":7125},{""page_index"":11,""viewing_time"":7755},{""page_index"":12,""viewing_time"":6619},{""page_index"":13,""viewing_time"":6873}]","100487","","","","","","","","","","","","","","","","","","","","","","","",""
"pit-trial","8","126821","0.0-2.0-4.0-0.0","battery-v0.2","","""event"",""trial"",""time""
""focus"",""1"",""7287""
""fullscreenenter"",""1"",""8931""
","
","""event"",""trial"",""time""
""focus"",""1"",""7287""
","""event"",""trial"",""time""
""fullscreenenter"",""1"",""8931""
","
","","","536","","","23","8856","1801","&#9784;","elianto","#FFFFF080"," "," ","1","&#10004","[1399]","1","0","0","","","","","","","",""
"pit-trial","9","130401","0.0-2.0-4.1-0.1","battery-v0.2","","""event"",""trial"",""time""
""focus"",""1"",""7287""
""fullscreenenter"",""1"",""8931""
","
","""event"",""trial"",""time""
""focus"",""1"",""7287""
","""event"",""trial"",""time""
""fullscreenenter"",""1"",""8931""
","
","","","692","","","23","8856","1801","&#9784;","elianto","#FFFFF080"," "," ","1","&#10004","[1552]","1","0","0","","","","","","","",""
"pit-trial","10","133943","0.0-2.0-4.2-0.2","battery-v0.2","","""event"",""trial"",""time""
""focus"",""1"",""7287""
""fullscreenenter"",""1"",""8931""
","
","""event"",""trial"",""time""
""focus"",""1"",""7287""
","""event"",""trial"",""time""
""fullscreenenter"",""1"",""8931""
","
","","","658","","","23","8856","1801","&#9784;","elianto","#FFFFF080"," "," ","1","&#10004","[1515]","1","0","0","","","","","","","",""
"pit-trial","11","137441","0.0-2.0-4.3-0.3","battery-v0.2","","""event"",""trial"",""time""
""focus"",""1"",""7287""
""fullscreenenter"",""1"",""8931""
","
","""event"",""trial"",""time""
""focus"",""1"",""7287""
","""event"",""trial"",""time""
""fullscreenenter"",""1"",""8931""
","
","","","617","","","23","8856","1801","&#9784;","elianto","#FFFFF080"," "," ","1","&#10004","[1483]","1","0","0","","","","","","","",""
"pit-trial","12","140851","0.0-2.0-4.4-0.4","battery-v0.2","","""event"",""trial"",""time""
""focus"",""1"",""7287""
""fullscreenenter"",""1"",""8931""
","
","""event"",""trial"",""time""
""focus"",""1"",""7287""
","""event"",""trial"",""time""
""fullscreenenter"",""1"",""8931""
","
","","","544","","","23","8856","1801","&#9784;","elianto","#FFFFF080"," "," ","1","&#10004","[1394]","1","0","0","","","","","","","",""
"pit-instructions","13","166560","0.0-2.0-5.0","battery-v0.2","","""event"",""trial"",""time""
""focus"",""1"",""7287""
""fullscreenenter"",""1"",""8931""
","
","""event"",""trial"",""time""
""focus"",""1"",""7287""
","""event"",""trial"",""time""
""fullscreenenter"",""1"",""8931""
","
","","[{""page_index"":0,""viewing_time"":5101},{""page_index"":1,""viewing_time"":6193},{""page_index"":2,""viewing_time"":5692},{""page_index"":3,""viewing_time"":8713}]","25700","","","","","","","","","","","","","","","","","","","","","","","",""
"pit-trial","14","171440","0.0-2.0-6.0-0.0","battery-v0.2","","""event"",""trial"",""time""
""focus"",""1"",""7287""
""fullscreenenter"",""1"",""8931""
","
","""event"",""trial"",""time""
""focus"",""1"",""7287""
","""event"",""trial"",""time""
""fullscreenenter"",""1"",""8931""
","
","","","-1","","","23","8856","1801","&#9854;","elianto","#FFFFF080","-1","-1","1","&#10004","[]","0","0","1","","","","","","","",""
"pit-trial","15","176311","0.0-2.0-6.1-0.1","battery-v0.2","","""event"",""trial"",""time""
""focus"",""1"",""7287""
""fullscreenenter"",""1"",""8931""
","
","""event"",""trial"",""time""
""focus"",""1"",""7287""
","""event"",""trial"",""time""
""fullscreenenter"",""1"",""8931""
","
","","","-1","","","23","8856","1801","&#9854;","elianto","#FFFFF080","-1","-1","1","&#10004","[]","0","0","1","","","","","","","",""
"pit-trial","16","181182","0.0-2.0-6.2-0.2","battery-v0.2","","""event"",""trial"",""time""
""focus"",""1"",""7287""
""fullscreenenter"",""1"",""8931""
","
","""event"",""trial"",""time""
""focus"",""1"",""7287""
","""event"",""trial"",""time""
""fullscreenenter"",""1"",""8931""
","
","","","-1","","","23","8856","1801","&#9854;","elianto","#FFFFF080","-1","-1","1","&#10004","[]","0","0","1","","","","","","","",""
"pit-trial","17","186062","0.0-2.0-6.3-0.3","battery-v0.2","","""event"",""trial"",""time""
""focus"",""1"",""7287""
""fullscreenenter"",""1"",""8931""
","
","""event"",""trial"",""time""
""focus"",""1"",""7287""
","""event"",""trial"",""time""
""fullscreenenter"",""1"",""8931""
","
","","","-1","","","23","8856","1801","&#9854;","elianto","#FFFFF080","-1","-1","1","&#10004","[]","0","0","1","","","","","","","",""
"pit-trial","18","190933","0.0-2.0-6.4-0.4","battery-v0.2","","""event"",""trial"",""time""
""focus"",""1"",""7287""
""fullscreenenter"",""1"",""8931""
","
","""event"",""trial"",""time""
""focus"",""1"",""7287""
","""event"",""trial"",""time""
""fullscreenenter"",""1"",""8931""
","
","","","-1","","","23","8856","1801","&#9854;","elianto","#FFFFF080","-1","-1","1","&#10004","[]","0","0","1","","","","","","","",""
"pit-instructions","19","306708","0.0-2.0-7.0","battery-v0.2","","""event"",""trial"",""time""
""focus"",""1"",""7287""
""fullscreenenter"",""1"",""8931""
","
","""event"",""trial"",""time""
""focus"",""1"",""7287""
","""event"",""trial"",""time""
""fullscreenenter"",""1"",""8931""
","
","","[{""page_index"":0,""viewing_time"":5323},{""page_index"":1,""viewing_time"":6619},{""page_index"":2,""viewing_time"":5722},{""page_index"":3,""viewing_time"":6544},{""page_index"":4,""viewing_time"":6619},{""page_index"":5,""viewing_time"":5765},{""page_index"":6,""viewing_time"":4188},{""page_index"":7,""viewing_time"":7640},{""page_index"":8,""viewing_time"":6658},{""page_index"":9,""viewing_time"":6128},{""page_index"":10,""viewing_time"":6843},{""page_index"":11,""viewing_time"":4640},{""page_index"":12,""viewing_time"":7094},{""page_index"":13,""viewing_time"":7227},{""page_index"":14,""viewing_time"":7292},{""page_index"":15,""viewing_time"":6788},{""page_index"":16,""viewing_time"":6777},{""page_index"":17,""viewing_time"":7903}]","115771","","","","","","","","","","","","","","","","","","","","","","","",""
"pit-trial","20","310098","0.0-2.0-8.0-0.0","battery-v0.2","","""event"",""trial"",""time""
""focus"",""1"",""7287""
""fullscreenenter"",""1"",""8931""
","
","""event"",""trial"",""time""
""focus"",""1"",""7287""
","""event"",""trial"",""time""
""fullscreenenter"",""1"",""8931""
","
","","","519","","","23","8856","1801","&#9776;","elianto","#3366ff99"," "," ","1","+10","[1378]","1","0","1","","","","","","","",""
"pit-trial","21","313462","0.0-2.0-8.0-1.0","battery-v0.2","","""event"",""trial"",""time""
""focus"",""1"",""7287""
""fullscreenenter"",""1"",""8931""
","
","""event"",""trial"",""time""
""focus"",""1"",""7287""
","""event"",""trial"",""time""
""fullscreenenter"",""1"",""8931""
","
","","","483","","","23","8856","1801","&#9776;","elianto","#3366ff99"," "," ","1","+10","[1348]","1","0","1","","","","","","","",""
"pit-trial","22","316833","0.0-2.0-8.0-2.0","battery-v0.2","","""event"",""trial"",""time""
""focus"",""1"",""7287""
""fullscreenenter"",""1"",""8931""
","
","""event"",""trial"",""time""
""focus"",""1"",""7287""
","""event"",""trial"",""time""
""fullscreenenter"",""1"",""8931""
","
","","","488","","","23","8856","1801","&#9776;","elianto","#3366ff99"," "," ","1","+10","[1351]","1","0","1","","","","","","","",""
"pit-trial","23","320120","0.0-2.0-8.0-3.0","battery-v0.2","","""event"",""trial"",""time""
""focus"",""1"",""7287""
""fullscreenenter"",""1"",""8931""
","
","""event"",""trial"",""time""
""focus"",""1"",""7287""
","""event"",""trial"",""time""
""fullscreenenter"",""1"",""8931""
","
","","","411","","","23","8856","1801","&#9776;","elianto","#3366ff99"," "," ","1","0","[1267]","1","0","1","","","","","","","",""
"pit-trial","24","323346","0.0-2.0-8.0-4.0","battery-v0.2","","""event"",""trial"",""time""
""focus"",""1"",""7287""
""fullscreenenter"",""1"",""8931""
","
","""event"",""trial"",""time""
""focus"",""1"",""7287""
","""event"",""trial"",""time""
""fullscreenenter"",""1"",""8931""
","
","","","353","","","23","8856","1801","&#9776;","elianto","#3366ff99"," "," ","1","+10","[1206]","1","0","1","","","","","","","",""
"pit-trial","25","326622","0.0-2.0-8.1-0.1","battery-v0.2","","""event"",""trial"",""time""
""focus"",""1"",""7287""
""fullscreenenter"",""1"",""8931""
","
","""event"",""trial"",""time""
""focus"",""1"",""7287""
","""event"",""trial"",""time""
""fullscreenenter"",""1"",""8931""
","
","","","411","","","23","8856","1801","&#9776;","elianto","#3366ff99"," "," ","1","+10","[1264,1370]","2","0","1","","","","","","","",""
"pit-trial","26","330019","0.0-2.0-8.1-1.1","battery-v0.2","","""event"",""trial"",""time""
""focus"",""1"",""7287""
""fullscreenenter"",""1"",""8931""
","
","""event"",""trial"",""time""
""focus"",""1"",""7287""
","""event"",""trial"",""time""
""fullscreenenter"",""1"",""8931""
","
","","","530","","","23","8856","1801","&#9776;","elianto","#3366ff99"," "," ","1","+10","[1388]","1","0","1","","","","","","","",""
"pit-trial","27","333251","0.0-2.0-8.1-2.1","battery-v0.2","","""event"",""trial"",""time""
""focus"",""1"",""7287""
""fullscreenenter"",""1"",""8931""
","
","""event"",""trial"",""time""
""focus"",""1"",""7287""
","""event"",""trial"",""time""
""fullscreenenter"",""1"",""8931""
","
","","","351","","","23","8856","1801","&#9776;","elianto","#3366ff99"," "," ","1","+10","[1211]","1","0","1","","","","","","","",""
"pit-trial","28","336457","0.0-2.0-8.1-3.1","battery-v0.2","","""event"",""trial"",""time""
""focus"",""1"",""7287""
""fullscreenenter"",""1"",""8931""
","
","""event"",""trial"",""time""
""focus"",""1"",""7287""
","""event"",""trial"",""time""
""fullscreenenter"",""1"",""8931""
","
","","","336","","","23","8856","1801","&#9776;","elianto","#3366ff99"," "," ","1","0","[1191]","1","0","1","","","","","","","",""
"pit-trial","29","339651","0.0-2.0-8.1-4.1","battery-v0.2","","""event"",""trial"",""time""
""focus"",""1"",""7287""
""fullscreenenter"",""1"",""8931""
","
","""event"",""trial"",""time""
""focus"",""1"",""7287""
","""event"",""trial"",""time""
""fullscreenenter"",""1"",""8931""
","
","","","317","","","23","8856","1801","&#9776;","elianto","#3366ff99"," "," ","1","+10","[1186]","1","0","1","","","","","","","",""
"pit-trial","30","342752","0.0-2.0-8.2-0.2","battery-v0.2","","""event"",""trial"",""time""
""focus"",""1"",""7287""
""fullscreenenter"",""1"",""8931""
","
","""event"",""trial"",""time""
""focus"",""1"",""7287""
","""event"",""trial"",""time""
""fullscreenenter"",""1"",""8931""
","
","","","226","","","23","8856","1801","&#9776;","elianto","#3366ff99"," "," ","1","+10","[1093]","1","0","1","","","","","","","",""
"pit-trial","31","345935","0.0-2.0-8.2-1.2","battery-v0.2","","""event"",""trial"",""time""
""focus"",""1"",""7287""
""fullscreenenter"",""1"",""8931""
","
","""event"",""trial"",""time""
""focus"",""1"",""7287""
","""event"",""trial"",""time""
""fullscreenenter"",""1"",""8931""
","
","","","312","","","23","8856","1801","&#9776;","elianto","#3366ff99"," "," ","1","+10","[1175]","1","0","1","","","","","","","",""
"pit-trial","32","349040","0.0-2.0-8.2-2.2","battery-v0.2","","""event"",""trial"",""time""
""focus"",""1"",""7287""
""fullscreenenter"",""1"",""8931""
","
","""event"",""trial"",""time""
""focus"",""1"",""7287""
","""event"",""trial"",""time""
""fullscreenenter"",""1"",""8931""
","
","","","236","","","23","8856","1801","&#9776;","elianto","#3366ff99"," "," ","1","+10","[1085]","1","0","1","","","","","","","",""
"pit-trial","33","352251","0.0-2.0-8.2-3.2","battery-v0.2","","""event"",""trial"",""time""
""focus"",""1"",""7287""
""fullscreenenter"",""1"",""8931""
","
","""event"",""trial"",""time""
""focus"",""1"",""7287""
","""event"",""trial"",""time""
""fullscreenenter"",""1"",""8931""
","
","","","325","","","23","8856","1801","&#9776;","elianto","#3366ff99"," "," ","1","0","[1195]","1","0","1","","","","","","","",""
"pit-trial","34","355407","0.0-2.0-8.2-4.2","battery-v0.2","","""event"",""trial"",""time""
""focus"",""1"",""7287""
""fullscreenenter"",""1"",""8931""
","
","""event"",""trial"",""time""
""focus"",""1"",""7287""
","""event"",""trial"",""time""
""fullscreenenter"",""1"",""8931""
","
","","","286","","","23","8856","1801","&#9776;","elianto","#3366ff99"," "," ","1","+10","[1139]","1","0","1","","","","","","","",""
"call-function","35","355412","0.0-2.0-9.0","battery-v0.2","","""event"",""trial"",""time""
""focus"",""1"",""7287""
""fullscreenenter"",""1"",""8931""
","
","""event"",""trial"",""time""
""focus"",""1"",""7287""
","""event"",""trial"",""time""
""fullscreenenter"",""1"",""8931""
","
","","","","","","","","","","","","","","","","","","","","","","","","","","",""
"pit-instructions","36","393708","0.0-2.0-10.0","battery-v0.2","","""event"",""trial"",""time""
""focus"",""1"",""7287""
""fullscreenenter"",""1"",""8931""
","
","""event"",""trial"",""time""
""focus"",""1"",""7287""
","""event"",""trial"",""time""
""fullscreenenter"",""1"",""8931""
","
","","[{""page_index"":0,""viewing_time"":5496},{""page_index"":1,""viewing_time"":7122},{""page_index"":2,""viewing_time"":9212},{""page_index"":3,""viewing_time"":8878},{""page_index"":4,""viewing_time"":7584}]","38293","","","","","","","","","","","","","","","","","","","","","","","",""
"pit-trial","37","397298","0.0-2.0-11.0-0.0","battery-v0.2","","""event"",""trial"",""time""
""focus"",""1"",""7287""
""fullscreenenter"",""1"",""8931""
","
","""event"",""trial"",""time""
""focus"",""1"",""7287""
","""event"",""trial"",""time""
""fullscreenenter"",""1"",""8931""
","
","","","713","","","23","8856","1801","&#9761;","elianto","#3366ff99","-1"," ","0","0","[1567]","1","0","2","","","","","","","",""
"pit-trial","38","400529","0.0-2.0-11.0-1.0","battery-v0.2","","""event"",""trial"",""time""
""focus"",""1"",""7287""
""fullscreenenter"",""1"",""8931""
","
","""event"",""trial"",""time""
""focus"",""1"",""7287""
","""event"",""trial"",""time""
""fullscreenenter"",""1"",""8931""
","
","","","373","","","23","8856","1801","&#9761;","elianto","#3366ff99","-1"," ","0","0","[1225]","1","0","2","","","","","","","",""
"pit-trial","39","403553","0.0-2.0-11.0-2.0","battery-v0.2","","""event"",""trial"",""time""
""focus"",""1"",""7287""
""fullscreenenter"",""1"",""8931""
","
","""event"",""trial"",""time""
""focus"",""1"",""7287""
","""event"",""trial"",""time""
""fullscreenenter"",""1"",""8931""
","
","","","144","","","23","8856","1801","&#9761;","elianto","#3366ff99","-1"," ","0","0","[1009]","1","0","2","","","","","","","",""
"pit-trial","40","408431","0.0-2.0-11.0-3.0","battery-v0.2","","""event"",""trial"",""time""
""focus"",""1"",""7287""
""fullscreenenter"",""1"",""8931""
","
","""event"",""trial"",""time""
""focus"",""1"",""7287""
","""event"",""trial"",""time""
""fullscreenenter"",""1"",""8931""
","
","","","-1","","","23","8856","1801","&#9761;","elianto","#3366ff99","-1","-1","1","0","[]","0","0","2","","","","","","","",""
"pit-trial","41","413297","0.0-2.0-11.0-4.0","battery-v0.2","","""event"",""trial"",""time""
""focus"",""1"",""7287""
""fullscreenenter"",""1"",""8931""
","
","""event"",""trial"",""time""
""focus"",""1"",""7287""
","""event"",""trial"",""time""
""fullscreenenter"",""1"",""8931""
","
","","","-1","","","23","8856","1801","&#9761;","elianto","#3366ff99","-1","-1","1","+10","[]","0","0","2","","","","","","","",""
"pit-trial","42","418182","0.0-2.0-11.1-0.1","battery-v0.2","","""event"",""trial"",""time""
""focus"",""1"",""7287""
""fullscreenenter"",""1"",""8931""
","
","""event"",""trial"",""time""
""focus"",""1"",""7287""
","""event"",""trial"",""time""
""fullscreenenter"",""1"",""8931""
","
","","","-1","","","23","8856","1801","&#9761;","elianto","#3366ff99","-1","-1","1","+10","[]","0","0","2","","","","","","","",""
"pit-trial","43","423064","0.0-2.0-11.1-1.1","battery-v0.2","","""event"",""trial"",""time""
""focus"",""1"",""7287""
""fullscreenenter"",""1"",""8931""
","
","""event"",""trial"",""time""
""focus"",""1"",""7287""
","""event"",""trial"",""time""
""fullscreenenter"",""1"",""8931""
","
","","","-1","","","23","8856","1801","&#9761;","elianto","#3366ff99","-1","-1","1","+10","[]","0","0","2","","","","","","","",""
"pit-trial","44","427942","0.0-2.0-11.1-2.1","battery-v0.2","","""event"",""trial"",""time""
""focus"",""1"",""7287""
""fullscreenenter"",""1"",""8931""
","
","""event"",""trial"",""time""
""focus"",""1"",""7287""
","""event"",""trial"",""time""
""fullscreenenter"",""1"",""8931""
","
","","","-1","","","23","8856","1801","&#9761;","elianto","#3366ff99","-1","-1","1","+10","[]","0","0","2","","","","","","","",""
"pit-trial","45","432802","0.0-2.0-11.1-3.1","battery-v0.2","","""event"",""trial"",""time""
""focus"",""1"",""7287""
""fullscreenenter"",""1"",""8931""
","
","""event"",""trial"",""time""
""focus"",""1"",""7287""
","""event"",""trial"",""time""
""fullscreenenter"",""1"",""8931""
","
","","","-1","","","23","8856","1801","&#9761;","elianto","#3366ff99","-1","-1","1","0","[]","0","0","2","","","","","","","",""
"pit-trial","46","437672","0.0-2.0-11.1-4.1","battery-v0.2","","""event"",""trial"",""time""
""focus"",""1"",""7287""
""fullscreenenter"",""1"",""8931""
","
","""event"",""trial"",""time""
""focus"",""1"",""7287""
","""event"",""trial"",""time""
""fullscreenenter"",""1"",""8931""
","
","","","-1","","","23","8856","1801","&#9761;","elianto","#3366ff99","-1","-1","1","+10","[]","0","0","2","","","","","","","",""
"pit-trial","47","442542","0.0-2.0-11.2-0.2","battery-v0.2","","""event"",""trial"",""time""
""focus"",""1"",""7287""
""fullscreenenter"",""1"",""8931""
","
","""event"",""trial"",""time""
""focus"",""1"",""7287""
","""event"",""trial"",""time""
""fullscreenenter"",""1"",""8931""
","
","","","-1","","","23","8856","1801","&#9761;","elianto","#3366ff99","-1","-1","1","+10","[]","0","0","2","","","","","","","",""
"pit-trial","48","447422","0.0-2.0-11.2-1.2","battery-v0.2","","""event"",""trial"",""time""
""focus"",""1"",""7287""
""fullscreenenter"",""1"",""8931""
","
","""event"",""trial"",""time""
""focus"",""1"",""7287""
","""event"",""trial"",""time""
""fullscreenenter"",""1"",""8931""
","
","","","-1","","","23","8856","1801","&#9761;","elianto","#3366ff99","-1","-1","1","+10","[]","0","0","2","","","","","","","",""
"pit-trial","49","452292","0.0-2.0-11.2-2.2","battery-v0.2","","""event"",""trial"",""time""
""focus"",""1"",""7287""
""fullscreenenter"",""1"",""8931""
","
","""event"",""trial"",""time""
""focus"",""1"",""7287""
","""event"",""trial"",""time""
""fullscreenenter"",""1"",""8931""
","
","","","-1","","","23","8856","1801","&#9761;","elianto","#3366ff99","-1","-1","1","+10","[]","0","0","2","","","","","","","",""
"pit-trial","50","457161","0.0-2.0-11.2-3.2","battery-v0.2","","""event"",""trial"",""time""
""focus"",""1"",""7287""
""fullscreenenter"",""1"",""8931""
","
","""event"",""trial"",""time""
""focus"",""1"",""7287""
","""event"",""trial"",""time""
""fullscreenenter"",""1"",""8931""
","
","","","-1","","","23","8856","1801","&#9761;","elianto","#3366ff99","-1","-1","1","0","[]","0","0","2","","","","","","","",""
"pit-trial","51","462021","0.0-2.0-11.2-4.2","battery-v0.2","","""event"",""trial"",""time""
""focus"",""1"",""7287""
""fullscreenenter"",""1"",""8931""
","
","""event"",""trial"",""time""
""focus"",""1"",""7287""
","""event"",""trial"",""time""
""fullscreenenter"",""1"",""8931""
","
","","","-1","","","23","8856","1801","&#9761;","elianto","#3366ff99","-1","-1","1","+10","[]","0","0","2","","","","","","","",""
"pit-trial","52","466892","0.0-2.0-11.3-0.3","battery-v0.2","","""event"",""trial"",""time""
""focus"",""1"",""7287""
""fullscreenenter"",""1"",""8931""
","
","""event"",""trial"",""time""
""focus"",""1"",""7287""
","""event"",""trial"",""time""
""fullscreenenter"",""1"",""8931""
","
","","","-1","","","23","8856","1801","&#9761;","elianto","#3366ff99","-1","-1","1","+10","[]","0","0","2","","","","","","","",""
"pit-trial","53","471759","0.0-2.0-11.3-1.3","battery-v0.2","","""event"",""trial"",""time""
""focus"",""1"",""7287""
""fullscreenenter"",""1"",""8931""
","
","""event"",""trial"",""time""
""focus"",""1"",""7287""
","""event"",""trial"",""time""
""fullscreenenter"",""1"",""8931""
","
","","","-1","","","23","8856","1801","&#9761;","elianto","#3366ff99","-1","-1","1","+10","[]","0","0","2","","","","","","","",""
"pit-trial","54","476651","0.0-2.0-11.3-2.3","battery-v0.2","","""event"",""trial"",""time""
""focus"",""1"",""7287""
""fullscreenenter"",""1"",""8931""
","
","""event"",""trial"",""time""
""focus"",""1"",""7287""
","""event"",""trial"",""time""
""fullscreenenter"",""1"",""8931""
","
","","","-1","","","23","8856","1801","&#9761;","elianto","#3366ff99","-1","-1","1","+10","[]","0","0","2","","","","","","","",""
"pit-trial","55","481532","0.0-2.0-11.3-3.3","battery-v0.2","","""event"",""trial"",""time""
""focus"",""1"",""7287""
""fullscreenenter"",""1"",""8931""
","
","""event"",""trial"",""time""
""focus"",""1"",""7287""
","""event"",""trial"",""time""
""fullscreenenter"",""1"",""8931""
","
","","","-1","","","23","8856","1801","&#9761;","elianto","#3366ff99","-1","-1","1","0","[]","0","0","2","","","","","","","",""
"pit-trial","56","486412","0.0-2.0-11.3-4.3","battery-v0.2","","""event"",""trial"",""time""
""focus"",""1"",""7287""
""fullscreenenter"",""1"",""8931""
","
","""event"",""trial"",""time""
""focus"",""1"",""7287""
","""event"",""trial"",""time""
""fullscreenenter"",""1"",""8931""
","
","","","-1","","","23","8856","1801","&#9761;","elianto","#3366ff99","-1","-1","1","+10","[]","0","0","2","","","","","","","",""
"call-function","57","486415","0.0-2.0-12.0","battery-v0.2","","""event"",""trial"",""time""
""focus"",""1"",""7287""
""fullscreenenter"",""1"",""8931""
","
","""event"",""trial"",""time""
""focus"",""1"",""7287""
","""event"",""trial"",""time""
""fullscreenenter"",""1"",""8931""
","
","","","","","","","","","","","","","","","","","","","","","","","","","","",""
"pit-instructions","58","517864","0.0-2.0-13.0","battery-v0.2","","""event"",""trial"",""time""
""focus"",""1"",""7287""
""fullscreenenter"",""1"",""8931""
","
","""event"",""trial"",""time""
""focus"",""1"",""7287""
","""event"",""trial"",""time""
""fullscreenenter"",""1"",""8931""
","
","","[{""page_index"":0,""viewing_time"":5041},{""page_index"":1,""viewing_time"":6898},{""page_index"":2,""viewing_time"":3570},{""page_index"":3,""viewing_time"":10235},{""page_index"":4,""viewing_time"":5703}]","31448","","","","","","","","","","","","","","","","","","","","","","","",""
"pit-trial","59","520966","0.0-2.0-14.0-0.0","battery-v0.2","","""event"",""trial"",""time""
""focus"",""1"",""7287""
""fullscreenenter"",""1"",""8931""
","
","""event"",""trial"",""time""
""focus"",""1"",""7287""
","""event"",""trial"",""time""
""fullscreenenter"",""1"",""8931""
","
","","","213","","","23","8856","1801","&#9826;","elianto","#f73b6a7A","-1"," ","0","-10","[1079]","1","0","3","","","","","","","",""
"pit-trial","60","524031","0.0-2.0-14.0-1.0","battery-v0.2","","""event"",""trial"",""time""
""focus"",""1"",""7287""
""fullscreenenter"",""1"",""8931""
","
","""event"",""trial"",""time""
""focus"",""1"",""7287""
","""event"",""trial"",""time""
""fullscreenenter"",""1"",""8931""
","
","","","183","","","23","8856","1801","&#9826;","elianto","#f73b6a7A","-1"," ","0","-10","[1056]","1","0","3","","","","","","","",""
"pit-trial","61","528891","0.0-2.0-14.0-2.0","battery-v0.2","","""event"",""trial"",""time""
""focus"",""1"",""7287""
""fullscreenenter"",""1"",""8931""
","
","""event"",""trial"",""time""
""focus"",""1"",""7287""
","""event"",""trial"",""time""
""fullscreenenter"",""1"",""8931""
","
","","","-1","","","23","8856","1801","&#9826;","elianto","#f73b6a7A","-1","-1","1","0","[]","0","0","3","","","","","","","",""
"pit-trial","62","533764","0.0-2.0-14.0-3.0","battery-v0.2","","""event"",""trial"",""time""
""focus"",""1"",""7287""
""fullscreenenter"",""1"",""8931""
","
","""event"",""trial"",""time""
""focus"",""1"",""7287""
","""event"",""trial"",""time""
""fullscreenenter"",""1"",""8931""
","
","","","-1","","","23","8856","1801","&#9826;","elianto","#f73b6a7A","-1","-1","1","-10","[]","0","0","3","","","","","","","",""
"pit-trial","63","538642","0.0-2.0-14.0-4.0","battery-v0.2","","""event"",""trial"",""time""
""focus"",""1"",""7287""
""fullscreenenter"",""1"",""8931""
","
","""event"",""trial"",""time""
""focus"",""1"",""7287""
","""event"",""trial"",""time""
""fullscreenenter"",""1"",""8931""
","
","","","-1","","","23","8856","1801","&#9826;","elianto","#f73b6a7A","-1","-1","1","0","[]","0","0","3","","","","","","","",""
"pit-trial","64","543531","0.0-2.0-14.1-0.1","battery-v0.2","","""event"",""trial"",""time""
""focus"",""1"",""7287""
""fullscreenenter"",""1"",""8931""
","
","""event"",""trial"",""time""
""focus"",""1"",""7287""
","""event"",""trial"",""time""
""fullscreenenter"",""1"",""8931""
","
","","","-1","","","23","8856","1801","&#9826;","elianto","#f73b6a7A","-1","-1","1","0","[]","0","0","3","","","","","","","",""
"pit-trial","65","548391","0.0-2.0-14.1-1.1","battery-v0.2","","""event"",""trial"",""time""
""focus"",""1"",""7287""
""fullscreenenter"",""1"",""8931""
","
","""event"",""trial"",""time""
""focus"",""1"",""7287""
","""event"",""trial"",""time""
""fullscreenenter"",""1"",""8931""
","
","","","-1","","","23","8856","1801","&#9826;","elianto","#f73b6a7A","-1","-1","1","0","[]","0","0","3","","","","","","","",""
"pit-trial","66","553270","0.0-2.0-14.1-2.1","battery-v0.2","","""event"",""trial"",""time""
""focus"",""1"",""7287""
""fullscreenenter"",""1"",""8931""
","
","""event"",""trial"",""time""
""focus"",""1"",""7287""
","""event"",""trial"",""time""
""fullscreenenter"",""1"",""8931""
","
","","","-1","","","23","8856","1801","&#9826;","elianto","#f73b6a7A","-1","-1","1","0","[]","0","0","3","","","","","","","",""
"pit-trial","67","558146","0.0-2.0-14.1-3.1","battery-v0.2","","""event"",""trial"",""time""
""focus"",""1"",""7287""
""fullscreenenter"",""1"",""8931""
","
","""event"",""trial"",""time""
""focus"",""1"",""7287""
","""event"",""trial"",""time""
""fullscreenenter"",""1"",""8931""
","
","","","-1","","","23","8856","1801","&#9826;","elianto","#f73b6a7A","-1","-1","1","-10","[]","0","0","3","","","","","","","",""
"pit-trial","68","563011","0.0-2.0-14.1-4.1","battery-v0.2","","""event"",""trial"",""time""
""focus"",""1"",""7287""
""fullscreenenter"",""1"",""8931""
","
","""event"",""trial"",""time""
""focus"",""1"",""7287""
","""event"",""trial"",""time""
""fullscreenenter"",""1"",""8931""
","
","","","-1","","","23","8856","1801","&#9826;","elianto","#f73b6a7A","-1","-1","1","0","[]","0","0","3","","","","","","","",""
"pit-trial","69","567871","0.0-2.0-14.2-0.2","battery-v0.2","","""event"",""trial"",""time""
""focus"",""1"",""7287""
""fullscreenenter"",""1"",""8931""
","
","""event"",""trial"",""time""
""focus"",""1"",""7287""
","""event"",""trial"",""time""
""fullscreenenter"",""1"",""8931""
","
","","","-1","","","23","8856","1801","&#9826;","elianto","#f73b6a7A","-1","-1","1","0","[]","0","0","3","","","","","","","",""
"pit-trial","70","572762","0.0-2.0-14.2-1.2","battery-v0.2","","""event"",""trial"",""time""
""focus"",""1"",""7287""
""fullscreenenter"",""1"",""8931""
","
","""event"",""trial"",""time""
""focus"",""1"",""7287""
","""event"",""trial"",""time""
""fullscreenenter"",""1"",""8931""
","
","","","-1","","","23","8856","1801","&#9826;","elianto","#f73b6a7A","-1","-1","1","0","[]","0","0","3","","","","","","","",""
"pit-trial","71","577642","0.0-2.0-14.2-2.2","battery-v0.2","","""event"",""trial"",""time""
""focus"",""1"",""7287""
""fullscreenenter"",""1"",""8931""
","
","""event"",""trial"",""time""
""focus"",""1"",""7287""
","""event"",""trial"",""time""
""fullscreenenter"",""1"",""8931""
","
","","","-1","","","23","8856","1801","&#9826;","elianto","#f73b6a7A","-1","-1","1","0","[]","0","0","3","","","","","","","",""
"pit-trial","72","582522","0.0-2.0-14.2-3.2","battery-v0.2","","""event"",""trial"",""time""
""focus"",""1"",""7287""
""fullscreenenter"",""1"",""8931""
","
","""event"",""trial"",""time""
""focus"",""1"",""7287""
","""event"",""trial"",""time""
""fullscreenenter"",""1"",""8931""
","
","","","-1","","","23","8856","1801","&#9826;","elianto","#f73b6a7A","-1","-1","1","-10","[]","0","0","3","","","","","","","",""
"pit-trial","73","587412","0.0-2.0-14.2-4.2","battery-v0.2","","""event"",""trial"",""time""
""focus"",""1"",""7287""
""fullscreenenter"",""1"",""8931""
","
","""event"",""trial"",""time""
""focus"",""1"",""7287""
","""event"",""trial"",""time""
""fullscreenenter"",""1"",""8931""
","
","","","-1","","","23","8856","1801","&#9826;","elianto","#f73b6a7A","-1","-1","1","0","[]","0","0","3","","","","","","","",""
"pit-trial","74","592302","0.0-2.0-14.3-0.3","battery-v0.2","","""event"",""trial"",""time""
""focus"",""1"",""7287""
""fullscreenenter"",""1"",""8931""
","
","""event"",""trial"",""time""
""focus"",""1"",""7287""
","""event"",""trial"",""time""
""fullscreenenter"",""1"",""8931""
","
","","","-1","","","23","8856","1801","&#9826;","elianto","#f73b6a7A","-1","-1","1","0","[]","0","0","3","","","","","","","",""
"pit-trial","75","597178","0.0-2.0-14.3-1.3","battery-v0.2","","""event"",""trial"",""time""
""focus"",""1"",""7287""
""fullscreenenter"",""1"",""8931""
","
","""event"",""trial"",""time""
""focus"",""1"",""7287""
","""event"",""trial"",""time""
""fullscreenenter"",""1"",""8931""
","
","","","-1","","","23","8856","1801","&#9826;","elianto","#f73b6a7A","-1","-1","1","0","[]","0","0","3","","","","","","","",""
"pit-trial","76","602059","0.0-2.0-14.3-2.3","battery-v0.2","","""event"",""trial"",""time""
""focus"",""1"",""7287""
""fullscreenenter"",""1"",""8931""
","
","""event"",""trial"",""time""
""focus"",""1"",""7287""
","""event"",""trial"",""time""
""fullscreenenter"",""1"",""8931""
","
","","","-1","","","23","8856","1801","&#9826;","elianto","#f73b6a7A","-1","-1","1","0","[]","0","0","3","","","","","","","",""
"pit-trial","77","606939","0.0-2.0-14.3-3.3","battery-v0.2","","""event"",""trial"",""time""
""focus"",""1"",""7287""
""fullscreenenter"",""1"",""8931""
","
","""event"",""trial"",""time""
""focus"",""1"",""7287""
","""event"",""trial"",""time""
""fullscreenenter"",""1"",""8931""
","
","","","-1","","","23","8856","1801","&#9826;","elianto","#f73b6a7A","-1","-1","1","-10","[]","0","0","3","","","","","","","",""
"pit-trial","78","611820","0.0-2.0-14.3-4.3","battery-v0.2","","""event"",""trial"",""time""
""focus"",""1"",""7287""
""fullscreenenter"",""1"",""8931""
","
","""event"",""trial"",""time""
""focus"",""1"",""7287""
","""event"",""trial"",""time""
""fullscreenenter"",""1"",""8931""
","
","","","-1","","","23","8856","1801","&#9826;","elianto","#f73b6a7A","-1","-1","1","0","[]","0","0","3","","","","","","","",""
"call-function","79","611822","0.0-2.0-15.0","battery-v0.2","","""event"",""trial"",""time""
""focus"",""1"",""7287""
""fullscreenenter"",""1"",""8931""
","
","""event"",""trial"",""time""
""focus"",""1"",""7287""
","""event"",""trial"",""time""
""fullscreenenter"",""1"",""8931""
","
","","","","","","","","","","","","","","","","","","","","","","","","","","",""
"pit-instructions","80","636188","0.0-2.0-16.0","battery-v0.2","","""event"",""trial"",""time""
""focus"",""1"",""7287""
""fullscreenenter"",""1"",""8931""
","
","""event"",""trial"",""time""
""focus"",""1"",""7287""
","""event"",""trial"",""time""
""fullscreenenter"",""1"",""8931""
","
","","[{""page_index"":0,""viewing_time"":6136},{""page_index"":1,""viewing_time"":8346},{""page_index"":2,""viewing_time"":4488},{""page_index"":3,""viewing_time"":5395}]","24366","","","","","","","","","","","","","","","","","","","","","","","",""
"pit-trial","81","639591","0.0-2.0-17.0-0.0","battery-v0.2","","""event"",""trial"",""time""
""focus"",""1"",""7287""
""fullscreenenter"",""1"",""8931""
","
","""event"",""trial"",""time""
""focus"",""1"",""7287""
","""event"",""trial"",""time""
""fullscreenenter"",""1"",""8931""
","
","","","521","","","23","8856","1801","&#9789;","elianto","#f73b6a7A"," "," ","1","0","[1384]","1","0","4","","","","","","","",""
"pit-trial","82","642851","0.0-2.0-17.0-1.0","battery-v0.2","","""event"",""trial"",""time""
""focus"",""1"",""7287""
""fullscreenenter"",""1"",""8931""
","
","""event"",""trial"",""time""
""focus"",""1"",""7287""
","""event"",""trial"",""time""
""fullscreenenter"",""1"",""8931""
","
","","","386","","","23","8856","1801","&#9789;","elianto","#f73b6a7A"," "," ","1","0","[1250]","1","0","4","","","","","","","",""
"pit-trial","83","646190","0.0-2.0-17.0-2.0","battery-v0.2","","""event"",""trial"",""time""
""focus"",""1"",""7287""
""fullscreenenter"",""1"",""8931""
","
","""event"",""trial"",""time""
""focus"",""1"",""7287""
","""event"",""trial"",""time""
""fullscreenenter"",""1"",""8931""
","
","","","468","","","23","8856","1801","&#9789;","elianto","#f73b6a7A"," "," ","1","0","[1332]","1","0","4","","","","","","","",""
"pit-trial","84","649113","0.0-2.0-17.0-3.0","battery-v0.2","","""event"",""trial"",""time""
""focus"",""1"",""7287""
""fullscreenenter"",""1"",""8931""
","
","""event"",""trial"",""time""
""focus"",""1"",""7287""
","""event"",""trial"",""time""
""fullscreenenter"",""1"",""8931""
","
","","","56","","","23","8856","1801","&#9789;","elianto","#f73b6a7A"," "," ","1","-10","[913]","1","0","4","","","","","","","",""
"pit-trial","85","652381","0.0-2.0-17.0-4.0","battery-v0.2","","""event"",""trial"",""time""
""focus"",""1"",""7287""
""fullscreenenter"",""1"",""8931""
","
","""event"",""trial"",""time""
""focus"",""1"",""7287""
","""event"",""trial"",""time""
""fullscreenenter"",""1"",""8931""
","
","","","388","","","23","8856","1801","&#9789;","elianto","#f73b6a7A"," "," ","1","0","[1253]","1","0","4","","","","","","","",""
"pit-trial","86","655421","0.0-2.0-17.1-0.1","battery-v0.2","","""event"",""trial"",""time""
""focus"",""1"",""7287""
""fullscreenenter"",""1"",""8931""
","
","""event"",""trial"",""time""
""focus"",""1"",""7287""
","""event"",""trial"",""time""
""fullscreenenter"",""1"",""8931""
","
","","","170","","","23","8856","1801","&#9789;","elianto","#f73b6a7A"," "," ","1","0","[1033]","1","0","4","","","","","","","",""
"pit-trial","87","658582","0.0-2.0-17.1-1.1","battery-v0.2","","""event"",""trial"",""time""
""focus"",""1"",""7287""
""fullscreenenter"",""1"",""8931""
","
","""event"",""trial"",""time""
""focus"",""1"",""7287""
","""event"",""trial"",""time""
""fullscreenenter"",""1"",""8931""
","
","","","275","","","23","8856","1801","&#9789;","elianto","#f73b6a7A"," "," ","1","0","[1142]","1","0","4","","","","","","","",""
"pit-trial","88","661841","0.0-2.0-17.1-2.1","battery-v0.2","","""event"",""trial"",""time""
""focus"",""1"",""7287""
""fullscreenenter"",""1"",""8931""
","
","""event"",""trial"",""time""
""focus"",""1"",""7287""
","""event"",""trial"",""time""
""fullscreenenter"",""1"",""8931""
","
","","","381","","","23","8856","1801","&#9789;","elianto","#f73b6a7A"," "," ","1","0","[1245]","1","0","4","","","","","","","",""
"pit-trial","89","665201","0.0-2.0-17.1-3.1","battery-v0.2","","""event"",""trial"",""time""
""focus"",""1"",""7287""
""fullscreenenter"",""1"",""8931""
","
","""event"",""trial"",""time""
""focus"",""1"",""7287""
","""event"",""trial"",""time""
""fullscreenenter"",""1"",""8931""
","
","","","481","","","23","8856","1801","&#9789;","elianto","#f73b6a7A"," "," ","1","-10","[1341]","1","0","4","","","","","","","",""
"pit-trial","90","668233","0.0-2.0-17.1-4.1","battery-v0.2","","""event"",""trial"",""time""
""focus"",""1"",""7287""
""fullscreenenter"",""1"",""8931""
","
","""event"",""trial"",""time""
""focus"",""1"",""7287""
","""event"",""trial"",""time""
""fullscreenenter"",""1"",""8931""
","
","","","156","","","23","8856","1801","&#9789;","elianto","#f73b6a7A"," "," ","1","0","[1022]","1","0","4","","","","","","","",""
"pit-trial","91","671382","0.0-2.0-17.2-0.2","battery-v0.2","","""event"",""trial"",""time""
""focus"",""1"",""7287""
""fullscreenenter"",""1"",""8931""
","
","""event"",""trial"",""time""
""focus"",""1"",""7287""
","""event"",""trial"",""time""
""fullscreenenter"",""1"",""8931""
","
","","","283","","","23","8856","1801","&#9789;","elianto","#f73b6a7A"," "," ","1","0","[1137]","1","0","4","","","","","","","",""
"pit-trial","92","674462","0.0-2.0-17.2-1.2","battery-v0.2","","""event"",""trial"",""time""
""focus"",""1"",""7287""
""fullscreenenter"",""1"",""8931""
","
","""event"",""trial"",""time""
""focus"",""1"",""7287""
","""event"",""trial"",""time""
""fullscreenenter"",""1"",""8931""
","
","","","214","","","23","8856","1801","&#9789;","elianto","#f73b6a7A"," "," ","1","0","[1064]","1","0","4","","","","","","","",""
"pit-trial","93","677618","0.0-2.0-17.2-2.2","battery-v0.2","","""event"",""trial"",""time""
""focus"",""1"",""7287""
""fullscreenenter"",""1"",""8931""
","
","""event"",""trial"",""time""
""focus"",""1"",""7287""
","""event"",""trial"",""time""
""fullscreenenter"",""1"",""8931""
","
","","","276","","","23","8856","1801","&#9789;","elianto","#f73b6a7A"," "," ","1","0","[1139]","1","0","4","","","","","","","",""
"pit-trial","94","680742","0.0-2.0-17.2-3.2","battery-v0.2","","""event"",""trial"",""time""
""focus"",""1"",""7287""
""fullscreenenter"",""1"",""8931""
","
","""event"",""trial"",""time""
""focus"",""1"",""7287""
","""event"",""trial"",""time""
""fullscreenenter"",""1"",""8931""
","
","","","247","","","23","8856","1801","&#9789;","elianto","#f73b6a7A"," "," ","1","-10","[1113]","1","0","4","","","","","","","",""
"pit-trial","95","683912","0.0-2.0-17.2-4.2","battery-v0.2","","""event"",""trial"",""time""
""focus"",""1"",""7287""
""fullscreenenter"",""1"",""8931""
","
","""event"",""trial"",""time""
""focus"",""1"",""7287""
","""event"",""trial"",""time""
""fullscreenenter"",""1"",""8931""
","
","","","284","","","23","8856","1801","&#9789;","elianto","#f73b6a7A"," "," ","1","0","[1144]","1","0","4","","","","","","","",""
"pit-trial","96","686987","0.0-2.0-17.3-0.3","battery-v0.2","","""event"",""trial"",""time""
""focus"",""1"",""7287""
""fullscreenenter"",""1"",""8931""
","
","""event"",""trial"",""time""
""focus"",""1"",""7287""
","""event"",""trial"",""time""
""fullscreenenter"",""1"",""8931""
","
","","","198","","","23","8856","1801","&#9789;","elianto","#f73b6a7A"," "," ","1","0","[1066]","1","0","4","","","","","","","",""
"pit-trial","97","690178","0.0-2.0-17.3-1.3","battery-v0.2","","""event"",""trial"",""time""
""focus"",""1"",""7287""
""fullscreenenter"",""1"",""8931""
","
","""event"",""trial"",""time""
""focus"",""1"",""7287""
","""event"",""trial"",""time""
""fullscreenenter"",""1"",""8931""
","
","","","328","","","23","8856","1801","&#9789;","elianto","#f73b6a7A"," "," ","1","0","[1179]","1","0","4","","","","","","","",""
"pit-trial","98","693352","0.0-2.0-17.3-2.3","battery-v0.2","","""event"",""trial"",""time""
""focus"",""1"",""7287""
""fullscreenenter"",""1"",""8931""
","
","""event"",""trial"",""time""
""focus"",""1"",""7287""
","""event"",""trial"",""time""
""fullscreenenter"",""1"",""8931""
","
","","","302","","","23","8856","1801","&#9789;","elianto","#f73b6a7A"," "," ","1","0","[1161]","1","0","4","","","","","","","",""
"pit-trial","99","696530","0.0-2.0-17.3-3.3","battery-v0.2","","""event"",""trial"",""time""
""focus"",""1"",""7287""
""fullscreenenter"",""1"",""8931""
","
","""event"",""trial"",""time""
""focus"",""1"",""7287""
","""event"",""trial"",""time""
""fullscreenenter"",""1"",""8931""
","
","","","312","","","23","8856","1801","&#9789;","elianto","#f73b6a7A"," "," ","1","-10","[1167]","1","0","4","","","","","","","",""
"pit-trial","100","699651","0.0-2.0-17.3-4.3","battery-v0.2","","""event"",""trial"",""time""
""focus"",""1"",""7287""
""fullscreenenter"",""1"",""8931""
","
","""event"",""trial"",""time""
""focus"",""1"",""7287""
","""event"",""trial"",""time""
""fullscreenenter"",""1"",""8931""
","
","","","239","","","23","8856","1801","&#9789;","elianto","#f73b6a7A"," "," ","1","0","[1103]","1","0","4","","","","","","","",""
"call-function","101","699654","0.0-2.0-18.0","battery-v0.2","","""event"",""trial"",""time""
""focus"",""1"",""7287""
""fullscreenenter"",""1"",""8931""
","
","""event"",""trial"",""time""
""focus"",""1"",""7287""
","""event"",""trial"",""time""
""fullscreenenter"",""1"",""8931""
","
","","","","","","","","","","","","","","","","","","","","","","","","","","",""
"pit-instructions","102","771004","0.0-2.0-19.0","battery-v0.2","","""event"",""trial"",""time""
""focus"",""1"",""7287""
""fullscreenenter"",""1"",""8931""
","
","""event"",""trial"",""time""
""focus"",""1"",""7287""
","""event"",""trial"",""time""
""fullscreenenter"",""1"",""8931""
","
","","[{""page_index"":0,""viewing_time"":6225},{""page_index"":1,""viewing_time"":6204},{""page_index"":2,""viewing_time"":13841},{""page_index"":3,""viewing_time"":8997},{""page_index"":4,""viewing_time"":8616},{""page_index"":5,""viewing_time"":8462},{""page_index"":6,""viewing_time"":8205},{""page_index"":7,""viewing_time"":6498},{""page_index"":8,""viewing_time"":4300}]","71349","","","","","","","","","","","","","","","","","","","","","","","",""
"pit-comprehension","103","775401","0.0-2.0-20.0-0.0","battery-v0.2","","""event"",""trial"",""time""
""focus"",""1"",""7287""
""fullscreenenter"",""1"",""8931""
","
","""event"",""trial"",""time""
""focus"",""1"",""7287""
","""event"",""trial"",""time""
""fullscreenenter"",""1"",""8931""
","
","","","4386","[""SPACE""]","0","23","8856","1801","","","","","","","","","","","","","","","","","","",""
"pit-instructions","104","778124","0.0-2.0-20.0-1.0","battery-v0.2","","""event"",""trial"",""time""
""focus"",""1"",""7287""
""fullscreenenter"",""1"",""8931""
","
","""event"",""trial"",""time""
""focus"",""1"",""7287""
","""event"",""trial"",""time""
""fullscreenenter"",""1"",""8931""
","
","","[{""page_index"":0,""viewing_time"":2546}]","2547","","","","","","","","","","","","","","","","","","","","","","","",""
"pit-comprehension","105","783801","0.0-2.0-21.0-0.0","battery-v0.2","","""event"",""trial"",""time""
""focus"",""1"",""7287""
""fullscreenenter"",""1"",""8931""
","
","""event"",""trial"",""time""
""focus"",""1"",""7287""
","""event"",""trial"",""time""
""fullscreenenter"",""1"",""8931""
","
","","","5660","[""10""]","0","23","8856","1801","","","","","","","","","","","","","","","","","","",""
"pit-instructions","106","785909","0.0-2.0-21.0-1.0","battery-v0.2","","""event"",""trial"",""time""
""focus"",""1"",""7287""
""fullscreenenter"",""1"",""8931""
","
","""event"",""trial"",""time""
""focus"",""1"",""7287""
","""event"",""trial"",""time""
""fullscreenenter"",""1"",""8931""
","
","","[{""page_index"":0,""viewing_time"":1932}]","1933","","","","","","","","","","","","","","","","","","","","","","","",""
"pit-comprehension","107","792473","0.0-2.0-22.0-0.0","battery-v0.2","","""event"",""trial"",""time""
""focus"",""1"",""7287""
""fullscreenenter"",""1"",""8931""
","
","""event"",""trial"",""time""
""focus"",""1"",""7287""
","""event"",""trial"",""time""
""fullscreenenter"",""1"",""8931""
","
","","","6548","[""0""]","0","23","8856","1801","","","","","","","","","","","","","","","","","","",""
"pit-instructions","108","795175","0.0-2.0-22.0-1.0","battery-v0.2","","""event"",""trial"",""time""
""focus"",""1"",""7287""
""fullscreenenter"",""1"",""8931""
","
","""event"",""trial"",""time""
""focus"",""1"",""7287""
","""event"",""trial"",""time""
""fullscreenenter"",""1"",""8931""
","
","","[{""page_index"":0,""viewing_time"":2460}]","2461","","","","","","","","","","","","","","","","","","","","","","","",""
"pit-comprehension","109","806773","0.0-2.0-23.0-0.0","battery-v0.2","","""event"",""trial"",""time""
""focus"",""1"",""7287""
""fullscreenenter"",""1"",""8931""
","
","""event"",""trial"",""time""
""focus"",""1"",""7287""
","""event"",""trial"",""time""
""fullscreenenter"",""1"",""8931""
","
","","","11577","[""True""]","0","23","8856","1801","","","","","","","","","","","","","","","","","","",""
"pit-instructions","110","808457","0.0-2.0-23.0-1.0","battery-v0.2","","""event"",""trial"",""time""
""focus"",""1"",""7287""
""fullscreenenter"",""1"",""8931""
","
","""event"",""trial"",""time""
""focus"",""1"",""7287""
","""event"",""trial"",""time""
""fullscreenenter"",""1"",""8931""
","
","","[{""page_index"":0,""viewing_time"":1593}]","1594","","","","","","","","","","","","","","","","","","","","","","","",""
"pit-comprehension","111","815935","0.0-2.0-24.0-0.0","battery-v0.2","","""event"",""trial"",""time""
""focus"",""1"",""7287""
""fullscreenenter"",""1"",""8931""
","
","""event"",""trial"",""time""
""focus"",""1"",""7287""
","""event"",""trial"",""time""
""fullscreenenter"",""1"",""8931""
","
","","","7467","[""True""]","0","23","8856","1801","","","","","","","","","","","","","","","","","","",""
"pit-instructions","112","822211","0.0-2.0-24.0-1.0","battery-v0.2","","""event"",""trial"",""time""
""focus"",""1"",""7287""
""fullscreenenter"",""1"",""8931""
","
","""event"",""trial"",""time""
""focus"",""1"",""7287""
","""event"",""trial"",""time""
""fullscreenenter"",""1"",""8931""
","
","","[{""page_index"":0,""viewing_time"":6028}]","6029","","","","","","","","","","","","","","","","","","","","","","","",""
"pit-comprehension","113","828555","0.0-2.0-25.0-0.0","battery-v0.2","","""event"",""trial"",""time""
""focus"",""1"",""7287""
""fullscreenenter"",""1"",""8931""
","
","""event"",""trial"",""time""
""focus"",""1"",""7287""
","""event"",""trial"",""time""
""fullscreenenter"",""1"",""8931""
","
","","","6306","[""True""]","0","23","8856","1801","","","","","","","","","","","","","","","","","","",""
"pit-instructions","114","830562","0.0-2.0-25.0-1.0","battery-v0.2","","""event"",""trial"",""time""
""focus"",""1"",""7287""
""fullscreenenter"",""1"",""8931""
","
","""event"",""trial"",""time""
""focus"",""1"",""7287""
","""event"",""trial"",""time""
""fullscreenenter"",""1"",""8931""
","
","","[{""page_index"":0,""viewing_time"":1925}]","1926","","","","","","","","","","","","","","","","","","","","","","","",""
"pit-comprehension","115","835213","0.0-2.0-26.0-0.0","battery-v0.2","","""event"",""trial"",""time""
""focus"",""1"",""7287""
""fullscreenenter"",""1"",""8931""
","
","""event"",""trial"",""time""
""focus"",""1"",""7287""
","""event"",""trial"",""time""
""fullscreenenter"",""1"",""8931""
","
","","","4642","[""False""]","0","23","8856","1801","","","","","","","","","","","","","","","","","","",""
"pit-instructions","116","836779","0.0-2.0-26.0-1.0","battery-v0.2","","""event"",""trial"",""time""
""focus"",""1"",""7287""
""fullscreenenter"",""1"",""8931""
","
","""event"",""trial"",""time""
""focus"",""1"",""7287""
","""event"",""trial"",""time""
""fullscreenenter"",""1"",""8931""
","
","","[{""page_index"":0,""viewing_time"":1435}]","1437","","","","","","","","","","","","","","","","","","","","","","","",""
"pit-instructions","117","852926","0.0-3.0","battery-v0.2","","""event"",""trial"",""time""
""focus"",""1"",""7287""
""fullscreenenter"",""1"",""8931""
","
","""event"",""trial"",""time""
""focus"",""1"",""7287""
","""event"",""trial"",""time""
""fullscreenenter"",""1"",""8931""
","
","","[{""page_index"":0,""viewing_time"":3784},{""page_index"":1,""viewing_time"":5600},{""page_index"":2,""viewing_time"":6751}]","16137","","","","","","","","","","","","","","","","","","","","","","","",""
"pit-trial","118","856442","0.0-4.0","battery-v0.2","","""event"",""trial"",""time""
""focus"",""1"",""7287""
""fullscreenenter"",""1"",""8931""
","
","""event"",""trial"",""time""
""focus"",""1"",""7287""
","""event"",""trial"",""time""
""fullscreenenter"",""1"",""8931""
","
","","","635","","","23","8856","1801","&#9728;","elianto","#f73b6a7A","-1"," ","0","-10","[1496]","1","1","","","8856","1","0","4","lose","no-go","0"
"pit-trial","119","860030","0.0-5.0","battery-v0.2","","""event"",""trial"",""time""
""focus"",""1"",""7287""
""fullscreenenter"",""1"",""8931""
","
","""event"",""trial"",""time""
""focus"",""1"",""7287""
","""event"",""trial"",""time""
""fullscreenenter"",""1"",""8931""
","
","","","718","","","23","8856","1801","&#9752;","elianto","#f73b6a7A"," "," ","1","0","[1576]","1","1","","","8856","2","3","3","lose","go","0"
"pit-trial","120","863572","0.0-6.0","battery-v0.2","","""event"",""trial"",""time""
""focus"",""1"",""7287""
""fullscreenenter"",""1"",""8931""
","
","""event"",""trial"",""time""
""focus"",""1"",""7287""
","""event"",""trial"",""time""
""fullscreenenter"",""1"",""8931""
","
","","","666","","","23","8856","1801","&#9730;","elianto","#3366ff99"," "," ","1","+10","[1533]","1","1","","","8856","3","1","1","win","go","0"
"pit-trial","121","867148","0.0-7.0","battery-v0.2","","""event"",""trial"",""time""
""focus"",""1"",""7287""
""fullscreenenter"",""1"",""8931""
","
","""event"",""trial"",""time""
""focus"",""1"",""7287""
","""event"",""trial"",""time""
""fullscreenenter"",""1"",""8931""
","
","","","692","","","23","8856","1801","&#9733;","elianto","#3366ff99","-1"," ","0","0","[1558]","1","1","","","8856","4","2","2","win","no-go","0"
"pit-trial","122","870781","0.0-8.0","battery-v0.2","","""event"",""trial"",""time""
""focus"",""1"",""7287""
""fullscreenenter"",""1"",""8931""
","
","""event"",""trial"",""time""
""focus"",""1"",""7287""
","""event"",""trial"",""time""
""fullscreenenter"",""1"",""8931""
","
","","","763","","","23","8856","1801","&#9752;","elianto","#f73b6a7A"," "," ","1","0","[1616]","1","1","","","8856","5","3","3","lose","go","0"
"pit-trial","123","874372","0.0-9.0","battery-v0.2","","""event"",""trial"",""time""
""focus"",""1"",""7287""
""fullscreenenter"",""1"",""8931""
","
","""event"",""trial"",""time""
""focus"",""1"",""7287""
","""event"",""trial"",""time""
""fullscreenenter"",""1"",""8931""
","
","","","727","","","23","8856","1801","&#9733;","elianto","#3366ff99","-1"," ","0","0","[1578]","1","1","","","8856","6","2","2","win","no-go","0"
"pit-trial","124","878030","0.0-10.0","battery-v0.2","","""event"",""trial"",""time""
""focus"",""1"",""7287""
""fullscreenenter"",""1"",""8931""
","
","""event"",""trial"",""time""
""focus"",""1"",""7287""
","""event"",""trial"",""time""
""fullscreenenter"",""1"",""8931""
","
","","","784","","","23","8856","1801","&#9730;","elianto","#3366ff99"," "," ","1","+10","[1648]","1","1","","","8856","7","1","1","win","go","0"
"pit-trial","125","882899","0.0-11.0","battery-v0.2","","""event"",""trial"",""time""
""focus"",""1"",""7287""
""fullscreenenter"",""1"",""8931""
","
","""event"",""trial"",""time""
""focus"",""1"",""7287""
","""event"",""trial"",""time""
""fullscreenenter"",""1"",""8931""
","
","","","-1","","","23","8856","1801","&#9728;","elianto","#f73b6a7A","-1","-1","1","0","[]","0","1","","","8856","8","0","4","lose","no-go","0"
"pit-trial","126","886511","0.0-12.0","battery-v0.2","","""event"",""trial"",""time""
""focus"",""1"",""7287""
""fullscreenenter"",""1"",""8931""
","
","""event"",""trial"",""time""
""focus"",""1"",""7287""
","""event"",""trial"",""time""
""fullscreenenter"",""1"",""8931""
","
","","","743","","","23","8856","1801","&#9730;","elianto","#3366ff99"," "," ","1","+10","[1601]","1","1","","","8856","9","1","1","win","go","0"
"pit-trial","127","891382","0.0-13.0","battery-v0.2","","""event"",""trial"",""time""
""focus"",""1"",""7287""
""fullscreenenter"",""1"",""8931""
","
","""event"",""trial"",""time""
""focus"",""1"",""7287""
","""event"",""trial"",""time""
""fullscreenenter"",""1"",""8931""
","
","","","-1","","","23","8856","1801","&#9728;","elianto","#f73b6a7A","-1","-1","1","0","[]","0","1","","","8856","10","0","4","lose","no-go","0"
"pit-trial","128","895573","0.0-14.0","battery-v0.2","","""event"",""trial"",""time""
""focus"",""1"",""7287""
""fullscreenenter"",""1"",""8931""
","
","""event"",""trial"",""time""
""focus"",""1"",""7287""
","""event"",""trial"",""time""
""fullscreenenter"",""1"",""8931""
","
","","","1307","","","23","8856","1801","&#9733;","elianto","#3366ff99","-1"," ","0","0","[2165]","1","1","","","8856","11","2","2","win","no-go","0"
"pit-trial","129","899230","0.0-15.0","battery-v0.2","","""event"",""trial"",""time""
""focus"",""1"",""7287""
""fullscreenenter"",""1"",""8931""
","
","""event"",""trial"",""time""
""focus"",""1"",""7287""
","""event"",""trial"",""time""
""fullscreenenter"",""1"",""8931""
","
","","","798","","","23","8856","1801","&#9752;","elianto","#f73b6a7A"," "," ","1","-10","[1651]","1","1","","","8856","12","3","3","lose","go","1"
"pit-trial","130","904112","0.0-16.0","battery-v0.2","","""event"",""trial"",""time""
""focus"",""1"",""7287""
""fullscreenenter"",""1"",""8931""
","
","""event"",""trial"",""time""
""focus"",""1"",""7287""
","""event"",""trial"",""time""
""fullscreenenter"",""1"",""8931""
","
","","","-1","","","23","8856","1801","&#9733;","elianto","#3366ff99","-1","-1","1","0","[]","0","1","","","8856","13","2","2","win","no-go","1"
"pit-trial","131","907570","0.0-17.0","battery-v0.2","","""event"",""trial"",""time""
""focus"",""1"",""7287""
""fullscreenenter"",""1"",""8931""
","
","""event"",""trial"",""time""
""focus"",""1"",""7287""
","""event"",""trial"",""time""
""fullscreenenter"",""1"",""8931""
","
","","","577","","","23","8856","1801","&#9730;","elianto","#3366ff99"," "," ","1","0","[1437]","1","1","","","8856","14","1","1","win","go","1"
"pit-trial","132","912448","0.0-18.0","battery-v0.2","","""event"",""trial"",""time""
""focus"",""1"",""7287""
""fullscreenenter"",""1"",""8931""
","
","""event"",""trial"",""time""
""focus"",""1"",""7287""
","""event"",""trial"",""time""
""fullscreenenter"",""1"",""8931""
","
","","","-1","","","23","8856","1801","&#9728;","elianto","#f73b6a7A","-1","-1","1","0","[]","0","1","","","8856","15","0","4","lose","no-go","0"
"pit-trial","133","915922","0.0-19.0","battery-v0.2","","""event"",""trial"",""time""
""focus"",""1"",""7287""
""fullscreenenter"",""1"",""8931""
","
","""event"",""trial"",""time""
""focus"",""1"",""7287""
","""event"",""trial"",""time""
""fullscreenenter"",""1"",""8931""
","
","","","590","","","23","8856","1801","&#9752;","elianto","#f73b6a7A"," "," ","1","0","[1448]","1","1","","","8856","16","3","3","lose","go","0"
"pit-trial","134","920808","0.0-20.0","battery-v0.2","","""event"",""trial"",""time""
""focus"",""1"",""7287""
""fullscreenenter"",""1"",""8931""
","
","""event"",""trial"",""time""
""focus"",""1"",""7287""
","""event"",""trial"",""time""
""fullscreenenter"",""1"",""8931""
","
","","","-1","","","23","8856","1801","&#9733;","elianto","#3366ff99","-1","-1","1","+10","[]","0","1","","","8856","17","2","2","win","no-go","0"
"pit-trial","135","924277","0.0-21.0","battery-v0.2","","""event"",""trial"",""time""
""focus"",""1"",""7287""
""fullscreenenter"",""1"",""8931""
","
","""event"",""trial"",""time""
""focus"",""1"",""7287""
","""event"",""trial"",""time""
""fullscreenenter"",""1"",""8931""
","
","","","597","","","23","8856","1801","&#9730;","elianto","#3366ff99"," "," ","1","0","[1463]","1","1","","","8856","18","1","1","win","go","1"
"pit-trial","136","928120","0.0-22.0","battery-v0.2","","""event"",""trial"",""time""
""focus"",""1"",""7287""
""fullscreenenter"",""1"",""8931""
","
","""event"",""trial"",""time""
""focus"",""1"",""7287""
","""event"",""trial"",""time""
""fullscreenenter"",""1"",""8931""
","
","","","978","","","23","8856","1801","&#9752;","elianto","#f73b6a7A"," "," ","1","0","[1838]","1","1","","","8856","19","3","3","lose","go","0"
"pit-trial","137","933006","0.0-23.0","battery-v0.2","","""event"",""trial"",""time""
""focus"",""1"",""7287""
""fullscreenenter"",""1"",""8931""
","
","""event"",""trial"",""time""
""focus"",""1"",""7287""
","""event"",""trial"",""time""
""fullscreenenter"",""1"",""8931""
","
","","","-1","","","23","8856","1801","&#9728;","elianto","#f73b6a7A","-1","-1","1","0","[]","0","1","","","8856","20","0","4","lose","no-go","0"
"pit-instructions","138","945220","0.0-24.0","battery-v0.2","","""event"",""trial"",""time""
""focus"",""1"",""7287""
""fullscreenenter"",""1"",""8931""
","
","""event"",""trial"",""time""
""focus"",""1"",""7287""
","""event"",""trial"",""time""
""fullscreenenter"",""1"",""8931""
","
","","[{""page_index"":0,""viewing_time"":5727},{""page_index"":1,""viewing_time"":6486}]","12213","","","","","","","","","","","","","","","","","","","","","","","",""
"pit-trial","139","948881","0.0-25.0","battery-v0.2","","""event"",""trial"",""time""
""focus"",""1"",""7287""
""fullscreenenter"",""1"",""8931""
","
","""event"",""trial"",""time""
""focus"",""1"",""7287""
","""event"",""trial"",""time""
""fullscreenenter"",""1"",""8931""
","
","","","791","","","23","8856","1801","g","elianto","#f73b6a7A"," "," ","1","-10","[1647]","1","2","","","8856","21","3","3","lose","go","1"
"pit-trial","140","952400","0.0-26.0","battery-v0.2","","""event"",""trial"",""time""
""focus"",""1"",""7287""
""fullscreenenter"",""1"",""8931""
","
","""event"",""trial"",""time""
""focus"",""1"",""7287""
","""event"",""trial"",""time""
""fullscreenenter"",""1"",""8931""
","
","","","634","","","23","8856","1801","l","elianto","#3366ff99"," "," ","1","+10","[1500]","1","2","","","8856","22","1","1","win","go","0"
"pit-trial","141","956018","0.0-27.0","battery-v0.2","","""event"",""trial"",""time""
""focus"",""1"",""7287""
""fullscreenenter"",""1"",""8931""
","
","""event"",""trial"",""time""
""focus"",""1"",""7287""
","""event"",""trial"",""time""
""fullscreenenter"",""1"",""8931""
","
","","","739","","","23","8856","1801","u","elianto","#f73b6a7A","-1"," ","0","-10","[1599]","1","2","","","8856","23","0","4","lose","no-go","0"
"pit-trial","142","959645","0.0-28.0","battery-v0.2","","""event"",""trial"",""time""
""focus"",""1"",""7287""
""fullscreenenter"",""1"",""8931""
","
","""event"",""trial"",""time""
""focus"",""1"",""7287""
","""event"",""trial"",""time""
""fullscreenenter"",""1"",""8931""
","
","","","762","","","23","8856","1801","a","elianto","#f73b6a7A","-1"," ","0","-10","[1619]","1","2","","","8856","24","2","4","lose","no-go","0"
"pit-trial","143","963120","0.0-29.0","battery-v0.2","","""event"",""trial"",""time""
""focus"",""1"",""7287""
""fullscreenenter"",""1"",""8931""
","
","""event"",""trial"",""time""
""focus"",""1"",""7287""
","""event"",""trial"",""time""
""fullscreenenter"",""1"",""8931""
","
","","","611","","","23","8856","1801","l","elianto","#3366ff99"," "," ","1","+10","[1464]","1","2","","","8856","25","1","1","win","go","0"
"pit-trial","144","968004","0.0-30.0","battery-v0.2","","""event"",""trial"",""time""
""focus"",""1"",""7287""
""fullscreenenter"",""1"",""8931""
","
","""event"",""trial"",""time""
""focus"",""1"",""7287""
","""event"",""trial"",""time""
""fullscreenenter"",""1"",""8931""
","
","","","-1","","","23","8856","1801","a","elianto","#f73b6a7A","-1","-1","1","-10","[]","0","2","","","8856","26","2","4","lose","no-go","1"
"pit-trial","145","972882","0.0-31.0","battery-v0.2","","""event"",""trial"",""time""
""focus"",""1"",""7287""
""fullscreenenter"",""1"",""8931""
","
","""event"",""trial"",""time""
""focus"",""1"",""7287""
","""event"",""trial"",""time""
""fullscreenenter"",""1"",""8931""
","
","","","-1","","","23","8856","1801","u","elianto","#f73b6a7A","-1","-1","1","-10","[]","0","2","","","8856","27","0","4","lose","no-go","1"
"pit-trial","146","976702","0.0-32.0","battery-v0.2","","""event"",""trial"",""time""
""focus"",""1"",""7287""
""fullscreenenter"",""1"",""8931""
","
","""event"",""trial"",""time""
""focus"",""1"",""7287""
","""event"",""trial"",""time""
""fullscreenenter"",""1"",""8931""
","
","","","940","","","23","8856","1801","g","elianto","#f73b6a7A"," "," ","1","0","[1800]","1","2","","","8856","28","3","3","lose","go","0"
"pit-trial","147","980422","0.0-33.0","battery-v0.2","","""event"",""trial"",""time""
""focus"",""1"",""7287""
""fullscreenenter"",""1"",""8931""
","
","""event"",""trial"",""time""
""focus"",""1"",""7287""
","""event"",""trial"",""time""
""fullscreenenter"",""1"",""8931""
","
","","","833","","","23","8856","1801","l","elianto","#3366ff99"," "," ","1","+10","[1700]","1","2","","","8856","29","1","1","win","go","0"
"pit-trial","148","985291","0.0-34.0","battery-v0.2","","""event"",""trial"",""time""
""focus"",""1"",""7287""
""fullscreenenter"",""1"",""8931""
","
","""event"",""trial"",""time""
""focus"",""1"",""7287""
","""event"",""trial"",""time""
""fullscreenenter"",""1"",""8931""
","
","","","-1","","","23","8856","1801","u","elianto","#f73b6a7A","-1","-1","1","0","[]","0","2","","","8856","30","0","4","lose","no-go","0"
"pit-trial","149","988663","0.0-35.0","battery-v0.2","","""event"",""trial"",""time""
""focus"",""1"",""7287""
""fullscreenenter"",""1"",""8931""
","
","""event"",""trial"",""time""
""focus"",""1"",""7287""
","""event"",""trial"",""time""
""fullscreenenter"",""1"",""8931""
","
","","","501","","","23","8856","1801","g","elianto","#f73b6a7A"," "," ","1","-10","[1360]","1","2","","","8856","31","3","3","lose","go","1"
"pit-trial","150","992333","0.0-36.0","battery-v0.2","","""event"",""trial"",""time""
""focus"",""1"",""7287""
""fullscreenenter"",""1"",""8931""
","
","""event"",""trial"",""time""
""focus"",""1"",""7287""
","""event"",""trial"",""time""
""fullscreenenter"",""1"",""8931""
","
","","","793","","","23","8856","1801","a","elianto","#f73b6a7A","-1"," ","0","-10","[1654]","1","2","","","8856","32","2","4","lose","no-go","0"
"pit-trial","151","997206","0.0-37.0","battery-v0.2","","""event"",""trial"",""time""
""focus"",""1"",""7287""
""fullscreenenter"",""1"",""8931""
","
","""event"",""trial"",""time""
""focus"",""1"",""7287""
","""event"",""trial"",""time""
""fullscreenenter"",""1"",""8931""
","
","","","-1","","","23","8856","1801","a","elianto","#f73b6a7A","-1","-1","1","0","[]","0","2","","","8856","33","2","4","lose","no-go","0"
"pit-trial","152","1001982","0.0-38.0","battery-v0.2","","""event"",""trial"",""time""
""focus"",""1"",""7287""
""fullscreenenter"",""1"",""8931""
","
","""event"",""trial"",""time""
""focus"",""1"",""7287""
","""event"",""trial"",""time""
""fullscreenenter"",""1"",""8931""
","
","","","1894","","","23","8856","1801","l","elianto","#3366ff99"," "," ","1","+10","[2756]","1","2","","","8856","34","1","1","win","go","0"
"pit-trial","153","1006871","0.0-39.0","battery-v0.2","","""event"",""trial"",""time""
""focus"",""1"",""7287""
""fullscreenenter"",""1"",""8931""
","
","""event"",""trial"",""time""
""focus"",""1"",""7287""
","""event"",""trial"",""time""
""fullscreenenter"",""1"",""8931""
","
","","","-1","","","23","8856","1801","u","elianto","#f73b6a7A","-1","-1","1","0","[]","0","2","","","8856","35","0","4","lose","no-go","0"
"pit-trial","154","1011742","0.0-40.0","battery-v0.2","","""event"",""trial"",""time""
""focus"",""1"",""7287""
""fullscreenenter"",""1"",""8931""
","
","""event"",""trial"",""time""
""focus"",""1"",""7287""
","""event"",""trial"",""time""
""fullscreenenter"",""1"",""8931""
","
","","","-1","","","23","8856","1801","g","elianto","#f73b6a7A"," ","-1","0","-10","[]","0","2","","","8856","36","3","3","lose","go","0"
"pit-trial","155","1016622","0.0-41.0","battery-v0.2","","""event"",""trial"",""time""
""focus"",""1"",""7287""
""fullscreenenter"",""1"",""8931""
","
","""event"",""trial"",""time""
""focus"",""1"",""7287""
","""event"",""trial"",""time""
""fullscreenenter"",""1"",""8931""
","
","","","-1","","","23","8856","1801","a","elianto","#f73b6a7A","-1","-1","1","0","[]","0","2","","","8856","37","2","4","lose","no-go","0"
"pit-trial","156","1020101","0.0-42.0","battery-v0.2","","""event"",""trial"",""time""
""focus"",""1"",""7287""
""fullscreenenter"",""1"",""8931""
","
","""event"",""trial"",""time""
""focus"",""1"",""7287""
","""event"",""trial"",""time""
""fullscreenenter"",""1"",""8931""
","
","","","618","","","23","8856","1801","l","elianto","#3366ff99"," "," ","1","+10","[1473]","1","2","","","8856","38","1","1","win","go","0"
"pit-trial","157","1023502","0.0-43.0","battery-v0.2","","""event"",""trial"",""time""
""focus"",""1"",""7287""
""fullscreenenter"",""1"",""8931""
","
","""event"",""trial"",""time""
""focus"",""1"",""7287""
","""event"",""trial"",""time""
""fullscreenenter"",""1"",""8931""
","
","","","534","","","23","8856","1801","g","elianto","#f73b6a7A"," "," ","1","0","[1386]","1","2","","","8856","39","3","3","lose","go","0"
"pit-trial","158","1028372","0.0-44.0","battery-v0.2","","""event"",""trial"",""time""
""focus"",""1"",""7287""
""fullscreenenter"",""1"",""8931""
","
","""event"",""trial"",""time""
""focus"",""1"",""7287""
","""event"",""trial"",""time""
""fullscreenenter"",""1"",""8931""
","
","","","-1","","","23","8856","1801","u","elianto","#f73b6a7A","-1","-1","1","0","[]","0","2","","","8856","40","0","4","lose","no-go","0"
"pit-trial","159","1031791","0.0-45.0","battery-v0.2","","""event"",""trial"",""time""
""focus"",""1"",""7287""
""fullscreenenter"",""1"",""8931""
","
","""event"",""trial"",""time""
""focus"",""1"",""7287""
","""event"",""trial"",""time""
""fullscreenenter"",""1"",""8931""
","
","","","545","","","23","8856","1801","l","elianto","#3366ff99"," "," ","1","+10","[1399]","1","2","","","8856","41","1","1","win","go","0"
"pit-trial","160","1035152","0.0-46.0","battery-v0.2","","""event"",""trial"",""time""
""focus"",""1"",""7287""
""fullscreenenter"",""1"",""8931""
","
","""event"",""trial"",""time""
""focus"",""1"",""7287""
","""event"",""trial"",""time""
""fullscreenenter"",""1"",""8931""
","
","","","486","","","23","8856","1801","g","elianto","#f73b6a7A"," "," ","1","0","[1342]","1","2","","","8856","42","3","3","lose","go","0"
"pit-trial","161","1040031","0.0-47.0","battery-v0.2","","""event"",""trial"",""time""
""focus"",""1"",""7287""
""fullscreenenter"",""1"",""8931""
","
","""event"",""trial"",""time""
""focus"",""1"",""7287""
","""event"",""trial"",""time""
""fullscreenenter"",""1"",""8931""
","
","","","-1","","","23","8856","1801","a","elianto","#f73b6a7A","-1","-1","1","0","[]","0","2","","","8856","43","2","4","lose","no-go","0"
"pit-trial","162","1044911","0.0-48.0","battery-v0.2","","""event"",""trial"",""time""
""focus"",""1"",""7287""
""fullscreenenter"",""1"",""8931""
","
","""event"",""trial"",""time""
""focus"",""1"",""7287""
","""event"",""trial"",""time""
""fullscreenenter"",""1"",""8931""
","
","","","-1","","","23","8856","1801","u","elianto","#f73b6a7A","-1","-1","1","0","[]","0","2","","","8856","44","0","4","lose","no-go","0"
"pit-trial","163","1049792","0.0-49.0","battery-v0.2","","""event"",""trial"",""time""
""focus"",""1"",""7287""
""fullscreenenter"",""1"",""8931""
","
","""event"",""trial"",""time""
""focus"",""1"",""7287""
","""event"",""trial"",""time""
""fullscreenenter"",""1"",""8931""
","
","","","-1","","","23","8856","1801","a","elianto","#f73b6a7A","-1","-1","1","0","[]","0","2","","","8856","45","2","4","lose","no-go","0"
"pit-trial","164","1054052","0.0-50.0","battery-v0.2","","""event"",""trial"",""time""
""focus"",""1"",""7287""
""fullscreenenter"",""1"",""8931""
","
","""event"",""trial"",""time""
""focus"",""1"",""7287""
","""event"",""trial"",""time""
""fullscreenenter"",""1"",""8931""
","
","","","1391","","","23","8856","1801","p","elianto","#3366ff99","-1"," ","0","0","[2252]","1","2","","","8856","46","4","2","win","no-go","0"
"pit-trial","165","1058093","0.0-51.0","battery-v0.2","","""event"",""trial"",""time""
""focus"",""1"",""7287""
""fullscreenenter"",""1"",""8931""
","
","""event"",""trial"",""time""
""focus"",""1"",""7287""
","""event"",""trial"",""time""
""fullscreenenter"",""1"",""8931""
","
","","","1168","","","23","8856","1801","g","elianto","#f73b6a7A"," "," ","1","0","[2024]","1","2","","","8856","47","3","3","lose","go","0"
"pit-trial","166","1062952","0.0-52.0","battery-v0.2","","""event"",""trial"",""time""
""focus"",""1"",""7287""
""fullscreenenter"",""1"",""8931""
","
","""event"",""trial"",""time""
""focus"",""1"",""7287""
","""event"",""trial"",""time""
""fullscreenenter"",""1"",""8931""
","
","","","-1","","","23","8856","1801","u","elianto","#f73b6a7A","-1","-1","1","0","[]","0","2","","","8856","48","0","4","lose","no-go","0"
"pit-trial","167","1067832","0.0-53.0","battery-v0.2","","""event"",""trial"",""time""
""focus"",""1"",""7287""
""fullscreenenter"",""1"",""8931""
","
","""event"",""trial"",""time""
""focus"",""1"",""7287""
","""event"",""trial"",""time""
""fullscreenenter"",""1"",""8931""
","
","","","-1","","","23","8856","1801","u","elianto","#f73b6a7A","-1","-1","1","0","[]","0","2","","","8856","49","0","4","lose","no-go","0"
"pit-trial","168","1071263","0.0-54.0","battery-v0.2","","""event"",""trial"",""time""
""focus"",""1"",""7287""
""fullscreenenter"",""1"",""8931""
","
","""event"",""trial"",""time""
""focus"",""1"",""7287""
","""event"",""trial"",""time""
""fullscreenenter"",""1"",""8931""
","
","","","545","","","23","8856","1801","l","elianto","#3366ff99"," "," ","1","0","[1414]","1","2","","","8856","50","1","1","win","go","1"
"pit-trial","169","1074662","0.0-55.0","battery-v0.2","","""event"",""trial"",""time""
""focus"",""1"",""7287""
""fullscreenenter"",""1"",""8931""
","
","""event"",""trial"",""time""
""focus"",""1"",""7287""
","""event"",""trial"",""time""
""fullscreenenter"",""1"",""8931""
","
","","","512","","","23","8856","1801","g","elianto","#f73b6a7A"," "," ","1","-10","[1378]","1","2","","","8856","51","3","3","lose","go","1"
"pit-trial","170","1079531","0.0-56.0","battery-v0.2","","""event"",""trial"",""time""
""focus"",""1"",""7287""
""fullscreenenter"",""1"",""8931""
","
","""event"",""trial"",""time""
""focus"",""1"",""7287""
","""event"",""trial"",""time""
""fullscreenenter"",""1"",""8931""
","
","","","-1","","","23","8856","1801","p","elianto","#3366ff99","-1","-1","1","0","[]","0","2","","","8856","52","4","2","win","no-go","1"
"pit-trial","171","1082922","0.0-57.0","battery-v0.2","","""event"",""trial"",""time""
""focus"",""1"",""7287""
""fullscreenenter"",""1"",""8931""
","
","""event"",""trial"",""time""
""focus"",""1"",""7287""
","""event"",""trial"",""time""
""fullscreenenter"",""1"",""8931""
","
","","","516","","","23","8856","1801","l","elianto","#3366ff99"," "," ","1","0","[1374]","1","2","","","8856","53","1","1","win","go","1"
"pit-trial","172","1087801","0.0-58.0","battery-v0.2","","""event"",""trial"",""time""
""focus"",""1"",""7287""
""fullscreenenter"",""1"",""8931""
","
","""event"",""trial"",""time""
""focus"",""1"",""7287""
","""event"",""trial"",""time""
""fullscreenenter"",""1"",""8931""
","
","","","-1","","","23","8856","1801","u","elianto","#f73b6a7A","-1","-1","1","0","[]","0","2","","","8856","54","0","4","lose","no-go","0"
"pit-trial","173","1091402","0.0-59.0","battery-v0.2","","""event"",""trial"",""time""
""focus"",""1"",""7287""
""fullscreenenter"",""1"",""8931""
","
","""event"",""trial"",""time""
""focus"",""1"",""7287""
","""event"",""trial"",""time""
""fullscreenenter"",""1"",""8931""
","
","","","726","","","23","8856","1801","p","elianto","#3366ff99","-1"," ","0","0","[1592]","1","2","","","8856","55","4","2","win","no-go","0"
"pit-trial","174","1096283","0.0-60.0","battery-v0.2","","""event"",""trial"",""time""
""focus"",""1"",""7287""
""fullscreenenter"",""1"",""8931""
","
","""event"",""trial"",""time""
""focus"",""1"",""7287""
","""event"",""trial"",""time""
""fullscreenenter"",""1"",""8931""
","
","","","-1","","","23","8856","1801","a","elianto","#f73b6a7A","-1","-1","1","-10","[]","0","2","","","8856","56","2","4","lose","no-go","1"
"pit-trial","175","1099672","0.0-61.0","battery-v0.2","","""event"",""trial"",""time""
""focus"",""1"",""7287""
""fullscreenenter"",""1"",""8931""
","
","""event"",""trial"",""time""
""focus"",""1"",""7287""
","""event"",""trial"",""time""
""fullscreenenter"",""1"",""8931""
","
","","","516","","","23","8856","1801","l","elianto","#3366ff99"," "," ","1","+10","[1373]","1","2","","","8856","57","1","1","win","go","0"
"pit-trial","176","1104552","0.0-62.0","battery-v0.2","","""event"",""trial"",""time""
""focus"",""1"",""7287""
""fullscreenenter"",""1"",""8931""
","
","""event"",""trial"",""time""
""focus"",""1"",""7287""
","""event"",""trial"",""time""
""fullscreenenter"",""1"",""8931""
","
","","","-1","","","23","8856","1801","p","elianto","#3366ff99","-1","-1","1","+10","[]","0","2","","","8856","58","4","2","win","no-go","0"
"pit-trial","177","1108062","0.0-63.0","battery-v0.2","","""event"",""trial"",""time""
""focus"",""1"",""7287""
""fullscreenenter"",""1"",""8931""
","
","""event"",""trial"",""time""
""focus"",""1"",""7287""
","""event"",""trial"",""time""
""fullscreenenter"",""1"",""8931""
","
","","","628","","","23","8856","1801","g","elianto","#f73b6a7A"," "," ","1","0","[1492]","1","2","","","8856","59","3","3","lose","go","0"
"pit-trial","178","1112951","0.0-64.0","battery-v0.2","","""event"",""trial"",""time""
""focus"",""1"",""7287""
""fullscreenenter"",""1"",""8931""
","
","""event"",""trial"",""time""
""focus"",""1"",""7287""
","""event"",""trial"",""time""
""fullscreenenter"",""1"",""8931""
","
","","","-1","","","23","8856","1801","u","elianto","#f73b6a7A","-1","-1","1","0","[]","0","2","","","8856","60","0","4","lose","no-go","0"
"pit-trial","179","1116533","0.0-65.0","battery-v0.2","","""event"",""trial"",""time""
""focus"",""1"",""7287""
""fullscreenenter"",""1"",""8931""
","
","""event"",""trial"",""time""
""focus"",""1"",""7287""
","""event"",""trial"",""time""
""fullscreenenter"",""1"",""8931""
","
","","","711","","","23","8856","1801","g","elianto","#f73b6a7A"," "," ","1","0","[1572]","1","2","","","8856","61","3","3","lose","go","0"
"pit-trial","180","1121391","0.0-66.0","battery-v0.2","","""event"",""trial"",""time""
""focus"",""1"",""7287""
""fullscreenenter"",""1"",""8931""
","
","""event"",""trial"",""time""
""focus"",""1"",""7287""
","""event"",""trial"",""time""
""fullscreenenter"",""1"",""8931""
","
","","","-1","","","23","8856","1801","p","elianto","#3366ff99","-1","-1","1","+10","[]","0","2","","","8856","62","4","2","win","no-go","0"
"pit-trial","181","1124789","0.0-67.0","battery-v0.2","","""event"",""trial"",""time""
""focus"",""1"",""7287""
""fullscreenenter"",""1"",""8931""
","
","""event"",""trial"",""time""
""focus"",""1"",""7287""
","""event"",""trial"",""time""
""fullscreenenter"",""1"",""8931""
","
","","","530","","","23","8856","1801","l","elianto","#3366ff99"," "," ","1","+10","[1392]","1","2","","","8856","63","1","1","win","go","0"
"pit-trial","182","1128571","0.0-68.0","battery-v0.2","","""event"",""trial"",""time""
""focus"",""1"",""7287""
""fullscreenenter"",""1"",""8931""
","
","""event"",""trial"",""time""
""focus"",""1"",""7287""
","""event"",""trial"",""time""
""fullscreenenter"",""1"",""8931""
","
","","","911","","","23","8856","1801","a","elianto","#f73b6a7A","-1"," ","0","-10","[1769]","1","2","","","8856","64","2","4","lose","no-go","0"
"pit-trial","183","1133441","0.0-69.0","battery-v0.2","","""event"",""trial"",""time""
""focus"",""1"",""7287""
""fullscreenenter"",""1"",""8931""
","
","""event"",""trial"",""time""
""focus"",""1"",""7287""
","""event"",""trial"",""time""
""fullscreenenter"",""1"",""8931""
","
","","","-1","","","23","8856","1801","p","elianto","#3366ff99","-1","-1","1","+10","[]","0","2","","","8856","65","4","2","win","no-go","0"
"pit-trial","184","1136957","0.0-70.0","battery-v0.2","","""event"",""trial"",""time""
""focus"",""1"",""7287""
""fullscreenenter"",""1"",""8931""
","
","""event"",""trial"",""time""
""focus"",""1"",""7287""
","""event"",""trial"",""time""
""fullscreenenter"",""1"",""8931""
","
","","","647","","","23","8856","1801","l","elianto","#3366ff99"," "," ","1","+10","[1512]","1","2","","","8856","66","1","1","win","go","0"
"pit-trial","185","1140345","0.0-71.0","battery-v0.2","","""event"",""trial"",""time""
""focus"",""1"",""7287""
""fullscreenenter"",""1"",""8931""
","
","""event"",""trial"",""time""
""focus"",""1"",""7287""
","""event"",""trial"",""time""
""fullscreenenter"",""1"",""8931""
","
","","","508","","","23","8856","1801","g","elianto","#f73b6a7A"," "," ","1","0","[1370]","1","2","","","8856","67","3","3","lose","go","0"
"pit-trial","186","1143781","0.0-72.0","battery-v0.2","","""event"",""trial"",""time""
""focus"",""1"",""7287""
""fullscreenenter"",""1"",""8931""
","
","""event"",""trial"",""time""
""focus"",""1"",""7287""
","""event"",""trial"",""time""
""fullscreenenter"",""1"",""8931""
","
","","","562","","","23","8856","1801","a","elianto","#f73b6a7A","-1"," ","0","-10","[1418]","1","2","","","8856","68","2","4","lose","no-go","0"
"pit-trial","187","1147321","0.0-73.0","battery-v0.2","","""event"",""trial"",""time""
""focus"",""1"",""7287""
""fullscreenenter"",""1"",""8931""
","
","""event"",""trial"",""time""
""focus"",""1"",""7287""
","""event"",""trial"",""time""
""fullscreenenter"",""1"",""8931""
","
","","","669","","","23","8856","1801","l","elianto","#3366ff99"," "," ","1","+10","[1534]","1","2","","","8856","69","1","1","win","go","0"
"pit-trial","188","1152195","0.0-74.0","battery-v0.2","","""event"",""trial"",""time""
""focus"",""1"",""7287""
""fullscreenenter"",""1"",""8931""
","
","""event"",""trial"",""time""
""focus"",""1"",""7287""
","""event"",""trial"",""time""
""fullscreenenter"",""1"",""8931""
","
","","","-1","","","23","8856","1801","p","elianto","#3366ff99","-1","-1","1","+10","[]","0","2","","","8856","70","4","2","win","no-go","0"
"pit-trial","189","1156061","0.0-75.0","battery-v0.2","","""event"",""trial"",""time""
""focus"",""1"",""7287""
""fullscreenenter"",""1"",""8931""
","
","""event"",""trial"",""time""
""focus"",""1"",""7287""
","""event"",""trial"",""time""
""fullscreenenter"",""1"",""8931""
","
","","","1005","","","23","8856","1801","s","elianto","#3366ff99"," "," ","1","+10","[1857]","1","2","","","8856","71","5","1","win","go","0"
"pit-trial","190","1159712","0.0-76.0","battery-v0.2","","""event"",""trial"",""time""
""focus"",""1"",""7287""
""fullscreenenter"",""1"",""8931""
","
","""event"",""trial"",""time""
""focus"",""1"",""7287""
","""event"",""trial"",""time""
""fullscreenenter"",""1"",""8931""
","
","","","767","","","23","8856","1801","g","elianto","#f73b6a7A"," "," ","1","0","[1628]","1","2","","","8856","72","3","3","lose","go","0"
"pit-trial","191","1163314","0.0-77.0","battery-v0.2","","""event"",""trial"",""time""
""focus"",""1"",""7287""
""fullscreenenter"",""1"",""8931""
","
","""event"",""trial"",""time""
""focus"",""1"",""7287""
","""event"",""trial"",""time""
""fullscreenenter"",""1"",""8931""
","
","","","718","","","23","8856","1801","l","elianto","#3366ff99"," "," ","1","+10","[1588]","1","2","","","8856","73","1","1","win","go","0"
"pit-trial","192","1166827","0.0-78.0","battery-v0.2","","""event"",""trial"",""time""
""focus"",""1"",""7287""
""fullscreenenter"",""1"",""8931""
","
","""event"",""trial"",""time""
""focus"",""1"",""7287""
","""event"",""trial"",""time""
""fullscreenenter"",""1"",""8931""
","
","","","631","","","23","8856","1801","g","elianto","#f73b6a7A"," "," ","1","0","[1498]","1","2","","","8856","74","3","3","lose","go","0"
"pit-trial","193","1170221","0.0-79.0","battery-v0.2","","""event"",""trial"",""time""
""focus"",""1"",""7287""
""fullscreenenter"",""1"",""8931""
","
","""event"",""trial"",""time""
""focus"",""1"",""7287""
","""event"",""trial"",""time""
""fullscreenenter"",""1"",""8931""
","
","","","520","","","23","8856","1801","s","elianto","#3366ff99"," "," ","1","+10","[1370]","1","2","","","8856","75","5","1","win","go","0"
"pit-trial","194","1175091","0.0-80.0","battery-v0.2","","""event"",""trial"",""time""
""focus"",""1"",""7287""
""fullscreenenter"",""1"",""8931""
","
","""event"",""trial"",""time""
""focus"",""1"",""7287""
","""event"",""trial"",""time""
""fullscreenenter"",""1"",""8931""
","
","","","-1","","","23","8856","1801","p","elianto","#3366ff99","-1","-1","1","+10","[]","0","2","","","8856","76","4","2","win","no-go","0"
"pit-trial","195","1179970","0.0-81.0","battery-v0.2","","""event"",""trial"",""time""
""focus"",""1"",""7287""
""fullscreenenter"",""1"",""8931""
","
","""event"",""trial"",""time""
""focus"",""1"",""7287""
","""event"",""trial"",""time""
""fullscreenenter"",""1"",""8931""
","
","","","-1","","","23","8856","1801","p","elianto","#3366ff99","-1","-1","1","+10","[]","0","2","","","8856","77","4","2","win","no-go","0"
"pit-trial","196","1183982","0.0-82.0","battery-v0.2","","""event"",""trial"",""time""
""focus"",""1"",""7287""
""fullscreenenter"",""1"",""8931""
","
","""event"",""trial"",""time""
""focus"",""1"",""7287""
","""event"",""trial"",""time""
""fullscreenenter"",""1"",""8931""
","
","","","1144","","","23","8856","1801","g","elianto","#f73b6a7A"," "," ","1","0","[2003]","1","2","","","8856","78","3","3","lose","go","0"
"pit-trial","197","1188871","0.0-83.0","battery-v0.2","","""event"",""trial"",""time""
""focus"",""1"",""7287""
""fullscreenenter"",""1"",""8931""
","
","""event"",""trial"",""time""
""focus"",""1"",""7287""
","""event"",""trial"",""time""
""fullscreenenter"",""1"",""8931""
","
","","","-1","","","23","8856","1801","w","elianto","#f73b6a7A","-1","-1","1","0","[]","0","2","","","8856","79","6","4","lose","no-go","0"
"pit-trial","198","1192679","0.0-84.0","battery-v0.2","","""event"",""trial"",""time""
""focus"",""1"",""7287""
""fullscreenenter"",""1"",""8931""
","
","""event"",""trial"",""time""
""focus"",""1"",""7287""
","""event"",""trial"",""time""
""fullscreenenter"",""1"",""8931""
","
","","","934","","","23","8856","1801","s","elianto","#3366ff99"," "," ","1","+10","[1799]","1","2","","","8856","80","5","1","win","go","0"
"pit-trial","199","1197566","0.0-85.0","battery-v0.2","","""event"",""trial"",""time""
""focus"",""1"",""7287""
""fullscreenenter"",""1"",""8931""
","
","""event"",""trial"",""time""
""focus"",""1"",""7287""
","""event"",""trial"",""time""
""fullscreenenter"",""1"",""8931""
","
","","","-1","","","23","8856","1801","e","elianto","#f73b6a7A"," ","-1","0","0","[]","0","2","","","8856","81","7","3","lose","go","1"
"pit-trial","200","1202449","0.0-86.0","battery-v0.2","","""event"",""trial"",""time""
""focus"",""1"",""7287""
""fullscreenenter"",""1"",""8931""
","
","""event"",""trial"",""time""
""focus"",""1"",""7287""
","""event"",""trial"",""time""
""fullscreenenter"",""1"",""8931""
","
","","","-1","","","23","8856","1801","p","elianto","#3366ff99","-1","-1","1","+10","[]","0","2","","","8856","82","4","2","win","no-go","0"
"pit-trial","201","1207315","0.0-87.0","battery-v0.2","","""event"",""trial"",""time""
""focus"",""1"",""7287""
""fullscreenenter"",""1"",""8931""
","
","""event"",""trial"",""time""
""focus"",""1"",""7287""
","""event"",""trial"",""time""
""fullscreenenter"",""1"",""8931""
","
","","","-1","","","23","8856","1801","w","elianto","#f73b6a7A","-1","-1","1","0","[]","0","2","","","8856","83","6","4","lose","no-go","0"
"pit-trial","202","1211653","0.0-88.0","battery-v0.2","","""event"",""trial"",""time""
""focus"",""1"",""7287""
""fullscreenenter"",""1"",""8931""
","
","""event"",""trial"",""time""
""focus"",""1"",""7287""
","""event"",""trial"",""time""
""fullscreenenter"",""1"",""8931""
","
","","","1467","","","23","8856","1801","s","elianto","#3366ff99"," "," ","1","0","[2324]","1","2","","","8856","84","5","1","win","go","1"
"pit-trial","203","1216543","0.0-89.0","battery-v0.2","","""event"",""trial"",""time""
""focus"",""1"",""7287""
""fullscreenenter"",""1"",""8931""
","
","""event"",""trial"",""time""
""focus"",""1"",""7287""
","""event"",""trial"",""time""
""fullscreenenter"",""1"",""8931""
","
","","","-1","","","23","8856","1801","p","elianto","#3366ff99","-1","-1","1","+10","[]","0","2","","","8856","85","4","2","win","no-go","0"
"pit-trial","204","1221412","0.0-90.0","battery-v0.2","","""event"",""trial"",""time""
""focus"",""1"",""7287""
""fullscreenenter"",""1"",""8931""
","
","""event"",""trial"",""time""
""focus"",""1"",""7287""
","""event"",""trial"",""time""
""fullscreenenter"",""1"",""8931""
","
","","","-1","","","23","8856","1801","s","elianto","#3366ff99"," ","-1","0","0","[]","0","2","","","8856","86","5","1","win","go","0"
"pit-trial","205","1226286","0.0-91.0","battery-v0.2","","""event"",""trial"",""time""
""focus"",""1"",""7287""
""fullscreenenter"",""1"",""8931""
","
","""event"",""trial"",""time""
""focus"",""1"",""7287""
","""event"",""trial"",""time""
""fullscreenenter"",""1"",""8931""
","
","","","-1","","","23","8856","1801","e","elianto","#f73b6a7A"," ","-1","0","-10","[]","0","2","","","8856","87","7","3","lose","go","0"
"pit-trial","206","1231172","0.0-92.0","battery-v0.2","","""event"",""trial"",""time""
""focus"",""1"",""7287""
""fullscreenenter"",""1"",""8931""
","
","""event"",""trial"",""time""
""focus"",""1"",""7287""
","""event"",""trial"",""time""
""fullscreenenter"",""1"",""8931""
","
","","","-1","","","23","8856","1801","w","elianto","#f73b6a7A","-1","-1","1","0","[]","0","2","","","8856","88","6","4","lose","no-go","0"
"pit-trial","207","1234804","0.0-93.0","battery-v0.2","","""event"",""trial"",""time""
""focus"",""1"",""7287""
""fullscreenenter"",""1"",""8931""
","
","""event"",""trial"",""time""
""focus"",""1"",""7287""
","""event"",""trial"",""time""
""fullscreenenter"",""1"",""8931""
","
","","","758","","","23","8856","1801","s","elianto","#3366ff99"," "," ","1","+10","[1617]","1","2","","","8856","89","5","1","win","go","0"
"pit-trial","208","1238392","0.0-94.0","battery-v0.2","","""event"",""trial"",""time""
""focus"",""1"",""7287""
""fullscreenenter"",""1"",""8931""
","
","""event"",""trial"",""time""
""focus"",""1"",""7287""
","""event"",""trial"",""time""
""fullscreenenter"",""1"",""8931""
","
","","","712","","","23","8856","1801","e","elianto","#f73b6a7A"," "," ","1","0","[1571]","1","2","","","8856","90","7","3","lose","go","0"
"pit-trial","209","1243273","0.0-95.0","battery-v0.2","","""event"",""trial"",""time""
""focus"",""1"",""7287""
""fullscreenenter"",""1"",""8931""
","
","""event"",""trial"",""time""
""focus"",""1"",""7287""
","""event"",""trial"",""time""
""fullscreenenter"",""1"",""8931""
","
","","","-1","","","23","8856","1801","p","elianto","#3366ff99","-1","-1","1","+10","[]","0","2","","","8856","91","4","2","win","no-go","0"
"pit-trial","210","1248142","0.0-96.0","battery-v0.2","","""event"",""trial"",""time""
""focus"",""1"",""7287""
""fullscreenenter"",""1"",""8931""
","
","""event"",""trial"",""time""
""focus"",""1"",""7287""
","""event"",""trial"",""time""
""fullscreenenter"",""1"",""8931""
","
","","","-1","","","23","8856","1801","w","elianto","#f73b6a7A","-1","-1","1","0","[]","0","2","","","8856","92","6","4","lose","no-go","0"
"pit-trial","211","1252192","0.0-97.0","battery-v0.2","","""event"",""trial"",""time""
""focus"",""1"",""7287""
""fullscreenenter"",""1"",""8931""
","
","""event"",""trial"",""time""
""focus"",""1"",""7287""
","""event"",""trial"",""time""
""fullscreenenter"",""1"",""8931""
","
","","","1182","","","23","8856","1801","d","elianto","#3366ff99","-1"," ","0","0","[2037]","1","2","","","8856","93","8","2","win","no-go","0"
"pit-trial","212","1256092","0.0-98.0","battery-v0.2","","""event"",""trial"",""time""
""focus"",""1"",""7287""
""fullscreenenter"",""1"",""8931""
","
","""event"",""trial"",""time""
""focus"",""1"",""7287""
","""event"",""trial"",""time""
""fullscreenenter"",""1"",""8931""
","
","","","1033","","","23","8856","1801","e","elianto","#f73b6a7A"," "," ","1","0","[1889]","1","2","","","8856","94","7","3","lose","go","0"
"pit-trial","213","1260955","0.0-99.0","battery-v0.2","","""event"",""trial"",""time""
""focus"",""1"",""7287""
""fullscreenenter"",""1"",""8931""
","
","""event"",""trial"",""time""
""focus"",""1"",""7287""
","""event"",""trial"",""time""
""fullscreenenter"",""1"",""8931""
","
","","","-1","","","23","8856","1801","w","elianto","#f73b6a7A","-1","-1","1","0","[]","0","2","","","8856","95","6","4","lose","no-go","0"
"pit-trial","214","1264692","0.0-100.0","battery-v0.2","","""event"",""trial"",""time""
""focus"",""1"",""7287""
""fullscreenenter"",""1"",""8931""
","
","""event"",""trial"",""time""
""focus"",""1"",""7287""
","""event"",""trial"",""time""
""fullscreenenter"",""1"",""8931""
","
","","","866","","","23","8856","1801","s","elianto","#3366ff99"," "," ","1","+10","[1730]","1","2","","","8856","96","5","1","win","go","0"
"pit-trial","215","1268652","0.0-101.0","battery-v0.2","","""event"",""trial"",""time""
""focus"",""1"",""7287""
""fullscreenenter"",""1"",""8931""
","
","""event"",""trial"",""time""
""focus"",""1"",""7287""
","""event"",""trial"",""time""
""fullscreenenter"",""1"",""8931""
","
","","","1076","","","23","8856","1801","s","elianto","#3366ff99"," "," ","1","+10","[1937]","1","2","","","8856","97","5","1","win","go","0"
"pit-trial","216","1273524","0.0-102.0","battery-v0.2","","""event"",""trial"",""time""
""focus"",""1"",""7287""
""fullscreenenter"",""1"",""8931""
","
","""event"",""trial"",""time""
""focus"",""1"",""7287""
","""event"",""trial"",""time""
""fullscreenenter"",""1"",""8931""
","
","","","-1","","","23","8856","1801","w","elianto","#f73b6a7A","-1","-1","1","0","[]","0","2","","","8856","98","6","4","lose","no-go","0"
"pit-trial","217","1278405","0.0-103.0","battery-v0.2","","""event"",""trial"",""time""
""focus"",""1"",""7287""
""fullscreenenter"",""1"",""8931""
","
","""event"",""trial"",""time""
""focus"",""1"",""7287""
","""event"",""trial"",""time""
""fullscreenenter"",""1"",""8931""
","
","","","-1","","","23","8856","1801","d","elianto","#3366ff99","-1","-1","1","0","[]","0","2","","","8856","99","8","2","win","no-go","1"
"pit-trial","218","1282563","0.0-104.0","battery-v0.2","","""event"",""trial"",""time""
""focus"",""1"",""7287""
""fullscreenenter"",""1"",""8931""
","
","""event"",""trial"",""time""
""focus"",""1"",""7287""
","""event"",""trial"",""time""
""fullscreenenter"",""1"",""8931""
","
","","","1278","","","23","8856","1801","e","elianto","#f73b6a7A"," "," ","1","0","[2144]","1","2","","","8856","100","7","3","lose","go","0"
"pit-trial","219","1286052","0.0-105.0","battery-v0.2","","""event"",""trial"",""time""
""focus"",""1"",""7287""
""fullscreenenter"",""1"",""8931""
","
","""event"",""trial"",""time""
""focus"",""1"",""7287""
","""event"",""trial"",""time""
""fullscreenenter"",""1"",""8931""
","
","","","622","","","23","8856","1801","d","elianto","#3366ff99","-1"," ","0","+10","[1475]","1","2","","","8856","101","8","2","win","no-go","1"
"pit-trial","220","1289681","0.0-106.0","battery-v0.2","","""event"",""trial"",""time""
""focus"",""1"",""7287""
""fullscreenenter"",""1"",""8931""
","
","""event"",""trial"",""time""
""focus"",""1"",""7287""
","""event"",""trial"",""time""
""fullscreenenter"",""1"",""8931""
","
","","","756","","","23","8856","1801","s","elianto","#3366ff99"," "," ","1","+10","[1618]","1","2","","","8856","102","5","1","win","go","0"
"pit-trial","221","1294554","0.0-107.0","battery-v0.2","","""event"",""trial"",""time""
""focus"",""1"",""7287""
""fullscreenenter"",""1"",""8931""
","
","""event"",""trial"",""time""
""focus"",""1"",""7287""
","""event"",""trial"",""time""
""fullscreenenter"",""1"",""8931""
","
","","","-1","","","23","8856","1801","j","elianto","#3366ff99","-1","-1","1","+10","[]","0","2","","","8856","103","9","2","win","no-go","0"
"pit-trial","222","1299417","0.0-108.0","battery-v0.2","","""event"",""trial"",""time""
""focus"",""1"",""7287""
""fullscreenenter"",""1"",""8931""
","
","""event"",""trial"",""time""
""focus"",""1"",""7287""
","""event"",""trial"",""time""
""fullscreenenter"",""1"",""8931""
","
","","","-1","","","23","8856","1801","w","elianto","#f73b6a7A","-1","-1","1","0","[]","0","2","","","8856","104","6","4","lose","no-go","0"
"pit-trial","223","1304282","0.0-109.0","battery-v0.2","","""event"",""trial"",""time""
""focus"",""1"",""7287""
""fullscreenenter"",""1"",""8931""
","
","""event"",""trial"",""time""
""focus"",""1"",""7287""
","""event"",""trial"",""time""
""fullscreenenter"",""1"",""8931""
","
","","","-1","","","23","8856","1801","w","elianto","#f73b6a7A","-1","-1","1","0","[]","0","2","","","8856","105","6","4","lose","no-go","0"
"pit-trial","224","1308292","0.0-110.0","battery-v0.2","","""event"",""trial"",""time""
""focus"",""1"",""7287""
""fullscreenenter"",""1"",""8931""
","
","""event"",""trial"",""time""
""focus"",""1"",""7287""
","""event"",""trial"",""time""
""fullscreenenter"",""1"",""8931""
","
","","","1140","","","23","8856","1801","s","elianto","#3366ff99"," "," ","1","+10","[1998]","1","2","","","8856","106","5","1","win","go","0"
"pit-trial","225","1312642","0.0-111.0","battery-v0.2","","""event"",""trial"",""time""
""focus"",""1"",""7287""
""fullscreenenter"",""1"",""8931""
","
","""event"",""trial"",""time""
""focus"",""1"",""7287""
","""event"",""trial"",""time""
""fullscreenenter"",""1"",""8931""
","
","","","1469","","","23","8856","1801","d","elianto","#3366ff99","-1"," ","0","0","[2336]","1","2","","","8856","107","8","2","win","no-go","0"
"pit-trial","226","1317503","0.0-112.0","battery-v0.2","","""event"",""trial"",""time""
""focus"",""1"",""7287""
""fullscreenenter"",""1"",""8931""
","
","""event"",""trial"",""time""
""focus"",""1"",""7287""
","""event"",""trial"",""time""
""fullscreenenter"",""1"",""8931""
","
","","","-1","","","23","8856","1801","j","elianto","#3366ff99","-1","-1","1","0","[]","0","2","","","8856","108","9","2","win","no-go","1"
"pit-trial","227","1322384","0.0-113.0","battery-v0.2","","""event"",""trial"",""time""
""focus"",""1"",""7287""
""fullscreenenter"",""1"",""8931""
","
","""event"",""trial"",""time""
""focus"",""1"",""7287""
","""event"",""trial"",""time""
""fullscreenenter"",""1"",""8931""
","
