"trial_type","trial_index","time_elapsed","internal_node_id","task_version","subject_id","interactions","blur_events","focus_events","fullscreenenter_events","fullscreenexit_events","success","view_history","rt","responses","num_errors","age","subject","participantId","rune","rune_set","hex","correct","choice","accuracy","outcome","keys","total_keys","block","practice","value","sub","trial","stimulus","robot","valence","action","sham"
"pavlovia","0","12","0.0-0.0","battery-v0.2","","""event"",""trial"",""time""
""fullscreenenter"",""1"",""20118""
","
","
","""event"",""trial"",""time""
""fullscreenenter"",""1"",""20118""
","
","","","","","","","","","","","","","","","","","","","","","","","","","","",""
"fullscreen","1","21116","0.0-1.0","battery-v0.2","","""event"",""trial"",""time""
""fullscreenenter"",""1"",""20118""
","
","
","""event"",""trial"",""time""
""fullscreenenter"",""1"",""20118""
","
","true","","","","","","","","","","","","","","","","","","","","","","","","","",""
"pit-instructions","2","30258","0.0-2.0-0.0","battery-v0.2","","""event"",""trial"",""time""
""fullscreenenter"",""1"",""20118""
","
","
","""event"",""trial"",""time""
""fullscreenenter"",""1"",""20118""
","
","","[{""page_index"":0,""viewing_time"":9135.899999976158}]","9136.899999976158","","","","","","","","","","","","","","","","","","","","","","","",""
"pit-comprehension","3","35010","0.0-2.0-1.0-0.0","battery-v0.2","","""event"",""trial"",""time""
""fullscreenenter"",""1"",""20118""
","
","
","""event"",""trial"",""time""
""fullscreenenter"",""1"",""20118""
","
","","","4745.900000035763","[""shark""]","0","19","13204","5477","","","","","","","","","","","","","","","","","","",""
"pit-instructions","4","37741","0.0-2.0-1.0-1.0","battery-v0.2","","""event"",""trial"",""time""
""fullscreenenter"",""1"",""20118""
","
","
","""event"",""trial"",""time""
""fullscreenenter"",""1"",""20118""
","
","","[{""page_index"":0,""viewing_time"":2717.5}]","2718.099999964237","","","","","","","","","","","","","","","","","","","","","","","",""
"pit-comprehension","5","41642","0.0-2.0-2.0-0.0","battery-v0.2","","""event"",""trial"",""time""
""fullscreenenter"",""1"",""20118""
","
","
","""event"",""trial"",""time""
""fullscreenenter"",""1"",""20118""
","
","","","3895.900000035763","[""tiger""]","0","19","13204","5477","","","","","","","","","","","","","","","","","","",""
"pit-instructions","6","42874","0.0-2.0-2.0-1.0","battery-v0.2","","""event"",""trial"",""time""
""fullscreenenter"",""1"",""20118""
","
","
","""event"",""trial"",""time""
""fullscreenenter"",""1"",""20118""
","
","","[{""page_index"":0,""viewing_time"":1228.300000011921}]","1229","","","","","","","","","","","","","","","","","","","","","","","",""
"pit-instructions","7","272141","0.0-2.0-3.0","battery-v0.2","","""event"",""trial"",""time""
""fullscreenenter"",""1"",""20118""
","
","
","""event"",""trial"",""time""
""fullscreenenter"",""1"",""20118""
","
","","[{""page_index"":0,""viewing_time"":8995.600000023842},{""page_index"":1,""viewing_time"":7000.199999988079},{""page_index"":2,""viewing_time"":6549.5},{""page_index"":3,""viewing_time"":5699.800000011921},{""page_index"":4,""viewing_time"":6567.199999988079},{""page_index"":5,""viewing_time"":6183.699999988079},{""page_index"":6,""viewing_time"":8832.899999976158},{""page_index"":7,""viewing_time"":104750.80000001192},{""page_index"":8,""viewing_time"":8133.300000011921},{""page_index"":9,""viewing_time"":8566.800000011921},{""page_index"":10,""viewing_time"":8757.899999976158},{""page_index"":11,""viewing_time"":34525.19999998808},{""page_index"":12,""viewing_time"":6188.400000035763},{""page_index"":13,""viewing_time"":8511.5}]","229263.5","","","","","","","","","","","","","","","","","","","","","","","",""
"pit-trial","8","275482","0.0-2.0-4.0-0.0","battery-v0.2","","""event"",""trial"",""time""
""fullscreenenter"",""1"",""20118""
","
","
","""event"",""trial"",""time""
""fullscreenenter"",""1"",""20118""
","
","","","481.5","","","19","13204","5477","&#9784;","elianto","#FFFFF080"," "," ","1","&#10004","[1331.9000000357628]","1","0","0","","","","","","","",""
"pit-trial","9","279035","0.0-2.0-4.1-0.1","battery-v0.2","","""event"",""trial"",""time""
""fullscreenenter"",""1"",""20118""
","
","
","""event"",""trial"",""time""
""fullscreenenter"",""1"",""20118""
","
","","","689.6000000238419","","","19","13204","5477","&#9784;","elianto","#FFFFF080"," "," ","1","&#10004","[1540.8999999761581]","1","0","0","","","","","","","",""
"pit-trial","10","282504","0.0-2.0-4.2-0.2","battery-v0.2","","""event"",""trial"",""time""
""fullscreenenter"",""1"",""20118""
","
","
","""event"",""trial"",""time""
""fullscreenenter"",""1"",""20118""
","
","","","607.3999999761581","","","19","13204","5477","&#9784;","elianto","#FFFFF080"," "," ","1","&#10004","[1458.300000011921]","1","0","0","","","","","","","",""
"pit-trial","11","286001","0.0-2.0-4.3-0.3","battery-v0.2","","""event"",""trial"",""time""
""fullscreenenter"",""1"",""20118""
","
","
","""event"",""trial"",""time""
""fullscreenenter"",""1"",""20118""
","
","","","636.5","","","19","13204","5477","&#9784;","elianto","#FFFFF080"," "," ","1","&#10004","[1487.7999999523163]","1","0","0","","","","","","","",""
"pit-trial","12","289563","0.0-2.0-4.4-0.4","battery-v0.2","","""event"",""trial"",""time""
""fullscreenenter"",""1"",""20118""
","
","
","""event"",""trial"",""time""
""fullscreenenter"",""1"",""20118""
","
","","","701.1000000238419","","","19","13204","5477","&#9784;","elianto","#FFFFF080"," "," ","1","&#10004","[1551.300000011921]","1","0","0","","","","","","","",""
"pit-instructions","13","313442","0.0-2.0-5.0","battery-v0.2","","""event"",""trial"",""time""
""fullscreenenter"",""1"",""20118""
","
","
","""event"",""trial"",""time""
""fullscreenenter"",""1"",""20118""
","
","","[{""page_index"":0,""viewing_time"":6722.600000023842},{""page_index"":1,""viewing_time"":6166.699999988079},{""page_index"":2,""viewing_time"":5333.600000023842},{""page_index"":3,""viewing_time"":5650.099999964237}]","23873.600000023842","","","","","","","","","","","","","","","","","","","","","","","",""
"pit-trial","14","318305","0.0-2.0-6.0-0.0","battery-v0.2","","""event"",""trial"",""time""
""fullscreenenter"",""1"",""20118""
","
","
","""event"",""trial"",""time""
""fullscreenenter"",""1"",""20118""
","
","","","-1","","","19","13204","5477","&#9854;","elianto","#FFFFF080","-1","-1","1","&#10004","[]","0","0","1","","","","","","","",""
"pit-trial","15","323169","0.0-2.0-6.1-0.1","battery-v0.2","","""event"",""trial"",""time""
""fullscreenenter"",""1"",""20118""
","
","
","""event"",""trial"",""time""
""fullscreenenter"",""1"",""20118""
","
","","","-1","","","19","13204","5477","&#9854;","elianto","#FFFFF080","-1","-1","1","&#10004","[]","0","0","1","","","","","","","",""
"pit-trial","16","328035","0.0-2.0-6.2-0.2","battery-v0.2","","""event"",""trial"",""time""
""fullscreenenter"",""1"",""20118""
","
","
","""event"",""trial"",""time""
""fullscreenenter"",""1"",""20118""
","
","","","-1","","","19","13204","5477","&#9854;","elianto","#FFFFF080","-1","-1","1","&#10004","[]","0","0","1","","","","","","","",""
"pit-trial","17","332900","0.0-2.0-6.3-0.3","battery-v0.2","","""event"",""trial"",""time""
""fullscreenenter"",""1"",""20118""
","
","
","""event"",""trial"",""time""
""fullscreenenter"",""1"",""20118""
","
","","","-1","","","19","13204","5477","&#9854;","elianto","#FFFFF080","-1","-1","1","&#10004","[]","0","0","1","","","","","","","",""
"pit-trial","18","337764","0.0-2.0-6.4-0.4","battery-v0.2","","""event"",""trial"",""time""
""fullscreenenter"",""1"",""20118""
","
","
","""event"",""trial"",""time""
""fullscreenenter"",""1"",""20118""
","
","","","-1","","","19","13204","5477","&#9854;","elianto","#FFFFF080","-1","-1","1","&#10004","[]","0","0","1","","","","","","","",""
"pit-instructions","19","464386","0.0-2.0-7.0","battery-v0.2","","""event"",""trial"",""time""
""fullscreenenter"",""1"",""20118""
","
","
","""event"",""trial"",""time""
""fullscreenenter"",""1"",""20118""
","
","","[{""page_index"":0,""viewing_time"":6154.199999988079},{""page_index"":1,""viewing_time"":7834.300000011921},{""page_index"":2,""viewing_time"":6250.699999988079},{""page_index"":3,""viewing_time"":6799.699999988079},{""page_index"":4,""viewing_time"":5716.600000023842},{""page_index"":5,""viewing_time"":6800.199999988079},{""page_index"":6,""viewing_time"":6116.699999988079},{""page_index"":7,""viewing_time"":8800.199999988079},{""page_index"":8,""viewing_time"":7685.400000035763},{""page_index"":9,""viewing_time"":6923.899999976158},{""page_index"":10,""viewing_time"":7246.399999976158},{""page_index"":11,""viewing_time"":5021.800000011921},{""page_index"":12,""viewing_time"":7550.600000023842},{""page_index"":13,""viewing_time"":8012.399999976158},{""page_index"":14,""viewing_time"":7558.100000023842},{""page_index"":15,""viewing_time"":7297.800000011921},{""page_index"":16,""viewing_time"":7241},{""page_index"":17,""viewing_time"":7607.199999988079}]","126618.09999996424","","","","","","","","","","","","","","","","","","","","","","","",""
"pit-trial","20","467811","0.0-2.0-8.0-0.0","battery-v0.2","","""event"",""trial"",""time""
""fullscreenenter"",""1"",""20118""
","
","
","""event"",""trial"",""time""
""fullscreenenter"",""1"",""20118""
","
","","","564.4000000357628","","","19","13204","5477","&#9776;","elianto","#3366ff99"," "," ","1","+10","[1414.8999999761581]","1","0","1","","","","","","","",""
"pit-trial","21","471301","0.0-2.0-8.0-1.0","battery-v0.2","","""event"",""trial"",""time""
""fullscreenenter"",""1"",""20118""
","
","
","""event"",""trial"",""time""
""fullscreenenter"",""1"",""20118""
","
","","","629.3999999761581","","","19","13204","5477","&#9776;","elianto","#3366ff99"," "," ","1","+10","[1482.3999999761581]","1","0","1","","","","","","","",""
"pit-trial","22","474752","0.0-2.0-8.0-2.0","battery-v0.2","","""event"",""trial"",""time""
""fullscreenenter"",""1"",""20118""
","
","
","""event"",""trial"",""time""
""fullscreenenter"",""1"",""20118""
","
","","","591.6999999880791","","","19","13204","5477","&#9776;","elianto","#3366ff99"," "," ","1","+10","[1441.9000000357628]","1","0","1","","","","","","","",""
"pit-trial","23","478213","0.0-2.0-8.0-3.0","battery-v0.2","","""event"",""trial"",""time""
""fullscreenenter"",""1"",""20118""
","
","
","""event"",""trial"",""time""
""fullscreenenter"",""1"",""20118""
","
","","","602.3000000119209","","","19","13204","5477","&#9776;","elianto","#3366ff99"," "," ","1","0","[1452.800000011921]","1","0","1","","","","","","","",""
"pit-trial","24","481732","0.0-2.0-8.0-4.0","battery-v0.2","","""event"",""trial"",""time""
""fullscreenenter"",""1"",""20118""
","
","
","""event"",""trial"",""time""
""fullscreenenter"",""1"",""20118""
","
","","","657.8999999761581","","","19","13204","5477","&#9776;","elianto","#3366ff99"," "," ","1","+10","[1510.0999999642372]","1","0","1","","","","","","","",""
"pit-trial","25","485148","0.0-2.0-8.1-0.1","battery-v0.2","","""event"",""trial"",""time""
""fullscreenenter"",""1"",""20118""
","
","
","""event"",""trial"",""time""
""fullscreenenter"",""1"",""20118""
","
","","","554.5999999642372","","","19","13204","5477","&#9776;","elianto","#3366ff99"," "," ","1","+10","[1406.7000000476837]","1","0","1","","","","","","","",""
"pit-trial","26","488587","0.0-2.0-8.1-1.1","battery-v0.2","","""event"",""trial"",""time""
""fullscreenenter"",""1"",""20118""
","
","
","""event"",""trial"",""time""
""fullscreenenter"",""1"",""20118""
","
","","","580.5","","","19","13204","5477","&#9776;","elianto","#3366ff99"," "," ","1","+10","[1435.199999988079]","1","0","1","","","","","","","",""
"pit-trial","27","492062","0.0-2.0-8.1-2.1","battery-v0.2","","""event"",""trial"",""time""
""fullscreenenter"",""1"",""20118""
","
","
","""event"",""trial"",""time""
""fullscreenenter"",""1"",""20118""
","
","","","617.5","","","19","13204","5477","&#9776;","elianto","#3366ff99"," "," ","1","+10","[1468.699999988079]","1","0","1","","","","","","","",""
"pit-trial","28","495560","0.0-2.0-8.1-3.1","battery-v0.2","","""event"",""trial"",""time""
""fullscreenenter"",""1"",""20118""
","
","
","""event"",""trial"",""time""
""fullscreenenter"",""1"",""20118""
","
","","","635.3999999761581","","","19","13204","5477","&#9776;","elianto","#3366ff99"," "," ","1","0","[1488.6000000238419]","1","0","1","","","","","","","",""
"pit-trial","29","498996","0.0-2.0-8.1-4.1","battery-v0.2","","""event"",""trial"",""time""
""fullscreenenter"",""1"",""20118""
","
","
","""event"",""trial"",""time""
""fullscreenenter"",""1"",""20118""
","
","","","578.9000000357628","","","19","13204","5477","&#9776;","elianto","#3366ff99"," "," ","1","+10","[1431.5]","1","0","1","","","","","","","",""
"pit-trial","30","502388","0.0-2.0-8.2-0.2","battery-v0.2","","""event"",""trial"",""time""
""fullscreenenter"",""1"",""20118""
","
","
","""event"",""trial"",""time""
""fullscreenenter"",""1"",""20118""
","
","","","527.9000000357628","","","19","13204","5477","&#9776;","elianto","#3366ff99"," "," ","1","+10","[1380.3999999761581]","1","0","1","","","","","","","",""
"pit-trial","31","505800","0.0-2.0-8.2-1.2","battery-v0.2","","""event"",""trial"",""time""
""fullscreenenter"",""1"",""20118""
","
","
","""event"",""trial"",""time""
""fullscreenenter"",""1"",""20118""
","
","","","551","","","19","13204","5477","&#9776;","elianto","#3366ff99"," "," ","1","+10","[1402.800000011921]","1","0","1","","","","","","","",""
"pit-trial","32","509242","0.0-2.0-8.2-2.2","battery-v0.2","","""event"",""trial"",""time""
""fullscreenenter"",""1"",""20118""
","
","
","""event"",""trial"",""time""
""fullscreenenter"",""1"",""20118""
","
","","","584.0999999642372","","","19","13204","5477","&#9776;","elianto","#3366ff99"," "," ","1","+10","[1435.5]","1","0","1","","","","","","","",""
"pit-trial","33","512696","0.0-2.0-8.2-3.2","battery-v0.2","","""event"",""trial"",""time""
""fullscreenenter"",""1"",""20118""
","
","
","""event"",""trial"",""time""
""fullscreenenter"",""1"",""20118""
","
","","","594.8999999761581","","","19","13204","5477","&#9776;","elianto","#3366ff99"," "," ","1","0","[1447.699999988079]","1","0","1","","","","","","","",""
"pit-trial","34","516279","0.0-2.0-8.2-4.2","battery-v0.2","","""event"",""trial"",""time""
""fullscreenenter"",""1"",""20118""
","
","
","""event"",""trial"",""time""
""fullscreenenter"",""1"",""20118""
","
","","","721.1999999880791","","","19","13204","5477","&#9776;","elianto","#3366ff99"," "," ","1","+10","[1574]","1","0","1","","","","","","","",""
"call-function","35","516283","0.0-2.0-9.0","battery-v0.2","","""event"",""trial"",""time""
""fullscreenenter"",""1"",""20118""
","
","
","""event"",""trial"",""time""
""fullscreenenter"",""1"",""20118""
","
","","","","","","","","","","","","","","","","","","","","","","","","","","",""
"pit-instructions","36","565473","0.0-2.0-10.0","battery-v0.2","","""event"",""trial"",""time""
""fullscreenenter"",""1"",""20118""
","
","
","""event"",""trial"",""time""
""fullscreenenter"",""1"",""20118""
","
","","[{""page_index"":0,""viewing_time"":10073.399999976158},{""page_index"":1,""viewing_time"":7812},{""page_index"":2,""viewing_time"":10871.100000023842},{""page_index"":3,""viewing_time"":11350},{""page_index"":4,""viewing_time"":9081.399999976158}]","49188.5","","","","","","","","","","","","","","","","","","","","","","","",""
"pit-trial","37","569003","0.0-2.0-11.0-0.0","battery-v0.2","","""event"",""trial"",""time""
""fullscreenenter"",""1"",""20118""
","
","
","""event"",""trial"",""time""
""fullscreenenter"",""1"",""20118""
","
","","","671.3000000119209","","","19","13204","5477","&#9761;","elianto","#3366ff99","-1"," ","0","0","[1522.2000000476837]","1","0","2","","","","","","","",""
"pit-trial","38","573862","0.0-2.0-11.0-1.0","battery-v0.2","","""event"",""trial"",""time""
""fullscreenenter"",""1"",""20118""
","
","
","""event"",""trial"",""time""
""fullscreenenter"",""1"",""20118""
","
","","","-1","","","19","13204","5477","&#9761;","elianto","#3366ff99","-1","-1","1","+10","[]","0","0","2","","","","","","","",""
"pit-trial","39","578723","0.0-2.0-11.0-2.0","battery-v0.2","","""event"",""trial"",""time""
""fullscreenenter"",""1"",""20118""
","
","
","""event"",""trial"",""time""
""fullscreenenter"",""1"",""20118""
","
","","","-1","","","19","13204","5477","&#9761;","elianto","#3366ff99","-1","-1","1","+10","[]","0","0","2","","","","","","","",""
"pit-trial","40","583587","0.0-2.0-11.0-3.0","battery-v0.2","","""event"",""trial"",""time""
""fullscreenenter"",""1"",""20118""
","
","
","""event"",""trial"",""time""
""fullscreenenter"",""1"",""20118""
","
","","","-1","","","19","13204","5477","&#9761;","elianto","#3366ff99","-1","-1","1","0","[]","0","0","2","","","","","","","",""
"pit-trial","41","588452","0.0-2.0-11.0-4.0","battery-v0.2","","""event"",""trial"",""time""
""fullscreenenter"",""1"",""20118""
","
","
","""event"",""trial"",""time""
""fullscreenenter"",""1"",""20118""
","
","","","-1","","","19","13204","5477","&#9761;","elianto","#3366ff99","-1","-1","1","+10","[]","0","0","2","","","","","","","",""
"pit-trial","42","593316","0.0-2.0-11.1-0.1","battery-v0.2","","""event"",""trial"",""time""
""fullscreenenter"",""1"",""20118""
","
","
","""event"",""trial"",""time""
""fullscreenenter"",""1"",""20118""
","
","","","-1","","","19","13204","5477","&#9761;","elianto","#3366ff99","-1","-1","1","+10","[]","0","0","2","","","","","","","",""
"pit-trial","43","598178","0.0-2.0-11.1-1.1","battery-v0.2","","""event"",""trial"",""time""
""fullscreenenter"",""1"",""20118""
","
","
","""event"",""trial"",""time""
""fullscreenenter"",""1"",""20118""
","
","","","-1","","","19","13204","5477","&#9761;","elianto","#3366ff99","-1","-1","1","+10","[]","0","0","2","","","","","","","",""
"pit-trial","44","603043","0.0-2.0-11.1-2.1","battery-v0.2","","""event"",""trial"",""time""
""fullscreenenter"",""1"",""20118""
","
","
","""event"",""trial"",""time""
""fullscreenenter"",""1"",""20118""
","
","","","-1","","","19","13204","5477","&#9761;","elianto","#3366ff99","-1","-1","1","+10","[]","0","0","2","","","","","","","",""
"pit-trial","45","607908","0.0-2.0-11.1-3.1","battery-v0.2","","""event"",""trial"",""time""
""fullscreenenter"",""1"",""20118""
","
","
","""event"",""trial"",""time""
""fullscreenenter"",""1"",""20118""
","
","","","-1","","","19","13204","5477","&#9761;","elianto","#3366ff99","-1","-1","1","0","[]","0","0","2","","","","","","","",""
"pit-trial","46","612769","0.0-2.0-11.1-4.1","battery-v0.2","","""event"",""trial"",""time""
""fullscreenenter"",""1"",""20118""
","
","
","""event"",""trial"",""time""
""fullscreenenter"",""1"",""20118""
","
","","","-1","","","19","13204","5477","&#9761;","elianto","#3366ff99","-1","-1","1","+10","[]","0","0","2","","","","","","","",""
"pit-trial","47","617634","0.0-2.0-11.2-0.2","battery-v0.2","","""event"",""trial"",""time""
""fullscreenenter"",""1"",""20118""
","
","
","""event"",""trial"",""time""
""fullscreenenter"",""1"",""20118""
","
","","","-1","","","19","13204","5477","&#9761;","elianto","#3366ff99","-1","-1","1","+10","[]","0","0","2","","","","","","","",""
"pit-trial","48","622499","0.0-2.0-11.2-1.2","battery-v0.2","","""event"",""trial"",""time""
""fullscreenenter"",""1"",""20118""
","
","
","""event"",""trial"",""time""
""fullscreenenter"",""1"",""20118""
","
","","","-1","","","19","13204","5477","&#9761;","elianto","#3366ff99","-1","-1","1","+10","[]","0","0","2","","","","","","","",""
"pit-trial","49","627362","0.0-2.0-11.2-2.2","battery-v0.2","","""event"",""trial"",""time""
""fullscreenenter"",""1"",""20118""
","
","
","""event"",""trial"",""time""
""fullscreenenter"",""1"",""20118""
","
","","","-1","","","19","13204","5477","&#9761;","elianto","#3366ff99","-1","-1","1","+10","[]","0","0","2","","","","","","","",""
"pit-trial","50","632227","0.0-2.0-11.2-3.2","battery-v0.2","","""event"",""trial"",""time""
""fullscreenenter"",""1"",""20118""
","
","
","""event"",""trial"",""time""
""fullscreenenter"",""1"",""20118""
","
","","","-1","","","19","13204","5477","&#9761;","elianto","#3366ff99","-1","-1","1","0","[]","0","0","2","","","","","","","",""
"pit-trial","51","637087","0.0-2.0-11.2-4.2","battery-v0.2","","""event"",""trial"",""time""
""fullscreenenter"",""1"",""20118""
","
","
","""event"",""trial"",""time""
""fullscreenenter"",""1"",""20118""
","
","","","-1","","","19","13204","5477","&#9761;","elianto","#3366ff99","-1","-1","1","+10","[]","0","0","2","","","","","","","",""
"pit-trial","52","641954","0.0-2.0-11.3-0.3","battery-v0.2","","""event"",""trial"",""time""
""fullscreenenter"",""1"",""20118""
","
","
","""event"",""trial"",""time""
""fullscreenenter"",""1"",""20118""
","
","","","-1","","","19","13204","5477","&#9761;","elianto","#3366ff99","-1","-1","1","+10","[]","0","0","2","","","","","","","",""
"pit-trial","53","646816","0.0-2.0-11.3-1.3","battery-v0.2","","""event"",""trial"",""time""
""fullscreenenter"",""1"",""20118""
","
","
","""event"",""trial"",""time""
""fullscreenenter"",""1"",""20118""
","
","","","-1","","","19","13204","5477","&#9761;","elianto","#3366ff99","-1","-1","1","+10","[]","0","0","2","","","","","","","",""
"pit-trial","54","651679","0.0-2.0-11.3-2.3","battery-v0.2","","""event"",""trial"",""time""
""fullscreenenter"",""1"",""20118""
","
","
","""event"",""trial"",""time""
""fullscreenenter"",""1"",""20118""
","
","","","-1","","","19","13204","5477","&#9761;","elianto","#3366ff99","-1","-1","1","+10","[]","0","0","2","","","","","","","",""
"pit-trial","55","656543","0.0-2.0-11.3-3.3","battery-v0.2","","""event"",""trial"",""time""
""fullscreenenter"",""1"",""20118""
","
","
","""event"",""trial"",""time""
""fullscreenenter"",""1"",""20118""
","
","","","-1","","","19","13204","5477","&#9761;","elianto","#3366ff99","-1","-1","1","0","[]","0","0","2","","","","","","","",""
"pit-trial","56","661409","0.0-2.0-11.3-4.3","battery-v0.2","","""event"",""trial"",""time""
""fullscreenenter"",""1"",""20118""
","
","
","""event"",""trial"",""time""
""fullscreenenter"",""1"",""20118""
","
","","","-1","","","19","13204","5477","&#9761;","elianto","#3366ff99","-1","-1","1","+10","[]","0","0","2","","","","","","","",""
"call-function","57","661412","0.0-2.0-12.0","battery-v0.2","","""event"",""trial"",""time""
""fullscreenenter"",""1"",""20118""
","
","
","""event"",""trial"",""time""
""fullscreenenter"",""1"",""20118""
","
","","","","","","","","","","","","","","","","","","","","","","","","","","",""
"pit-instructions","58","697975","0.0-2.0-13.0","battery-v0.2","","""event"",""trial"",""time""
""fullscreenenter"",""1"",""20118""
","
","
","""event"",""trial"",""time""
""fullscreenenter"",""1"",""20118""
","
","","[{""page_index"":0,""viewing_time"":8294.300000011921},{""page_index"":1,""viewing_time"":8567.199999988079},{""page_index"":2,""viewing_time"":3899.699999988079},{""page_index"":3,""viewing_time"":10583.800000011921},{""page_index"":4,""viewing_time"":5216.699999988079}]","36562.30000001192","","","","","","","","","","","","","","","","","","","","","","","",""
"pit-trial","59","701540","0.0-2.0-14.0-0.0","battery-v0.2","","""event"",""trial"",""time""
""fullscreenenter"",""1"",""20118""
","
","
","""event"",""trial"",""time""
""fullscreenenter"",""1"",""20118""
","
","","","708.3000000119209","","","19","13204","5477","&#9826;","elianto","#f73b6a7A","-1"," ","0","-10","[1559.699999988079]","1","0","3","","","","","","","",""
"pit-trial","60","704743","0.0-2.0-14.0-1.0","battery-v0.2","","""event"",""trial"",""time""
""fullscreenenter"",""1"",""20118""
","
","
","""event"",""trial"",""time""
""fullscreenenter"",""1"",""20118""
","
","","","343.30000001192093","","","19","13204","5477","&#9826;","elianto","#f73b6a7A","-1"," ","0","-10","[1193.8999999761581]","1","0","3","","","","","","","",""
"pit-trial","61","709607","0.0-2.0-14.0-2.0","battery-v0.2","","""event"",""trial"",""time""
""fullscreenenter"",""1"",""20118""
","
","
","""event"",""trial"",""time""
""fullscreenenter"",""1"",""20118""
","
","","","-1","","","19","13204","5477","&#9826;","elianto","#f73b6a7A","-1","-1","1","0","[]","0","0","3","","","","","","","",""
"pit-trial","62","714466","0.0-2.0-14.0-3.0","battery-v0.2","","""event"",""trial"",""time""
""fullscreenenter"",""1"",""20118""
","
","
","""event"",""trial"",""time""
""fullscreenenter"",""1"",""20118""
","
","","","-1","","","19","13204","5477","&#9826;","elianto","#f73b6a7A","-1","-1","1","-10","[]","0","0","3","","","","","","","",""
"pit-trial","63","719330","0.0-2.0-14.0-4.0","battery-v0.2","","""event"",""trial"",""time""
""fullscreenenter"",""1"",""20118""
","
","
","""event"",""trial"",""time""
""fullscreenenter"",""1"",""20118""
","
","","","-1","","","19","13204","5477","&#9826;","elianto","#f73b6a7A","-1","-1","1","0","[]","0","0","3","","","","","","","",""
"pit-trial","64","723141","0.0-2.0-14.1-0.1","battery-v0.2","","""event"",""trial"",""time""
""fullscreenenter"",""1"",""20118""
","
","
","""event"",""trial"",""time""
""fullscreenenter"",""1"",""20118""
","
","","","947.2999999523163","","","19","13204","5477","&#9826;","elianto","#f73b6a7A","-1"," ","0","-10","[1801]","1","0","3","","","","","","","",""
"pit-trial","65","728002","0.0-2.0-14.1-1.1","battery-v0.2","","""event"",""trial"",""time""
""fullscreenenter"",""1"",""20118""
","
","
","""event"",""trial"",""time""
""fullscreenenter"",""1"",""20118""
","
","","","-1","","","19","13204","5477","&#9826;","elianto","#f73b6a7A","-1","-1","1","0","[]","0","0","3","","","","","","","",""
"pit-trial","66","731915","0.0-2.0-14.1-2.1","battery-v0.2","","""event"",""trial"",""time""
""fullscreenenter"",""1"",""20118""
","
","
","""event"",""trial"",""time""
""fullscreenenter"",""1"",""20118""
","
","","","1056.800000011921","","","19","13204","5477","&#9826;","elianto","#f73b6a7A","-1"," ","0","-10","[1907.6000000238419]","1","0","3","","","","","","","",""
"pit-trial","67","736780","0.0-2.0-14.1-3.1","battery-v0.2","","""event"",""trial"",""time""
""fullscreenenter"",""1"",""20118""
","
","
","""event"",""trial"",""time""
""fullscreenenter"",""1"",""20118""
","
","","","-1","","","19","13204","5477","&#9826;","elianto","#f73b6a7A","-1","-1","1","-10","[]","0","0","3","","","","","","","",""
"pit-trial","68","741645","0.0-2.0-14.1-4.1","battery-v0.2","","""event"",""trial"",""time""
""fullscreenenter"",""1"",""20118""
","
","
","""event"",""trial"",""time""
""fullscreenenter"",""1"",""20118""
","
","","","-1","","","19","13204","5477","&#9826;","elianto","#f73b6a7A","-1","-1","1","0","[]","0","0","3","","","","","","","",""
"pit-trial","69","746503","0.0-2.0-14.2-0.2","battery-v0.2","","""event"",""trial"",""time""
""fullscreenenter"",""1"",""20118""
","
","
","""event"",""trial"",""time""
""fullscreenenter"",""1"",""20118""
","
","","","-1","","","19","13204","5477","&#9826;","elianto","#f73b6a7A","-1","-1","1","0","[]","0","0","3","","","","","","","",""
"pit-trial","70","751367","0.0-2.0-14.2-1.2","battery-v0.2","","""event"",""trial"",""time""
""fullscreenenter"",""1"",""20118""
","
","
","""event"",""trial"",""time""
""fullscreenenter"",""1"",""20118""
","
","","","-1","","","19","13204","5477","&#9826;","elianto","#f73b6a7A","-1","-1","1","0","[]","0","0","3","","","","","","","",""
"pit-trial","71","756226","0.0-2.0-14.2-2.2","battery-v0.2","","""event"",""trial"",""time""
""fullscreenenter"",""1"",""20118""
","
","
","""event"",""trial"",""time""
""fullscreenenter"",""1"",""20118""
","
","","","-1","","","19","13204","5477","&#9826;","elianto","#f73b6a7A","-1","-1","1","0","[]","0","0","3","","","","","","","",""
"pit-trial","72","761086","0.0-2.0-14.2-3.2","battery-v0.2","","""event"",""trial"",""time""
""fullscreenenter"",""1"",""20118""
","
","
","""event"",""trial"",""time""
""fullscreenenter"",""1"",""20118""
","
","","","-1","","","19","13204","5477","&#9826;","elianto","#f73b6a7A","-1","-1","1","-10","[]","0","0","3","","","","","","","",""
"pit-trial","73","765944","0.0-2.0-14.2-4.2","battery-v0.2","","""event"",""trial"",""time""
""fullscreenenter"",""1"",""20118""
","
","
","""event"",""trial"",""time""
""fullscreenenter"",""1"",""20118""
","
","","","-1","","","19","13204","5477","&#9826;","elianto","#f73b6a7A","-1","-1","1","0","[]","0","0","3","","","","","","","",""
"pit-trial","74","770809","0.0-2.0-14.3-0.3","battery-v0.2","","""event"",""trial"",""time""
""fullscreenenter"",""1"",""20118""
","
","
","""event"",""trial"",""time""
""fullscreenenter"",""1"",""20118""
","
","","","-1","","","19","13204","5477","&#9826;","elianto","#f73b6a7A","-1","-1","1","0","[]","0","0","3","","","","","","","",""
"pit-trial","75","775667","0.0-2.0-14.3-1.3","battery-v0.2","","""event"",""trial"",""time""
""fullscreenenter"",""1"",""20118""
","
","
","""event"",""trial"",""time""
""fullscreenenter"",""1"",""20118""
","
","","","-1","","","19","13204","5477","&#9826;","elianto","#f73b6a7A","-1","-1","1","0","[]","0","0","3","","","","","","","",""
"pit-trial","76","780529","0.0-2.0-14.3-2.3","battery-v0.2","","""event"",""trial"",""time""
""fullscreenenter"",""1"",""20118""
","
","
","""event"",""trial"",""time""
""fullscreenenter"",""1"",""20118""
","
","","","-1","","","19","13204","5477","&#9826;","elianto","#f73b6a7A","-1","-1","1","0","[]","0","0","3","","","","","","","",""
"pit-trial","77","785393","0.0-2.0-14.3-3.3","battery-v0.2","","""event"",""trial"",""time""
""fullscreenenter"",""1"",""20118""
","
","
","""event"",""trial"",""time""
""fullscreenenter"",""1"",""20118""
","
","","","-1","","","19","13204","5477","&#9826;","elianto","#f73b6a7A","-1","-1","1","-10","[]","0","0","3","","","","","","","",""
"pit-trial","78","790255","0.0-2.0-14.3-4.3","battery-v0.2","","""event"",""trial"",""time""
""fullscreenenter"",""1"",""20118""
","
","
","""event"",""trial"",""time""
""fullscreenenter"",""1"",""20118""
","
","","","-1","","","19","13204","5477","&#9826;","elianto","#f73b6a7A","-1","-1","1","0","[]","0","0","3","","","","","","","",""
"call-function","79","790259","0.0-2.0-15.0","battery-v0.2","","""event"",""trial"",""time""
""fullscreenenter"",""1"",""20118""
","
","
","""event"",""trial"",""time""
""fullscreenenter"",""1"",""20118""
","
","","","","","","","","","","","","","","","","","","","","","","","","","","",""
"pit-instructions","80","818792","0.0-2.0-16.0","battery-v0.2","","""event"",""trial"",""time""
""fullscreenenter"",""1"",""20118""
","
","
","""event"",""trial"",""time""
""fullscreenenter"",""1"",""20118""
","
","","[{""page_index"":0,""viewing_time"":7733},{""page_index"":1,""viewing_time"":10016.100000023842},{""page_index"":2,""viewing_time"":5282.699999988079},{""page_index"":3,""viewing_time"":5500}]","28532.400000035763","","","","","","","","","","","","","","","","","","","","","","","",""
"pit-trial","81","822273","0.0-2.0-17.0-0.0","battery-v0.2","","""event"",""trial"",""time""
""fullscreenenter"",""1"",""20118""
","
","
","""event"",""trial"",""time""
""fullscreenenter"",""1"",""20118""
","
","","","623.1999999880791","","","19","13204","5477","&#9789;","elianto","#f73b6a7A"," "," ","1","0","[1474.5999999642372]","1","0","4","","","","","","","",""
"pit-trial","82","825567","0.0-2.0-17.0-1.0","battery-v0.2","","""event"",""trial"",""time""
""fullscreenenter"",""1"",""20118""
","
","
","""event"",""trial"",""time""
""fullscreenenter"",""1"",""20118""
","
","","","433.10000002384186","","","19","13204","5477","&#9789;","elianto","#f73b6a7A"," "," ","1","0","[1284.7999999523163]","1","0","4","","","","","","","",""
"pit-trial","83","828795","0.0-2.0-17.0-2.0","battery-v0.2","","""event"",""trial"",""time""
""fullscreenenter"",""1"",""20118""
","
","
","""event"",""trial"",""time""
""fullscreenenter"",""1"",""20118""
","
","","","366.69999998807907","","","19","13204","5477","&#9789;","elianto","#f73b6a7A"," "," ","1","0","[1220.0999999642372]","1","0","4","","","","","","","",""
"pit-trial","84","833660","0.0-2.0-17.0-3.0","battery-v0.2","","""event"",""trial"",""time""
""fullscreenenter"",""1"",""20118""
","
","
","""event"",""trial"",""time""
""fullscreenenter"",""1"",""20118""
","
","","","-1","","","19","13204","5477","&#9789;","elianto","#f73b6a7A"," ","-1","0","0","[]","0","0","4","","","","","","","",""
"pit-trial","85","837201","0.0-2.0-17.0-4.0","battery-v0.2","","""event"",""trial"",""time""
""fullscreenenter"",""1"",""20118""
","
","
","""event"",""trial"",""time""
""fullscreenenter"",""1"",""20118""
","
","","","683.3999999761581","","","19","13204","5477","&#9789;","elianto","#f73b6a7A"," "," ","1","0","[1534.800000011921]","1","0","4","","","","","","","",""
"pit-trial","86","840703","0.0-2.0-17.1-0.1","battery-v0.2","","""event"",""trial"",""time""
""fullscreenenter"",""1"",""20118""
","
","
","""event"",""trial"",""time""
""fullscreenenter"",""1"",""20118""
","
","","","640.6000000238419","","","19","13204","5477","&#9789;","elianto","#f73b6a7A"," "," ","1","0","[1491.5]","1","0","4","","","","","","","",""
"pit-trial","87","844306","0.0-2.0-17.1-1.1","battery-v0.2","","""event"",""trial"",""time""
""fullscreenenter"",""1"",""20118""
","
","
","""event"",""trial"",""time""
""fullscreenenter"",""1"",""20118""
","
","","","742.6000000238419","","","19","13204","5477","&#9789;","elianto","#f73b6a7A"," "," ","1","0","[1593.1000000238419]","1","0","4","","","","","","","",""
"pit-trial","88","848186","0.0-2.0-17.1-2.1","battery-v0.2","","""event"",""trial"",""time""
""fullscreenenter"",""1"",""20118""
","
","
","""event"",""trial"",""time""
""fullscreenenter"",""1"",""20118""
","
","","","1023","","","19","13204","5477","&#9789;","elianto","#f73b6a7A"," "," ","1","0","[1873.5]","1","0","4","","","","","","","",""
"pit-trial","89","851900","0.0-2.0-17.1-3.1","battery-v0.2","","""event"",""trial"",""time""
""fullscreenenter"",""1"",""20118""
","
","
","""event"",""trial"",""time""
""fullscreenenter"",""1"",""20118""
","
","","","853.7999999523163","","","19","13204","5477","&#9789;","elianto","#f73b6a7A"," "," ","1","-10","[1705.300000011921]","1","0","4","","","","","","","",""
"pit-trial","90","855519","0.0-2.0-17.1-4.1","battery-v0.2","","""event"",""trial"",""time""
""fullscreenenter"",""1"",""20118""
","
","
","""event"",""trial"",""time""
""fullscreenenter"",""1"",""20118""
","
","","","757.6000000238419","","","19","13204","5477","&#9789;","elianto","#f73b6a7A"," "," ","1","0","[1610.699999988079]","1","0","4","","","","","","","",""
"pit-trial","91","859153","0.0-2.0-17.2-0.2","battery-v0.2","","""event"",""trial"",""time""
""fullscreenenter"",""1"",""20118""
","
","
","""event"",""trial"",""time""
""fullscreenenter"",""1"",""20118""
","
","","","773.8999999761581","","","19","13204","5477","&#9789;","elianto","#f73b6a7A"," "," ","1","0","[1625.6000000238419]","1","0","4","","","","","","","",""
"pit-trial","92","862680","0.0-2.0-17.2-1.2","battery-v0.2","","""event"",""trial"",""time""
""fullscreenenter"",""1"",""20118""
","
","
","""event"",""trial"",""time""
""fullscreenenter"",""1"",""20118""
","
","","","667.8000000119209","","","19","13204","5477","&#9789;","elianto","#f73b6a7A"," "," ","1","0","[1518.7999999523163]","1","0","4","","","","","","","",""
"pit-trial","93","866225","0.0-2.0-17.2-2.2","battery-v0.2","","""event"",""trial"",""time""
""fullscreenenter"",""1"",""20118""
","
","
","""event"",""trial"",""time""
""fullscreenenter"",""1"",""20118""
","
","","","684.5","","","19","13204","5477","&#9789;","elianto","#f73b6a7A"," "," ","1","0","[1535.5]","1","0","4","","","","","","","",""
"pit-trial","94","871086","0.0-2.0-17.2-3.2","battery-v0.2","","""event"",""trial"",""time""
""fullscreenenter"",""1"",""20118""
","
","
","""event"",""trial"",""time""
""fullscreenenter"",""1"",""20118""
","
","","","-1","","","19","13204","5477","&#9789;","elianto","#f73b6a7A"," ","-1","0","0","[]","0","0","4","","","","","","","",""
"pit-trial","95","874831","0.0-2.0-17.2-4.2","battery-v0.2","","""event"",""trial"",""time""
""fullscreenenter"",""1"",""20118""
","
","
","""event"",""trial"",""time""
""fullscreenenter"",""1"",""20118""
","
","","","887","","","19","13204","5477","&#9789;","elianto","#f73b6a7A"," "," ","1","0","[1737.8999999761581]","1","0","4","","","","","","","",""
"pit-trial","96","878419","0.0-2.0-17.3-0.3","battery-v0.2","","""event"",""trial"",""time""
""fullscreenenter"",""1"",""20118""
","
","
","""event"",""trial"",""time""
""fullscreenenter"",""1"",""20118""
","
","","","725.1999999880791","","","19","13204","5477","&#9789;","elianto","#f73b6a7A"," "," ","1","0","[1577.5]","1","0","4","","","","","","","",""
"pit-trial","97","881834","0.0-2.0-17.3-1.3","battery-v0.2","","""event"",""trial"",""time""
""fullscreenenter"",""1"",""20118""
","
","
","""event"",""trial"",""time""
""fullscreenenter"",""1"",""20118""
","
","","","555.8000000119209","","","19","13204","5477","&#9789;","elianto","#f73b6a7A"," "," ","1","0","[1406.1000000238419]","1","0","4","","","","","","","",""
"pit-trial","98","885279","0.0-2.0-17.3-2.3","battery-v0.2","","""event"",""trial"",""time""
""fullscreenenter"",""1"",""20118""
","
","
","""event"",""trial"",""time""
""fullscreenenter"",""1"",""20118""
","
","","","586.6999999880791","","","19","13204","5477","&#9789;","elianto","#f73b6a7A"," "," ","1","0","[1438.699999988079]","1","0","4","","","","","","","",""
"pit-trial","99","888692","0.0-2.0-17.3-3.3","battery-v0.2","","""event"",""trial"",""time""
""fullscreenenter"",""1"",""20118""
","
","
","""event"",""trial"",""time""
""fullscreenenter"",""1"",""20118""
","
","","","555.0999999642372","","","19","13204","5477","&#9789;","elianto","#f73b6a7A"," "," ","1","-10","[1405.7999999523163]","1","0","4","","","","","","","",""
"pit-trial","100","892117","0.0-2.0-17.3-4.3","battery-v0.2","","""event"",""trial"",""time""
""fullscreenenter"",""1"",""20118""
","
","
","""event"",""trial"",""time""
""fullscreenenter"",""1"",""20118""
","
","","","564.6999999880791","","","19","13204","5477","&#9789;","elianto","#f73b6a7A"," "," ","1","0","[1416.8999999761581]","1","0","4","","","","","","","",""
"call-function","101","892121","0.0-2.0-18.0","battery-v0.2","","""event"",""trial"",""time""
""fullscreenenter"",""1"",""20118""
","
","
","""event"",""trial"",""time""
""fullscreenenter"",""1"",""20118""
","
","","","","","","","","","","","","","","","","","","","","","","","","","","",""
"pit-instructions","102","972626","0.0-2.0-19.0","battery-v0.2","","""event"",""trial"",""time""
""fullscreenenter"",""1"",""20118""
","
","
","""event"",""trial"",""time""
""fullscreenenter"",""1"",""20118""
","
","","[{""page_index"":0,""viewing_time"":6868.199999988079},{""page_index"":1,""viewing_time"":7718.100000023842},{""page_index"":2,""viewing_time"":14550.5},{""page_index"":3,""viewing_time"":11769.600000023842},{""page_index"":4,""viewing_time"":9145.5},{""page_index"":5,""viewing_time"":9435.299999952316},{""page_index"":6,""viewing_time"":8816},{""page_index"":7,""viewing_time"":7216.600000023842},{""page_index"":8,""viewing_time"":4983.699999988079}]","80504.19999998808","","","","","","","","","","","","","","","","","","","","","","","",""
"pit-comprehension","103","977976","0.0-2.0-20.0-0.0","battery-v0.2","","""event"",""trial"",""time""
""fullscreenenter"",""1"",""20118""
","
","
","""event"",""trial"",""time""
""fullscreenenter"",""1"",""20118""
","
","","","5343.300000011921","[""SPACE""]","0","19","13204","5477","","","","","","","","","","","","","","","","","","",""
"pit-instructions","104","980826","0.0-2.0-20.0-1.0","battery-v0.2","","""event"",""trial"",""time""
""fullscreenenter"",""1"",""20118""
","
","
","""event"",""trial"",""time""
""fullscreenenter"",""1"",""20118""
","
","","[{""page_index"":0,""viewing_time"":2823.800000011921}]","2824.5","","","","","","","","","","","","","","","","","","","","","","","",""
"pit-comprehension","105","989160","0.0-2.0-21.0-0.0","battery-v0.2","","""event"",""trial"",""time""
""fullscreenenter"",""1"",""20118""
","
","
","""event"",""trial"",""time""
""fullscreenenter"",""1"",""20118""
","
","","","8329.300000011921","[""10""]","0","19","13204","5477","","","","","","","","","","","","","","","","","","",""
"pit-instructions","106","994726","0.0-2.0-21.0-1.0","battery-v0.2","","""event"",""trial"",""time""
""fullscreenenter"",""1"",""20118""
","
","
","""event"",""trial"",""time""
""fullscreenenter"",""1"",""20118""
","
","","[{""page_index"":0,""viewing_time"":5532.399999976158}]","5533","","","","","","","","","","","","","","","","","","","","","","","",""
"pit-comprehension","107","1002127","0.0-2.0-22.0-0.0","battery-v0.2","","""event"",""trial"",""time""
""fullscreenenter"",""1"",""20118""
","
","
","""event"",""trial"",""time""
""fullscreenenter"",""1"",""20118""
","
","","","7396.699999988079","[""0""]","0","19","13204","5477","","","","","","","","","","","","","","","","","","",""
"pit-instructions","108","1007126","0.0-2.0-22.0-1.0","battery-v0.2","","""event"",""trial"",""time""
""fullscreenenter"",""1"",""20118""
","
","
","""event"",""trial"",""time""
""fullscreenenter"",""1"",""20118""
","
","","[{""page_index"":0,""viewing_time"":4965.899999976158}]","4966.5","","","","","","","","","","","","","","","","","","","","","","","",""
"pit-comprehension","109","1024927","0.0-2.0-23.0-0.0","battery-v0.2","","""event"",""trial"",""time""
""fullscreenenter"",""1"",""20118""
","
","
","""event"",""trial"",""time""
""fullscreenenter"",""1"",""20118""
","
","","","17796.69999998808","[""True""]","0","19","13204","5477","","","","","","","","","","","","","","","","","","",""
"pit-instructions","110","1026825","0.0-2.0-23.0-1.0","battery-v0.2","","""event"",""trial"",""time""
""fullscreenenter"",""1"",""20118""
","
","
","""event"",""trial"",""time""
""fullscreenenter"",""1"",""20118""
","
","","[{""page_index"":0,""viewing_time"":1867}]","1867.4000000357628","","","","","","","","","","","","","","","","","","","","","","","",""
"pit-comprehension","111","1035560","0.0-2.0-24.0-0.0","battery-v0.2","","""event"",""trial"",""time""
""fullscreenenter"",""1"",""20118""
","
","
","""event"",""trial"",""time""
""fullscreenenter"",""1"",""20118""
","
","","","8731.699999988079","[""True""]","0","19","13204","5477","","","","","","","","","","","","","","","","","","",""
"pit-instructions","112","1038010","0.0-2.0-24.0-1.0","battery-v0.2","","""event"",""trial"",""time""
""fullscreenenter"",""1"",""20118""
","
","
","""event"",""trial"",""time""
""fullscreenenter"",""1"",""20118""
","
","","[{""page_index"":0,""viewing_time"":2418.300000011921}]","2419.100000023842","","","","","","","","","","","","","","","","","","","","","","","",""
"pit-comprehension","113","1045744","0.0-2.0-25.0-0.0","battery-v0.2","","""event"",""trial"",""time""
""fullscreenenter"",""1"",""20118""
","
","
","""event"",""trial"",""time""
""fullscreenenter"",""1"",""20118""
","
","","","7728.899999976158","[""True""]","0","19","13204","5477","","","","","","","","","","","","","","","","","","",""
"pit-instructions","114","1049842","0.0-2.0-25.0-1.0","battery-v0.2","","""event"",""trial"",""time""
""fullscreenenter"",""1"",""20118""
","
","
","""event"",""trial"",""time""
""fullscreenenter"",""1"",""20118""
","
","","[{""page_index"":0,""viewing_time"":4066.300000011921}]","4066.800000011921","","","","","","","","","","","","","","","","","","","","","","","",""
"pit-comprehension","115","1056228","0.0-2.0-26.0-0.0","battery-v0.2","","""event"",""trial"",""time""
""fullscreenenter"",""1"",""20118""
","
","
","""event"",""trial"",""time""
""fullscreenenter"",""1"",""20118""
","
","","","6380.399999976158","[""False""]","0","19","13204","5477","","","","","","","","","","","","","","","","","","",""
"pit-instructions","116","1059293","0.0-2.0-26.0-1.0","battery-v0.2","","""event"",""trial"",""time""
""fullscreenenter"",""1"",""20118""
","
","
","""event"",""trial"",""time""
""fullscreenenter"",""1"",""20118""
","
","","[{""page_index"":0,""viewing_time"":3034}]","3034.5","","","","","","","","","","","","","","","","","","","","","","","",""
"pit-instructions","117","1081293","0.0-3.0","battery-v0.2","","""event"",""trial"",""time""
""fullscreenenter"",""1"",""20118""
","
","
","""event"",""trial"",""time""
""fullscreenenter"",""1"",""20118""
","
","","[{""page_index"":0,""viewing_time"":8645.699999988079},{""page_index"":1,""viewing_time"":5300.800000011921},{""page_index"":2,""viewing_time"":8050.399999976158}]","21997.5","","","","","","","","","","","","","","","","","","","","","","","",""
"pit-trial","118","1084795","0.0-4.0","battery-v0.2","","""event"",""trial"",""time""
""fullscreenenter"",""1"",""20118""
","
","
","""event"",""trial"",""time""
""fullscreenenter"",""1"",""20118""
","
","","","635.6000000238419","","","19","13204","5477","&#9728;","elianto","#f73b6a7A","-1"," ","0","0","[1488.800000011921]","1","1","","","13204","1","0","4","lose","no-go","1"
"pit-trial","119","1088320","0.0-5.0","battery-v0.2","","""event"",""trial"",""time""
""fullscreenenter"",""1"",""20118""
","
","
","""event"",""trial"",""time""
""fullscreenenter"",""1"",""20118""
","
","","","664.6000000238419","","","19","13204","5477","&#9733;","elianto","#3366ff99","-1"," ","0","0","[1517]","1","1","","","13204","2","2","2","win","no-go","0"
"pit-trial","120","1091762","0.0-6.0","battery-v0.2","","""event"",""trial"",""time""
""fullscreenenter"",""1"",""20118""
","
","
","""event"",""trial"",""time""
""fullscreenenter"",""1"",""20118""
","
","","","581.8000000119209","","","19","13204","5477","&#9752;","elianto","#f73b6a7A"," "," ","1","0","[1433.1000000238419]","1","1","","","13204","3","3","3","lose","go","0"
"pit-trial","121","1095425","0.0-7.0","battery-v0.2","","""event"",""trial"",""time""
""fullscreenenter"",""1"",""20118""
","
","
","""event"",""trial"",""time""
""fullscreenenter"",""1"",""20118""
","
","","","800","","","19","13204","5477","&#9730;","elianto","#3366ff99"," "," ","1","+10","[1653.300000011921]","1","1","","","13204","4","1","1","win","go","0"
"pit-trial","122","1098791","0.0-8.0","battery-v0.2","","""event"",""trial"",""time""
""fullscreenenter"",""1"",""20118""
","
","
","""event"",""trial"",""time""
""fullscreenenter"",""1"",""20118""
","
","","","504.9000000357628","","","19","13204","5477","&#9730;","elianto","#3366ff99"," "," ","1","+10","[1356.800000011921]","1","1","","","13204","5","1","1","win","go","0"
"pit-trial","123","1102432","0.0-9.0","battery-v0.2","","""event"",""trial"",""time""
""fullscreenenter"",""1"",""20118""
","
","
","""event"",""trial"",""time""
""fullscreenenter"",""1"",""20118""
","
","","","780.2000000476837","","","19","13204","5477","&#9733;","elianto","#3366ff99","-1"," ","0","0","[1632.199999988079]","1","1","","","13204","6","2","2","win","no-go","0"
"pit-trial","124","1106163","0.0-10.0","battery-v0.2","","""event"",""trial"",""time""
""fullscreenenter"",""1"",""20118""
","
","
","""event"",""trial"",""time""
""fullscreenenter"",""1"",""20118""
","
","","","869.1999999880791","","","19","13204","5477","&#9752;","elianto","#f73b6a7A"," "," ","1","0","[1722.5999999642372]","1","1","","","13204","7","3","3","lose","go","0"
"pit-trial","125","1109815","0.0-11.0","battery-v0.2","","""event"",""trial"",""time""
""fullscreenenter"",""1"",""20118""
","
","
","""event"",""trial"",""time""
""fullscreenenter"",""1"",""20118""
","
","","","790.5","","","19","13204","5477","&#9728;","elianto","#f73b6a7A","-1"," ","0","-10","[1642.800000011921]","1","1","","","13204","8","0","4","lose","no-go","0"
"pit-trial","126","1113365","0.0-12.0","battery-v0.2","","""event"",""trial"",""time""
""fullscreenenter"",""1"",""20118""
","
","
","""event"",""trial"",""time""
""fullscreenenter"",""1"",""20118""
","
","","","688.8999999761581","","","19","13204","5477","&#9730;","elianto","#3366ff99"," "," ","1","+10","[1541.0999999642372]","1","1","","","13204","9","1","1","win","go","0"
"pit-trial","127","1117064","0.0-13.0","battery-v0.2","","""event"",""trial"",""time""
""fullscreenenter"",""1"",""20118""
","
","
","""event"",""trial"",""time""
""fullscreenenter"",""1"",""20118""
","
","","","840.3000000119209","","","19","13204","5477","&#9733;","elianto","#3366ff99","-1"," ","0","0","[1694.5]","1","1","","","13204","10","2","2","win","no-go","0"
"pit-trial","128","1121024","0.0-14.0","battery-v0.2","","""event"",""trial"",""time""
""fullscreenenter"",""1"",""20118""
","
","
","""event"",""trial"",""time""
""fullscreenenter"",""1"",""20118""
","
","","","1103.1000000238419","","","19","13204","5477","&#9728;","elianto","#f73b6a7A","-1"," ","0","-10","[1955.1000000238419]","1","1","","","13204","11","0","4","lose","no-go","0"
"pit-trial","129","1125885","0.0-15.0","battery-v0.2","","""event"",""trial"",""time""
""fullscreenenter"",""1"",""20118""
","
","
","""event"",""trial"",""time""
""fullscreenenter"",""1"",""20118""
","
","","","-1","","","19","13204","5477","&#9752;","elianto","#f73b6a7A"," ","-1","0","-10","[]","0","1","","","13204","12","3","3","lose","go","0"
"pit-trial","130","1129877","0.0-16.0","battery-v0.2","","""event"",""trial"",""time""
""fullscreenenter"",""1"",""20118""
","
","
","""event"",""trial"",""time""
""fullscreenenter"",""1"",""20118""
","
","","","1131.6000000238419","","","19","13204","5477","&#9733;","elianto","#3366ff99","-1"," ","0","0","[1982.5]","1","1","","","13204","13","2","2","win","no-go","0"
"pit-trial","131","1133844","0.0-17.0","battery-v0.2","","""event"",""trial"",""time""
""fullscreenenter"",""1"",""20118""
","
","
","""event"",""trial"",""time""
""fullscreenenter"",""1"",""20118""
","
","","","1106.300000011921","","","19","13204","5477","&#9730;","elianto","#3366ff99"," "," ","1","+10","[1958.3999999761581]","1","1","","","13204","14","1","1","win","go","0"
"pit-trial","132","1138704","0.0-18.0","battery-v0.2","","""event"",""trial"",""time""
""fullscreenenter"",""1"",""20118""
","
","
","""event"",""trial"",""time""
""fullscreenenter"",""1"",""20118""
","
","","","-1","","","19","13204","5477","&#9752;","elianto","#f73b6a7A"," ","-1","0","-10","[]","0","1","","","13204","15","3","3","lose","go","0"
"pit-trial","133","1143570","0.0-19.0","battery-v0.2","","""event"",""trial"",""time""
""fullscreenenter"",""1"",""20118""
","
","
","""event"",""trial"",""time""
""fullscreenenter"",""1"",""20118""
","
","","","-1","","","19","13204","5477","&#9728;","elianto","#f73b6a7A","-1","-1","1","0","[]","0","1","","","13204","16","0","4","lose","no-go","0"
"pit-trial","134","1147452","0.0-20.0","battery-v0.2","","""event"",""trial"",""time""
""fullscreenenter"",""1"",""20118""
","
","
","""event"",""trial"",""time""
""fullscreenenter"",""1"",""20118""
","
","","","1022.1999999880791","","","19","13204","5477","&#9752;","elianto","#f73b6a7A"," "," ","1","0","[1872.4000000357628]","1","1","","","13204","17","3","3","lose","go","0"
"pit-trial","135","1151261","0.0-21.0","battery-v0.2","","""event"",""trial"",""time""
""fullscreenenter"",""1"",""20118""
","
","
","""event"",""trial"",""time""
""fullscreenenter"",""1"",""20118""
","
","","","952.1999999880791","","","19","13204","5477","&#9730;","elianto","#3366ff99"," "," ","1","0","[1802.300000011921]","1","1","","","13204","18","1","1","win","go","1"
"pit-trial","136","1156120","0.0-22.0","battery-v0.2","","""event"",""trial"",""time""
""fullscreenenter"",""1"",""20118""
","
","
","""event"",""trial"",""time""
""fullscreenenter"",""1"",""20118""
","
","","","-1","","","19","13204","5477","&#9728;","elianto","#f73b6a7A","-1","-1","1","0","[]","0","1","","","13204","19","0","4","lose","no-go","0"
"pit-trial","137","1160980","0.0-23.0","battery-v0.2","","""event"",""trial"",""time""
""fullscreenenter"",""1"",""20118""
","
","
","""event"",""trial"",""time""
""fullscreenenter"",""1"",""20118""
","
","","","-1","","","19","13204","5477","&#9733;","elianto","#3366ff99","-1","-1","1","+10","[]","0","1","","","13204","20","2","2","win","no-go","0"
"pit-instructions","138","1174927","0.0-24.0","battery-v0.2","","""event"",""trial"",""time""
""fullscreenenter"",""1"",""20118""
","
","
","""event"",""trial"",""time""
""fullscreenenter"",""1"",""20118""
","
","","[{""page_index"":0,""viewing_time"":6592},{""page_index"":1,""viewing_time"":7350.300000011921}]","13942.800000011921","","","","","","","","","","","","","","","","","","","","","","","",""
"pit-trial","139","1178770","0.0-25.0","battery-v0.2","","""event"",""trial"",""time""
""fullscreenenter"",""1"",""20118""
","
","
","""event"",""trial"",""time""
""fullscreenenter"",""1"",""20118""
","
","","","979.8999999761581","","","19","13204","5477","b","elianto","#f73b6a7A"," "," ","1","0","[1832.5]","1","2","","","13204","21","3","3","lose","go","0"
"pit-trial","140","1182562","0.0-26.0","battery-v0.2","","""event"",""trial"",""time""
""fullscreenenter"",""1"",""20118""
","
","
","""event"",""trial"",""time""
""fullscreenenter"",""1"",""20118""
","
","","","931.9000000357628","","","19","13204","5477","n","elianto","#f73b6a7A","-1"," ","0","-10","[1782.800000011921]","1","2","","","13204","22","0","4","lose","no-go","0"
"pit-trial","141","1186365","0.0-27.0","battery-v0.2","","""event"",""trial"",""time""
""fullscreenenter"",""1"",""20118""
","
","
","""event"",""trial"",""time""
""fullscreenenter"",""1"",""20118""
","
","","","941.8000000119209","","","19","13204","5477","f","elianto","#3366ff99"," "," ","1","+10","[1794.5]","1","2","","","13204","23","1","1","win","go","0"
"pit-trial","142","1190482","0.0-28.0","battery-v0.2","","""event"",""trial"",""time""
""fullscreenenter"",""1"",""20118""
","
","
","""event"",""trial"",""time""
""fullscreenenter"",""1"",""20118""
","
","","","1253.9000000357628","","","19","13204","5477","t","elianto","#f73b6a7A","-1"," ","0","0","[2107.699999988079]","1","2","","","13204","24","2","4","lose","no-go","1"
"pit-trial","143","1194464","0.0-29.0","battery-v0.2","","""event"",""trial"",""time""
""fullscreenenter"",""1"",""20118""
","
","
","""event"",""trial"",""time""
""fullscreenenter"",""1"",""20118""
","
","","","1120.6000000238419","","","19","13204","5477","f","elianto","#3366ff99"," "," ","1","+10","[1973.6000000238419]","1","2","","","13204","25","1","1","win","go","0"
"pit-trial","144","1198531","0.0-30.0","battery-v0.2","","""event"",""trial"",""time""
""fullscreenenter"",""1"",""20118""
","
","
","""event"",""trial"",""time""
""fullscreenenter"",""1"",""20118""
","
","","","1205.6000000238419","","","19","13204","5477","t","elianto","#f73b6a7A","-1"," ","0","-10","[2057.800000011921]","1","2","","","13204","26","2","4","lose","no-go","0"
"pit-trial","145","1202671","0.0-31.0","battery-v0.2","","""event"",""trial"",""time""
""fullscreenenter"",""1"",""20118""
","
","
","""event"",""trial"",""time""
""fullscreenenter"",""1"",""20118""
","
","","","1278","","","19","13204","5477","b","elianto","#f73b6a7A"," "," ","1","0","[2132.300000011921]","1","2","","","13204","27","3","3","lose","go","0"
"pit-trial","146","1207534","0.0-32.0","battery-v0.2","","""event"",""trial"",""time""
""fullscreenenter"",""1"",""20118""
","
","
","""event"",""trial"",""time""
""fullscreenenter"",""1"",""20118""
","
","","","-1","","","19","13204","5477","n","elianto","#f73b6a7A","-1","-1","1","0","[]","0","2","","","13204","28","0","4","lose","no-go","0"
"pit-trial","147","1212396","0.0-33.0","battery-v0.2","","""event"",""trial"",""time""
""fullscreenenter"",""1"",""20118""
","
","
","""event"",""trial"",""time""
""fullscreenenter"",""1"",""20118""
","
","","","-1","","","19","13204","5477","t","elianto","#f73b6a7A","-1","-1","1","-10","[]","0","2","","","13204","29","2","4","lose","no-go","1"
"pit-trial","148","1216447","0.0-34.0","battery-v0.2","","""event"",""trial"",""time""
""fullscreenenter"",""1"",""20118""
","
","
","""event"",""trial"",""time""
""fullscreenenter"",""1"",""20118""
","
","","","1191.6000000238419","","","19","13204","5477","b","elianto","#f73b6a7A"," "," ","1","0","[2045]","1","2","","","13204","30","3","3","lose","go","0"
"pit-trial","149","1220095","0.0-35.0","battery-v0.2","","""event"",""trial"",""time""
""fullscreenenter"",""1"",""20118""
","
","
","""event"",""trial"",""time""
""fullscreenenter"",""1"",""20118""
","
","","","785.7000000476837","","","19","13204","5477","f","elianto","#3366ff99"," "," ","1","+10","[1638.6000000238419]","1","2","","","13204","31","1","1","win","go","0"
"pit-trial","150","1224957","0.0-36.0","battery-v0.2","","""event"",""trial"",""time""
""fullscreenenter"",""1"",""20118""
","
","
","""event"",""trial"",""time""
""fullscreenenter"",""1"",""20118""
","
","","","-1","","","19","13204","5477","n","elianto","#f73b6a7A","-1","-1","1","0","[]","0","2","","","13204","32","0","4","lose","no-go","0"
"pit-trial","151","1228649","0.0-37.0","battery-v0.2","","""event"",""trial"",""time""
""fullscreenenter"",""1"",""20118""
","
","
","""event"",""trial"",""time""
""fullscreenenter"",""1"",""20118""
","
","","","832.3000000119209","","","19","13204","5477","f","elianto","#3366ff99"," "," ","1","+10","[1684]","1","2","","","13204","33","1","1","win","go","0"
"pit-trial","152","1232826","0.0-38.0","battery-v0.2","","""event"",""trial"",""time""
""fullscreenenter"",""1"",""20118""
","
","
","""event"",""trial"",""time""
""fullscreenenter"",""1"",""20118""
","
","","","1317.699999988079","","","19","13204","5477","b","elianto","#f73b6a7A"," "," ","1","0","[2168.5]","1","2","","","13204","34","3","3","lose","go","0"
"pit-trial","153","1237688","0.0-39.0","battery-v0.2","","""event"",""trial"",""time""
""fullscreenenter"",""1"",""20118""
","
","
","""event"",""trial"",""time""
""fullscreenenter"",""1"",""20118""
","
","","","-1","","","19","13204","5477","n","elianto","#f73b6a7A","-1","-1","1","0","[]","0","2","","","13204","35","0","4","lose","no-go","0"
"pit-trial","154","1242552","0.0-40.0","battery-v0.2","","""event"",""trial"",""time""
""fullscreenenter"",""1"",""20118""
","
","
","""event"",""trial"",""time""
""fullscreenenter"",""1"",""20118""
","
","","","-1","","","19","13204","5477","t","elianto","#f73b6a7A","-1","-1","1","0","[]","0","2","","","13204","36","2","4","lose","no-go","0"
"pit-trial","155","1247416","0.0-41.0","battery-v0.2","","""event"",""trial"",""time""
""fullscreenenter"",""1"",""20118""
","
","
","""event"",""trial"",""time""
""fullscreenenter"",""1"",""20118""
","
","","","-1","","","19","13204","5477","n","elianto","#f73b6a7A","-1","-1","1","0","[]","0","2","","","13204","37","0","4","lose","no-go","0"
"pit-trial","156","1251287","0.0-42.0","battery-v0.2","","""event"",""trial"",""time""
""fullscreenenter"",""1"",""20118""
","
","
","""event"",""trial"",""time""
""fullscreenenter"",""1"",""20118""
","
","","","1009.1999999880791","","","19","13204","5477","b","elianto","#f73b6a7A"," "," ","1","0","[1861.5]","1","2","","","13204","38","3","3","lose","go","0"
"pit-trial","157","1256151","0.0-43.0","battery-v0.2","","""event"",""trial"",""time""
""fullscreenenter"",""1"",""20118""
","
","
","""event"",""trial"",""time""
""fullscreenenter"",""1"",""20118""
","
","","","-1","","","19","13204","5477","t","elianto","#f73b6a7A","-1","-1","1","-10","[]","0","2","","","13204","39","2","4","lose","no-go","1"
"pit-trial","158","1259770","0.0-44.0","battery-v0.2","","""event"",""trial"",""time""
""fullscreenenter"",""1"",""20118""
","
","
","""event"",""trial"",""time""
""fullscreenenter"",""1"",""20118""
","
","","","762.5","","","19","13204","5477","f","elianto","#3366ff99"," "," ","1","+10","[1614.9000000357628]","1","2","","","13204","40","1","1","win","go","0"
"pit-trial","159","1264636","0.0-45.0","battery-v0.2","","""event"",""trial"",""time""
""fullscreenenter"",""1"",""20118""
","
","
","""event"",""trial"",""time""
""fullscreenenter"",""1"",""20118""
","
","","","-1","","","19","13204","5477","t","elianto","#f73b6a7A","-1","-1","1","0","[]","0","2","","","13204","41","2","4","lose","no-go","0"
"pit-trial","160","1268738","0.0-46.0","battery-v0.2","","""event"",""trial"",""time""
""fullscreenenter"",""1"",""20118""
","
","
","""event"",""trial"",""time""
""fullscreenenter"",""1"",""20118""
","
","","","1241.300000011921","","","19","13204","5477","b","elianto","#f73b6a7A"," "," ","1","0","[2092.399999976158]","1","2","","","13204","42","3","3","lose","go","0"
"pit-trial","161","1273602","0.0-47.0","battery-v0.2","","""event"",""trial"",""time""
""fullscreenenter"",""1"",""20118""
","
","
","""event"",""trial"",""time""
""fullscreenenter"",""1"",""20118""
","
","","","-1","","","19","13204","5477","n","elianto","#f73b6a7A","-1","-1","1","0","[]","0","2","","","13204","43","0","4","lose","no-go","0"
"pit-trial","162","1277318","0.0-48.0","battery-v0.2","","""event"",""trial"",""time""
""fullscreenenter"",""1"",""20118""
","
","
","""event"",""trial"",""time""
""fullscreenenter"",""1"",""20118""
","
","","","857.2000000476837","","","19","13204","5477","f","elianto","#3366ff99"," "," ","1","+10","[1708.300000011921]","1","2","","","13204","44","1","1","win","go","0"
"pit-trial","163","1281110","0.0-49.0","battery-v0.2","","""event"",""trial"",""time""
""fullscreenenter"",""1"",""20118""
","
","
","""event"",""trial"",""time""
""fullscreenenter"",""1"",""20118""
","
","","","931.5","","","19","13204","5477","b","elianto","#f73b6a7A"," "," ","1","-10","[1783]","1","2","","","13204","45","3","3","lose","go","1"
"pit-trial","164","1285968","0.0-50.0","battery-v0.2","","""event"",""trial"",""time""
""fullscreenenter"",""1"",""20118""
","
","
","""event"",""trial"",""time""
""fullscreenenter"",""1"",""20118""
","
","","","-1","","","19","13204","5477","n","elianto","#f73b6a7A","-1","-1","1","0","[]","0","2","","","13204","46","0","4","lose","no-go","0"
"pit-trial","165","1290030","0.0-51.0","battery-v0.2","","""event"",""trial"",""time""
""fullscreenenter"",""1"",""20118""
","
","
","""event"",""trial"",""time""
""fullscreenenter"",""1"",""20118""
","
","","","1204.8999999761581","","","19","13204","5477","c","elianto","#3366ff99","-1"," ","0","0","[2055.600000023842]","1","2","","","13204","47","4","2","win","no-go","0"
"pit-trial","166","1294399","0.0-52.0","battery-v0.2","","""event"",""trial"",""time""
""fullscreenenter"",""1"",""20118""
","
","
","""event"",""trial"",""time""
""fullscreenenter"",""1"",""20118""
","
","","","1508.800000011921","","","19","13204","5477","t","elianto","#f73b6a7A","-1"," ","0","-10","[2360.699999988079]","1","2","","","13204","48","2","4","lose","no-go","0"
"pit-trial","167","1298114","0.0-53.0","battery-v0.2","","""event"",""trial"",""time""
""fullscreenenter"",""1"",""20118""
","
","
","""event"",""trial"",""time""
""fullscreenenter"",""1"",""20118""
","
","","","853.6999999880791","","","19","13204","5477","f","elianto","#3366ff99"," "," ","1","+10","[1705.300000011921]","1","2","","","13204","49","1","1","win","go","0"
"pit-trial","168","1302199","0.0-54.0","battery-v0.2","","""event"",""trial"",""time""
""fullscreenenter"",""1"",""20118""
","
","
","""event"",""trial"",""time""
""fullscreenenter"",""1"",""20118""
","
","","","1223","","","19","13204","5477","c","elianto","#3366ff99","-1"," ","0","0","[2075.5]","1","2","","","13204","50","4","2","win","no-go","0"
"pit-trial","169","1305998","0.0-55.0","battery-v0.2","","""event"",""trial"",""time""
""fullscreenenter"",""1"",""20118""
","
","
","""event"",""trial"",""time""
""fullscreenenter"",""1"",""20118""
","
","","","936.9000000357628","","","19","13204","5477","b","elianto","#f73b6a7A"," "," ","1","0","[1790]","1","2","","","13204","51","3","3","lose","go","0"
"pit-trial","170","1310861","0.0-56.0","battery-v0.2","","""event"",""trial"",""time""
""fullscreenenter"",""1"",""20118""
","
","
","""event"",""trial"",""time""
""fullscreenenter"",""1"",""20118""
","
","","","-1","","","19","13204","5477","n","elianto","#f73b6a7A","-1","-1","1","0","[]","0","2","","","13204","52","0","4","lose","no-go","0"
"pit-trial","171","1315722","0.0-57.0","battery-v0.2","","""event"",""trial"",""time""
""fullscreenenter"",""1"",""20118""
","
","
","""event"",""trial"",""time""
""fullscreenenter"",""1"",""20118""
","
","","","-1","","","19","13204","5477","n","elianto","#f73b6a7A","-1","-1","1","0","[]","0","2","","","13204","53","0","4","lose","no-go","0"
"pit-trial","172","1320583","0.0-58.0","battery-v0.2","","""event"",""trial"",""time""
""fullscreenenter"",""1"",""20118""
","
","
","""event"",""trial"",""time""
""fullscreenenter"",""1"",""20118""
","
","","","-1","","","19","13204","5477","t","elianto","#f73b6a7A","-1","-1","1","-10","[]","0","2","","","13204","54","2","4","lose","no-go","1"
"pit-trial","173","1325445","0.0-59.0","battery-v0.2","","""event"",""trial"",""time""
""fullscreenenter"",""1"",""20118""
","
","
","""event"",""trial"",""time""
""fullscreenenter"",""1"",""20118""
","
","","","-1","","","19","13204","5477","c","elianto","#3366ff99","-1","-1","1","+10","[]","0","2","","","13204","55","4","2","win","no-go","0"
"pit-trial","174","1329245","0.0-60.0","battery-v0.2","","""event"",""trial"",""time""
""fullscreenenter"",""1"",""20118""
","
","
","""event"",""trial"",""time""
""fullscreenenter"",""1"",""20118""
","
","","","938.8999999761581","","","19","13204","5477","f","elianto","#3366ff99"," "," ","1","+10","[1790.300000011921]","1","2","","","13204","56","1","1","win","go","0"
"pit-trial","175","1333045","0.0-61.0","battery-v0.2","","""event"",""trial"",""time""
""fullscreenenter"",""1"",""20118""
","
","
","""event"",""trial"",""time""
""fullscreenenter"",""1"",""20118""
","
","","","939.5","","","19","13204","5477","b","elianto","#f73b6a7A"," "," ","1","0","[1790.5999999642372]","1","2","","","13204","57","3","3","lose","go","0"
"pit-trial","176","1336697","0.0-62.0","battery-v0.2","","""event"",""trial"",""time""
""fullscreenenter"",""1"",""20118""
","
","
","""event"",""trial"",""time""
""fullscreenenter"",""1"",""20118""
","
","","","793.4000000357628","","","19","13204","5477","f","elianto","#3366ff99"," "," ","1","0","[1645.9000000357628]","1","2","","","13204","58","1","1","win","go","1"
"pit-trial","177","1340573","0.0-63.0","battery-v0.2","","""event"",""trial"",""time""
""fullscreenenter"",""1"",""20118""
","
","
","""event"",""trial"",""time""
""fullscreenenter"",""1"",""20118""
","
","","","1014.1999999880791","","","19","13204","5477","c","elianto","#3366ff99","-1"," ","0","0","[1866.5]","1","2","","","13204","59","4","2","win","no-go","0"
"pit-trial","178","1345434","0.0-64.0","battery-v0.2","","""event"",""trial"",""time""
""fullscreenenter"",""1"",""20118""
","
","
","""event"",""trial"",""time""
""fullscreenenter"",""1"",""20118""
","
","","","-1","","","19","13204","5477","n","elianto","#f73b6a7A","-1","-1","1","0","[]","0","2","","","13204","60","0","4","lose","no-go","0"
"pit-trial","179","1349284","0.0-65.0","battery-v0.2","","""event"",""trial"",""time""
""fullscreenenter"",""1"",""20118""
","
","
","""event"",""trial"",""time""
""fullscreenenter"",""1"",""20118""
","
","","","988.1999999880791","","","19","13204","5477","f","elianto","#3366ff99"," "," ","1","+10","[1840.699999988079]","1","2","","","13204","61","1","1","win","go","0"
"pit-trial","180","1354149","0.0-66.0","battery-v0.2","","""event"",""trial"",""time""
""fullscreenenter"",""1"",""20118""
","
","
","""event"",""trial"",""time""
""fullscreenenter"",""1"",""20118""
","
","","","-1","","","19","13204","5477","c","elianto","#3366ff99","-1","-1","1","+10","[]","0","2","","","13204","62","4","2","win","no-go","0"
"pit-trial","181","1359013","0.0-67.0","battery-v0.2","","""event"",""trial"",""time""
""fullscreenenter"",""1"",""20118""
","
","
","""event"",""trial"",""time""
""fullscreenenter"",""1"",""20118""
","
","","","-1","","","19","13204","5477","t","elianto","#f73b6a7A","-1","-1","1","-10","[]","0","2","","","13204","63","2","4","lose","no-go","1"
"pit-trial","182","1362930","0.0-68.0","battery-v0.2","","""event"",""trial"",""time""
""fullscreenenter"",""1"",""20118""
","
","
","""event"",""trial"",""time""
""fullscreenenter"",""1"",""20118""
","
","","","1056.699999988079","","","19","13204","5477","b","elianto","#f73b6a7A"," "," ","1","-10","[1909]","1","2","","","13204","64","3","3","lose","go","1"
"pit-trial","183","1366652","0.0-69.0","battery-v0.2","","""event"",""trial"",""time""
""fullscreenenter"",""1"",""20118""
","
","
","""event"",""trial"",""time""
""fullscreenenter"",""1"",""20118""
","
","","","860.3999999761581","","","19","13204","5477","f","elianto","#3366ff99"," "," ","1","+10","[1712.800000011921]","1","2","","","13204","65","1","1","win","go","0"
"pit-trial","184","1370476","0.0-70.0","battery-v0.2","","""event"",""trial"",""time""
""fullscreenenter"",""1"",""20118""
","
","
","""event"",""trial"",""time""
""fullscreenenter"",""1"",""20118""
","
","","","964.6000000238419","","","19","13204","5477","t","elianto","#f73b6a7A","-1"," ","0","-10","[1816.199999988079]","1","2","","","13204","66","2","4","lose","no-go","0"
"pit-trial","185","1375341","0.0-71.0","battery-v0.2","","""event"",""trial"",""time""
""fullscreenenter"",""1"",""20118""
","
","
","""event"",""trial"",""time""
""fullscreenenter"",""1"",""20118""
","
","","","-1","","","19","13204","5477","b","elianto","#f73b6a7A"," ","-1","0","-10","[]","0","2","","","13204","67","3","3","lose","go","0"
"pit-trial","186","1380205","0.0-72.0","battery-v0.2","","""event"",""trial"",""time""
""fullscreenenter"",""1"",""20118""
","
","
","""event"",""trial"",""time""
""fullscreenenter"",""1"",""20118""
","
","","","-1","","","19","13204","5477","c","elianto","#3366ff99","-1","-1","1","+10","[]","0","2","","","13204","68","4","2","win","no-go","0"
"pit-trial","187","1384554","0.0-73.0","battery-v0.2","","""event"",""trial"",""time""
""fullscreenenter"",""1"",""20118""
","
","
","""event"",""trial"",""time""
""fullscreenenter"",""1"",""20118""
","
","","","1488.2999999523163","","","19","13204","5477","b","elianto","#f73b6a7A"," "," ","1","0","[2338.7999999523163]","1","2","","","13204","69","3","3","lose","go","0"
"pit-trial","188","1388317","0.0-74.0","battery-v0.2","","""event"",""trial"",""time""
""fullscreenenter"",""1"",""20118""
","
","
","""event"",""trial"",""time""
""fullscreenenter"",""1"",""20118""
","
","","","904","","","19","13204","5477","f","elianto","#3366ff99"," "," ","1","+10","[1754.4000000357628]","1","2","","","13204","70","1","1","win","go","0"
"pit-trial","189","1392466","0.0-75.0","battery-v0.2","","""event"",""trial"",""time""
""fullscreenenter"",""1"",""20118""
","
","
","""event"",""trial"",""time""
""fullscreenenter"",""1"",""20118""
","
","","","1285.699999988079","","","19","13204","5477","z","elianto","#3366ff99"," "," ","1","+10","[2140.5]","1","2","","","13204","71","5","1","win","go","0"
"pit-trial","190","1397330","0.0-76.0","battery-v0.2","","""event"",""trial"",""time""
""fullscreenenter"",""1"",""20118""
","
","
","""event"",""trial"",""time""
""fullscreenenter"",""1"",""20118""
","
","","","-1","","","19","13204","5477","c","elianto","#3366ff99","-1","-1","1","+10","[]","0","2","","","13204","72","4","2","win","no-go","0"
"pit-trial","191","1401271","0.0-77.0","battery-v0.2","","""event"",""trial"",""time""
""fullscreenenter"",""1"",""20118""
","
","
","""event"",""trial"",""time""
""fullscreenenter"",""1"",""20118""
","
","","","1080.0999999642372","","","19","13204","5477","b","elianto","#f73b6a7A"," "," ","1","0","[1933.5]","1","2","","","13204","73","3","3","lose","go","0"
"pit-trial","192","1405004","0.0-78.0","battery-v0.2","","""event"",""trial"",""time""
""fullscreenenter"",""1"",""20118""
","
","
","""event"",""trial"",""time""
""fullscreenenter"",""1"",""20118""
","
","","","874.2999999523163","","","19","13204","5477","f","elianto","#3366ff99"," "," ","1","+10","[1724.3999999761581]","1","2","","","13204","74","1","1","win","go","0"
"pit-trial","193","1409418","0.0-79.0","battery-v0.2","","""event"",""trial"",""time""
""fullscreenenter"",""1"",""20118""
","
","
","""event"",""trial"",""time""
""fullscreenenter"",""1"",""20118""
","
","","","1553.3999999761581","","","19","13204","5477","z","elianto","#3366ff99"," "," ","1","+10","[2404.100000023842]","1","2","","","13204","75","5","1","win","go","0"
"pit-trial","194","1414278","0.0-80.0","battery-v0.2","","""event"",""trial"",""time""
""fullscreenenter"",""1"",""20118""
","
","
","""event"",""trial"",""time""
""fullscreenenter"",""1"",""20118""
","
","","","-1","","","19","13204","5477","c","elianto","#3366ff99","-1","-1","1","+10","[]","0","2","","","13204","76","4","2","win","no-go","0"
"pit-trial","195","1418398","0.0-81.0","battery-v0.2","","""event"",""trial"",""time""
""fullscreenenter"",""1"",""20118""
","
","
","""event"",""trial"",""time""
""fullscreenenter"",""1"",""20118""
","
","","","1258.5999999642372","","","19","13204","5477","z","elianto","#3366ff99"," "," ","1","0","[2111.199999988079]","1","2","","","13204","77","5","1","win","go","1"
"pit-trial","196","1423263","0.0-82.0","battery-v0.2","","""event"",""trial"",""time""
""fullscreenenter"",""1"",""20118""
","
","
","""event"",""trial"",""time""
""fullscreenenter"",""1"",""20118""
","
","","","-1","","","19","13204","5477","h","elianto","#f73b6a7A","-1","-1","1","0","[]","0","2","","","13204","78","6","4","lose","no-go","0"
"pit-trial","197","1427773","0.0-83.0","battery-v0.2","","""event"",""trial"",""time""
""fullscreenenter"",""1"",""20118""
","
","
","""event"",""trial"",""time""
""fullscreenenter"",""1"",""20118""
","
","","","1645.300000011921","","","19","13204","5477","b","elianto","#f73b6a7A"," "," ","1","0","[2499.400000035763]","1","2","","","13204","79","3","3","lose","go","0"
"pit-trial","198","1432633","0.0-84.0","battery-v0.2","","""event"",""trial"",""time""
""fullscreenenter"",""1"",""20118""
","
","
","""event"",""trial"",""time""
""fullscreenenter"",""1"",""20118""
","
","","","-1","","","19","13204","5477","c","elianto","#3366ff99","-1","-1","1","0","[]","0","2","","","13204","80","4","2","win","no-go","1"
"pit-trial","199","1437498","0.0-85.0","battery-v0.2","","""event"",""trial"",""time""
""fullscreenenter"",""1"",""20118""
","
","
","""event"",""trial"",""time""
""fullscreenenter"",""1"",""20118""
","
","","","-1","","","19","13204","5477","c","elianto","#3366ff99","-1","-1","1","+10","[]","0","2","","","13204","81","4","2","win","no-go","0"
"pit-trial","200","1441750","0.0-86.0","battery-v0.2","","""event"",""trial"",""time""
""fullscreenenter"",""1"",""20118""
","
","
","""event"",""trial"",""time""
""fullscreenenter"",""1"",""20118""
","
","","","1390.8999999761581","","","19","13204","5477","z","elianto","#3366ff99"," "," ","1","0","[2243.399999976158]","1","2","","","13204","82","5","1","win","go","1"
"pit-trial","201","1446611","0.0-87.0","battery-v0.2","","""event"",""trial"",""time""
""fullscreenenter"",""1"",""20118""
","
","
","""event"",""trial"",""time""
""fullscreenenter"",""1"",""20118""
","
","","","-1","","","19","13204","5477","h","elianto","#f73b6a7A","-1","-1","1","0","[]","0","2","","","13204","83","6","4","lose","no-go","0"
"pit-trial","202","1450762","0.0-88.0","battery-v0.2","","""event"",""trial"",""time""
""fullscreenenter"",""1"",""20118""
","
","
","""event"",""trial"",""time""
""fullscreenenter"",""1"",""20118""
","
","","","1289.300000011921","","","19","13204","5477","y","elianto","#f73b6a7A"," "," ","1","0","[2141.399999976158]","1","2","","","13204","84","7","3","lose","go","0"
"pit-trial","203","1455451","0.0-89.0","battery-v0.2","","""event"",""trial"",""time""
""fullscreenenter"",""1"",""20118""
","
","
","""event"",""trial"",""time""
""fullscreenenter"",""1"",""20118""
","
","","","1828.1000000238419","","","19","13204","5477","z","elianto","#3366ff99"," "," ","1","0","[2680]","1","2","","","13204","85","5","1","win","go","1"
"pit-trial","204","1460316","0.0-90.0","battery-v0.2","","""event"",""trial"",""time""
""fullscreenenter"",""1"",""20118""
","
","
","""event"",""trial"",""time""
""fullscreenenter"",""1"",""20118""
","
","","","-1","","","19","13204","5477","c","elianto","#3366ff99","-1","-1","1","+10","[]","0","2","","","13204","86","4","2","win","no-go","0"
"pit-trial","205","1465173","0.0-91.0","battery-v0.2","","""event"",""trial"",""time""
""fullscreenenter"",""1"",""20118""
","
","
","""event"",""trial"",""time""
""fullscreenenter"",""1"",""20118""
","
","","","-1","","","19","13204","5477","y","elianto","#f73b6a7A"," ","-1","0","-10","[]","0","2","","","13204","87","7","3","lose","go","0"
"pit-trial","206","1470037","0.0-92.0","battery-v0.2","","""event"",""trial"",""time""
""fullscreenenter"",""1"",""20118""
","
","
","""event"",""trial"",""time""
""fullscreenenter"",""1"",""20118""
","
","","","-1","","","19","13204","5477","h","elianto","#f73b6a7A","-1","-1","1","-10","[]","0","2","","","13204","88","6","4","lose","no-go","1"
"pit-trial","207","1474901","0.0-93.0","battery-v0.2","","""event"",""trial"",""time""
""fullscreenenter"",""1"",""20118""
","
","
","""event"",""trial"",""time""
""fullscreenenter"",""1"",""20118""
","
","","","-1","","","19","13204","5477","h","elianto","#f73b6a7A","-1","-1","1","0","[]","0","2","","","13204","89","6","4","lose","no-go","0"
"pit-trial","208","1479766","0.0-94.0","battery-v0.2","","""event"",""trial"",""time""
""fullscreenenter"",""1"",""20118""
","
","
","""event"",""trial"",""time""
""fullscreenenter"",""1"",""20118""
","
","","","-1","","","19","13204","5477","c","elianto","#3366ff99","-1","-1","1","+10","[]","0","2","","","13204","90","4","2","win","no-go","0"
"pit-trial","209","1483864","0.0-95.0","battery-v0.2","","""event"",""trial"",""time""
""fullscreenenter"",""1"",""20118""
","
","
","""event"",""trial"",""time""
""fullscreenenter"",""1"",""20118""
","
","","","1240.1000000238419","","","19","13204","5477","z","elianto","#3366ff99"," "," ","1","+10","[2091.399999976158]","1","2","","","13204","91","5","1","win","go","0"
"pit-trial","210","1488378","0.0-96.0","battery-v0.2","","""event"",""trial"",""time""
""fullscreenenter"",""1"",""20118""
","
","
","""event"",""trial"",""time""
""fullscreenenter"",""1"",""20118""
","
","","","1650.4000000357628","","","19","13204","5477","y","elianto","#f73b6a7A"," "," ","1","0","[2503.800000011921]","1","2","","","13204","92","7","3","lose","go","0"
"pit-trial","211","1492868","0.0-97.0","battery-v0.2","","""event"",""trial"",""time""
""fullscreenenter"",""1"",""20118""
","
","
","""event"",""trial"",""time""
""fullscreenenter"",""1"",""20118""
","
","","","1632.4000000357628","","","19","13204","5477","y","elianto","#f73b6a7A"," "," ","1","0","[2483.800000011921]","1","2","","","13204","93","7","3","lose","go","0"
"pit-trial","212","1497733","0.0-98.0","battery-v0.2","","""event"",""trial"",""time""
""fullscreenenter"",""1"",""20118""
","
","
","""event"",""trial"",""time""
""fullscreenenter"",""1"",""20118""
","
","","","-1","","","19","13204","5477","h","elianto","#f73b6a7A","-1","-1","1","0","[]","0","2","","","13204","94","6","4","lose","no-go","0"
"pit-trial","213","1502597","0.0-99.0","battery-v0.2","","""event"",""trial"",""time""
""fullscreenenter"",""1"",""20118""
","
","
","""event"",""trial"",""time""
""fullscreenenter"",""1"",""20118""
","
","","","-1","","","19","13204","5477","z","elianto","#3366ff99"," ","-1","0","0","[]","0","2","","","13204","95","5","1","win","go","0"
"pit-trial","214","1507241","0.0-100.0","battery-v0.2","","""event"",""trial"",""time""
""fullscreenenter"",""1"",""20118""
","
","
","""event"",""trial"",""time""
""fullscreenenter"",""1"",""20118""
","
","","","1780","","","19","13204","5477","r","elianto","#3366ff99","-1"," ","0","0","[2633.899999976158]","1","2","","","13204","96","8","2","win","no-go","0"
"pit-trial","215","1512103","0.0-101.0","battery-v0.2","","""event"",""trial"",""time""
""fullscreenenter"",""1"",""20118""
","
","
","""event"",""trial"",""time""
""fullscreenenter"",""1"",""20118""
","
","","","-1","","","19","13204","5477","h","elianto","#f73b6a7A","-1","-1","1","0","[]","0","2","","","13204","97","6","4","lose","no-go","0"
"pit-trial","216","1516686","0.0-102.0","battery-v0.2","","""event"",""trial"",""time""
""fullscreenenter"",""1"",""20118""
","
","
","""event"",""trial"",""time""
""fullscreenenter"",""1"",""20118""
","
","","","1722.1000000238419","","","19","13204","5477","y","elianto","#f73b6a7A"," "," ","1","0","[2573.600000023842]","1","2","","","13204","98","7","3","lose","go","0"
"pit-trial","217","1520709","0.0-103.0","battery-v0.2","","""event"",""trial"",""time""
""fullscreenenter"",""1"",""20118""
","
","
","""event"",""trial"",""time""
""fullscreenenter"",""1"",""20118""
","
","","","1169.2000000476837","","","19","13204","5477","r","elianto","#3366ff99","-1"," ","0","0","[2019.6000000238419]","1","2","","","13204","99","8","2","win","no-go","0"
"pit-trial","218","1525192","0.0-104.0","battery-v0.2","","""event"",""trial"",""time""
""fullscreenenter"",""1"",""20118""
","
","
","""event"",""trial"",""time""
""fullscreenenter"",""1"",""20118""
","
","","","1622.1000000238419","","","19","13204","5477","z","elianto","#3366ff99"," "," ","1","0","[2473.7000000476837]","1","2","","","13204","100","5","1","win","go","1"
"pit-trial","219","1529010","0.0-105.0","battery-v0.2","","""event"",""trial"",""time""
""fullscreenenter"",""1"",""20118""
","
","
","""event"",""trial"",""time""
""fullscreenenter"",""1"",""20118""
","
","","","958.8000000119209","","","19","13204","5477","z","elianto","#3366ff99"," "," ","1","0","[1810.5]","1","2","","","13204","101","5","1","win","go","1"
"pit-trial","220","1533871","0.0-106.0","battery-v0.2","","""event"",""trial"",""time""
""fullscreenenter"",""1"",""20118""
","
","
","""event"",""trial"",""time""
""fullscreenenter"",""1"",""20118""
","
","","","-1","","","19","13204","5477","r","elianto","#3366ff99","-1","-1","1","+10","[]","0","2","","","13204","102","8","2","win","no-go","0"
"pit-trial","221","1538733","0.0-107.0","battery-v0.2","","""event"",""trial"",""time""
""fullscreenenter"",""1"",""20118""
","
","
","""event"",""trial"",""time""
""fullscreenenter"",""1"",""20118""
","
","","","-1","","","19","13204","5477","h","elianto","#f73b6a7A","-1","-1","1","-10","[]","0","2","","","13204","103","6","4","lose","no-go","1"
"pit-trial","222","1543460","0.0-108.0","battery-v0.2","","""event"",""trial"",""time""
""fullscreenenter"",""1"",""20118""
","
","
","""event"",""trial"",""time""
""fullscreenenter"",""1"",""20118""
","
","","","1864.199999988079","","","19","13204","5477","m","elianto","#3366ff99","-1"," ","0","0","[2717.800000011921]","1","2","","","13204","104","9","2","win","no-go","0"
"pit-trial","223","1548319","0.0-109.0","battery-v0.2","","""event"",""trial"",""time""
""fullscreenenter"",""1"",""20118""
","
","
","""event"",""trial"",""time""
""fullscreenenter"",""1"",""20118""
","
","","","-1","","","19","13204","5477","r","elianto","#3366ff99","-1","-1","1","0","[]","0","2","","","13204","105","8","2","win","no-go","1"
"pit-trial","224","1553183","0.0-110.0","battery-v0.2","","""event"",""trial"",""time""
""fullscreenenter"",""1"",""20118""
","
","
","""event"",""trial"",""time""
""fullscreenenter"",""1"",""20118""
","
","","","-1","","","19","13204","5477","h","elianto","#f73b6a7A","-1","-1","1","0","[]","0","2","","","13204","106","6","4","lose","no-go","0"
"pit-trial","225","1557245","0.0-111.0","battery-v0.2","","""event"",""trial"",""time""
""fullscreenenter"",""1"",""20118""
","
","
","""event"",""trial"",""time""
""fullscreenenter"",""1"",""20118""
","
","","","1200.3999999761581","","","19","13204","5477","z","elianto","#3366ff99"," "," ","1","0","[2052.800000011921]","1","2","","","13204","107","5","1","win","go","1"
"pit-trial","226","1562110","0.0-112.0","battery-v0.2","","""event"",""trial"",""time""
""fullscreenenter"",""1"",""20118""
","
","
","""event"",""trial"",""time""
""fullscreenenter"",""1"",""20118""
","
","","","-1","","","19","13204","5477","m","elianto","#3366ff99","-1","-1","1","+10","[]","0","2","","","13204","108","9","2","win","no-go","0"
"pit-trial","227","1566971","0.0-113.0","battery-v0.2","","""event"",""trial"",""time""
""fullscreenenter"",""1"",""20118""
","
","
","""event"",""trial"",""time""
""fullscreenenter"",""1"",""20118""
","
","","","-1","","","19","13204","5477","m","elianto","#3366ff99","-1","-1","1","+10","[]","0","2","","","13204","109","9","2","win","no-go","0"
"pit-trial","228","1571837","0.0-114.0","battery-v0.2","","""event"",""trial"",""time""
""fullscreenenter"",""1"",""20118""
","
","
","""event"",""trial"",""time""
""fullscreenenter"",""1"",""20118""
","
","","","-1","","","19","13204","5477","h","elianto","#f73b6a7A","-1","-1","1","-10","[]","0","2","","","13204","110","6","4","lose","no-go","1"
"pit-trial","229","1576702","0.0-115.0","battery-v0.2","","""event"",""trial"",""time""
""fullscreenenter"",""1"",""20118""
","
","
","""event"",""trial"",""time""
""fullscreenenter"",""1"",""20118""
","
","","","-1","","","19","13204","5477","r","elianto","#3366ff99","-1","-1","1","+10","[]","0","2","","","13204","111","8","2","win","no-go","0"
"pit-trial","230","1581163","0.0-116.0","battery-v0.2","","""event"",""trial"",""time""
""fullscreenenter"",""1"",""20118""
","
","
","""event"",""trial"",""time""
""fullscreenenter"",""1"",""20118""
","
","","","1600.199999988079","","","19","13204","5477","z","elianto","#3366ff99"," "," ","1","+10","[2451.699999988079]","1","2","","","13204","112","5","1","win","go","0"
"pit-trial","231","1586028","0.0-117.0","battery-v0.2","","""event"",""trial"",""time""
""fullscreenenter"",""1"",""20118""
","
","
","""event"",""trial"",""time""
""fullscreenenter"",""1"",""20118""
","
","","","-1","","","19","13204","5477","m","elianto","#3366ff99","-1","-1","1","+10","[]","0","2","","","13204","113","9","2","win","no-go","0"
"pit-trial","232","1590885","0.0-118.0","battery-v0.2","","""event"",""trial"",""time""
""fullscreenenter"",""1"",""20118""
","
","
","""event"",""trial"",""time""
""fullscreenenter"",""1"",""20118""
","
","","","-1","","","19","13204","5477","z","elianto","#3366ff99"," ","-1","0","0","[2859.5]","1","2","","","13204","114","5","1","win","go","0"
"pit-trial","233","1595749","0.0-119.0","battery-v0.2","","""event"",""trial"",""time""
""fullscreenenter"",""1"",""20118""
","
","
","""event"",""trial"",""time""
""fullscreenenter"",""1"",""20118""
","
","","","-1","","","19","13204","5477","r","elianto","#3366ff99","-1","-1","1","+10","[]","0","2","","","13204","115","8","2","win","no-go","0"
"pit-trial","234","1600613","0.0-120.0","battery-v0.2","","""event"",""trial"",""time""
""fullscreenenter"",""1"",""20118""
","
","
","""event"",""trial"",""time""
""fullscreenenter"",""1"",""20118""
","
","","","-1","","","19","13204","5477","y","elianto","#f73b6a7A"," ","-1","0","-10","[]","0","2","","","13204","116","7","3","lose","go","0"
"pit-trial","235","1605477","0.0-121.0","battery-v0.2","","""event"",""trial"",""time""
""fullscreenenter"",""1"",""20118""
","
","
","""event"",""trial"",""time""
""fullscreenenter"",""1"",""20118""
","
","","","-1","","","19","13204","5477","m","elianto","#3366ff99","-1","-1","1","+10","[]","0","2","","","13204","117","9","2","win","no-go","0"
"pit-trial","236","1610340","0.0-122.0","battery-v0.2","","""event"",""trial"",""time""
""fullscreenenter"",""1"",""20118""
","
","
","""event"",""trial"",""time""
""fullscreenenter"",""1"",""20118""
","
","","","-1","","","19","13204","5477","r","elianto","#3366ff99","-1","-1","1","+10","[]","0","2","","","13204","118","8","2","win","no-go","0"
"pit-trial","237","1615202","0.0-123.0","battery-v0.2","","""event"",""trial"",""time""
""fullscreenenter"",""1"",""20118""
","
","
","""event"",""trial"",""time""
""fullscreenenter"",""1"",""20118""
","
","","","-1","","","19","13204","5477","z","elianto","#3366ff99"," ","-1","0","0","[]","0","2","","","13204","119","5","1","win","go","0"
"pit-trial","238","1619594","0.0-124.0","battery-v0.2","","""event"",""trial"",""time""
""fullscreenenter"",""1"",""20118""
","
","
","""event"",""trial"",""time""
""fullscreenenter"",""1"",""20118""
","
","","","1531","","","19","13204","5477","h","elianto","#f73b6a7A","-1"," ","0","-10","[2382.300000011921]","1","2","","","13204","120","6","4","lose","no-go","0"
"pit-trial","239","1624459","0.0-125.0","battery-v0.2","","""event"",""trial"",""time""
""fullscreenenter"",""1"",""20118""
","
","
","""event"",""trial"",""time""
""fullscreenenter"",""1"",""20118""
","
","","","-1","","","19","13204","5477","y","elianto","#f73b6a7A"," ","-1","0","-10","[]","0","2","","","13204","121","7","3","lose","go","0"
"pit-trial","240","1629322","0.0-126.0","battery-v0.2","","""event"",""trial"",""time""
""fullscreenenter"",""1"",""20118""
","
","
","""event"",""trial"",""time""
""fullscreenenter"",""1"",""20118""
","
","","","-1","","","19","13204","5477","z","elianto","#3366ff99"," ","-1","0","0","[]","0","2","","","13204","122","5","1","win","go","0"
"pit-trial","241","1634184","0.0-127.0","battery-v0.2","","""event"",""trial"",""time""
""fullscreenenter"",""1"",""20118""
","
","
","""event"",""trial"",""time""
""fullscreenenter"",""1"",""20118""
","
","","","-1","","","19","13204","5477","r","elianto","#3366ff99","-1","-1","1","+10","[]","0","2","","","13204","123","8","2","win","no-go","0"
"pit-trial","242","1639043","0.0-128.0","battery-v0.2","","""event"",""trial"",""time""
""fullscreenenter"",""1"",""20118""
","
","
","""event"",""trial"",""time""
""fullscreenenter"",""1"",""20118""
","
","","","-1","","","19","13204","5477","m","elianto","#3366ff99","-1","-1","1","0","[]","0","2","","","13204","124","9","2","win","no-go","1"
"pit-trial","243","1643908","0.0-129.0","battery-v0.2","","""event"",""trial"",""time""
""fullscreenenter"",""1"",""20118""
","
","
","""event"",""trial"",""time""
""fullscreenenter"",""1"",""20118""
","
","","","-1","","","19","13204","5477","y","elianto","#f73b6a7A"," ","-1","0","-10","[]","0","2","","","13204","125","7","3","lose","go","0"
"pit-trial","244","1648771","0.0-130.0","battery-v0.2","","""event"",""trial"",""time""
""fullscreenenter"",""1"",""20118""
","
","
","""event"",""trial"",""time""
""fullscreenenter"",""1"",""20118""
","
","","","-1","","","19","13204","5477","h","elianto","#f73b6a7A","-1","-1","1","-10","[]","0","2","","","13204","126","6","4","lose","no-go","1"
"pit-trial","245","1653636","0.0-131.0","battery-v0.2","","""event"",""trial"",""time""
""fullscreenenter"",""1"",""20118""
","
","
","""event"",""trial"",""time""
""fullscreenenter"",""1"",""20118""
","
","","","-1","","","19","13204","5477","m","elianto","#3366ff99","-1","-1","1","+10","[]","0","2","","","13204","127","9","2","win","no-go","0"
"pit-trial","246","1658502","0.0-132.0","battery-v0.2","","""event"",""trial"",""time""
""fullscreenenter"",""1"",""20118""
","
","
","""event"",""trial"",""time""
""fullscreenenter"",""1"",""20118""
","
","","","-1","","","19","13204","5477","r","elianto","#3366ff99","-1","-1","1","+10","[]","0","2","","","13204","128","8","2","win","no-go","0"
"pit-trial","247","1662908","0.0-133.0","battery-v0.2","","""event"",""trial"",""time""
""fullscreenenter"",""1"",""20118""
","
","
","""event"",""trial"",""time""
""fullscreenenter"",""1"",""20118""
","
","","","1549.4000000357628","","","19","13204","5477","h","elianto","#f73b6a7A","-1"," ","0","0","[2402]","1","2","","","13204","129","6","4","lose","no-go","1"
"pit-trial","248","1667772","0.0-134.0","battery-v0.2","","""event"",""trial"",""time""
""fullscreenenter"",""1"",""20118""
","
","
","""event"",""trial"",""time""
""fullscreenenter"",""1"",""20118""
","
","","","-1","","","19","13204","5477","y","elianto","#f73b6a7A"," ","-1","0","0","[]","0","2","","","13204","130","7","3","lose","go","1"
"pit-trial","249","1672637","0.0-135.0","battery-v0.2","","""event"",""trial"",""time""
""fullscreenenter"",""1"",""20118""
","
","
","""event"",""trial"",""time""
""fullscreenenter"",""1"",""20118""
","
","","","-1","","","19","13204","5477","m","elianto","#3366ff99","-1","-1","1","0","[]","0","2","","","13204","131","9","2","win","no-go","1"
"pit-trial","250","1677498","0.0-136.0","battery-v0.2","","""event"",""trial"",""time""
""fullscreenenter"",""1"",""20118""
","
","
","""event"",""trial"",""time""
""fullscreenenter"",""1"",""20118""
","
","","","-1","","","19","13204","5477","r","elianto","#3366ff99","-1","-1","1","+10","[]","0","2","","","13204","132","8","2","win","no-go","0"
"pit-trial","251","1682363","0.0-137.0","battery-v0.2","","""event"",""trial"",""time""
""fullscreenenter"",""1"",""20118""
","
","
","""event"",""trial"",""time""
""fullscreenenter"",""1"",""20118""
","
","","","-1","","","19","13204","5477","y","elianto","#f73b6a7A"," ","-1","0","-10","[]","0","2","","","13204","133","7","3","lose","go","0"
"pit-trial","252","1687229","0.0-138.0","battery-v0.2","","""event"",""trial"",""time""
""fullscreenenter"",""1"",""20118""
","
","
","""event"",""trial"",""time""
""fullscreenenter"",""1"",""20118""
","
","","","-1","","","19","13204","5477","m","elianto","#3366ff99","-1","-1","1","+10","[]","0","2","","","13204","134","9","2","win","no-go","0"
"pit-trial","253","1692093","0.0-139.0","battery-v0.2","","""event"",""trial"",""time""
""fullscreenenter"",""1"",""20118""
","
","
","""event"",""trial"",""time""
""fullscreenenter"",""1"",""20118""
","
","","","-1","","","19","13204","5477","r","elianto","#3366ff99","-1","-1","1","+10","[]","0","2","","","13204","135","8","2","win","no-go","0"
"pit-trial","254","1696956","0.0-140.0","battery-v0.2","","""event"",""trial"",""time""
""fullscreenenter"",""1"",""20118""
","
","
","""event"",""trial"",""time""
""fullscreenenter"",""1"",""20118""
","
","","","-1","","","19","13204","5477","h","elianto","#f73b6a7A","-1","-1","1","0","[]","0","2","","","13204","136","6","4","lose","no-go","0"
"pit-trial","255","1701822","0.0-141.0","battery-v0.2","","""event"",""trial"",""time""
""fullscreenenter"",""1"",""20118""
","
","
","""event"",""trial"",""time""
""fullscreenenter"",""1"",""20118""
","
","","","-1","","","19","13204","5477","h","elianto","#f73b6a7A","-1","-1","1","0","[]","0","2","","","13204","137","6","4","lose","no-go","0"
"pit-trial","256","1706686","0.0-142.0","battery-v0.2","","""event"",""trial"",""time""
""fullscreenenter"",""1"",""20118""
","
","
","""event"",""trial"",""time""
""fullscreenenter"",""1"",""20118""
","
","","","-1","","","19","13204","5477","m","elianto","#3366ff99","-1","-1","1","+10","[]","0","2","","","13204","138","9","2","win","no-go","0"
"pit-trial","257","1710740","0.0-143.0","battery-v0.2","","""event"",""trial"",""time""
""fullscreenenter"",""1"",""20118""
","
","
","""event"",""trial"",""time""
""fullscreenenter"",""1"",""20118""
","
","","","1195.7999999523163","","","19","13204","5477","y","elianto","#f73b6a7A"," "," ","1","0","[2046.5]","1","2","","","13204","139","7","3","lose","go","0"
"pit-trial","258","1715604","0.0-144.0","battery-v0.2","","""event"",""trial"",""time""
""fullscreenenter"",""1"",""20118""
","
","
","""event"",""trial"",""time""
""fullscreenenter"",""1"",""20118""
","
","","","-1","","","19","13204","5477","r","elianto","#3366ff99","-1","-1","1","+10","[]","0","2","","","13204","140","8","2","win","no-go","0"
"pit-instructions","259","1750178","0.0-145.0","battery-v0.2","","""event"",""trial"",""time""
""fullscreenenter"",""1"",""20118""
","
","
","""event"",""trial"",""time""
""fullscreenenter"",""1"",""20118""
","
","","[{""page_index"":0,""viewing_time"":13221.899999976158},{""page_index"":1,""viewing_time"":21349.899999976158}]","34572.5","","","","","","","","","","","","","","","","","","","","","","","",""
"pit-trial","260","1754502","0.0-146.0","battery-v0.2","","""event"",""trial"",""time""
""fullscreenenter"",""1"",""20118""
","
","
","""event"",""trial"",""time""
""fullscreenenter"",""1"",""20118""
","
","","","1458","","","19","13204","5477","j","elianto","#f73b6a7A"," "," ","1","0","[2310.5]","1","3","","","13204","141","0","3","lose","go","0"
"pit-trial","261","1758400","0.0-147.0","battery-v0.2","","""event"",""trial"",""time""
""fullscreenenter"",""1"",""20118""
","
","
","""event"",""trial"",""time""
""fullscreenenter"",""1"",""20118""
","
","","","1036.3999999761581","","","19","13204","5477","w","elianto","#f73b6a7A","-1"," ","0","0","[1888.1000000238419]","1","3","","","13204","142","3","4","lose","no-go","1"
"pit-trial","262","1763265","0.0-148.0","battery-v0.2","","""event"",""trial"",""time""
""fullscreenenter"",""1"",""20118""
","
","
","""event"",""trial"",""time""
""fullscreenenter"",""1"",""20118""
","
","","","-1","","","19","13204","5477","e","elianto","#f73b6a7A"," ","-1","0","-10","[]","0","3","","","13204","143","2","3","lose","go","0"
"pit-trial","263","1767137","0.0-149.0","battery-v0.2","","""event"",""trial"",""time""
""fullscreenenter"",""1"",""20118""
","
","
","""event"",""trial"",""time""
""fullscreenenter"",""1"",""20118""
","
","","","1016.1999999880791","","","19","13204","5477","d","elianto","#3366ff99","-1"," ","0","+10","[1866.9000000357628]","1","3","","","13204","144","1","2","win","no-go","1"
"pit-trial","264","1771307","0.0-150.0","battery-v0.2","","""event"",""trial"",""time""
""fullscreenenter"",""1"",""20118""
","
","
","""event"",""trial"",""time""
""fullscreenenter"",""1"",""20118""
","
","","","1310","","","19","13204","5477","j","elianto","#f73b6a7A"," "," ","1","0","[2162]","1","3","","","13204","145","0","3","lose","go","0"
"pit-trial","265","1776171","0.0-151.0","battery-v0.2","","""event"",""trial"",""time""
""fullscreenenter"",""1"",""20118""
","
","
","""event"",""trial"",""time""
""fullscreenenter"",""1"",""20118""
","
","","","-1","","","19","13204","5477","w","elianto","#f73b6a7A","-1","-1","1","0","[]","0","3","","","13204","146","3","4","lose","no-go","0"
"pit-trial","266","1781036","0.0-152.0","battery-v0.2","","""event"",""trial"",""time""
""fullscreenenter"",""1"",""20118""
","
","
