"trial_type","trial_index","time_elapsed","internal_node_id","task_version","subject_id","interactions","blur_events","focus_events","fullscreenenter_events","fullscreenexit_events","success","view_history","rt","responses","num_errors","age","subject","participantId","rune","rune_set","hex","correct","choice","accuracy","outcome","keys","total_keys","block","practice","value","sub","trial","stimulus","robot","valence","action","sham"
"pavlovia","0","8","0.0-0.0","battery-v0.2","","""event"",""trial"",""time""
""fullscreenenter"",""1"",""1937""
","
","
","""event"",""trial"",""time""
""fullscreenenter"",""1"",""1937""
","
","","","","","","","","","","","","","","","","","","","","","","","","","","",""
"fullscreen","1","2915","0.0-1.0","battery-v0.2","","""event"",""trial"",""time""
""fullscreenenter"",""1"",""1937""
","
","
","""event"",""trial"",""time""
""fullscreenenter"",""1"",""1937""
","
","true","","","","","","","","","","","","","","","","","","","","","","","","","",""
"pit-instructions","2","7991","0.0-2.0-0.0","battery-v0.2","","""event"",""trial"",""time""
""fullscreenenter"",""1"",""1937""
","
","
","""event"",""trial"",""time""
""fullscreenenter"",""1"",""1937""
","
","","[{""page_index"":0,""viewing_time"":5068.899999976158}]","5069.399999976158","","","","","","","","","","","","","","","","","","","","","","","",""
"pit-comprehension","3","11269","0.0-2.0-1.0-0.0","battery-v0.2","","""event"",""trial"",""time""
""fullscreenenter"",""1"",""1937""
","
","
","""event"",""trial"",""time""
""fullscreenenter"",""1"",""1937""
","
","","","3273.5","[""shark""]","0","18","7808","3961","","","","","","","","","","","","","","","","","","",""
"pit-instructions","4","13195","0.0-2.0-1.0-1.0","battery-v0.2","","""event"",""trial"",""time""
""fullscreenenter"",""1"",""1937""
","
","
","""event"",""trial"",""time""
""fullscreenenter"",""1"",""1937""
","
","","[{""page_index"":0,""viewing_time"":1912.800000011921}]","1913.3999999761581","","","","","","","","","","","","","","","","","","","","","","","",""
"pit-comprehension","5","15180","0.0-2.0-2.0-0.0","battery-v0.2","","""event"",""trial"",""time""
""fullscreenenter"",""1"",""1937""
","
","
","""event"",""trial"",""time""
""fullscreenenter"",""1"",""1937""
","
","","","1980.5","[""tiger""]","0","18","7808","3961","","","","","","","","","","","","","","","","","","",""
"pit-instructions","6","24888","0.0-2.0-2.0-1.0","battery-v0.2","","""event"",""trial"",""time""
""fullscreenenter"",""1"",""1937""
","
","
","""event"",""trial"",""time""
""fullscreenenter"",""1"",""1937""
","
","","[{""page_index"":0,""viewing_time"":9702}]","9702.5","","","","","","","","","","","","","","","","","","","","","","","",""
"pit-instructions","7","194633","0.0-2.0-3.0","battery-v0.2","","""event"",""trial"",""time""
""fullscreenenter"",""1"",""1937""
","
","
","""event"",""trial"",""time""
""fullscreenenter"",""1"",""1937""
","
","","[{""page_index"":0,""viewing_time"":8830.199999988079},{""page_index"":1,""viewing_time"":5047.199999988079},{""page_index"":2,""viewing_time"":6596.199999988079},{""page_index"":3,""viewing_time"":5153.800000011921},{""page_index"":4,""viewing_time"":9295},{""page_index"":5,""viewing_time"":2963.699999988079},{""page_index"":4,""viewing_time"":412.7000000476837},{""page_index"":3,""viewing_time"":339.89999997615814},{""page_index"":2,""viewing_time"":900.6999999880791},{""page_index"":1,""viewing_time"":974.6999999880791},{""page_index"":0,""viewing_time"":9506.700000047684},{""page_index"":1,""viewing_time"":13222.199999988079},{""page_index"":2,""viewing_time"":25056.80000001192},{""page_index"":3,""viewing_time"":11098.799999952316},{""page_index"":4,""viewing_time"":8399.200000047684},{""page_index"":5,""viewing_time"":5426.799999952316},{""page_index"":6,""viewing_time"":8029},{""page_index"":7,""viewing_time"":7570},{""page_index"":8,""viewing_time"":6251.300000011921},{""page_index"":9,""viewing_time"":8415.800000011921},{""page_index"":10,""viewing_time"":7176.100000023842},{""page_index"":11,""viewing_time"":7216.199999988079},{""page_index"":12,""viewing_time"":6361.800000011921},{""page_index"":13,""viewing_time"":5495}]","169740.5","","","","","","","","","","","","","","","","","","","","","","","",""
"pit-trial","8","197896","0.0-2.0-4.0-0.0","battery-v0.2","","""event"",""trial"",""time""
""fullscreenenter"",""1"",""1937""
","
","
","""event"",""trial"",""time""
""fullscreenenter"",""1"",""1937""
","
","","","390.89999997615814","","","18","7808","3961","&#9784;","elianto","#FFFFF080"," "," ","1","&#10004","[1243.7000000476837]","1","0","0","","","","","","","",""
"pit-trial","9","201092","0.0-2.0-4.1-0.1","battery-v0.2","","""event"",""trial"",""time""
""fullscreenenter"",""1"",""1937""
","
","
","""event"",""trial"",""time""
""fullscreenenter"",""1"",""1937""
","
","","","333.2000000476837","","","18","7808","3961","&#9784;","elianto","#FFFFF080"," "," ","1","&#10004","[1191]","1","0","0","","","","","","","",""
"pit-trial","10","204349","0.0-2.0-4.2-0.2","battery-v0.2","","""event"",""trial"",""time""
""fullscreenenter"",""1"",""1937""
","
","
","""event"",""trial"",""time""
""fullscreenenter"",""1"",""1937""
","
","","","389.10000002384186","","","18","7808","3961","&#9784;","elianto","#FFFFF080"," "," ","1","&#10004","[1251]","1","0","0","","","","","","","",""
"pit-trial","11","207598","0.0-2.0-4.3-0.3","battery-v0.2","","""event"",""trial"",""time""
""fullscreenenter"",""1"",""1937""
","
","
","""event"",""trial"",""time""
""fullscreenenter"",""1"",""1937""
","
","","","393.5","","","18","7808","3961","&#9784;","elianto","#FFFFF080"," "," ","1","&#10004","[1247]","1","0","0","","","","","","","",""
"pit-trial","12","210849","0.0-2.0-4.4-0.4","battery-v0.2","","""event"",""trial"",""time""
""fullscreenenter"",""1"",""1937""
","
","
","""event"",""trial"",""time""
""fullscreenenter"",""1"",""1937""
","
","","","381.4000000357628","","","18","7808","3961","&#9784;","elianto","#FFFFF080"," "," ","1","&#10004","[1235.800000011921]","1","0","0","","","","","","","",""
"pit-instructions","13","233749","0.0-2.0-5.0","battery-v0.2","","""event"",""trial"",""time""
""fullscreenenter"",""1"",""1937""
","
","
","""event"",""trial"",""time""
""fullscreenenter"",""1"",""1937""
","
","","[{""page_index"":0,""viewing_time"":6379.600000023842},{""page_index"":1,""viewing_time"":5682.5},{""page_index"":2,""viewing_time"":5198.399999976158},{""page_index"":3,""viewing_time"":5637.800000011921}]","22898.600000023842","","","","","","","","","","","","","","","","","","","","","","","",""
"pit-trial","14","238622","0.0-2.0-6.0-0.0","battery-v0.2","","""event"",""trial"",""time""
""fullscreenenter"",""1"",""1937""
","
","
","""event"",""trial"",""time""
""fullscreenenter"",""1"",""1937""
","
","","","-1","","","18","7808","3961","&#9854;","elianto","#FFFFF080","-1","-1","1","&#10004","[]","0","0","1","","","","","","","",""
"pit-trial","15","243490","0.0-2.0-6.1-0.1","battery-v0.2","","""event"",""trial"",""time""
""fullscreenenter"",""1"",""1937""
","
","
","""event"",""trial"",""time""
""fullscreenenter"",""1"",""1937""
","
","","","-1","","","18","7808","3961","&#9854;","elianto","#FFFFF080","-1","-1","1","&#10004","[]","0","0","1","","","","","","","",""
"pit-trial","16","248356","0.0-2.0-6.2-0.2","battery-v0.2","","""event"",""trial"",""time""
""fullscreenenter"",""1"",""1937""
","
","
","""event"",""trial"",""time""
""fullscreenenter"",""1"",""1937""
","
","","","-1","","","18","7808","3961","&#9854;","elianto","#FFFFF080","-1","-1","1","&#10004","[]","0","0","1","","","","","","","",""
"pit-trial","17","253224","0.0-2.0-6.3-0.3","battery-v0.2","","""event"",""trial"",""time""
""fullscreenenter"",""1"",""1937""
","
","
","""event"",""trial"",""time""
""fullscreenenter"",""1"",""1937""
","
","","","-1","","","18","7808","3961","&#9854;","elianto","#FFFFF080","-1","-1","1","&#10004","[]","0","0","1","","","","","","","",""
"pit-trial","18","258090","0.0-2.0-6.4-0.4","battery-v0.2","","""event"",""trial"",""time""
""fullscreenenter"",""1"",""1937""
","
","
","""event"",""trial"",""time""
""fullscreenenter"",""1"",""1937""
","
","","","-1","","","18","7808","3961","&#9854;","elianto","#FFFFF080","-1","-1","1","&#10004","[]","0","0","1","","","","","","","",""
"pit-instructions","19","360297","0.0-2.0-7.0","battery-v0.2","","""event"",""trial"",""time""
""fullscreenenter"",""1"",""1937""
","
","
","""event"",""trial"",""time""
""fullscreenenter"",""1"",""1937""
","
","","[{""page_index"":0,""viewing_time"":5250.5},{""page_index"":1,""viewing_time"":6026.5},{""page_index"":2,""viewing_time"":5449.899999976158},{""page_index"":3,""viewing_time"":5218.199999988079},{""page_index"":4,""viewing_time"":5192.699999988079},{""page_index"":5,""viewing_time"":5062.5},{""page_index"":6,""viewing_time"":4119.400000035763},{""page_index"":7,""viewing_time"":7208},{""page_index"":8,""viewing_time"":6072.800000011921},{""page_index"":9,""viewing_time"":5010.399999976158},{""page_index"":10,""viewing_time"":6189.100000023842},{""page_index"":11,""viewing_time"":4101.099999964237},{""page_index"":12,""viewing_time"":6171},{""page_index"":13,""viewing_time"":6279.5},{""page_index"":14,""viewing_time"":6232},{""page_index"":15,""viewing_time"":6095},{""page_index"":16,""viewing_time"":6301.900000035763},{""page_index"":17,""viewing_time"":6221.399999976158}]","102202.5","","","","","","","","","","","","","","","","","","","","","","","",""
"pit-trial","20","363630","0.0-2.0-8.0-0.0","battery-v0.2","","""event"",""trial"",""time""
""fullscreenenter"",""1"",""1937""
","
","
","""event"",""trial"",""time""
""fullscreenenter"",""1"",""1937""
","
","","","459.2000000476837","","","18","7808","3961","&#9776;","elianto","#3366ff99"," "," ","1","+10","[1314.199999988079]","1","0","1","","","","","","","",""
"pit-trial","21","366873","0.0-2.0-8.0-1.0","battery-v0.2","","""event"",""trial"",""time""
""fullscreenenter"",""1"",""1937""
","
","
","""event"",""trial"",""time""
""fullscreenenter"",""1"",""1937""
","
","","","374.60000002384186","","","18","7808","3961","&#9776;","elianto","#3366ff99"," "," ","1","+10","[1224.5999999642372]","1","0","1","","","","","","","",""
"pit-trial","22","370105","0.0-2.0-8.0-2.0","battery-v0.2","","""event"",""trial"",""time""
""fullscreenenter"",""1"",""1937""
","
","
","""event"",""trial"",""time""
""fullscreenenter"",""1"",""1937""
","
","","","357.2000000476837","","","18","7808","3961","&#9776;","elianto","#3366ff99"," "," ","1","+10","[1213.800000011921]","1","0","1","","","","","","","",""
"pit-trial","23","373326","0.0-2.0-8.0-3.0","battery-v0.2","","""event"",""trial"",""time""
""fullscreenenter"",""1"",""1937""
","
","
","""event"",""trial"",""time""
""fullscreenenter"",""1"",""1937""
","
","","","357","","","18","7808","3961","&#9776;","elianto","#3366ff99"," "," ","1","0","[1214.5]","1","0","1","","","","","","","",""
"pit-trial","24","376577","0.0-2.0-8.0-4.0","battery-v0.2","","""event"",""trial"",""time""
""fullscreenenter"",""1"",""1937""
","
","
","""event"",""trial"",""time""
""fullscreenenter"",""1"",""1937""
","
","","","381.5999999642372","","","18","7808","3961","&#9776;","elianto","#3366ff99"," "," ","1","+10","[1232.199999988079]","1","0","1","","","","","","","",""
"pit-trial","25","379815","0.0-2.0-8.1-0.1","battery-v0.2","","""event"",""trial"",""time""
""fullscreenenter"",""1"",""1937""
","
","
","""event"",""trial"",""time""
""fullscreenenter"",""1"",""1937""
","
","","","379.9000000357628","","","18","7808","3961","&#9776;","elianto","#3366ff99"," "," ","1","+10","[1229.7999999523163]","1","0","1","","","","","","","",""
"pit-trial","26","383031","0.0-2.0-8.1-1.1","battery-v0.2","","""event"",""trial"",""time""
""fullscreenenter"",""1"",""1937""
","
","
","""event"",""trial"",""time""
""fullscreenenter"",""1"",""1937""
","
","","","344","","","18","7808","3961","&#9776;","elianto","#3366ff99"," "," ","1","+10","[1204.5999999642372]","1","0","1","","","","","","","",""
"pit-trial","27","386388","0.0-2.0-8.1-2.1","battery-v0.2","","""event"",""trial"",""time""
""fullscreenenter"",""1"",""1937""
","
","
","""event"",""trial"",""time""
""fullscreenenter"",""1"",""1937""
","
","","","482.80000001192093","","","18","7808","3961","&#9776;","elianto","#3366ff99"," "," ","1","+10","[1343.2000000476837]","1","0","1","","","","","","","",""
"pit-trial","28","389651","0.0-2.0-8.1-3.1","battery-v0.2","","""event"",""trial"",""time""
""fullscreenenter"",""1"",""1937""
","
","
","""event"",""trial"",""time""
""fullscreenenter"",""1"",""1937""
","
","","","391.7999999523163","","","18","7808","3961","&#9776;","elianto","#3366ff99"," "," ","1","0","[1246.300000011921]","1","0","1","","","","","","","",""
"pit-trial","29","392981","0.0-2.0-8.1-4.1","battery-v0.2","","""event"",""trial"",""time""
""fullscreenenter"",""1"",""1937""
","
","
","""event"",""trial"",""time""
""fullscreenenter"",""1"",""1937""
","
","","","471.19999998807907","","","18","7808","3961","&#9776;","elianto","#3366ff99"," "," ","1","+10","[1326.800000011921]","1","0","1","","","","","","","",""
"pit-trial","30","396160","0.0-2.0-8.2-0.2","battery-v0.2","","""event"",""trial"",""time""
""fullscreenenter"",""1"",""1937""
","
","
","""event"",""trial"",""time""
""fullscreenenter"",""1"",""1937""
","
","","","324.5","","","18","7808","3961","&#9776;","elianto","#3366ff99"," "," ","1","+10","[1175.5]","1","0","1","","","","","","","",""
"pit-trial","31","399397","0.0-2.0-8.2-1.2","battery-v0.2","","""event"",""trial"",""time""
""fullscreenenter"",""1"",""1937""
","
","
","""event"",""trial"",""time""
""fullscreenenter"",""1"",""1937""
","
","","","381","","","18","7808","3961","&#9776;","elianto","#3366ff99"," "," ","1","+10","[1233.0999999642372]","1","0","1","","","","","","","",""
"pit-trial","32","402670","0.0-2.0-8.2-2.2","battery-v0.2","","""event"",""trial"",""time""
""fullscreenenter"",""1"",""1937""
","
","
","""event"",""trial"",""time""
""fullscreenenter"",""1"",""1937""
","
","","","418.5","","","18","7808","3961","&#9776;","elianto","#3366ff99"," "," ","1","+10","[1269.0999999642372]","1","0","1","","","","","","","",""
"pit-trial","33","406136","0.0-2.0-8.2-3.2","battery-v0.2","","""event"",""trial"",""time""
""fullscreenenter"",""1"",""1937""
","
","
","""event"",""trial"",""time""
""fullscreenenter"",""1"",""1937""
","
","","","612.1999999880791","","","18","7808","3961","&#9776;","elianto","#3366ff99"," "," ","1","0","[1462.8999999761581]","1","0","1","","","","","","","",""
"pit-trial","34","410181","0.0-2.0-8.2-4.2","battery-v0.2","","""event"",""trial"",""time""
""fullscreenenter"",""1"",""1937""
","
","
","""event"",""trial"",""time""
""fullscreenenter"",""1"",""1937""
","
","","","1191.5999999642372","","","18","7808","3961","&#9776;","elianto","#3366ff99"," "," ","1","+10","[2042.9000000357628]","1","0","1","","","","","","","",""
"call-function","35","410184","0.0-2.0-9.0","battery-v0.2","","""event"",""trial"",""time""
""fullscreenenter"",""1"",""1937""
","
","
","""event"",""trial"",""time""
""fullscreenenter"",""1"",""1937""
","
","","","","","","","","","","","","","","","","","","","","","","","","","","",""
"pit-instructions","36","451709","0.0-2.0-10.0","battery-v0.2","","""event"",""trial"",""time""
""fullscreenenter"",""1"",""1937""
","
","
","""event"",""trial"",""time""
""fullscreenenter"",""1"",""1937""
","
","","[{""page_index"":0,""viewing_time"":5715.5},{""page_index"":1,""viewing_time"":6180.100000023842},{""page_index"":2,""viewing_time"":11350.099999964237},{""page_index"":3,""viewing_time"":8247.800000011921},{""page_index"":4,""viewing_time"":10030.300000011921}]","41524.5","","","","","","","","","","","","","","","","","","","","","","","",""
"pit-trial","37","456575","0.0-2.0-11.0-0.0","battery-v0.2","","""event"",""trial"",""time""
""fullscreenenter"",""1"",""1937""
","
","
","""event"",""trial"",""time""
""fullscreenenter"",""1"",""1937""
","
","","","-1","","","18","7808","3961","&#9761;","elianto","#3366ff99","-1","-1","1","+10","[]","0","0","2","","","","","","","",""
"pit-trial","38","461449","0.0-2.0-11.0-1.0","battery-v0.2","","""event"",""trial"",""time""
""fullscreenenter"",""1"",""1937""
","
","
","""event"",""trial"",""time""
""fullscreenenter"",""1"",""1937""
","
","","","-1","","","18","7808","3961","&#9761;","elianto","#3366ff99","-1","-1","1","+10","[]","0","0","2","","","","","","","",""
"pit-trial","39","465484","0.0-2.0-11.0-2.0","battery-v0.2","","""event"",""trial"",""time""
""fullscreenenter"",""1"",""1937""
","
","
","""event"",""trial"",""time""
""fullscreenenter"",""1"",""1937""
","
","","","1160.3999999761581","","","18","7808","3961","&#9761;","elianto","#3366ff99","-1"," ","0","0","[2023.699999988079]","1","0","2","","","","","","","",""
"pit-trial","40","468942","0.0-2.0-11.0-3.0","battery-v0.2","","""event"",""trial"",""time""
""fullscreenenter"",""1"",""1937""
","
","
","""event"",""trial"",""time""
""fullscreenenter"",""1"",""1937""
","
","","","578.6000000238419","","","18","7808","3961","&#9761;","elianto","#3366ff99","-1"," ","0","+10","[1439.699999988079]","1","0","2","","","","","","","",""
"pit-trial","41","471948","0.0-2.0-11.0-4.0","battery-v0.2","","""event"",""trial"",""time""
""fullscreenenter"",""1"",""1937""
","
","
","""event"",""trial"",""time""
""fullscreenenter"",""1"",""1937""
","
","","","149.30000001192093","","","18","7808","3961","&#9761;","elianto","#3366ff99","-1"," ","0","0","[1001.5999999642372]","1","0","2","","","","","","","",""
"pit-trial","42","475102","0.0-2.0-11.1-0.1","battery-v0.2","","""event"",""trial"",""time""
""fullscreenenter"",""1"",""1937""
","
","
","""event"",""trial"",""time""
""fullscreenenter"",""1"",""1937""
","
","","","274.19999998807907","","","18","7808","3961","&#9761;","elianto","#3366ff99","-1"," ","0","0","[1135.199999988079]","1","0","2","","","","","","","",""
"pit-trial","43","478372","0.0-2.0-11.1-1.1","battery-v0.2","","""event"",""trial"",""time""
""fullscreenenter"",""1"",""1937""
","
","
","""event"",""trial"",""time""
""fullscreenenter"",""1"",""1937""
","
","","","405.80000001192093","","","18","7808","3961","&#9761;","elianto","#3366ff99","-1"," ","0","0","[1262.699999988079]","1","0","2","","","","","","","",""
"pit-trial","44","483226","0.0-2.0-11.1-2.1","battery-v0.2","","""event"",""trial"",""time""
""fullscreenenter"",""1"",""1937""
","
","
","""event"",""trial"",""time""
""fullscreenenter"",""1"",""1937""
","
","","","-1","","","18","7808","3961","&#9761;","elianto","#3366ff99","-1","-1","1","+10","[]","0","0","2","","","","","","","",""
"pit-trial","45","488079","0.0-2.0-11.1-3.1","battery-v0.2","","""event"",""trial"",""time""
""fullscreenenter"",""1"",""1937""
","
","
","""event"",""trial"",""time""
""fullscreenenter"",""1"",""1937""
","
","","","-1","","","18","7808","3961","&#9761;","elianto","#3366ff99","-1","-1","1","0","[]","0","0","2","","","","","","","",""
"pit-trial","46","492945","0.0-2.0-11.1-4.1","battery-v0.2","","""event"",""trial"",""time""
""fullscreenenter"",""1"",""1937""
","
","
","""event"",""trial"",""time""
""fullscreenenter"",""1"",""1937""
","
","","","-1","","","18","7808","3961","&#9761;","elianto","#3366ff99","-1","-1","1","+10","[]","0","0","2","","","","","","","",""
"pit-trial","47","497800","0.0-2.0-11.2-0.2","battery-v0.2","","""event"",""trial"",""time""
""fullscreenenter"",""1"",""1937""
","
","
","""event"",""trial"",""time""
""fullscreenenter"",""1"",""1937""
","
","","","-1","","","18","7808","3961","&#9761;","elianto","#3366ff99","-1","-1","1","+10","[]","0","0","2","","","","","","","",""
"pit-trial","48","502654","0.0-2.0-11.2-1.2","battery-v0.2","","""event"",""trial"",""time""
""fullscreenenter"",""1"",""1937""
","
","
","""event"",""trial"",""time""
""fullscreenenter"",""1"",""1937""
","
","","","-1","","","18","7808","3961","&#9761;","elianto","#3366ff99","-1","-1","1","+10","[]","0","0","2","","","","","","","",""
"pit-trial","49","507522","0.0-2.0-11.2-2.2","battery-v0.2","","""event"",""trial"",""time""
""fullscreenenter"",""1"",""1937""
","
","
","""event"",""trial"",""time""
""fullscreenenter"",""1"",""1937""
","
","","","-1","","","18","7808","3961","&#9761;","elianto","#3366ff99","-1","-1","1","+10","[]","0","0","2","","","","","","","",""
"pit-trial","50","512375","0.0-2.0-11.2-3.2","battery-v0.2","","""event"",""trial"",""time""
""fullscreenenter"",""1"",""1937""
","
","
","""event"",""trial"",""time""
""fullscreenenter"",""1"",""1937""
","
","","","-1","","","18","7808","3961","&#9761;","elianto","#3366ff99","-1","-1","1","0","[]","0","0","2","","","","","","","",""
"pit-trial","51","517230","0.0-2.0-11.2-4.2","battery-v0.2","","""event"",""trial"",""time""
""fullscreenenter"",""1"",""1937""
","
","
","""event"",""trial"",""time""
""fullscreenenter"",""1"",""1937""
","
","","","-1","","","18","7808","3961","&#9761;","elianto","#3366ff99","-1","-1","1","+10","[]","0","0","2","","","","","","","",""
"pit-trial","52","522084","0.0-2.0-11.3-0.3","battery-v0.2","","""event"",""trial"",""time""
""fullscreenenter"",""1"",""1937""
","
","
","""event"",""trial"",""time""
""fullscreenenter"",""1"",""1937""
","
","","","-1","","","18","7808","3961","&#9761;","elianto","#3366ff99","-1","-1","1","+10","[]","0","0","2","","","","","","","",""
"pit-trial","53","526937","0.0-2.0-11.3-1.3","battery-v0.2","","""event"",""trial"",""time""
""fullscreenenter"",""1"",""1937""
","
","
","""event"",""trial"",""time""
""fullscreenenter"",""1"",""1937""
","
","","","-1","","","18","7808","3961","&#9761;","elianto","#3366ff99","-1","-1","1","+10","[]","0","0","2","","","","","","","",""
"pit-trial","54","531508","0.0-2.0-11.3-2.3","battery-v0.2","","""event"",""trial"",""time""
""fullscreenenter"",""1"",""1937""
","
","
","""event"",""trial"",""time""
""fullscreenenter"",""1"",""1937""
","
","","","1716","","","18","7808","3961","&#9761;","elianto","#3366ff99","-1"," ","0","0","[2566.800000011921]","1","0","2","","","","","","","",""
"pit-trial","55","536366","0.0-2.0-11.3-3.3","battery-v0.2","","""event"",""trial"",""time""
""fullscreenenter"",""1"",""1937""
","
","
","""event"",""trial"",""time""
""fullscreenenter"",""1"",""1937""
","
","","","-1","","","18","7808","3961","&#9761;","elianto","#3366ff99","-1","-1","1","0","[]","0","0","2","","","","","","","",""
"pit-trial","56","541221","0.0-2.0-11.3-4.3","battery-v0.2","","""event"",""trial"",""time""
""fullscreenenter"",""1"",""1937""
","
","
","""event"",""trial"",""time""
""fullscreenenter"",""1"",""1937""
","
","","","-1","","","18","7808","3961","&#9761;","elianto","#3366ff99","-1","-1","1","+10","[]","0","0","2","","","","","","","",""
"call-function","57","541223","0.0-2.0-12.0","battery-v0.2","","""event"",""trial"",""time""
""fullscreenenter"",""1"",""1937""
","
","
","""event"",""trial"",""time""
""fullscreenenter"",""1"",""1937""
","
","","","","","","","","","","","","","","","","","","","","","","","","","","",""
"pit-instructions","58","581408","0.0-2.0-13.0","battery-v0.2","","""event"",""trial"",""time""
""fullscreenenter"",""1"",""1937""
","
","
","""event"",""trial"",""time""
""fullscreenenter"",""1"",""1937""
","
","","[{""page_index"":0,""viewing_time"":7654.800000011921},{""page_index"":1,""viewing_time"":9182.399999976158},{""page_index"":2,""viewing_time"":6394.600000023842},{""page_index"":3,""viewing_time"":11419.299999952316},{""page_index"":4,""viewing_time"":5532.300000011921}]","40183.89999997616","","","","","","","","","","","","","","","","","","","","","","","",""
"pit-trial","59","585072","0.0-2.0-14.0-0.0","battery-v0.2","","""event"",""trial"",""time""
""fullscreenenter"",""1"",""1937""
","
","
","""event"",""trial"",""time""
""fullscreenenter"",""1"",""1937""
","
","","","804.5999999642372","","","18","7808","3961","&#9826;","elianto","#f73b6a7A","-1"," ","0","-10","[1656.300000011921]","1","0","3","","","","","","","",""
"pit-trial","60","589950","0.0-2.0-14.0-1.0","battery-v0.2","","""event"",""trial"",""time""
""fullscreenenter"",""1"",""1937""
","
","
","""event"",""trial"",""time""
""fullscreenenter"",""1"",""1937""
","
","","","-1","","","18","7808","3961","&#9826;","elianto","#f73b6a7A","-1","-1","1","0","[]","0","0","3","","","","","","","",""
"pit-trial","61","594829","0.0-2.0-14.0-2.0","battery-v0.2","","""event"",""trial"",""time""
""fullscreenenter"",""1"",""1937""
","
","
","""event"",""trial"",""time""
""fullscreenenter"",""1"",""1937""
","
","","","-1","","","18","7808","3961","&#9826;","elianto","#f73b6a7A","-1","-1","1","0","[]","0","0","3","","","","","","","",""
"pit-trial","62","599698","0.0-2.0-14.0-3.0","battery-v0.2","","""event"",""trial"",""time""
""fullscreenenter"",""1"",""1937""
","
","
","""event"",""trial"",""time""
""fullscreenenter"",""1"",""1937""
","
","","","-1","","","18","7808","3961","&#9826;","elianto","#f73b6a7A","-1","-1","1","-10","[]","0","0","3","","","","","","","",""
"pit-trial","63","604570","0.0-2.0-14.0-4.0","battery-v0.2","","""event"",""trial"",""time""
""fullscreenenter"",""1"",""1937""
","
","
","""event"",""trial"",""time""
""fullscreenenter"",""1"",""1937""
","
","","","-1","","","18","7808","3961","&#9826;","elianto","#f73b6a7A","-1","-1","1","0","[]","0","0","3","","","","","","","",""
"pit-trial","64","609432","0.0-2.0-14.1-0.1","battery-v0.2","","""event"",""trial"",""time""
""fullscreenenter"",""1"",""1937""
","
","
","""event"",""trial"",""time""
""fullscreenenter"",""1"",""1937""
","
","","","-1","","","18","7808","3961","&#9826;","elianto","#f73b6a7A","-1","-1","1","0","[]","0","0","3","","","","","","","",""
"pit-trial","65","614285","0.0-2.0-14.1-1.1","battery-v0.2","","""event"",""trial"",""time""
""fullscreenenter"",""1"",""1937""
","
","
","""event"",""trial"",""time""
""fullscreenenter"",""1"",""1937""
","
","","","-1","","","18","7808","3961","&#9826;","elianto","#f73b6a7A","-1","-1","1","0","[]","0","0","3","","","","","","","",""
"pit-trial","66","619140","0.0-2.0-14.1-2.1","battery-v0.2","","""event"",""trial"",""time""
""fullscreenenter"",""1"",""1937""
","
","
","""event"",""trial"",""time""
""fullscreenenter"",""1"",""1937""
","
","","","-1","","","18","7808","3961","&#9826;","elianto","#f73b6a7A","-1","-1","1","0","[]","0","0","3","","","","","","","",""
"pit-trial","67","623993","0.0-2.0-14.1-3.1","battery-v0.2","","""event"",""trial"",""time""
""fullscreenenter"",""1"",""1937""
","
","
","""event"",""trial"",""time""
""fullscreenenter"",""1"",""1937""
","
","","","-1","","","18","7808","3961","&#9826;","elianto","#f73b6a7A","-1","-1","1","-10","[]","0","0","3","","","","","","","",""
"pit-trial","68","628846","0.0-2.0-14.1-4.1","battery-v0.2","","""event"",""trial"",""time""
""fullscreenenter"",""1"",""1937""
","
","
","""event"",""trial"",""time""
""fullscreenenter"",""1"",""1937""
","
","","","-1","","","18","7808","3961","&#9826;","elianto","#f73b6a7A","-1","-1","1","0","[]","0","0","3","","","","","","","",""
"pit-trial","69","633700","0.0-2.0-14.2-0.2","battery-v0.2","","""event"",""trial"",""time""
""fullscreenenter"",""1"",""1937""
","
","
","""event"",""trial"",""time""
""fullscreenenter"",""1"",""1937""
","
","","","-1","","","18","7808","3961","&#9826;","elianto","#f73b6a7A","-1","-1","1","0","[]","0","0","3","","","","","","","",""
"pit-trial","70","638554","0.0-2.0-14.2-1.2","battery-v0.2","","""event"",""trial"",""time""
""fullscreenenter"",""1"",""1937""
","
","
","""event"",""trial"",""time""
""fullscreenenter"",""1"",""1937""
","
","","","-1","","","18","7808","3961","&#9826;","elianto","#f73b6a7A","-1","-1","1","0","[]","0","0","3","","","","","","","",""
"pit-trial","71","643407","0.0-2.0-14.2-2.2","battery-v0.2","","""event"",""trial"",""time""
""fullscreenenter"",""1"",""1937""
","
","
","""event"",""trial"",""time""
""fullscreenenter"",""1"",""1937""
","
","","","-1","","","18","7808","3961","&#9826;","elianto","#f73b6a7A","-1","-1","1","0","[]","0","0","3","","","","","","","",""
"pit-trial","72","648260","0.0-2.0-14.2-3.2","battery-v0.2","","""event"",""trial"",""time""
""fullscreenenter"",""1"",""1937""
","
","
","""event"",""trial"",""time""
""fullscreenenter"",""1"",""1937""
","
","","","-1","","","18","7808","3961","&#9826;","elianto","#f73b6a7A","-1","-1","1","-10","[]","0","0","3","","","","","","","",""
"pit-trial","73","653113","0.0-2.0-14.2-4.2","battery-v0.2","","""event"",""trial"",""time""
""fullscreenenter"",""1"",""1937""
","
","
","""event"",""trial"",""time""
""fullscreenenter"",""1"",""1937""
","
","","","-1","","","18","7808","3961","&#9826;","elianto","#f73b6a7A","-1","-1","1","0","[]","0","0","3","","","","","","","",""
"pit-trial","74","657969","0.0-2.0-14.3-0.3","battery-v0.2","","""event"",""trial"",""time""
""fullscreenenter"",""1"",""1937""
","
","
","""event"",""trial"",""time""
""fullscreenenter"",""1"",""1937""
","
","","","-1","","","18","7808","3961","&#9826;","elianto","#f73b6a7A","-1","-1","1","0","[]","0","0","3","","","","","","","",""
"pit-trial","75","662824","0.0-2.0-14.3-1.3","battery-v0.2","","""event"",""trial"",""time""
""fullscreenenter"",""1"",""1937""
","
","
","""event"",""trial"",""time""
""fullscreenenter"",""1"",""1937""
","
","","","-1","","","18","7808","3961","&#9826;","elianto","#f73b6a7A","-1","-1","1","0","[]","0","0","3","","","","","","","",""
"pit-trial","76","667677","0.0-2.0-14.3-2.3","battery-v0.2","","""event"",""trial"",""time""
""fullscreenenter"",""1"",""1937""
","
","
","""event"",""trial"",""time""
""fullscreenenter"",""1"",""1937""
","
","","","-1","","","18","7808","3961","&#9826;","elianto","#f73b6a7A","-1","-1","1","0","[]","0","0","3","","","","","","","",""
"pit-trial","77","672531","0.0-2.0-14.3-3.3","battery-v0.2","","""event"",""trial"",""time""
""fullscreenenter"",""1"",""1937""
","
","
","""event"",""trial"",""time""
""fullscreenenter"",""1"",""1937""
","
","","","-1","","","18","7808","3961","&#9826;","elianto","#f73b6a7A","-1","-1","1","-10","[]","0","0","3","","","","","","","",""
"pit-trial","78","677384","0.0-2.0-14.3-4.3","battery-v0.2","","""event"",""trial"",""time""
""fullscreenenter"",""1"",""1937""
","
","
","""event"",""trial"",""time""
""fullscreenenter"",""1"",""1937""
","
","","","-1","","","18","7808","3961","&#9826;","elianto","#f73b6a7A","-1","-1","1","0","[]","0","0","3","","","","","","","",""
"call-function","79","677387","0.0-2.0-15.0","battery-v0.2","","""event"",""trial"",""time""
""fullscreenenter"",""1"",""1937""
","
","
","""event"",""trial"",""time""
""fullscreenenter"",""1"",""1937""
","
","","","","","","","","","","","","","","","","","","","","","","","","","","",""
"pit-instructions","80","703286","0.0-2.0-16.0","battery-v0.2","","""event"",""trial"",""time""
""fullscreenenter"",""1"",""1937""
","
","
","""event"",""trial"",""time""
""fullscreenenter"",""1"",""1937""
","
","","[{""page_index"":0,""viewing_time"":9514},{""page_index"":1,""viewing_time"":8093.699999988079},{""page_index"":2,""viewing_time"":4101.300000011921},{""page_index"":3,""viewing_time"":4189.699999988079}]","25899.099999964237","","","","","","","","","","","","","","","","","","","","","","","",""
"pit-trial","81","706621","0.0-2.0-17.0-0.0","battery-v0.2","","""event"",""trial"",""time""
""fullscreenenter"",""1"",""1937""
","
","
","""event"",""trial"",""time""
""fullscreenenter"",""1"",""1937""
","
","","","475.30000001192093","","","18","7808","3961","&#9789;","elianto","#f73b6a7A"," "," ","1","0","[1330.800000011921]","1","0","4","","","","","","","",""
"pit-trial","82","709841","0.0-2.0-17.0-1.0","battery-v0.2","","""event"",""trial"",""time""
""fullscreenenter"",""1"",""1937""
","
","
","""event"",""trial"",""time""
""fullscreenenter"",""1"",""1937""
","
","","","360.60000002384186","","","18","7808","3961","&#9789;","elianto","#f73b6a7A"," "," ","1","0","[1213.4000000357628]","1","0","4","","","","","","","",""
"pit-trial","83","713003","0.0-2.0-17.0-2.0","battery-v0.2","","""event"",""trial"",""time""
""fullscreenenter"",""1"",""1937""
","
","
","""event"",""trial"",""time""
""fullscreenenter"",""1"",""1937""
","
","","","298.89999997615814","","","18","7808","3961","&#9789;","elianto","#f73b6a7A"," "," ","1","0","[1149.699999988079]","1","0","4","","","","","","","",""
"pit-trial","84","716235","0.0-2.0-17.0-3.0","battery-v0.2","","""event"",""trial"",""time""
""fullscreenenter"",""1"",""1937""
","
","
","""event"",""trial"",""time""
""fullscreenenter"",""1"",""1937""
","
","","","371.5999999642372","","","18","7808","3961","&#9789;","elianto","#f73b6a7A"," "," ","1","-10","[1224.2999999523163]","1","0","4","","","","","","","",""
"pit-trial","85","719441","0.0-2.0-17.0-4.0","battery-v0.2","","""event"",""trial"",""time""
""fullscreenenter"",""1"",""1937""
","
","
","""event"",""trial"",""time""
""fullscreenenter"",""1"",""1937""
","
","","","337.9000000357628","","","18","7808","3961","&#9789;","elianto","#f73b6a7A"," "," ","1","0","[1191.800000011921]","1","0","4","","","","","","","",""
"pit-trial","86","723106","0.0-2.0-17.1-0.1","battery-v0.2","","""event"",""trial"",""time""
""fullscreenenter"",""1"",""1937""
","
","
","""event"",""trial"",""time""
""fullscreenenter"",""1"",""1937""
","
","","","788.3999999761581","","","18","7808","3961","&#9789;","elianto","#f73b6a7A"," "," ","1","0","[1650.8999999761581]","1","0","4","","","","","","","",""
"pit-trial","87","726746","0.0-2.0-17.1-1.1","battery-v0.2","","""event"",""trial"",""time""
""fullscreenenter"",""1"",""1937""
","
","
","""event"",""trial"",""time""
""fullscreenenter"",""1"",""1937""
","
","","","778.5","","","18","7808","3961","&#9789;","elianto","#f73b6a7A"," "," ","1","0","[1629.1000000238419]","1","0","4","","","","","","","",""
"pit-trial","88","730100","0.0-2.0-17.1-2.1","battery-v0.2","","""event"",""trial"",""time""
""fullscreenenter"",""1"",""1937""
","
","
","""event"",""trial"",""time""
""fullscreenenter"",""1"",""1937""
","
","","","479.5","","","18","7808","3961","&#9789;","elianto","#f73b6a7A"," "," ","1","0","[1337.300000011921]","1","0","4","","","","","","","",""
"pit-trial","89","733665","0.0-2.0-17.1-3.1","battery-v0.2","","""event"",""trial"",""time""
""fullscreenenter"",""1"",""1937""
","
","
","""event"",""trial"",""time""
""fullscreenenter"",""1"",""1937""
","
","","","699.3999999761581","","","18","7808","3961","&#9789;","elianto","#f73b6a7A"," "," ","1","-10","[1551.699999988079]","1","0","4","","","","","","","",""
"pit-trial","90","736942","0.0-2.0-17.1-4.1","battery-v0.2","","""event"",""trial"",""time""
""fullscreenenter"",""1"",""1937""
","
","
","""event"",""trial"",""time""
""fullscreenenter"",""1"",""1937""
","
","","","420.4000000357628","","","18","7808","3961","&#9789;","elianto","#f73b6a7A"," "," ","1","0","[1274.6000000238419]","1","0","4","","","","","","","",""
"pit-trial","91","740302","0.0-2.0-17.2-0.2","battery-v0.2","","""event"",""trial"",""time""
""fullscreenenter"",""1"",""1937""
","
","
","""event"",""trial"",""time""
""fullscreenenter"",""1"",""1937""
","
","","","505.39999997615814","","","18","7808","3961","&#9789;","elianto","#f73b6a7A"," "," ","1","0","[1356.2999999523163]","1","0","4","","","","","","","",""
"pit-trial","92","743736","0.0-2.0-17.2-1.2","battery-v0.2","","""event"",""trial"",""time""
""fullscreenenter"",""1"",""1937""
","
","
","""event"",""trial"",""time""
""fullscreenenter"",""1"",""1937""
","
","","","578.2000000476837","","","18","7808","3961","&#9789;","elianto","#f73b6a7A"," "," ","1","0","[1430.699999988079]","1","0","4","","","","","","","",""
"pit-trial","93","747092","0.0-2.0-17.2-2.2","battery-v0.2","","""event"",""trial"",""time""
""fullscreenenter"",""1"",""1937""
","
","
","""event"",""trial"",""time""
""fullscreenenter"",""1"",""1937""
","
","","","502.5","","","18","7808","3961","&#9789;","elianto","#f73b6a7A"," "," ","1","0","[1353.0999999642372]","1","0","4","","","","","","","",""
"pit-trial","94","750615","0.0-2.0-17.2-3.2","battery-v0.2","","""event"",""trial"",""time""
""fullscreenenter"",""1"",""1937""
","
","
","""event"",""trial"",""time""
""fullscreenenter"",""1"",""1937""
","
","","","669.6000000238419","","","18","7808","3961","&#9789;","elianto","#f73b6a7A"," "," ","1","-10","[1519.800000011921]","1","0","4","","","","","","","",""
"pit-trial","95","753823","0.0-2.0-17.2-4.2","battery-v0.2","","""event"",""trial"",""time""
""fullscreenenter"",""1"",""1937""
","
","
","""event"",""trial"",""time""
""fullscreenenter"",""1"",""1937""
","
","","","355.10000002384186","","","18","7808","3961","&#9789;","elianto","#f73b6a7A"," "," ","1","0","[1205.5999999642372]","1","0","4","","","","","","","",""
"pit-trial","96","757942","0.0-2.0-17.3-0.3","battery-v0.2","","""event"",""trial"",""time""
""fullscreenenter"",""1"",""1937""
","
","
","""event"",""trial"",""time""
""fullscreenenter"",""1"",""1937""
","
","","","1264.1000000238419","","","18","7808","3961","&#9789;","elianto","#f73b6a7A"," "," ","1","0","[2114.699999988079]","1","0","4","","","","","","","",""
"pit-trial","97","761260","0.0-2.0-17.3-1.3","battery-v0.2","","""event"",""trial"",""time""
""fullscreenenter"",""1"",""1937""
","
","
","""event"",""trial"",""time""
""fullscreenenter"",""1"",""1937""
","
","","","463.7999999523163","","","18","7808","3961","&#9789;","elianto","#f73b6a7A"," "," ","1","0","[1315.4000000357628]","1","0","4","","","","","","","",""
"pit-trial","98","764409","0.0-2.0-17.3-2.3","battery-v0.2","","""event"",""trial"",""time""
""fullscreenenter"",""1"",""1937""
","
","
","""event"",""trial"",""time""
""fullscreenenter"",""1"",""1937""
","
","","","293.9000000357628","","","18","7808","3961","&#9789;","elianto","#f73b6a7A"," "," ","1","0","[1144.5999999642372]","1","0","4","","","","","","","",""
"pit-trial","99","767559","0.0-2.0-17.3-3.3","battery-v0.2","","""event"",""trial"",""time""
""fullscreenenter"",""1"",""1937""
","
","
","""event"",""trial"",""time""
""fullscreenenter"",""1"",""1937""
","
","","","296.80000001192093","","","18","7808","3961","&#9789;","elianto","#f73b6a7A"," "," ","1","-10","[1147]","1","0","4","","","","","","","",""
"pit-trial","100","771089","0.0-2.0-17.3-4.3","battery-v0.2","","""event"",""trial"",""time""
""fullscreenenter"",""1"",""1937""
","
","
","""event"",""trial"",""time""
""fullscreenenter"",""1"",""1937""
","
","","","675.6000000238419","","","18","7808","3961","&#9789;","elianto","#f73b6a7A"," "," ","1","0","[1526.5]","1","0","4","","","","","","","",""
"call-function","101","771091","0.0-2.0-18.0","battery-v0.2","","""event"",""trial"",""time""
""fullscreenenter"",""1"",""1937""
","
","
","""event"",""trial"",""time""
""fullscreenenter"",""1"",""1937""
","
","","","","","","","","","","","","","","","","","","","","","","","","","","",""
"pit-instructions","102","890394","0.0-2.0-19.0","battery-v0.2","","""event"",""trial"",""time""
""fullscreenenter"",""1"",""1937""
","
","
","""event"",""trial"",""time""
""fullscreenenter"",""1"",""1937""
","
","","[{""page_index"":0,""viewing_time"":8926.100000023842},{""page_index"":1,""viewing_time"":7080.599999964237},{""page_index"":2,""viewing_time"":15101.600000023842},{""page_index"":3,""viewing_time"":8863.600000023842},{""page_index"":4,""viewing_time"":11468.5},{""page_index"":5,""viewing_time"":24865.19999998808},{""page_index"":6,""viewing_time"":15291.599999964237},{""page_index"":7,""viewing_time"":23943.600000023842},{""page_index"":8,""viewing_time"":3762.100000023842}]","119303.40000003576","","","","","","","","","","","","","","","","","","","","","","","",""
"pit-comprehension","103","895478","0.0-2.0-20.0-0.0","battery-v0.2","","""event"",""trial"",""time""
""fullscreenenter"",""1"",""1937""
","
","
","""event"",""trial"",""time""
""fullscreenenter"",""1"",""1937""
","
","","","5078.399999976158","[""SPACE""]","0","18","7808","3961","","","","","","","","","","","","","","","","","","",""
"pit-instructions","104","899279","0.0-2.0-20.0-1.0","battery-v0.2","","""event"",""trial"",""time""
""fullscreenenter"",""1"",""1937""
","
","
","""event"",""trial"",""time""
""fullscreenenter"",""1"",""1937""
","
","","[{""page_index"":0,""viewing_time"":3771.800000011921}]","3772.300000011921","","","","","","","","","","","","","","","","","","","","","","","",""
"pit-comprehension","105","903813","0.0-2.0-21.0-0.0","battery-v0.2","","""event"",""trial"",""time""
""fullscreenenter"",""1"",""1937""
","
","
","""event"",""trial"",""time""
""fullscreenenter"",""1"",""1937""
","
","","","4528.800000011921","[""10""]","0","18","7808","3961","","","","","","","","","","","","","","","","","","",""
"pit-instructions","106","905949","0.0-2.0-21.0-1.0","battery-v0.2","","""event"",""trial"",""time""
""fullscreenenter"",""1"",""1937""
","
","
","""event"",""trial"",""time""
""fullscreenenter"",""1"",""1937""
","
","","[{""page_index"":0,""viewing_time"":2110.399999976158}]","2111","","","","","","","","","","","","","","","","","","","","","","","",""
"pit-comprehension","107","911958","0.0-2.0-22.0-0.0","battery-v0.2","","""event"",""trial"",""time""
""fullscreenenter"",""1"",""1937""
","
","
","""event"",""trial"",""time""
""fullscreenenter"",""1"",""1937""
","
","","","6004","[""0""]","0","18","7808","3961","","","","","","","","","","","","","","","","","","",""
"pit-instructions","108","913328","0.0-2.0-22.0-1.0","battery-v0.2","","""event"",""trial"",""time""
""fullscreenenter"",""1"",""1937""
","
","
","""event"",""trial"",""time""
""fullscreenenter"",""1"",""1937""
","
","","[{""page_index"":0,""viewing_time"":1340.2000000476837}]","1340.7000000476837","","","","","","","","","","","","","","","","","","","","","","","",""
"pit-comprehension","109","922041","0.0-2.0-23.0-0.0","battery-v0.2","","""event"",""trial"",""time""
""fullscreenenter"",""1"",""1937""
","
","
","""event"",""trial"",""time""
""fullscreenenter"",""1"",""1937""
","
","","","8708.600000023842","[""True""]","0","18","7808","3961","","","","","","","","","","","","","","","","","","",""
"pit-instructions","110","925772","0.0-2.0-23.0-1.0","battery-v0.2","","""event"",""trial"",""time""
""fullscreenenter"",""1"",""1937""
","
","
","""event"",""trial"",""time""
""fullscreenenter"",""1"",""1937""
","
","","[{""page_index"":0,""viewing_time"":3701.699999988079}]","3702.199999988079","","","","","","","","","","","","","","","","","","","","","","","",""
"pit-comprehension","111","933003","0.0-2.0-24.0-0.0","battery-v0.2","","""event"",""trial"",""time""
""fullscreenenter"",""1"",""1937""
","
","
","""event"",""trial"",""time""
""fullscreenenter"",""1"",""1937""
","
","","","7226","[""True""]","0","18","7808","3961","","","","","","","","","","","","","","","","","","",""
"pit-instructions","112","934733","0.0-2.0-24.0-1.0","battery-v0.2","","""event"",""trial"",""time""
""fullscreenenter"",""1"",""1937""
","
","
","""event"",""trial"",""time""
""fullscreenenter"",""1"",""1937""
","
","","[{""page_index"":0,""viewing_time"":1701.300000011921}]","1701.5","","","","","","","","","","","","","","","","","","","","","","","",""
"pit-comprehension","113","940826","0.0-2.0-25.0-0.0","battery-v0.2","","""event"",""trial"",""time""
""fullscreenenter"",""1"",""1937""
","
","
","""event"",""trial"",""time""
""fullscreenenter"",""1"",""1937""
","
","","","6089.600000023842","[""True""]","0","18","7808","3961","","","","","","","","","","","","","","","","","","",""
"pit-instructions","114","943314","0.0-2.0-25.0-1.0","battery-v0.2","","""event"",""trial"",""time""
""fullscreenenter"",""1"",""1937""
","
","
","""event"",""trial"",""time""
""fullscreenenter"",""1"",""1937""
","
","","[{""page_index"":0,""viewing_time"":2457.600000023842}]","2458","","","","","","","","","","","","","","","","","","","","","","","",""
"pit-comprehension","115","948378","0.0-2.0-26.0-0.0","battery-v0.2","","""event"",""trial"",""time""
""fullscreenenter"",""1"",""1937""
","
","
","""event"",""trial"",""time""
""fullscreenenter"",""1"",""1937""
","
","","","5059.600000023842","[""False""]","0","18","7808","3961","","","","","","","","","","","","","","","","","","",""
"pit-instructions","116","949485","0.0-2.0-26.0-1.0","battery-v0.2","","""event"",""trial"",""time""
""fullscreenenter"",""1"",""1937""
","
","
","""event"",""trial"",""time""
""fullscreenenter"",""1"",""1937""
","
","","[{""page_index"":0,""viewing_time"":1081.6000000238419}]","1082.1000000238419","","","","","","","","","","","","","","","","","","","","","","","",""
"pit-instructions","117","965428","0.0-3.0","battery-v0.2","","""event"",""trial"",""time""
""fullscreenenter"",""1"",""1937""
","
","
","""event"",""trial"",""time""
""fullscreenenter"",""1"",""1937""
","
","","[{""page_index"":0,""viewing_time"":3885.800000011921},{""page_index"":1,""viewing_time"":5043.5},{""page_index"":2,""viewing_time"":7010.199999988079}]","15940","","","","","","","","","","","","","","","","","","","","","","","",""
"pit-trial","118","970296","0.0-4.0","battery-v0.2","","""event"",""trial"",""time""
""fullscreenenter"",""1"",""1937""
","
","
","""event"",""trial"",""time""
""fullscreenenter"",""1"",""1937""
","
","","","-1","","","18","7808","3961","&#9728;","elianto","#f73b6a7A","-1","-1","1","0","[]","0","1","","","7808","1","0","4","lose","no-go","0"
"pit-trial","119","975157","0.0-5.0","battery-v0.2","","""event"",""trial"",""time""
""fullscreenenter"",""1"",""1937""
","
","
","""event"",""trial"",""time""
""fullscreenenter"",""1"",""1937""
","
","","","-1","","","18","7808","3961","&#9752;","elianto","#f73b6a7A"," ","-1","0","-10","[]","0","1","","","7808","2","3","3","lose","go","0"
"pit-trial","120","978704","0.0-6.0","battery-v0.2","","""event"",""trial"",""time""
""fullscreenenter"",""1"",""1937""
","
","
","""event"",""trial"",""time""
""fullscreenenter"",""1"",""1937""
","
","","","686.8999999761581","","","18","7808","3961","&#9730;","elianto","#3366ff99"," "," ","1","+10","[1544.300000011921]","1","1","","","7808","3","1","1","win","go","0"
"pit-trial","121","982117","0.0-7.0","battery-v0.2","","""event"",""trial"",""time""
""fullscreenenter"",""1"",""1937""
","
","
","""event"",""trial"",""time""
""fullscreenenter"",""1"",""1937""
","
","","","549.8999999761581","","","18","7808","3961","&#9733;","elianto","#3366ff99","-1"," ","0","0","[1408.5999999642372]","1","1","","","7808","4","2","2","win","no-go","0"
"pit-trial","122","986221","0.0-8.0","battery-v0.2","","""event"",""trial"",""time""
""fullscreenenter"",""1"",""1937""
","
","
","""event"",""trial"",""time""
""fullscreenenter"",""1"",""1937""
","
","","","1236.5","","","18","7808","3961","&#9752;","elianto","#f73b6a7A"," "," ","1","0","[2086.900000035763]","1","1","","","7808","5","3","3","lose","go","0"
"pit-trial","123","991082","0.0-9.0","battery-v0.2","","""event"",""trial"",""time""
""fullscreenenter"",""1"",""1937""
","
","
","""event"",""trial"",""time""
""fullscreenenter"",""1"",""1937""
","
","","","-1","","","18","7808","3961","&#9728;","elianto","#f73b6a7A","-1","-1","1","0","[]","0","1","","","7808","6","0","4","lose","no-go","0"
"pit-trial","124","994858","0.0-10.0","battery-v0.2","","""event"",""trial"",""time""
""fullscreenenter"",""1"",""1937""
","
","
","""event"",""trial"",""time""
""fullscreenenter"",""1"",""1937""
","
","","","901.6999999880791","","","18","7808","3961","&#9730;","elianto","#3366ff99"," "," ","1","0","[1764.800000011921]","1","1","","","7808","7","1","1","win","go","1"
"pit-trial","125","998237","0.0-11.0","battery-v0.2","","""event"",""trial"",""time""
""fullscreenenter"",""1"",""1937""
","
","
","""event"",""trial"",""time""
""fullscreenenter"",""1"",""1937""
","
","","","520.5","","","18","7808","3961","&#9733;","elianto","#3366ff99","-1"," ","0","0","[1374.5999999642372]","1","1","","","7808","8","2","2","win","no-go","0"
"pit-trial","126","1003092","0.0-12.0","battery-v0.2","","""event"",""trial"",""time""
""fullscreenenter"",""1"",""1937""
","
","
","""event"",""trial"",""time""
""fullscreenenter"",""1"",""1937""
","
","","","-1","","","18","7808","3961","&#9728;","elianto","#f73b6a7A","-1","-1","1","-10","[]","0","1","","","7808","9","0","4","lose","no-go","1"
"pit-trial","127","1007945","0.0-13.0","battery-v0.2","","""event"",""trial"",""time""
""fullscreenenter"",""1"",""1937""
","
","
","""event"",""trial"",""time""
""fullscreenenter"",""1"",""1937""
","
","","","-1","","","18","7808","3961","&#9733;","elianto","#3366ff99","-1","-1","1","+10","[3008.099999964237]","1","1","","","7808","10","2","2","win","no-go","0"
"pit-trial","128","1011824","0.0-14.0","battery-v0.2","","""event"",""trial"",""time""
""fullscreenenter"",""1"",""1937""
","
","
","""event"",""trial"",""time""
""fullscreenenter"",""1"",""1937""
","
","","","1024.9000000357628","","","18","7808","3961","&#9730;","elianto","#3366ff99"," "," ","1","+10","[1875.5]","1","1","","","7808","11","1","1","win","go","0"
"pit-trial","129","1015822","0.0-15.0","battery-v0.2","","""event"",""trial"",""time""
""fullscreenenter"",""1"",""1937""
","
","
","""event"",""trial"",""time""
""fullscreenenter"",""1"",""1937""
","
","","","1144","","","18","7808","3961","&#9752;","elianto","#f73b6a7A"," "," ","1","0","[1994]","1","1","","","7808","12","3","3","lose","go","0"
"pit-trial","130","1020675","0.0-16.0","battery-v0.2","","""event"",""trial"",""time""
""fullscreenenter"",""1"",""1937""
","
","
","""event"",""trial"",""time""
""fullscreenenter"",""1"",""1937""
","
","","","-1","","","18","7808","3961","&#9728;","elianto","#f73b6a7A","-1","-1","1","0","[]","0","1","","","7808","13","0","4","lose","no-go","0"
"pit-trial","131","1025466","0.0-17.0","battery-v0.2","","""event"",""trial"",""time""
""fullscreenenter"",""1"",""1937""
","
","
","""event"",""trial"",""time""
""fullscreenenter"",""1"",""1937""
","
","","","1937.0999999642372","","","18","7808","3961","&#9733;","elianto","#3366ff99","-1"," ","0","0","[2787.199999988079]","1","1","","","7808","14","2","2","win","no-go","0"
"pit-trial","132","1029370","0.0-18.0","battery-v0.2","","""event"",""trial"",""time""
""fullscreenenter"",""1"",""1937""
","
","
","""event"",""trial"",""time""
""fullscreenenter"",""1"",""1937""
","
","","","1052.1000000238419","","","18","7808","3961","&#9730;","elianto","#3366ff99"," "," ","1","+10","[1902.4000000357628]","1","1","","","7808","15","1","1","win","go","0"
"pit-trial","133","1033820","0.0-19.0","battery-v0.2","","""event"",""trial"",""time""
""fullscreenenter"",""1"",""1937""
","
","
","""event"",""trial"",""time""
""fullscreenenter"",""1"",""1937""
","
","","","1594.8999999761581","","","18","7808","3961","&#9752;","elianto","#f73b6a7A"," "," ","1","0","[2445.100000023842]","1","1","","","7808","16","3","3","lose","go","0"
"pit-trial","134","1038673","0.0-20.0","battery-v0.2","","""event"",""trial"",""time""
""fullscreenenter"",""1"",""1937""
","
","
","""event"",""trial"",""time""
""fullscreenenter"",""1"",""1937""
","
","","","-1","","","18","7808","3961","&#9728;","elianto","#f73b6a7A","-1","-1","1","0","[]","0","1","","","7808","17","0","4","lose","no-go","0"
"pit-trial","135","1042958","0.0-21.0","battery-v0.2","","""event"",""trial"",""time""
""fullscreenenter"",""1"",""1937""
","
","
","""event"",""trial"",""time""
""fullscreenenter"",""1"",""1937""
","
","","","1429.199999988079","","","18","7808","3961","&#9752;","elianto","#f73b6a7A"," "," ","1","0","[2280.5]","1","1","","","7808","18","3","3","lose","go","0"
"pit-trial","136","1047340","0.0-22.0","battery-v0.2","","""event"",""trial"",""time""
""fullscreenenter"",""1"",""1937""
","
","
","""event"",""trial"",""time""
""fullscreenenter"",""1"",""1937""
","
","","","1524.699999988079","","","18","7808","3961","&#9730;","elianto","#3366ff99"," "," ","1","+10","[2377.899999976158]","1","1","","","7808","19","1","1","win","go","0"
"pit-trial","137","1052194","0.0-23.0","battery-v0.2","","""event"",""trial"",""time""
""fullscreenenter"",""1"",""1937""
","
","
","""event"",""trial"",""time""
""fullscreenenter"",""1"",""1937""
","
","","","-1","","","18","7808","3961","&#9733;","elianto","#3366ff99","-1","-1","1","+10","[]","0","1","","","7808","20","2","2","win","no-go","0"
"pit-instructions","138","1064241","0.0-24.0","battery-v0.2","","""event"",""trial"",""time""
""fullscreenenter"",""1"",""1937""
","
","
","""event"",""trial"",""time""
""fullscreenenter"",""1"",""1937""
","
","","[{""page_index"":0,""viewing_time"":5716.699999988079},{""page_index"":1,""viewing_time"":6327.300000011921}]","12044.600000023842","","","","","","","","","","","","","","","","","","","","","","","",""
"pit-trial","139","1069104","0.0-25.0","battery-v0.2","","""event"",""trial"",""time""
""fullscreenenter"",""1"",""1937""
","
","
","""event"",""trial"",""time""
""fullscreenenter"",""1"",""1937""
","
","","","-1","","","18","7808","3961","j","elianto","#f73b6a7A"," ","-1","0","0","[]","0","2","","","7808","21","0","3","lose","go","1"
"pit-trial","140","1073527","0.0-26.0","battery-v0.2","","""event"",""trial"",""time""
""fullscreenenter"",""1"",""1937""
","
","
","""event"",""trial"",""time""
""fullscreenenter"",""1"",""1937""
","
","","","1554.6000000238419","","","18","7808","3961","w","elianto","#f73b6a7A","-1"," ","0","-10","[2415.699999988079]","1","2","","","7808","22","3","4","lose","no-go","0"
"pit-trial","141","1078391","0.0-27.0","battery-v0.2","","""event"",""trial"",""time""
""fullscreenenter"",""1"",""1937""
","
","
","""event"",""trial"",""time""
""fullscreenenter"",""1"",""1937""
","
","","","-1","","","18","7808","3961","e","elianto","#f73b6a7A"," ","-1","0","-10","[]","0","2","","","7808","23","2","3","lose","go","0"
"pit-trial","142","1082190","0.0-28.0","battery-v0.2","","""event"",""trial"",""time""
""fullscreenenter"",""1"",""1937""
","
","
","""event"",""trial"",""time""
""fullscreenenter"",""1"",""1937""
","
","","","943.5","","","18","7808","3961","d","elianto","#3366ff99","-1"," ","0","+10","[1795.5999999642372]","1","2","","","7808","24","1","2","win","no-go","1"
"pit-trial","143","1087056","0.0-29.0","battery-v0.2","","""event"",""trial"",""time""
""fullscreenenter"",""1"",""1937""
","
","
","""event"",""trial"",""time""
""fullscreenenter"",""1"",""1937""
","
","","","-1","","","18","7808","3961","j","elianto","#f73b6a7A"," ","-1","0","-10","[]","0","2","","","7808","25","0","3","lose","go","0"
"pit-trial","144","1090952","0.0-30.0","battery-v0.2","","""event"",""trial"",""time""
""fullscreenenter"",""1"",""1937""
","
","
","""event"",""trial"",""time""
""fullscreenenter"",""1"",""1937""
","
","","","1025.6000000238419","","","18","7808","3961","d","elianto","#3366ff99","-1"," ","0","0","[1883.2999999523163]","1","2","","","7808","26","1","2","win","no-go","0"
"pit-trial","145","1095805","0.0-31.0","battery-v0.2","","""event"",""trial"",""time""
""fullscreenenter"",""1"",""1937""
","
","
","""event"",""trial"",""time""
""fullscreenenter"",""1"",""1937""
","
","","","-1","","","18","7808","3961","w","elianto","#f73b6a7A","-1","-1","1","0","[]","0","2","","","7808","27","3","4","lose","no-go","0"
"pit-trial","146","1100242","0.0-32.0","battery-v0.2","","""event"",""trial"",""time""
""fullscreenenter"",""1"",""1937""
","
","
","""event"",""trial"",""time""
""fullscreenenter"",""1"",""1937""
","
","","","1582.6000000238419","","","18","7808","3961","e","elianto","#f73b6a7A"," "," ","1","0","[2433.699999988079]","1","2","","","7808","28","2","3","lose","go","0"
"pit-trial","147","1105097","0.0-33.0","battery-v0.2","","""event"",""trial"",""time""
""fullscreenenter"",""1"",""1937""
","
","
","""event"",""trial"",""time""
""fullscreenenter"",""1"",""1937""
","
","","","-1","","","18","7808","3961","j","elianto","#f73b6a7A"," ","-1","0","0","[]","0","2","","","7808","29","0","3","lose","go","1"
"pit-trial","148","1109951","0.0-34.0","battery-v0.2","","""event"",""trial"",""time""
""fullscreenenter"",""1"",""1937""
","
","
","""event"",""trial"",""time""
""fullscreenenter"",""1"",""1937""
","
","","","-1","","","18","7808","3961","e","elianto","#f73b6a7A"," ","-1","0","-10","[3145.300000011921]","1","2","","","7808","30","2","3","lose","go","0"
"pit-trial","149","1114805","0.0-35.0","battery-v0.2","","""event"",""trial"",""time""
""fullscreenenter"",""1"",""1937""
","
","
","""event"",""trial"",""time""
""fullscreenenter"",""1"",""1937""
","
","","","-1","","","18","7808","3961","w","elianto","#f73b6a7A","-1","-1","1","0","[]","0","2","","","7808","31","3","4","lose","no-go","0"
"pit-trial","150","1118854","0.0-36.0","battery-v0.2","","""event"",""trial"",""time""
""fullscreenenter"",""1"",""1937""
","
","
","""event"",""trial"",""time""
""fullscreenenter"",""1"",""1937""
","
","","","1195.0999999642372","","","18","7808","3961","d","elianto","#3366ff99","-1"," ","0","0","[2046.199999988079]","1","2","","","7808","32","1","2","win","no-go","0"
"pit-trial","151","1123708","0.0-37.0","battery-v0.2","","""event"",""trial"",""time""
""fullscreenenter"",""1"",""1937""
","
","
","""event"",""trial"",""time""
""fullscreenenter"",""1"",""1937""
","
","","","-1","","","18","7808","3961","j","elianto","#f73b6a7A"," ","-1","0","-10","[]","0","2","","","7808","33","0","3","lose","go","0"
"pit-trial","152","1127658","0.0-38.0","battery-v0.2","","""event"",""trial"",""time""
""fullscreenenter"",""1"",""1937""
","
","
","""event"",""trial"",""time""
""fullscreenenter"",""1"",""1937""
","
","","","1096.1000000238419","","","18","7808","3961","e","elianto","#f73b6a7A"," "," ","1","0","[1946.5]","1","2","","","7808","34","2","3","lose","go","0"
"pit-trial","153","1131696","0.0-39.0","battery-v0.2","","""event"",""trial"",""time""
""fullscreenenter"",""1"",""1937""
","
","
","""event"",""trial"",""time""
""fullscreenenter"",""1"",""1937""
","
","","","1184.6000000238419","","","18","7808","3961","d","elianto","#3366ff99","-1"," ","0","0","[2034.9000000357628]","1","2","","","7808","35","1","2","win","no-go","0"
"pit-trial","154","1136551","0.0-40.0","battery-v0.2","","""event"",""trial"",""time""
""fullscreenenter"",""1"",""1937""
","
","
","""event"",""trial"",""time""
""fullscreenenter"",""1"",""1937""
","
","","","-1","","","18","7808","3961","w","elianto","#f73b6a7A","-1","-1","1","0","[]","0","2","","","7808","36","3","4","lose","no-go","0"
"pit-trial","155","1139977","0.0-41.0","battery-v0.2","","""event"",""trial"",""time""
""fullscreenenter"",""1"",""1937""
","
","
","""event"",""trial"",""time""
""fullscreenenter"",""1"",""1937""
","
","","","571.3999999761581","","","18","7808","3961","e","elianto","#f73b6a7A"," "," ","1","0","[1422.2999999523163]","1","2","","","7808","37","2","3","lose","go","0"
"pit-trial","156","1144831","0.0-42.0","battery-v0.2","","""event"",""trial"",""time""
""fullscreenenter"",""1"",""1937""
","
","
","""event"",""trial"",""time""
""fullscreenenter"",""1"",""1937""
","
","","","-1","","","18","7808","3961","w","elianto","#f73b6a7A","-1","-1","1","-10","[]","0","2","","","7808","38","3","4","lose","no-go","1"
"pit-trial","157","1149684","0.0-43.0","battery-v0.2","","""event"",""trial"",""time""
""fullscreenenter"",""1"",""1937""
","
","
","""event"",""trial"",""time""
""fullscreenenter"",""1"",""1937""
","
","","","-1","","","18","7808","3961","d","elianto","#3366ff99","-1","-1","1","+10","[]","0","2","","","7808","39","1","2","win","no-go","0"
"pit-trial","158","1154537","0.0-44.0","battery-v0.2","","""event"",""trial"",""time""
""fullscreenenter"",""1"",""1937""
","
","
","""event"",""trial"",""time""
""fullscreenenter"",""1"",""1937""
","
","","","-1","","","18","7808","3961","j","elianto","#f73b6a7A"," ","-1","0","-10","[]","0","2","","","7808","40","0","3","lose","go","0"
"pit-trial","159","1159391","0.0-45.0","battery-v0.2","","""event"",""trial"",""time""
""fullscreenenter"",""1"",""1937""
","
","
","""event"",""trial"",""time""
""fullscreenenter"",""1"",""1937""
","
","","","-1","","","18","7808","3961","w","elianto","#f73b6a7A","-1","-1","1","0","[]","0","2","","","7808","41","3","4","lose","no-go","0"
"pit-trial","160","1164246","0.0-46.0","battery-v0.2","","""event"",""trial"",""time""
""fullscreenenter"",""1"",""1937""
","
","
","""event"",""trial"",""time""
""fullscreenenter"",""1"",""1937""
","
","","","-1","","","18","7808","3961","d","elianto","#3366ff99","-1","-1","1","+10","[]","0","2","","","7808","42","1","2","win","no-go","0"
"pit-trial","161","1167957","0.0-47.0","battery-v0.2","","""event"",""trial"",""time""
""fullscreenenter"",""1"",""1937""
","
","
","""event"",""trial"",""time""
""fullscreenenter"",""1"",""1937""
","
","","","856.3999999761581","","","18","7808","3961","e","elianto","#f73b6a7A"," "," ","1","-10","[1707.0999999642372]","1","2","","","7808","43","2","3","lose","go","1"
"pit-trial","162","1172810","0.0-48.0","battery-v0.2","","""event"",""trial"",""time""
""fullscreenenter"",""1"",""1937""
","
","
","""event"",""trial"",""time""
""fullscreenenter"",""1"",""1937""
","
","","","-1","","","18","7808","3961","j","elianto","#f73b6a7A"," ","-1","0","-10","[]","0","2","","","7808","44","0","3","lose","go","0"
"pit-trial","163","1177665","0.0-49.0","battery-v0.2","","""event"",""trial"",""time""
""fullscreenenter"",""1"",""1937""
","
","
","""event"",""trial"",""time""
""fullscreenenter"",""1"",""1937""
","
","","","-1","","","18","7808","3961","j","elianto","#f73b6a7A"," ","-1","0","-10","[]","0","2","","","7808","45","0","3","lose","go","0"
"pit-trial","164","1182520","0.0-50.0","battery-v0.2","","""event"",""trial"",""time""
""fullscreenenter"",""1"",""1937""
","
","
","""event"",""trial"",""time""
""fullscreenenter"",""1"",""1937""
","
","","","-1","","","18","7808","3961","d","elianto","#3366ff99","-1","-1","1","0","[]","0","2","","","7808","46","1","2","win","no-go","1"
"pit-trial","165","1186862","0.0-51.0","battery-v0.2","","""event"",""trial"",""time""
""fullscreenenter"",""1"",""1937""
","
","
","""event"",""trial"",""time""
""fullscreenenter"",""1"",""1937""
","
","","","1488.0999999642372","","","18","7808","3961","e","elianto","#f73b6a7A"," "," ","1","-10","[2338.800000011921]","1","2","","","7808","47","2","3","lose","go","1"
"pit-trial","166","1191716","0.0-52.0","battery-v0.2","","""event"",""trial"",""time""
""fullscreenenter"",""1"",""1937""
","
","
","""event"",""trial"",""time""
""fullscreenenter"",""1"",""1937""
","
","","","-1","","","18","7808","3961","w","elianto","#f73b6a7A","-1","-1","1","0","[]","0","2","","","7808","48","3","4","lose","no-go","0"
"pit-trial","167","1195372","0.0-53.0","battery-v0.2","","""event"",""trial"",""time""
""fullscreenenter"",""1"",""1937""
","
","
","""event"",""trial"",""time""
""fullscreenenter"",""1"",""1937""
","
","","","802","","","18","7808","3961","d","elianto","#3366ff99","-1"," ","0","0","[1653.300000011921]","1","2","","","7808","49","1","2","win","no-go","0"
"pit-trial","168","1200226","0.0-54.0","battery-v0.2","","""event"",""trial"",""time""
""fullscreenenter"",""1"",""1937""
","
","
","""event"",""trial"",""time""
""fullscreenenter"",""1"",""1937""
","
","","","1994.0999999642372","","","18","7808","3961","e","elianto","#f73b6a7A"," "," ","1","0","[2850.300000011921]","1","2","","","7808","50","2","3","lose","go","0"
"pit-trial","169","1205080","0.0-55.0","battery-v0.2","","""event"",""trial"",""time""
""fullscreenenter"",""1"",""1937""
","
","
","""event"",""trial"",""time""
""fullscreenenter"",""1"",""1937""
","
","","","-1","","","18","7808","3961","j","elianto","#f73b6a7A"," ","-1","0","-10","[]","0","2","","","7808","51","0","3","lose","go","0"
"pit-trial","170","1209934","0.0-56.0","battery-v0.2","","""event"",""trial"",""time""
""fullscreenenter"",""1"",""1937""
","
","
","""event"",""trial"",""time""
""fullscreenenter"",""1"",""1937""
","
","","","-1","","","18","7808","3961","w","elianto","#f73b6a7A","-1","-1","1","0","[]","0","2","","","7808","52","3","4","lose","no-go","0"
"pit-trial","171","1214788","0.0-57.0","battery-v0.2","","""event"",""trial"",""time""
""fullscreenenter"",""1"",""1937""
","
","
","""event"",""trial"",""time""
""fullscreenenter"",""1"",""1937""
","
","","","-1","","","18","7808","3961","w","elianto","#f73b6a7A","-1","-1","1","0","[]","0","2","","","7808","53","3","4","lose","no-go","0"
"pit-trial","172","1219643","0.0-58.0","battery-v0.2","","""event"",""trial"",""time""
""fullscreenenter"",""1"",""1937""
","
","
","""event"",""trial"",""time""
""fullscreenenter"",""1"",""1937""
","
","","","-1","","","18","7808","3961","d","elianto","#3366ff99","-1","-1","1","+10","[]","0","2","","","7808","54","1","2","win","no-go","0"
"pit-trial","173","1224001","0.0-59.0","battery-v0.2","","""event"",""trial"",""time""
""fullscreenenter"",""1"",""1937""
","
","
","""event"",""trial"",""time""
""fullscreenenter"",""1"",""1937""
","
","","","1505.199999988079","","","18","7808","3961","e","elianto","#f73b6a7A"," "," ","1","-10","[2355.300000011921]","1","2","","","7808","55","2","3","lose","go","1"
"pit-trial","174","1228855","0.0-60.0","battery-v0.2","","""event"",""trial"",""time""
""fullscreenenter"",""1"",""1937""
","
","
","""event"",""trial"",""time""
""fullscreenenter"",""1"",""1937""
","
","","","-1","","","18","7808","3961","j","elianto","#f73b6a7A"," ","-1","0","-10","[]","0","2","","","7808","56","0","3","lose","go","0"
"pit-trial","175","1233545","0.0-61.0","battery-v0.2","","""event"",""trial"",""time""
""fullscreenenter"",""1"",""1937""
","
","
","""event"",""trial"",""time""
""fullscreenenter"",""1"",""1937""
","
","","","1837.0999999642372","","","18","7808","3961","e","elianto","#f73b6a7A"," "," ","1","0","[2687.199999988079]","1","2","","","7808","57","2","3","lose","go","0"
"pit-trial","176","1238400","0.0-62.0","battery-v0.2","","""event"",""trial"",""time""
""fullscreenenter"",""1"",""1937""
","
","
","""event"",""trial"",""time""
""fullscreenenter"",""1"",""1937""
","
","","","-1","","","18","7808","3961","w","elianto","#f73b6a7A","-1","-1","1","0","[]","0","2","","","7808","58","3","4","lose","no-go","0"
"pit-trial","177","1243254","0.0-63.0","battery-v0.2","","""event"",""trial"",""time""
""fullscreenenter"",""1"",""1937""
","
","
","""event"",""trial"",""time""
""fullscreenenter"",""1"",""1937""
","
","","","-1","","","18","7808","3961","s","elianto","#3366ff99"," ","-1","0","0","[3098]","1","2","","","7808","59","4","1","win","go","0"
"pit-trial","178","1248107","0.0-64.0","battery-v0.2","","""event"",""trial"",""time""
""fullscreenenter"",""1"",""1937""
","
","
","""event"",""trial"",""time""
""fullscreenenter"",""1"",""1937""
","
","","","-1","","","18","7808","3961","j","elianto","#f73b6a7A"," ","-1","0","0","[]","0","2","","","7808","60","0","3","lose","go","1"
"pit-trial","179","1251769","0.0-65.0","battery-v0.2","","""event"",""trial"",""time""
""fullscreenenter"",""1"",""1937""
","
","
","""event"",""trial"",""time""
""fullscreenenter"",""1"",""1937""
","
","","","806.6999999880791","","","18","7808","3961","s","elianto","#3366ff99"," "," ","1","0","[1657.699999988079]","1","2","","","7808","61","4","1","win","go","1"
"pit-trial","180","1256623","0.0-66.0","battery-v0.2","","""event"",""trial"",""time""
""fullscreenenter"",""1"",""1937""
","
","
","""event"",""trial"",""time""
""fullscreenenter"",""1"",""1937""
","
","","","-1","","","18","7808","3961","w","elianto","#f73b6a7A","-1","-1","1","-10","[]","0","2","","","7808","62","3","4","lose","no-go","1"
"pit-trial","181","1261477","0.0-67.0","battery-v0.2","","""event"",""trial"",""time""
""fullscreenenter"",""1"",""1937""
","
","
","""event"",""trial"",""time""
""fullscreenenter"",""1"",""1937""
","
","","","-1","","","18","7808","3961","d","elianto","#3366ff99","-1","-1","1","+10","[]","0","2","","","7808","63","1","2","win","no-go","0"
"pit-trial","182","1265544","0.0-68.0","battery-v0.2","","""event"",""trial"",""time""
""fullscreenenter"",""1"",""1937""
","
","
","""event"",""trial"",""time""
""fullscreenenter"",""1"",""1937""
","
","","","1212.199999988079","","","18","7808","3961","e","elianto","#f73b6a7A"," "," ","1","0","[2064.5]","1","2","","","7808","64","2","3","lose","go","0"
"pit-trial","183","1269722","0.0-69.0","battery-v0.2","","""event"",""trial"",""time""
""fullscreenenter"",""1"",""1937""
","
","
","""event"",""trial"",""time""
""fullscreenenter"",""1"",""1937""
","
","","","1323.9000000357628","","","18","7808","3961","p","elianto","#3366ff99","-1"," ","0","0","[2174.599999964237]","1","2","","","7808","65","5","2","win","no-go","0"
"pit-trial","184","1274541","0.0-70.0","battery-v0.2","","""event"",""trial"",""time""
""fullscreenenter"",""1"",""1937""
","
","
","""event"",""trial"",""time""
""fullscreenenter"",""1"",""1937""
","
","","","1965.300000011921","","","18","7808","3961","w","elianto","#f73b6a7A","-1"," ","0","0","[2815.7000000476837]","1","2","","","7808","66","3","4","lose","no-go","1"
"pit-trial","185","1279006","0.0-71.0","battery-v0.2","","""event"",""trial"",""time""
""fullscreenenter"",""1"",""1937""
","
","
","""event"",""trial"",""time""
""fullscreenenter"",""1"",""1937""
","
","","","1610.6000000238419","","","18","7808","3961","s","elianto","#3366ff99"," "," ","1","0","[2460.800000011921]","1","2","","","7808","67","4","1","win","go","1"
"pit-trial","186","1283859","0.0-72.0","battery-v0.2","","""event"",""trial"",""time""
""fullscreenenter"",""1"",""1937""
","
","
","""event"",""trial"",""time""
""fullscreenenter"",""1"",""1937""
","
","","","-1","","","18","7808","3961","d","elianto","#3366ff99","-1","-1","1","+10","[]","0","2","","","7808","68","1","2","win","no-go","0"
"pit-trial","187","1288173","0.0-73.0","battery-v0.2","","""event"",""trial"",""time""
""fullscreenenter"",""1"",""1937""
","
","
","""event"",""trial"",""time""
""fullscreenenter"",""1"",""1937""
","
","","","1460","","","18","7808","3961","e","elianto","#f73b6a7A"," "," ","1","0","[2310.300000011921]","1","2","","","7808","69","2","3","lose","go","0"
"pit-trial","188","1293027","0.0-74.0","battery-v0.2","","""event"",""trial"",""time""
""fullscreenenter"",""1"",""1937""
","
","
","""event"",""trial"",""time""
""fullscreenenter"",""1"",""1937""
","
","","","-1","","","18","7808","3961","s","elianto","#3366ff99"," ","-1","0","+10","[3049.2999999523163]","1","2","","","7808","70","4","1","win","go","1"
"pit-trial","189","1297881","0.0-75.0","battery-v0.2","","""event"",""trial"",""time""
""fullscreenenter"",""1"",""1937""
","
","
","""event"",""trial"",""time""
""fullscreenenter"",""1"",""1937""
","
","","","-1","","","18","7808","3961","d","elianto","#3366ff99","-1","-1","1","+10","[]","0","2","","","7808","71","1","2","win","no-go","0"
"pit-trial","190","1302125","0.0-76.0","battery-v0.2","","""event"",""trial"",""time""
""fullscreenenter"",""1"",""1937""
","
","
","""event"",""trial"",""time""
""fullscreenenter"",""1"",""1937""
","
","","","1390.800000011921","","","18","7808","3961","p","elianto","#3366ff99","-1"," ","0","+10","[2240.800000011921]","1","2","","","7808","72","5","2","win","no-go","1"
"pit-trial","191","1306979","0.0-77.0","battery-v0.2","","""event"",""trial"",""time""
""fullscreenenter"",""1"",""1937""
","
","
","""event"",""trial"",""time""
""fullscreenenter"",""1"",""1937""
","
","","","-1","","","18","7808","3961","s","elianto","#3366ff99"," ","-1","0","0","[]","0","2","","","7808","73","4","1","win","go","0"
"pit-trial","192","1311455","0.0-78.0","battery-v0.2","","""event"",""trial"",""time""
""fullscreenenter"",""1"",""1937""
","
","
","""event"",""trial"",""time""
""fullscreenenter"",""1"",""1937""
","
","","","1623.6000000238419","","","18","7808","3961","p","elianto","#3366ff99","-1"," ","0","0","[2473.800000011921]","1","2","","","7808","74","5","2","win","no-go","0"
"pit-trial","193","1316309","0.0-79.0","battery-v0.2","","""event"",""trial"",""time""
""fullscreenenter"",""1"",""1937""
","
","
","""event"",""trial"",""time""
""fullscreenenter"",""1"",""1937""
","
","","","-1","","","18","7808","3961","d","elianto","#3366ff99","-1","-1","1","+10","[]","0","2","","","7808","75","1","2","win","no-go","0"
"pit-trial","194","1320932","0.0-80.0","battery-v0.2","","""event"",""trial"",""time""
""fullscreenenter"",""1"",""1937""
","
","
","""event"",""trial"",""time""
""fullscreenenter"",""1"",""1937""
","
","","","1769","","","18","7808","3961","w","elianto","#f73b6a7A","-1"," ","0","-10","[2619]","1","2","","","7808","76","3","4","lose","no-go","0"
"pit-trial","195","1325785","0.0-81.0","battery-v0.2","","""event"",""trial"",""time""
""fullscreenenter"",""1"",""1937""
","
","
","""event"",""trial"",""time""
""fullscreenenter"",""1"",""1937""
","
","","","-1","","","18","7808","3961","s","elianto","#3366ff99"," ","-1","0","0","[]","0","2","","","7808","77","4","1","win","go","0"
"pit-trial","196","1330230","0.0-82.0","battery-v0.2","","""event"",""trial"",""time""
""fullscreenenter"",""1"",""1937""
","
","
","""event"",""trial"",""time""
""fullscreenenter"",""1"",""1937""
","
","","","1590.5999999642372","","","18","7808","3961","p","elianto","#3366ff99","-1"," ","0","0","[2440.900000035763]","1","2","","","7808","78","5","2","win","no-go","0"
"pit-trial","197","1334658","0.0-83.0","battery-v0.2","","""event"",""trial"",""time""
""fullscreenenter"",""1"",""1937""
","
","
","""event"",""trial"",""time""
""fullscreenenter"",""1"",""1937""
","
","","","1574.8999999761581","","","18","7808","3961","w","elianto","#f73b6a7A","-1"," ","0","-10","[2425]","1","2","","","7808","79","3","4","lose","no-go","0"
"pit-trial","198","1338639","0.0-84.0","battery-v0.2","","""event"",""trial"",""time""
""fullscreenenter"",""1"",""1937""
","
","
","""event"",""trial"",""time""
""fullscreenenter"",""1"",""1937""
","
","","","1128","","","18","7808","3961","s","elianto","#3366ff99"," "," ","1","+10","[1978.7000000476837]","1","2","","","7808","80","4","1","win","go","0"
"pit-trial","199","1343493","0.0-85.0","battery-v0.2","","""event"",""trial"",""time""
""fullscreenenter"",""1"",""1937""
","
","
","""event"",""trial"",""time""
""fullscreenenter"",""1"",""1937""
","
","","","-1","","","18","7808","3961","p","elianto","#3366ff99","-1","-1","1","+10","[]","0","2","","","7808","81","5","2","win","no-go","0"
"pit-trial","200","1348294","0.0-86.0","battery-v0.2","","""event"",""trial"",""time""
""fullscreenenter"",""1"",""1937""
","
","
","""event"",""trial"",""time""
""fullscreenenter"",""1"",""1937""
","
","","","1946.0999999642372","","","18","7808","3961","w","elianto","#f73b6a7A","-1"," ","0","-10","[2797.300000011921]","1","2","","","7808","82","3","4","lose","no-go","0"
"pit-trial","201","1353148","0.0-87.0","battery-v0.2","","""event"",""trial"",""time""
""fullscreenenter"",""1"",""1937""
","
","
","""event"",""trial"",""time""
""fullscreenenter"",""1"",""1937""
","
","","","-1","","","18","7808","3961","s","elianto","#3366ff99"," ","-1","0","0","[]","0","2","","","7808","83","4","1","win","go","0"
"pit-trial","202","1358003","0.0-88.0","battery-v0.2","","""event"",""trial"",""time""
""fullscreenenter"",""1"",""1937""
","
","
","""event"",""trial"",""time""
""fullscreenenter"",""1"",""1937""
","
","","","-1","","","18","7808","3961","a","elianto","#f73b6a7A","-1","-1","1","0","[]","0","2","","","7808","84","7","4","lose","no-go","0"
"pit-trial","203","1362856","0.0-89.0","battery-v0.2","","""event"",""trial"",""time""
""fullscreenenter"",""1"",""1937""
","
","
","""event"",""trial"",""time""
""fullscreenenter"",""1"",""1937""
","
","","","-1","","","18","7808","3961","p","elianto","#3366ff99","-1","-1","1","+10","[2892.399999976158]","1","2","","","7808","85","5","2","win","no-go","0"
"pit-trial","204","1367711","0.0-90.0","battery-v0.2","","""event"",""trial"",""time""
""fullscreenenter"",""1"",""1937""
","
","
","""event"",""trial"",""time""
""fullscreenenter"",""1"",""1937""
","
","","","-1","","","18","7808","3961","s","elianto","#3366ff99"," ","-1","0","0","[]","0","2","","","7808","86","4","1","win","go","0"
"pit-trial","205","1372566","0.0-91.0","battery-v0.2","","""event"",""trial"",""time""
""fullscreenenter"",""1"",""1937""
","
","
","""event"",""trial"",""time""
""fullscreenenter"",""1"",""1937""
","
","","","-1","","","18","7808","3961","a","elianto","#f73b6a7A","-1","-1","1","0","[]","0","2","","","7808","87","7","4","lose","no-go","0"
"pit-trial","206","1377420","0.0-92.0","battery-v0.2","","""event"",""trial"",""time""
""fullscreenenter"",""1"",""1937""
","
","
","""event"",""trial"",""time""
""fullscreenenter"",""1"",""1937""
","
","","","-1","","","18","7808","3961","g","elianto","#f73b6a7A"," ","-1","0","0","[]","0","2","","","7808","88","6","3","lose","go","1"
"pit-trial","207","1382275","0.0-93.0","battery-v0.2","","""event"",""trial"",""time""
""fullscreenenter"",""1"",""1937""
","
","
","""event"",""trial"",""time""
""fullscreenenter"",""1"",""1937""
","
","","","-1","","","18","7808","3961","g","elianto","#f73b6a7A"," ","-1","0","0","[]","0","2","","","7808","89","6","3","lose","go","1"
"pit-trial","208","1386710","0.0-94.0","battery-v0.2","","""event"",""trial"",""time""
""fullscreenenter"",""1"",""1937""
","
","
","""event"",""trial"",""time""
""fullscreenenter"",""1"",""1937""
","
","","","1579.3999999761581","","","18","7808","3961","p","elianto","#3366ff99","-1"," ","0","0","[2430]","1","2","","","7808","90","5","2","win","no-go","0"
"pit-trial","209","1391564","0.0-95.0","battery-v0.2","","""event"",""trial"",""time""
""fullscreenenter"",""1"",""1937""
","
","
","""event"",""trial"",""time""
""fullscreenenter"",""1"",""1937""
","
","","","-1","","","18","7808","3961","s","elianto","#3366ff99"," ","-1","0","0","[]","0","2","","","7808","91","4","1","win","go","0"
"pit-trial","210","1396419","0.0-96.0","battery-v0.2","","""event"",""trial"",""time""
""fullscreenenter"",""1"",""1937""
","
","
","""event"",""trial"",""time""
""fullscreenenter"",""1"",""1937""
","
","","","-1","","","18","7808","3961","a","elianto","#f73b6a7A","-1","-1","1","0","[]","0","2","","","7808","92","7","4","lose","no-go","0"
"pit-trial","211","1401274","0.0-97.0","battery-v0.2","","""event"",""trial"",""time""
""fullscreenenter"",""1"",""1937""
","
","
","""event"",""trial"",""time""
""fullscreenenter"",""1"",""1937""
","
","","","-1","","","18","7808","3961","a","elianto","#f73b6a7A","-1","-1","1","0","[]","0","2","","","7808","93","7","4","lose","no-go","0"
"pit-trial","212","1405918","0.0-98.0","battery-v0.2","","""event"",""trial"",""time""
""fullscreenenter"",""1"",""1937""
","
","
","""event"",""trial"",""time""
""fullscreenenter"",""1"",""1937""
","
","","","1790","","","18","7808","3961","l","elianto","#3366ff99"," "," ","1","+10","[2640.599999964237]","1","2","","","7808","94","8","1","win","go","0"
"pit-trial","213","1410290","0.0-99.0","battery-v0.2","","""event"",""trial"",""time""
""fullscreenenter"",""1"",""1937""
","
","
","""event"",""trial"",""time""
""fullscreenenter"",""1"",""1937""
","
","","","1516.6000000238419","","","18","7808","3961","p","elianto","#3366ff99","-1"," ","0","0","[2368.300000011921]","1","2","","","7808","95","5","2","win","no-go","0"
"pit-trial","214","1415143","0.0-100.0","battery-v0.2","","""event"",""trial"",""time""
""fullscreenenter"",""1"",""1937""
","
","
","""event"",""trial"",""time""
""fullscreenenter"",""1"",""1937""
","
","","","-1","","","18","7808","3961","g","elianto","#f73b6a7A"," ","-1","0","0","[]","0","2","","","7808","96","6","3","lose","go","1"
"pit-trial","215","1419997","0.0-101.0","battery-v0.2","","""event"",""trial"",""time""
""fullscreenenter"",""1"",""1937""
","
","
","""event"",""trial"",""time""
""fullscreenenter"",""1"",""1937""
","
","","","-1","","","18","7808","3961","g","elianto","#f73b6a7A"," ","-1","0","-10","[]","0","2","","","7808","97","6","3","lose","go","0"
"pit-trial","216","1424851","0.0-102.0","battery-v0.2","","""event"",""trial"",""time""
""fullscreenenter"",""1"",""1937""
","
","
","""event"",""trial"",""time""
""fullscreenenter"",""1"",""1937""
","
","","","-1","","","18","7808","3961","a","elianto","#f73b6a7A","-1","-1","1","-10","[]","0","2","","","7808","98","7","4","lose","no-go","1"
"pit-trial","217","1429154","0.0-103.0","battery-v0.2","","""event"",""trial"",""time""
""fullscreenenter"",""1"",""1937""
","
","
","""event"",""trial"",""time""
""fullscreenenter"",""1"",""1937""
","
","","","1448.699999988079","","","18","7808","3961","l","elianto","#3366ff99"," "," ","1","+10","[2299.399999976158]","1","2","","","7808","99","8","1","win","go","0"
"pit-trial","218","1433513","0.0-104.0","battery-v0.2","","""event"",""trial"",""time""
""fullscreenenter"",""1"",""1937""
","
","
","""event"",""trial"",""time""
""fullscreenenter"",""1"",""1937""
","
","","","1500.800000011921","","","18","7808","3961","p","elianto","#3366ff99","-1"," ","0","+10","[2356.100000023842]","1","2","","","7808","100","5","2","win","no-go","1"
"pit-trial","219","1438072","0.0-105.0","battery-v0.2","","""event"",""trial"",""time""
""fullscreenenter"",""1"",""1937""
","
","
","""event"",""trial"",""time""
""fullscreenenter"",""1"",""1937""
","
","","","1705.0999999642372","","","18","7808","3961","p","elianto","#3366ff99","-1"," ","0","0","[2555.5]","1","2","","","7808","101","5","2","win","no-go","0"
"pit-trial","220","1442927","0.0-106.0","battery-v0.2","","""event"",""trial"",""time""
""fullscreenenter"",""1"",""1937""
","
","
","""event"",""trial"",""time""
""fullscreenenter"",""1"",""1937""
","
","","","-1","","","18","7808","3961","a","elianto","#f73b6a7A","-1","-1","1","0","[]","0","2","","","7808","102","7","4","lose","no-go","0"
"pit-trial","221","1447188","0.0-107.0","battery-v0.2","","""event"",""trial"",""time""
""fullscreenenter"",""1"",""1937""
","
","
","""event"",""trial"",""time""
""fullscreenenter"",""1"",""1937""
","
","","","1407.800000011921","","","18","7808","3961","u","elianto","#3366ff99"," "," ","1","+10","[2258.300000011921]","1","2","","","7808","103","9","1","win","go","0"
"pit-trial","222","1451746","0.0-108.0","battery-v0.2","","""event"",""trial"",""time""
""fullscreenenter"",""1"",""1937""
","
","
","""event"",""trial"",""time""
""fullscreenenter"",""1"",""1937""
","
","","","1703.6000000238419","","","18","7808","3961","l","elianto","#3366ff99"," "," ","1","+10","[2554.100000023842]","1","2","","","7808","104","8","1","win","go","0"
"pit-trial","223","1456600","0.0-109.0","battery-v0.2","","""event"",""trial"",""time""
""fullscreenenter"",""1"",""1937""
","
","
","""event"",""trial"",""time""
""fullscreenenter"",""1"",""1937""
","
","","","-1","","","18","7808","3961","g","elianto","#f73b6a7A"," ","-1","0","-10","[]","0","2","","","7808","105","6","3","lose","go","0"
"pit-trial","224","1461400","0.0-110.0","battery-v0.2","","""event"",""trial"",""time""
""fullscreenenter"",""1"",""1937""
","
","
","""event"",""trial"",""time""
""fullscreenenter"",""1"",""1937""
","
","","","1945.3999999761581","","","18","7808","3961","l","elianto","#3366ff99"," "," ","1","+10","[2796.5]","1","2","","","7808","106","8","1","win","go","0"
"pit-trial","225","1465937","0.0-111.0","battery-v0.2","","""event"",""trial"",""time""
""fullscreenenter"",""1"",""1937""
","
","
","""event"",""trial"",""time""
""fullscreenenter"",""1"",""1937""
","
","","","1683.6000000238419","","","18","7808","3961","u","elianto","#3366ff99"," "," ","1","+10","[2533.7999999523163]","1","2","","","7808","107","9","1","win","go","0"
"pit-trial","226","1470792","0.0-112.0","battery-v0.2","","""event"",""trial"",""time""
""fullscreenenter"",""1"",""1937""
","
","
","""event"",""trial"",""time""
""fullscreenenter"",""1"",""1937""
","
","","","-1","","","18","7808","3961","s","elianto","#3366ff99"," ","-1","0","0","[]","0","2","","","7808","108","4","1","win","go","0"
"pit-trial","227","1474600","0.0-113.0","battery-v0.2","","""event"",""trial"",""time""
""fullscreenenter"",""1"",""1937""
","
","
","""event"",""trial"",""time""
""fullscreenenter"",""1"",""1937""
","
","","","952.5","","","18","7808","3961","l","elianto","#3366ff99"," "," ","1","+10","[1804.5]","1","2","","","7808","109","8","1","win","go","0"
"pit-trial","228","1479454","0.0-114.0","battery-v0.2","","""event"",""trial"",""time""
""fullscreenenter"",""1"",""1937""
","
","
","""event"",""trial"",""time""
""fullscreenenter"",""1"",""1937""
","
","","","-1","","","18","7808","3961","g","elianto","#f73b6a7A"," ","-1","0","-10","[]","0","2","","","7808","110","6","3","lose","go","0"
"pit-trial","229","1483321","0.0-115.0","battery-v0.2","","""event"",""trial"",""time""
""fullscreenenter"",""1"",""1937""
","
","
","""event"",""trial"",""time""
""fullscreenenter"",""1"",""1937""
","
","","","1013","","","18","7808","3961","u","elianto","#3366ff99"," "," ","1","0","[1864.1000000238419]","1","2","","","7808","111","9","1","win","go","1"
"pit-trial","230","1487698","0.0-116.0","battery-v0.2","","""event"",""trial"",""time""
""fullscreenenter"",""1"",""1937""
","
","
","""event"",""trial"",""time""
""fullscreenenter"",""1"",""1937""
","
","","","1521","","","18","7808","3961","p","elianto","#3366ff99","-1"," ","0","0","[2373.099999964237]","1","2","","","7808","112","5","2","win","no-go","0"
"pit-trial","231","1492155","0.0-117.0","battery-v0.2","","""event"",""trial"",""time""
""fullscreenenter"",""1"",""1937""
","
","
","""event"",""trial"",""time""
""fullscreenenter"",""1"",""1937""
","
","","","1602.199999988079","","","18","7808","3961","p","elianto","#3366ff99","-1"," ","0","0","[2453.300000011921,2582]","2","2","","","7808","113","5","2","win","no-go","0"
"pit-trial","232","1495720","0.0-118.0","battery-v0.2","","""event"",""trial"",""time""
""fullscreenenter"",""1"",""1937""
","
","
","""event"",""trial"",""time""
""fullscreenenter"",""1"",""1937""
","
","","","710.4000000357628","","","18","7808","3961","u","elianto","#3366ff99"," "," ","1","0","[1560.300000011921]","1","2","","","7808","114","9","1","win","go","1"
"pit-trial","233","1500574","0.0-119.0","battery-v0.2","","""event"",""trial"",""time""
""fullscreenenter"",""1"",""1937""
","
","
","""event"",""trial"",""time""
""fullscreenenter"",""1"",""1937""
","
","","","-1","","","18","7808","3961","g","elianto","#f73b6a7A"," ","-1","0","-10","[]","0","2","","","7808","115","6","3","lose","go","0"
"pit-trial","234","1504636","0.0-120.0","battery-v0.2","","""event"",""trial"",""time""
""fullscreenenter"",""1"",""1937""
","
","
","""event"",""trial"",""time""
""fullscreenenter"",""1"",""1937""
","
","","","1207.8999999761581","","","18","7808","3961","l","elianto","#3366ff99"," "," ","1","0","[2058.2000000476837]","1","2","","","7808","116","8","1","win","go","1"
"pit-trial","235","1508148","0.0-121.0","battery-v0.2","","""event"",""trial"",""time""
""fullscreenenter"",""1"",""1937""
","
","
","""event"",""trial"",""time""
""fullscreenenter"",""1"",""1937""
","
","","","657.8999999761581","","","18","7808","3961","l","elianto","#3366ff99"," "," ","1","+10","[1509.3999999761581]","1","2","","","7808","117","8","1","win","go","0"
"pit-trial","236","1512540","0.0-122.0","battery-v0.2","","""event"",""trial"",""time""
""fullscreenenter"",""1"",""1937""
","
","
","""event"",""trial"",""time""
""fullscreenenter"",""1"",""1937""
","
","","","1537.2999999523163","","","18","7808","3961","p","elianto","#3366ff99","-1"," ","0","0","[2388.100000023842]","1","2","","","7808","118","5","2","win","no-go","0"
"pit-trial","237","1516907","0.0-123.0","battery-v0.2","","""event"",""trial"",""time""
""fullscreenenter"",""1"",""1937""
","
","
","""event"",""trial"",""time""
""fullscreenenter"",""1"",""1937""
","
","","","1513.6000000238419","","","18","7808","3961","u","elianto","#3366ff99"," "," ","1","+10","[2364.099999964237]","1","2","","","7808","119","9","1","win","go","0"
"pit-trial","238","1521761","0.0-124.0","battery-v0.2","","""event"",""trial"",""time""
""fullscreenenter"",""1"",""1937""
","
","
","""event"",""trial"",""time""
""fullscreenenter"",""1"",""1937""
","
","","","-1","","","18","7808","3961","g","elianto","#f73b6a7A"," ","-1","0","-10","[245.5]","1","2","","","7808","120","6","3","lose","go","0"
"pit-trial","239","1525514","0.0-125.0","battery-v0.2","","""event"",""trial"",""time""
""fullscreenenter"",""1"",""1937""
","
","
","""event"",""trial"",""time""
""fullscreenenter"",""1"",""1937""
","
","","","896.5","","","18","7808","3961","u","elianto","#3366ff99"," "," ","1","+10","[1748.5]","1","2","","","7808","121","9","1","win","go","0"
"pit-trial","240","1530367","0.0-126.0","battery-v0.2","","""event"",""trial"",""time""
""fullscreenenter"",""1"",""1937""
","
","
","""event"",""trial"",""time""
""fullscreenenter"",""1"",""1937""
","
","","","-1","","","18","7808","3961","a","elianto","#f73b6a7A","-1","-1","1","0","[]","0","2","","","7808","122","7","4","lose","no-go","0"
"pit-trial","241","1534766","0.0-127.0","battery-v0.2","","""event"",""trial"",""time""
""fullscreenenter"",""1"",""1937""
","
","
","""event"",""trial"",""time""
""fullscreenenter"",""1"",""1937""
","
","","","1546","","","18","7808","3961","l","elianto","#3366ff99"," "," ","1","+10","[2396]","1","2","","","7808","123","8","1","win","go","0"
"pit-trial","242","1539620","0.0-128.0","battery-v0.2","","""event"",""trial"",""time""
""fullscreenenter"",""1"",""1937""
","
","
","""event"",""trial"",""time""
""fullscreenenter"",""1"",""1937""
","
","","","-1","","","18","7808","3961","g","elianto","#f73b6a7A"," ","-1","0","-10","[]","0","2","","","7808","124","6","3","lose","go","0"
"pit-trial","243","1543457","0.0-129.0","battery-v0.2","","""event"",""trial"",""time""
""fullscreenenter"",""1"",""1937""
","
","
","""event"",""trial"",""time""
""fullscreenenter"",""1"",""1937""
","
","","","983.5","","","18","7808","3961","l","elianto","#3366ff99"," "," ","1","+10","[1834.1000000238419]","1","2","","","7808","125","8","1","win","go","0"
"pit-trial","244","1548310","0.0-130.0","battery-v0.2","","""event"",""trial"",""time""
""fullscreenenter"",""1"",""1937""
","
","
","""event"",""trial"",""time""
""fullscreenenter"",""1"",""1937""
","
","","","-1","","","18","7808","3961","a","elianto","#f73b6a7A","-1","-1","1","0","[]","0","2","","","7808","126","7","4","lose","no-go","0"
"pit-trial","245","1552027","0.0-131.0","battery-v0.2","","""event"",""trial"",""time""
""fullscreenenter"",""1"",""1937""
","
","
","""event"",""trial"",""time""
""fullscreenenter"",""1"",""1937""
","
","","","862.6000000238419","","","18","7808","3961","g","elianto","#f73b6a7A"," "," ","1","0","[1714.300000011921]","1","2","","","7808","127","6","3","lose","go","0"
"pit-trial","246","1556881","0.0-132.0","battery-v0.2","","""event"",""trial"",""time""
""fullscreenenter"",""1"",""1937""
","
","
","""event"",""trial"",""time""
""fullscreenenter"",""1"",""1937""
","
","","","-1","","","18","7808","3961","u","elianto","#3366ff99"," ","-1","0","0","[]","0","2","","","7808","128","9","1","win","go","0"
"pit-trial","247","1561735","0.0-133.0","battery-v0.2","","""event"",""trial"",""time""
""fullscreenenter"",""1"",""1937""
","
","
","""event"",""trial"",""time""
""fullscreenenter"",""1"",""1937""
","
","","","-1","","","18","7808","3961","a","elianto","#f73b6a7A","-1","-1","1","0","[]","0","2","","","7808","129","7","4","lose","no-go","0"
"pit-trial","248","1566444","0.0-134.0","battery-v0.2","","""event"",""trial"",""time""
""fullscreenenter"",""1"",""1937""
","
","
","""event"",""trial"",""time""
""fullscreenenter"",""1"",""1937""
","
","","","1855.199999988079","","","18","7808","3961","g","elianto","#f73b6a7A"," "," ","1","0","[2706.199999988079]","1","2","","","7808","130","6","3","lose","go","0"
"pit-trial","249","1570253","0.0-135.0","battery-v0.2","","""event"",""trial"",""time""
""fullscreenenter"",""1"",""1937""
","
","
","""event"",""trial"",""time""
""fullscreenenter"",""1"",""1937""
","
","","","955.5999999642372","","","18","7808","3961","l","elianto","#3366ff99"," "," ","1","+10","[1805.6000000238419]","1","2","","","7808","131","8","1","win","go","0"
"pit-trial","250","1574263","0.0-136.0","battery-v0.2","","""event"",""trial"",""time""
""fullscreenenter"",""1"",""1937""
","
","
","""event"",""trial"",""time""
""fullscreenenter"",""1"",""1937""
","
","","","1156.199999988079","","","18","7808","3961","u","elianto","#3366ff99"," "," ","1","+10","[2006.5,2388.600000023842]","2","2","","","7808","132","9","1","win","go","0"
"pit-trial","251","1577863","0.0-137.0","battery-v0.2","","""event"",""trial"",""time""
""fullscreenenter"",""1"",""1937""
","
","
","""event"",""trial"",""time""
""fullscreenenter"",""1"",""1937""
","
","","","742.8000000119209","","","18","7808","3961","u","elianto","#3366ff99"," "," ","1","0","[1597]","1","2","","","7808","133","9","1","win","go","1"
"pit-trial","252","1582718","0.0-138.0","battery-v0.2","","""event"",""trial"",""time""
""fullscreenenter"",""1"",""1937""
","
","
","""event"",""trial"",""time""
""fullscreenenter"",""1"",""1937""
","
","","","-1","","","18","7808","3961","a","elianto","#f73b6a7A","-1","-1","1","0","[]","0","2","","","7808","134","7","4","lose","no-go","0"
"pit-trial","253","1586484","0.0-139.0","battery-v0.2","","""event"",""trial"",""time""
""fullscreenenter"",""1"",""1937""
","
","
","""event"",""trial"",""time""
""fullscreenenter"",""1"",""1937""
","
","","","911.2999999523163","","","18","7808","3961","l","elianto","#3366ff99"," "," ","1","+10","[1762.9000000357628]","1","2","","","7808","135","8","1","win","go","0"
"pit-trial","254","1590281","0.0-140.0","battery-v0.2","","""event"",""trial"",""time""
""fullscreenenter"",""1"",""1937""
","
","
","""event"",""trial"",""time""
""fullscreenenter"",""1"",""1937""
","
","","","944.3999999761581","","","18","7808","3961","g","elianto","#f73b6a7A"," "," ","1","0","[1794.5]","1","2","","","7808","136","6","3","lose","go","0"
"pit-trial","255","1594090","0.0-141.0","battery-v0.2","","""event"",""trial"",""time""
""fullscreenenter"",""1"",""1937""
","
","
","""event"",""trial"",""time""
""fullscreenenter"",""1"",""1937""
","
","","","944.6999999880791","","","18","7808","3961","l","elianto","#3366ff99"," "," ","1","0","[1794.800000011921]","1","2","","","7808","137","8","1","win","go","1"
"pit-trial","256","1598944","0.0-142.0","battery-v0.2","","""event"",""trial"",""time""
""fullscreenenter"",""1"",""1937""
","
","
","""event"",""trial"",""time""
""fullscreenenter"",""1"",""1937""
","
","","","-1","","","18","7808","3961","a","elianto","#f73b6a7A","-1","-1","1","0","[]","0","2","","","7808","138","7","4","lose","no-go","0"
"pit-trial","257","1602773","0.0-143.0","battery-v0.2","","""event"",""trial"",""time""
""fullscreenenter"",""1"",""1937""
","
","
","""event"",""trial"",""time""
""fullscreenenter"",""1"",""1937""
","
","","","974.6999999880791","","","18","7808","3961","u","elianto","#3366ff99"," "," ","1","0","[1824.699999988079]","1","2","","","7808","139","9","1","win","go","1"
"pit-trial","258","1606873","0.0-144.0","battery-v0.2","","""event"",""trial"",""time""
""fullscreenenter"",""1"",""1937""
""blur"",""259"",""2193714""
""focus"",""259"",""2196901""
","""event"",""trial"",""time""
""blur"",""259"",""2193714""
","""event"",""trial"",""time""
""focus"",""259"",""2196901""
","""event"",""trial"",""time""
""fullscreenenter"",""1"",""1937""
","
","","","1244.5","","","18","7808","3961","g","elianto","#f73b6a7A"," "," ","1","0","[2096.399999976158]","1","2","","","7808","140","6","3","lose","go","0"
"pit-instructions","259","2284736","0.0-145.0","battery-v0.2","","""event"",""trial"",""time""
""fullscreenenter"",""1"",""1937""
""blur"",""259"",""2193714""
""focus"",""259"",""2196901""
","""event"",""trial"",""time""
""blur"",""259"",""2193714""
","""event"",""trial"",""time""
""focus"",""259"",""2196901""
","""event"",""trial"",""time""
""fullscreenenter"",""1"",""1937""
","
","","[{""page_index"":0,""viewing_time"":669752.6999999881},{""page_index"":1,""viewing_time"":8106.900000035763}]","677860.3000000119","","","","","","","","","","","","","","","","","","","","","","","",""
"pit-trial","260","2289596","0.0-146.0","battery-v0.2","","""event"",""trial"",""time""
""fullscreenenter"",""1"",""1937""
""blur"",""259"",""2193714""
""focus"",""259"",""2196901""
","""event"",""trial"",""time""
""blur"",""259"",""2193714""
","""event"",""trial"",""time""
""focus"",""259"",""2196901""
","""event"",""trial"",""time""
""fullscreenenter"",""1"",""1937""
","
","","","-1","","","18","7808","3961","b","elianto","#f73b6a7A"," ","-1","0","0","[]","0","3","","","7808","141","3","3","lose","go","1"
"pit-trial","261","2293343","0.0-147.0","battery-v0.2","","""event"",""trial"",""time""
""fullscreenenter"",""1"",""1937""
""blur"",""259"",""2193714""
""focus"",""259"",""2196901""
","""event"",""trial"",""time""
""blur"",""259"",""2193714""
","""event"",""trial"",""time""
""focus"",""259"",""2196901""
","""event"",""trial"",""time""
""fullscreenenter"",""1"",""1937""
","
","","","873.1999999880791","","","18","7808","3961","f","elianto","#3366ff99"," "," ","1","+10","[1734.6000000238419]","1","3","","","7808","142","1","1","win","go","0"
"pit-trial","262","2298220","0.0-148.0","battery-v0.2","","""event"",""trial"",""time""
""fullscreenenter"",""1"",""1937""
""blur"",""259"",""2193714""
""focus"",""259"",""2196901""
","""event"",""trial"",""time""
""blur"",""259"",""2193714""
","""event"",""trial"",""time""
""focus"",""259"",""2196901""
","""event"",""trial"",""time""
""fullscreenenter"",""1"",""1937""
","
","","","-1","","","18","7808","3961","n","elianto","#f73b6a7A","-1","-1","1","0","[]","0","3","","","7808","143","0","4","lose","no-go","0"
"pit-trial","263","2303086","0.0-149.0","battery-v0.2","","""event"",""trial"",""time""
""fullscreenenter"",""1"",""1937""
""blur"",""259"",""2193714""
""focus"",""259"",""2196901""
","""event"",""trial"",""time""
""blur"",""259"",""2193714""
","""event"",""trial"",""time""
""focus"",""259"",""2196901""
","""event"",""trial"",""time""
""fullscreenenter"",""1"",""1937""
","
","","","-1","","","18","7808","3961","t","elianto","#f73b6a7A","-1","-1","1","0","[]","0","3","","","7808","144","2","4","lose","no-go","0"
"pit-trial","264","2307956","0.0-150.0","battery-v0.2","","""event"",""trial"",""time""
""fullscreenenter"",""1"",""1937""
