"trial_type","trial_index","time_elapsed","internal_node_id","task_version","subject_id","interactions","blur_events","focus_events","fullscreenenter_events","fullscreenexit_events","success","view_history","rt","responses","num_errors","age","subject","participantId","rune","rune_set","hex","correct","choice","accuracy","outcome","keys","total_keys","block","practice","value","sub","trial","stimulus","robot","valence","action","sham"
"pavlovia","0","13","0.0-0.0","battery-v0.2","","""event"",""trial"",""time""
""fullscreenenter"",""1"",""2343""
","
","
","""event"",""trial"",""time""
""fullscreenenter"",""1"",""2343""
","
","","","","","","","","","","","","","","","","","","","","","","","","","","",""
"fullscreen","1","3207","0.0-1.0","battery-v0.2","","""event"",""trial"",""time""
""fullscreenenter"",""1"",""2343""
","
","
","""event"",""trial"",""time""
""fullscreenenter"",""1"",""2343""
","
","true","","","","","","","","","","","","","","","","","","","","","","","","","",""
"pit-instructions","2","8531","0.0-2.0-0.0","battery-v0.2","","""event"",""trial"",""time""
""fullscreenenter"",""1"",""2343""
","
","
","""event"",""trial"",""time""
""fullscreenenter"",""1"",""2343""
","
","","[{""page_index"":0,""viewing_time"":5315}]","5315.5","","","","","","","","","","","","","","","","","","","","","","","",""
"pit-comprehension","3","11404","0.0-2.0-1.0-0.0","battery-v0.2","","""event"",""trial"",""time""
""fullscreenenter"",""1"",""2343""
","
","
","""event"",""trial"",""time""
""fullscreenenter"",""1"",""2343""
","
","","","2869.199999988079","[""shark""]","0","10","11124","3455","","","","","","","","","","","","","","","","","","",""
"pit-instructions","4","12886","0.0-2.0-1.0-1.0","battery-v0.2","","""event"",""trial"",""time""
""fullscreenenter"",""1"",""2343""
","
","
","""event"",""trial"",""time""
""fullscreenenter"",""1"",""2343""
","
","","[{""page_index"":0,""viewing_time"":1408.5}]","1408.9000000357628","","","","","","","","","","","","","","","","","","","","","","","",""
"pit-comprehension","5","15271","0.0-2.0-2.0-0.0","battery-v0.2","","""event"",""trial"",""time""
""fullscreenenter"",""1"",""2343""
","
","
","""event"",""trial"",""time""
""fullscreenenter"",""1"",""2343""
","
","","","2380.199999988079","[""tiger""]","0","10","11124","3455","","","","","","","","","","","","","","","","","","",""
"pit-instructions","6","18935","0.0-2.0-2.0-1.0","battery-v0.2","","""event"",""trial"",""time""
""fullscreenenter"",""1"",""2343""
","
","
","""event"",""trial"",""time""
""fullscreenenter"",""1"",""2343""
","
","","[{""page_index"":0,""viewing_time"":3660.5}]","3661","","","","","","","","","","","","","","","","","","","","","","","",""
"pit-instructions","7","118835","0.0-2.0-3.0","battery-v0.2","","""event"",""trial"",""time""
""fullscreenenter"",""1"",""2343""
","
","
","""event"",""trial"",""time""
""fullscreenenter"",""1"",""2343""
","
","","[{""page_index"":0,""viewing_time"":8965.800000011921},{""page_index"":1,""viewing_time"":6473.899999976158},{""page_index"":2,""viewing_time"":7668.100000023842},{""page_index"":3,""viewing_time"":5971.899999976158},{""page_index"":4,""viewing_time"":6451.900000035763},{""page_index"":5,""viewing_time"":6492},{""page_index"":6,""viewing_time"":7162.099999964237},{""page_index"":7,""viewing_time"":7102},{""page_index"":8,""viewing_time"":7481.800000011921},{""page_index"":9,""viewing_time"":8514.199999988079},{""page_index"":10,""viewing_time"":7605.800000011921},{""page_index"":11,""viewing_time"":7729.600000023842},{""page_index"":12,""viewing_time"":6444.300000011921},{""page_index"":13,""viewing_time"":5824.099999964237}]","99887.90000003576","","","","","","","","","","","","","","","","","","","","","","","",""
"pit-trial","8","122544","0.0-2.0-4.0-0.0","battery-v0.2","","""event"",""trial"",""time""
""fullscreenenter"",""1"",""2343""
","
","
","""event"",""trial"",""time""
""fullscreenenter"",""1"",""2343""
","
","","","846.3000000119209","","","10","11124","3455","&#9784;","elianto","#FFFFF080"," "," ","1","&#10004","[1702.300000011921]","1","0","0","","","","","","","",""
"pit-trial","9","126222","0.0-2.0-4.1-0.1","battery-v0.2","","""event"",""trial"",""time""
""fullscreenenter"",""1"",""2343""
","
","
","""event"",""trial"",""time""
""fullscreenenter"",""1"",""2343""
","
","","","817.4000000357628","","","10","11124","3455","&#9784;","elianto","#FFFFF080"," "," ","1","&#10004","[1668.199999988079]","1","0","0","","","","","","","",""
"pit-trial","10","129674","0.0-2.0-4.2-0.2","battery-v0.2","","""event"",""trial"",""time""
""fullscreenenter"",""1"",""2343""
","
","
","""event"",""trial"",""time""
""fullscreenenter"",""1"",""2343""
","
","","","591.1999999880791","","","10","11124","3455","&#9784;","elianto","#FFFFF080"," "," ","1","&#10004","[1445.9000000357628]","1","0","0","","","","","","","",""
"pit-trial","11","133164","0.0-2.0-4.3-0.3","battery-v0.2","","""event"",""trial"",""time""
""fullscreenenter"",""1"",""2343""
","
","
","""event"",""trial"",""time""
""fullscreenenter"",""1"",""2343""
","
","","","617.3000000119209","","","10","11124","3455","&#9784;","elianto","#FFFFF080"," "," ","1","&#10004","[1467.699999988079]","1","0","0","","","","","","","",""
"pit-trial","12","136784","0.0-2.0-4.4-0.4","battery-v0.2","","""event"",""trial"",""time""
""fullscreenenter"",""1"",""2343""
","
","
","""event"",""trial"",""time""
""fullscreenenter"",""1"",""2343""
","
","","","752.5999999642372","","","10","11124","3455","&#9784;","elianto","#FFFFF080"," "," ","1","&#10004","[1607.6000000238419]","1","0","0","","","","","","","",""
"pit-instructions","13","159661","0.0-2.0-5.0","battery-v0.2","","""event"",""trial"",""time""
""fullscreenenter"",""1"",""2343""
","
","
","""event"",""trial"",""time""
""fullscreenenter"",""1"",""2343""
","
","","[{""page_index"":0,""viewing_time"":6022.800000011921},{""page_index"":1,""viewing_time"":5475.899999976158},{""page_index"":2,""viewing_time"":5765.900000035763},{""page_index"":3,""viewing_time"":5604}]","22869","","","","","","","","","","","","","","","","","","","","","","","",""
"pit-trial","14","164531","0.0-2.0-6.0-0.0","battery-v0.2","","""event"",""trial"",""time""
""fullscreenenter"",""1"",""2343""
","
","
","""event"",""trial"",""time""
""fullscreenenter"",""1"",""2343""
","
","","","-1","","","10","11124","3455","&#9854;","elianto","#FFFFF080","-1","-1","1","&#10004","[]","0","0","1","","","","","","","",""
"pit-trial","15","169424","0.0-2.0-6.1-0.1","battery-v0.2","","""event"",""trial"",""time""
""fullscreenenter"",""1"",""2343""
","
","
","""event"",""trial"",""time""
""fullscreenenter"",""1"",""2343""
","
","","","-1","","","10","11124","3455","&#9854;","elianto","#FFFFF080","-1","-1","1","&#10004","[]","0","0","1","","","","","","","",""
"pit-trial","16","174314","0.0-2.0-6.2-0.2","battery-v0.2","","""event"",""trial"",""time""
""fullscreenenter"",""1"",""2343""
","
","
","""event"",""trial"",""time""
""fullscreenenter"",""1"",""2343""
","
","","","-1","","","10","11124","3455","&#9854;","elianto","#FFFFF080","-1","-1","1","&#10004","[]","0","0","1","","","","","","","",""
"pit-trial","17","179184","0.0-2.0-6.3-0.3","battery-v0.2","","""event"",""trial"",""time""
""fullscreenenter"",""1"",""2343""
","
","
","""event"",""trial"",""time""
""fullscreenenter"",""1"",""2343""
","
","","","-1","","","10","11124","3455","&#9854;","elianto","#FFFFF080","-1","-1","1","&#10004","[]","0","0","1","","","","","","","",""
"pit-trial","18","184054","0.0-2.0-6.4-0.4","battery-v0.2","","""event"",""trial"",""time""
""fullscreenenter"",""1"",""2343""
","
","
","""event"",""trial"",""time""
""fullscreenenter"",""1"",""2343""
","
","","","-1","","","10","11124","3455","&#9854;","elianto","#FFFFF080","-1","-1","1","&#10004","[]","0","0","1","","","","","","","",""
"pit-instructions","19","307250","0.0-2.0-7.0","battery-v0.2","","""event"",""trial"",""time""
""fullscreenenter"",""1"",""2343""
","
","
","""event"",""trial"",""time""
""fullscreenenter"",""1"",""2343""
","
","","[{""page_index"":0,""viewing_time"":6229.599999964237},{""page_index"":1,""viewing_time"":7172},{""page_index"":2,""viewing_time"":6167.800000011921},{""page_index"":3,""viewing_time"":6450},{""page_index"":4,""viewing_time"":5442.100000023842},{""page_index"":5,""viewing_time"":5962.799999952316},{""page_index"":6,""viewing_time"":5313},{""page_index"":7,""viewing_time"":8428.200000047684},{""page_index"":8,""viewing_time"":6607.799999952316},{""page_index"":9,""viewing_time"":11176},{""page_index"":10,""viewing_time"":6634},{""page_index"":11,""viewing_time"":4426.200000047684},{""page_index"":12,""viewing_time"":7391.799999952316},{""page_index"":13,""viewing_time"":7433.800000011921},{""page_index"":14,""viewing_time"":7526.100000023842},{""page_index"":15,""viewing_time"":6703.800000011921},{""page_index"":16,""viewing_time"":6423.899999976158},{""page_index"":17,""viewing_time"":7700.100000023842}]","123189.5","","","","","","","","","","","","","","","","","","","","","","","",""
"pit-trial","20","310903","0.0-2.0-8.0-0.0","battery-v0.2","","""event"",""trial"",""time""
""fullscreenenter"",""1"",""2343""
","
","
","""event"",""trial"",""time""
""fullscreenenter"",""1"",""2343""
","
","","","787.6000000238419","","","10","11124","3455","&#9776;","elianto","#3366ff99"," "," ","1","+10","[1637.300000011921]","1","0","1","","","","","","","",""
"pit-trial","21","314353","0.0-2.0-8.0-1.0","battery-v0.2","","""event"",""trial"",""time""
""fullscreenenter"",""1"",""2343""
","
","
","""event"",""trial"",""time""
""fullscreenenter"",""1"",""2343""
","
","","","592","","","10","11124","3455","&#9776;","elianto","#3366ff99"," "," ","1","+10","[1443.1000000238419]","1","0","1","","","","","","","",""
"pit-trial","22","317752","0.0-2.0-8.0-2.0","battery-v0.2","","""event"",""trial"",""time""
""fullscreenenter"",""1"",""2343""
","
","
","""event"",""trial"",""time""
""fullscreenenter"",""1"",""2343""
","
","","","543.1000000238419","","","10","11124","3455","&#9776;","elianto","#3366ff99"," "," ","1","+10","[1393.5]","1","0","1","","","","","","","",""
"pit-trial","23","321183","0.0-2.0-8.0-3.0","battery-v0.2","","""event"",""trial"",""time""
""fullscreenenter"",""1"",""2343""
","
","
","""event"",""trial"",""time""
""fullscreenenter"",""1"",""2343""
","
","","","562.9000000357628","","","10","11124","3455","&#9776;","elianto","#3366ff99"," "," ","1","0","[1414.800000011921]","1","0","1","","","","","","","",""
"pit-trial","24","324603","0.0-2.0-8.0-4.0","battery-v0.2","","""event"",""trial"",""time""
""fullscreenenter"",""1"",""2343""
","
","
","""event"",""trial"",""time""
""fullscreenenter"",""1"",""2343""
","
","","","547.9000000357628","","","10","11124","3455","&#9776;","elianto","#3366ff99"," "," ","1","+10","[1400.6000000238419]","1","0","1","","","","","","","",""
"pit-trial","25","328023","0.0-2.0-8.1-0.1","battery-v0.2","","""event"",""trial"",""time""
""fullscreenenter"",""1"",""2343""
","
","
","""event"",""trial"",""time""
""fullscreenenter"",""1"",""2343""
","
","","","560.8000000119209","","","10","11124","3455","&#9776;","elianto","#3366ff99"," "," ","1","+10","[1412.1000000238419]","1","0","1","","","","","","","",""
"pit-trial","26","331382","0.0-2.0-8.1-1.1","battery-v0.2","","""event"",""trial"",""time""
""fullscreenenter"",""1"",""2343""
","
","
","""event"",""trial"",""time""
""fullscreenenter"",""1"",""2343""
","
","","","497.9000000357628","","","10","11124","3455","&#9776;","elianto","#3366ff99"," "," ","1","+10","[1354.800000011921]","1","0","1","","","","","","","",""
"pit-trial","27","334743","0.0-2.0-8.1-2.1","battery-v0.2","","""event"",""trial"",""time""
""fullscreenenter"",""1"",""2343""
","
","
","""event"",""trial"",""time""
""fullscreenenter"",""1"",""2343""
","
","","","500.30000001192093","","","10","11124","3455","&#9776;","elianto","#3366ff99"," "," ","1","+10","[1353.0999999642372]","1","0","1","","","","","","","",""
"pit-trial","28","338121","0.0-2.0-8.1-3.1","battery-v0.2","","""event"",""trial"",""time""
""fullscreenenter"",""1"",""2343""
","
","
","""event"",""trial"",""time""
""fullscreenenter"",""1"",""2343""
","
","","","516.3000000119209","","","10","11124","3455","&#9776;","elianto","#3366ff99"," "," ","1","0","[1373.300000011921]","1","0","1","","","","","","","",""
"pit-trial","29","341750","0.0-2.0-8.1-4.1","battery-v0.2","","""event"",""trial"",""time""
""fullscreenenter"",""1"",""2343""
","
","
","""event"",""trial"",""time""
""fullscreenenter"",""1"",""2343""
","
","","","775","","","10","11124","3455","&#9776;","elianto","#3366ff99"," "," ","1","+10","[1625.6000000238419]","1","0","1","","","","","","","",""
"pit-trial","30","345289","0.0-2.0-8.2-0.2","battery-v0.2","","""event"",""trial"",""time""
""fullscreenenter"",""1"",""2343""
","
","
","""event"",""trial"",""time""
""fullscreenenter"",""1"",""2343""
","
","","","681","","","10","11124","3455","&#9776;","elianto","#3366ff99"," "," ","1","+10","[1531.9000000357628]","1","0","1","","","","","","","",""
"pit-trial","31","349171","0.0-2.0-8.2-1.2","battery-v0.2","","""event"",""trial"",""time""
""fullscreenenter"",""1"",""2343""
","
","
","""event"",""trial"",""time""
""fullscreenenter"",""1"",""2343""
","
","","","1027.6000000238419","","","10","11124","3455","&#9776;","elianto","#3366ff99"," "," ","1","+10","[1877.5999999642372]","1","0","1","","","","","","","",""
"pit-trial","32","352819","0.0-2.0-8.2-2.2","battery-v0.2","","""event"",""trial"",""time""
""fullscreenenter"",""1"",""2343""
","
","
","""event"",""trial"",""time""
""fullscreenenter"",""1"",""2343""
","
","","","793.3000000119209","","","10","11124","3455","&#9776;","elianto","#3366ff99"," "," ","1","+10","[1645]","1","0","1","","","","","","","",""
"pit-trial","33","356195","0.0-2.0-8.2-3.2","battery-v0.2","","""event"",""trial"",""time""
""fullscreenenter"",""1"",""2343""
","
","
","""event"",""trial"",""time""
""fullscreenenter"",""1"",""2343""
","
","","","522.1000000238419","","","10","11124","3455","&#9776;","elianto","#3366ff99"," "," ","1","0","[1372.0999999642372]","1","0","1","","","","","","","",""
"pit-trial","34","359699","0.0-2.0-8.2-4.2","battery-v0.2","","""event"",""trial"",""time""
""fullscreenenter"",""1"",""2343""
","
","
","""event"",""trial"",""time""
""fullscreenenter"",""1"",""2343""
","
","","","650.6000000238419","","","10","11124","3455","&#9776;","elianto","#3366ff99"," "," ","1","+10","[1500.9000000357628]","1","0","1","","","","","","","",""
"call-function","35","359703","0.0-2.0-9.0","battery-v0.2","","""event"",""trial"",""time""
""fullscreenenter"",""1"",""2343""
","
","
","""event"",""trial"",""time""
""fullscreenenter"",""1"",""2343""
","
","","","","","","","","","","","","","","","","","","","","","","","","","","",""
"pit-instructions","36","403570","0.0-2.0-10.0","battery-v0.2","","""event"",""trial"",""time""
""fullscreenenter"",""1"",""2343""
","
","
","""event"",""trial"",""time""
""fullscreenenter"",""1"",""2343""
","
","","[{""page_index"":0,""viewing_time"":6505.199999988079},{""page_index"":1,""viewing_time"":7864.700000047684},{""page_index"":2,""viewing_time"":11737.099999964237},{""page_index"":3,""viewing_time"":9667.699999988079},{""page_index"":4,""viewing_time"":8090.100000023842}]","43865.5","","","","","","","","","","","","","","","","","","","","","","","",""
"pit-trial","37","408444","0.0-2.0-11.0-0.0","battery-v0.2","","""event"",""trial"",""time""
""fullscreenenter"",""1"",""2343""
","
","
","""event"",""trial"",""time""
""fullscreenenter"",""1"",""2343""
","
","","","-1","","","10","11124","3455","&#9761;","elianto","#3366ff99","-1","-1","1","+10","[]","0","0","2","","","","","","","",""
"pit-trial","38","413325","0.0-2.0-11.0-1.0","battery-v0.2","","""event"",""trial"",""time""
""fullscreenenter"",""1"",""2343""
","
","
","""event"",""trial"",""time""
""fullscreenenter"",""1"",""2343""
","
","","","-1","","","10","11124","3455","&#9761;","elianto","#3366ff99","-1","-1","1","+10","[]","0","0","2","","","","","","","",""
"pit-trial","39","418195","0.0-2.0-11.0-2.0","battery-v0.2","","""event"",""trial"",""time""
""fullscreenenter"",""1"",""2343""
","
","
","""event"",""trial"",""time""
""fullscreenenter"",""1"",""2343""
","
","","","-1","","","10","11124","3455","&#9761;","elianto","#3366ff99","-1","-1","1","+10","[]","0","0","2","","","","","","","",""
"pit-trial","40","423069","0.0-2.0-11.0-3.0","battery-v0.2","","""event"",""trial"",""time""
""fullscreenenter"",""1"",""2343""
","
","
","""event"",""trial"",""time""
""fullscreenenter"",""1"",""2343""
","
","","","-1","","","10","11124","3455","&#9761;","elianto","#3366ff99","-1","-1","1","0","[]","0","0","2","","","","","","","",""
"pit-trial","41","427934","0.0-2.0-11.0-4.0","battery-v0.2","","""event"",""trial"",""time""
""fullscreenenter"",""1"",""2343""
","
","
","""event"",""trial"",""time""
""fullscreenenter"",""1"",""2343""
","
","","","-1","","","10","11124","3455","&#9761;","elianto","#3366ff99","-1","-1","1","+10","[]","0","0","2","","","","","","","",""
"pit-trial","42","432819","0.0-2.0-11.1-0.1","battery-v0.2","","""event"",""trial"",""time""
""fullscreenenter"",""1"",""2343""
","
","
","""event"",""trial"",""time""
""fullscreenenter"",""1"",""2343""
","
","","","-1","","","10","11124","3455","&#9761;","elianto","#3366ff99","-1","-1","1","+10","[]","0","0","2","","","","","","","",""
"pit-trial","43","437673","0.0-2.0-11.1-1.1","battery-v0.2","","""event"",""trial"",""time""
""fullscreenenter"",""1"",""2343""
","
","
","""event"",""trial"",""time""
""fullscreenenter"",""1"",""2343""
","
","","","-1","","","10","11124","3455","&#9761;","elianto","#3366ff99","-1","-1","1","+10","[]","0","0","2","","","","","","","",""
"pit-trial","44","442527","0.0-2.0-11.1-2.1","battery-v0.2","","""event"",""trial"",""time""
""fullscreenenter"",""1"",""2343""
","
","
","""event"",""trial"",""time""
""fullscreenenter"",""1"",""2343""
","
","","","-1","","","10","11124","3455","&#9761;","elianto","#3366ff99","-1","-1","1","+10","[]","0","0","2","","","","","","","",""
"pit-trial","45","447383","0.0-2.0-11.1-3.1","battery-v0.2","","""event"",""trial"",""time""
""fullscreenenter"",""1"",""2343""
","
","
","""event"",""trial"",""time""
""fullscreenenter"",""1"",""2343""
","
","","","-1","","","10","11124","3455","&#9761;","elianto","#3366ff99","-1","-1","1","0","[]","0","0","2","","","","","","","",""
"pit-trial","46","452242","0.0-2.0-11.1-4.1","battery-v0.2","","""event"",""trial"",""time""
""fullscreenenter"",""1"",""2343""
","
","
","""event"",""trial"",""time""
""fullscreenenter"",""1"",""2343""
","
","","","-1","","","10","11124","3455","&#9761;","elianto","#3366ff99","-1","-1","1","+10","[]","0","0","2","","","","","","","",""
"pit-trial","47","457097","0.0-2.0-11.2-0.2","battery-v0.2","","""event"",""trial"",""time""
""fullscreenenter"",""1"",""2343""
","
","
","""event"",""trial"",""time""
""fullscreenenter"",""1"",""2343""
","
","","","-1","","","10","11124","3455","&#9761;","elianto","#3366ff99","-1","-1","1","+10","[]","0","0","2","","","","","","","",""
"pit-trial","48","461955","0.0-2.0-11.2-1.2","battery-v0.2","","""event"",""trial"",""time""
""fullscreenenter"",""1"",""2343""
","
","
","""event"",""trial"",""time""
""fullscreenenter"",""1"",""2343""
","
","","","-1","","","10","11124","3455","&#9761;","elianto","#3366ff99","-1","-1","1","+10","[]","0","0","2","","","","","","","",""
"pit-trial","49","466808","0.0-2.0-11.2-2.2","battery-v0.2","","""event"",""trial"",""time""
""fullscreenenter"",""1"",""2343""
","
","
","""event"",""trial"",""time""
""fullscreenenter"",""1"",""2343""
","
","","","-1","","","10","11124","3455","&#9761;","elianto","#3366ff99","-1","-1","1","+10","[]","0","0","2","","","","","","","",""
"pit-trial","50","471664","0.0-2.0-11.2-3.2","battery-v0.2","","""event"",""trial"",""time""
""fullscreenenter"",""1"",""2343""
","
","
","""event"",""trial"",""time""
""fullscreenenter"",""1"",""2343""
","
","","","-1","","","10","11124","3455","&#9761;","elianto","#3366ff99","-1","-1","1","0","[]","0","0","2","","","","","","","",""
"pit-trial","51","476518","0.0-2.0-11.2-4.2","battery-v0.2","","""event"",""trial"",""time""
""fullscreenenter"",""1"",""2343""
","
","
","""event"",""trial"",""time""
""fullscreenenter"",""1"",""2343""
","
","","","-1","","","10","11124","3455","&#9761;","elianto","#3366ff99","-1","-1","1","+10","[]","0","0","2","","","","","","","",""
"pit-trial","52","481374","0.0-2.0-11.3-0.3","battery-v0.2","","""event"",""trial"",""time""
""fullscreenenter"",""1"",""2343""
","
","
","""event"",""trial"",""time""
""fullscreenenter"",""1"",""2343""
","
","","","-1","","","10","11124","3455","&#9761;","elianto","#3366ff99","-1","-1","1","+10","[]","0","0","2","","","","","","","",""
"pit-trial","53","486228","0.0-2.0-11.3-1.3","battery-v0.2","","""event"",""trial"",""time""
""fullscreenenter"",""1"",""2343""
","
","
","""event"",""trial"",""time""
""fullscreenenter"",""1"",""2343""
","
","","","-1","","","10","11124","3455","&#9761;","elianto","#3366ff99","-1","-1","1","+10","[]","0","0","2","","","","","","","",""
"pit-trial","54","491082","0.0-2.0-11.3-2.3","battery-v0.2","","""event"",""trial"",""time""
""fullscreenenter"",""1"",""2343""
","
","
","""event"",""trial"",""time""
""fullscreenenter"",""1"",""2343""
","
","","","-1","","","10","11124","3455","&#9761;","elianto","#3366ff99","-1","-1","1","+10","[]","0","0","2","","","","","","","",""
"pit-trial","55","494724","0.0-2.0-11.3-3.3","battery-v0.2","","""event"",""trial"",""time""
""fullscreenenter"",""1"",""2343""
","
","
","""event"",""trial"",""time""
""fullscreenenter"",""1"",""2343""
","
","","","785.2000000476837","","","10","11124","3455","&#9761;","elianto","#3366ff99","-1"," ","0","+10","[1637.4000000357628]","1","0","2","","","","","","","",""
"pit-trial","56","499578","0.0-2.0-11.3-4.3","battery-v0.2","","""event"",""trial"",""time""
""fullscreenenter"",""1"",""2343""
","
","
","""event"",""trial"",""time""
""fullscreenenter"",""1"",""2343""
","
","","","-1","","","10","11124","3455","&#9761;","elianto","#3366ff99","-1","-1","1","+10","[]","0","0","2","","","","","","","",""
"call-function","57","499581","0.0-2.0-12.0","battery-v0.2","","""event"",""trial"",""time""
""fullscreenenter"",""1"",""2343""
","
","
","""event"",""trial"",""time""
""fullscreenenter"",""1"",""2343""
","
","","","","","","","","","","","","","","","","","","","","","","","","","","",""
"pit-instructions","58","533787","0.0-2.0-13.0","battery-v0.2","","""event"",""trial"",""time""
""fullscreenenter"",""1"",""2343""
","
","
","""event"",""trial"",""time""
""fullscreenenter"",""1"",""2343""
","
","","[{""page_index"":0,""viewing_time"":5307.5},{""page_index"":1,""viewing_time"":8426.099999964237},{""page_index"":2,""viewing_time"":3741.600000023842},{""page_index"":3,""viewing_time"":11094.599999964237},{""page_index"":4,""viewing_time"":5633.600000023842}]","34203.89999997616","","","","","","","","","","","","","","","","","","","","","","","",""
"pit-trial","59","538663","0.0-2.0-14.0-0.0","battery-v0.2","","""event"",""trial"",""time""
""fullscreenenter"",""1"",""2343""
","
","
","""event"",""trial"",""time""
""fullscreenenter"",""1"",""2343""
","
","","","-1","","","10","11124","3455","&#9826;","elianto","#f73b6a7A","-1","-1","1","0","[]","0","0","3","","","","","","","",""
"pit-trial","60","543553","0.0-2.0-14.0-1.0","battery-v0.2","","""event"",""trial"",""time""
""fullscreenenter"",""1"",""2343""
","
","
","""event"",""trial"",""time""
""fullscreenenter"",""1"",""2343""
","
","","","-1","","","10","11124","3455","&#9826;","elianto","#f73b6a7A","-1","-1","1","0","[]","0","0","3","","","","","","","",""
"pit-trial","61","548443","0.0-2.0-14.0-2.0","battery-v0.2","","""event"",""trial"",""time""
""fullscreenenter"",""1"",""2343""
","
","
","""event"",""trial"",""time""
""fullscreenenter"",""1"",""2343""
","
","","","-1","","","10","11124","3455","&#9826;","elianto","#f73b6a7A","-1","-1","1","0","[]","0","0","3","","","","","","","",""
"pit-trial","62","553322","0.0-2.0-14.0-3.0","battery-v0.2","","""event"",""trial"",""time""
""fullscreenenter"",""1"",""2343""
","
","
","""event"",""trial"",""time""
""fullscreenenter"",""1"",""2343""
","
","","","-1","","","10","11124","3455","&#9826;","elianto","#f73b6a7A","-1","-1","1","-10","[]","0","0","3","","","","","","","",""
"pit-trial","63","558202","0.0-2.0-14.0-4.0","battery-v0.2","","""event"",""trial"",""time""
""fullscreenenter"",""1"",""2343""
","
","
","""event"",""trial"",""time""
""fullscreenenter"",""1"",""2343""
","
","","","-1","","","10","11124","3455","&#9826;","elianto","#f73b6a7A","-1","-1","1","0","[]","0","0","3","","","","","","","",""
"pit-trial","64","563063","0.0-2.0-14.1-0.1","battery-v0.2","","""event"",""trial"",""time""
""fullscreenenter"",""1"",""2343""
","
","
","""event"",""trial"",""time""
""fullscreenenter"",""1"",""2343""
","
","","","-1","","","10","11124","3455","&#9826;","elianto","#f73b6a7A","-1","-1","1","0","[]","0","0","3","","","","","","","",""
"pit-trial","65","567919","0.0-2.0-14.1-1.1","battery-v0.2","","""event"",""trial"",""time""
""fullscreenenter"",""1"",""2343""
","
","
","""event"",""trial"",""time""
""fullscreenenter"",""1"",""2343""
","
","","","-1","","","10","11124","3455","&#9826;","elianto","#f73b6a7A","-1","-1","1","0","[]","0","0","3","","","","","","","",""
"pit-trial","66","572784","0.0-2.0-14.1-2.1","battery-v0.2","","""event"",""trial"",""time""
""fullscreenenter"",""1"",""2343""
","
","
","""event"",""trial"",""time""
""fullscreenenter"",""1"",""2343""
","
","","","-1","","","10","11124","3455","&#9826;","elianto","#f73b6a7A","-1","-1","1","0","[]","0","0","3","","","","","","","",""
"pit-trial","67","577638","0.0-2.0-14.1-3.1","battery-v0.2","","""event"",""trial"",""time""
""fullscreenenter"",""1"",""2343""
","
","
","""event"",""trial"",""time""
""fullscreenenter"",""1"",""2343""
","
","","","-1","","","10","11124","3455","&#9826;","elianto","#f73b6a7A","-1","-1","1","-10","[]","0","0","3","","","","","","","",""
"pit-trial","68","582492","0.0-2.0-14.1-4.1","battery-v0.2","","""event"",""trial"",""time""
""fullscreenenter"",""1"",""2343""
","
","
","""event"",""trial"",""time""
""fullscreenenter"",""1"",""2343""
","
","","","-1","","","10","11124","3455","&#9826;","elianto","#f73b6a7A","-1","-1","1","0","[]","0","0","3","","","","","","","",""
"pit-trial","69","587348","0.0-2.0-14.2-0.2","battery-v0.2","","""event"",""trial"",""time""
""fullscreenenter"",""1"",""2343""
","
","
","""event"",""trial"",""time""
""fullscreenenter"",""1"",""2343""
","
","","","-1","","","10","11124","3455","&#9826;","elianto","#f73b6a7A","-1","-1","1","0","[]","0","0","3","","","","","","","",""
"pit-trial","70","592201","0.0-2.0-14.2-1.2","battery-v0.2","","""event"",""trial"",""time""
""fullscreenenter"",""1"",""2343""
","
","
","""event"",""trial"",""time""
""fullscreenenter"",""1"",""2343""
","
","","","-1","","","10","11124","3455","&#9826;","elianto","#f73b6a7A","-1","-1","1","0","[]","0","0","3","","","","","","","",""
"pit-trial","71","597056","0.0-2.0-14.2-2.2","battery-v0.2","","""event"",""trial"",""time""
""fullscreenenter"",""1"",""2343""
","
","
","""event"",""trial"",""time""
""fullscreenenter"",""1"",""2343""
","
","","","-1","","","10","11124","3455","&#9826;","elianto","#f73b6a7A","-1","-1","1","0","[]","0","0","3","","","","","","","",""
"pit-trial","72","601911","0.0-2.0-14.2-3.2","battery-v0.2","","""event"",""trial"",""time""
""fullscreenenter"",""1"",""2343""
","
","
","""event"",""trial"",""time""
""fullscreenenter"",""1"",""2343""
","
","","","-1","","","10","11124","3455","&#9826;","elianto","#f73b6a7A","-1","-1","1","-10","[]","0","0","3","","","","","","","",""
"pit-trial","73","606766","0.0-2.0-14.2-4.2","battery-v0.2","","""event"",""trial"",""time""
""fullscreenenter"",""1"",""2343""
","
","
","""event"",""trial"",""time""
""fullscreenenter"",""1"",""2343""
","
","","","-1","","","10","11124","3455","&#9826;","elianto","#f73b6a7A","-1","-1","1","0","[]","0","0","3","","","","","","","",""
"pit-trial","74","611621","0.0-2.0-14.3-0.3","battery-v0.2","","""event"",""trial"",""time""
""fullscreenenter"",""1"",""2343""
","
","
","""event"",""trial"",""time""
""fullscreenenter"",""1"",""2343""
","
","","","-1","","","10","11124","3455","&#9826;","elianto","#f73b6a7A","-1","-1","1","0","[]","0","0","3","","","","","","","",""
"pit-trial","75","616477","0.0-2.0-14.3-1.3","battery-v0.2","","""event"",""trial"",""time""
""fullscreenenter"",""1"",""2343""
","
","
","""event"",""trial"",""time""
""fullscreenenter"",""1"",""2343""
","
","","","-1","","","10","11124","3455","&#9826;","elianto","#f73b6a7A","-1","-1","1","0","[]","0","0","3","","","","","","","",""
"pit-trial","76","621331","0.0-2.0-14.3-2.3","battery-v0.2","","""event"",""trial"",""time""
""fullscreenenter"",""1"",""2343""
","
","
","""event"",""trial"",""time""
""fullscreenenter"",""1"",""2343""
","
","","","-1","","","10","11124","3455","&#9826;","elianto","#f73b6a7A","-1","-1","1","0","[]","0","0","3","","","","","","","",""
"pit-trial","77","626184","0.0-2.0-14.3-3.3","battery-v0.2","","""event"",""trial"",""time""
""fullscreenenter"",""1"",""2343""
","
","
","""event"",""trial"",""time""
""fullscreenenter"",""1"",""2343""
","
","","","-1","","","10","11124","3455","&#9826;","elianto","#f73b6a7A","-1","-1","1","-10","[]","0","0","3","","","","","","","",""
"pit-trial","78","631038","0.0-2.0-14.3-4.3","battery-v0.2","","""event"",""trial"",""time""
""fullscreenenter"",""1"",""2343""
","
","
","""event"",""trial"",""time""
""fullscreenenter"",""1"",""2343""
","
","","","-1","","","10","11124","3455","&#9826;","elianto","#f73b6a7A","-1","-1","1","0","[]","0","0","3","","","","","","","",""
"call-function","79","631041","0.0-2.0-15.0","battery-v0.2","","""event"",""trial"",""time""
""fullscreenenter"",""1"",""2343""
","
","
","""event"",""trial"",""time""
""fullscreenenter"",""1"",""2343""
","
","","","","","","","","","","","","","","","","","","","","","","","","","","",""
"pit-instructions","80","656144","0.0-2.0-16.0","battery-v0.2","","""event"",""trial"",""time""
""fullscreenenter"",""1"",""2343""
","
","
","""event"",""trial"",""time""
""fullscreenenter"",""1"",""2343""
","
","","[{""page_index"":0,""viewing_time"":6643.199999988079},{""page_index"":1,""viewing_time"":8618.399999976158},{""page_index"":2,""viewing_time"":4433.400000035763},{""page_index"":3,""viewing_time"":5405.899999976158}]","25101.299999952316","","","","","","","","","","","","","","","","","","","","","","","",""
"pit-trial","81","661024","0.0-2.0-17.0-0.0","battery-v0.2","","""event"",""trial"",""time""
""fullscreenenter"",""1"",""2343""
","
","
","""event"",""trial"",""time""
""fullscreenenter"",""1"",""2343""
","
","","","-1","","","10","11124","3455","&#9789;","elianto","#f73b6a7A"," ","-1","0","-10","[]","0","0","4","","","","","","","",""
"pit-trial","82","665894","0.0-2.0-17.0-1.0","battery-v0.2","","""event"",""trial"",""time""
""fullscreenenter"",""1"",""2343""
","
","
","""event"",""trial"",""time""
""fullscreenenter"",""1"",""2343""
","
","","","-1","","","10","11124","3455","&#9789;","elianto","#f73b6a7A"," ","-1","0","-10","[]","0","0","4","","","","","","","",""
"pit-trial","83","670764","0.0-2.0-17.0-2.0","battery-v0.2","","""event"",""trial"",""time""
""fullscreenenter"",""1"",""2343""
","
","
","""event"",""trial"",""time""
""fullscreenenter"",""1"",""2343""
","
","","","-1","","","10","11124","3455","&#9789;","elianto","#f73b6a7A"," ","-1","0","-10","[]","0","0","4","","","","","","","",""
"pit-trial","84","675635","0.0-2.0-17.0-3.0","battery-v0.2","","""event"",""trial"",""time""
""fullscreenenter"",""1"",""2343""
","
","
","""event"",""trial"",""time""
""fullscreenenter"",""1"",""2343""
","
","","","-1","","","10","11124","3455","&#9789;","elianto","#f73b6a7A"," ","-1","0","0","[]","0","0","4","","","","","","","",""
"pit-trial","85","680515","0.0-2.0-17.0-4.0","battery-v0.2","","""event"",""trial"",""time""
""fullscreenenter"",""1"",""2343""
","
","
","""event"",""trial"",""time""
""fullscreenenter"",""1"",""2343""
","
","","","-1","","","10","11124","3455","&#9789;","elianto","#f73b6a7A"," ","-1","0","-10","[]","0","0","4","","","","","","","",""
"pit-trial","86","685404","0.0-2.0-17.1-0.1","battery-v0.2","","""event"",""trial"",""time""
""fullscreenenter"",""1"",""2343""
","
","
","""event"",""trial"",""time""
""fullscreenenter"",""1"",""2343""
","
","","","-1","","","10","11124","3455","&#9789;","elianto","#f73b6a7A"," ","-1","0","-10","[]","0","0","4","","","","","","","",""
"pit-trial","87","690259","0.0-2.0-17.1-1.1","battery-v0.2","","""event"",""trial"",""time""
""fullscreenenter"",""1"",""2343""
","
","
","""event"",""trial"",""time""
""fullscreenenter"",""1"",""2343""
","
","","","-1","","","10","11124","3455","&#9789;","elianto","#f73b6a7A"," ","-1","0","-10","[]","0","0","4","","","","","","","",""
"pit-trial","88","695113","0.0-2.0-17.1-2.1","battery-v0.2","","""event"",""trial"",""time""
""fullscreenenter"",""1"",""2343""
","
","
","""event"",""trial"",""time""
""fullscreenenter"",""1"",""2343""
","
","","","-1","","","10","11124","3455","&#9789;","elianto","#f73b6a7A"," ","-1","0","-10","[]","0","0","4","","","","","","","",""
"pit-trial","89","699968","0.0-2.0-17.1-3.1","battery-v0.2","","""event"",""trial"",""time""
""fullscreenenter"",""1"",""2343""
","
","
","""event"",""trial"",""time""
""fullscreenenter"",""1"",""2343""
","
","","","-1","","","10","11124","3455","&#9789;","elianto","#f73b6a7A"," ","-1","0","0","[]","0","0","4","","","","","","","",""
"pit-trial","90","704824","0.0-2.0-17.1-4.1","battery-v0.2","","""event"",""trial"",""time""
""fullscreenenter"",""1"",""2343""
","
","
","""event"",""trial"",""time""
""fullscreenenter"",""1"",""2343""
","
","","","-1","","","10","11124","3455","&#9789;","elianto","#f73b6a7A"," ","-1","0","-10","[]","0","0","4","","","","","","","",""
"pit-trial","91","709689","0.0-2.0-17.2-0.2","battery-v0.2","","""event"",""trial"",""time""
""fullscreenenter"",""1"",""2343""
","
","
","""event"",""trial"",""time""
""fullscreenenter"",""1"",""2343""
","
","","","-1","","","10","11124","3455","&#9789;","elianto","#f73b6a7A"," ","-1","0","-10","[]","0","0","4","","","","","","","",""
"pit-trial","92","714543","0.0-2.0-17.2-1.2","battery-v0.2","","""event"",""trial"",""time""
""fullscreenenter"",""1"",""2343""
","
","
","""event"",""trial"",""time""
""fullscreenenter"",""1"",""2343""
","
","","","-1","","","10","11124","3455","&#9789;","elianto","#f73b6a7A"," ","-1","0","-10","[]","0","0","4","","","","","","","",""
"pit-trial","93","719398","0.0-2.0-17.2-2.2","battery-v0.2","","""event"",""trial"",""time""
""fullscreenenter"",""1"",""2343""
","
","
","""event"",""trial"",""time""
""fullscreenenter"",""1"",""2343""
","
","","","-1","","","10","11124","3455","&#9789;","elianto","#f73b6a7A"," ","-1","0","-10","[]","0","0","4","","","","","","","",""
"pit-trial","94","724253","0.0-2.0-17.2-3.2","battery-v0.2","","""event"",""trial"",""time""
""fullscreenenter"",""1"",""2343""
","
","
","""event"",""trial"",""time""
""fullscreenenter"",""1"",""2343""
","
","","","-1","","","10","11124","3455","&#9789;","elianto","#f73b6a7A"," ","-1","0","0","[]","0","0","4","","","","","","","",""
"pit-trial","95","729109","0.0-2.0-17.2-4.2","battery-v0.2","","""event"",""trial"",""time""
""fullscreenenter"",""1"",""2343""
","
","
","""event"",""trial"",""time""
""fullscreenenter"",""1"",""2343""
","
","","","-1","","","10","11124","3455","&#9789;","elianto","#f73b6a7A"," ","-1","0","-10","[]","0","0","4","","","","","","","",""
"pit-trial","96","733965","0.0-2.0-17.3-0.3","battery-v0.2","","""event"",""trial"",""time""
""fullscreenenter"",""1"",""2343""
","
","
","""event"",""trial"",""time""
""fullscreenenter"",""1"",""2343""
","
","","","-1","","","10","11124","3455","&#9789;","elianto","#f73b6a7A"," ","-1","0","-10","[]","0","0","4","","","","","","","",""
"pit-trial","97","738819","0.0-2.0-17.3-1.3","battery-v0.2","","""event"",""trial"",""time""
""fullscreenenter"",""1"",""2343""
","
","
","""event"",""trial"",""time""
""fullscreenenter"",""1"",""2343""
","
","","","-1","","","10","11124","3455","&#9789;","elianto","#f73b6a7A"," ","-1","0","-10","[]","0","0","4","","","","","","","",""
"pit-trial","98","743674","0.0-2.0-17.3-2.3","battery-v0.2","","""event"",""trial"",""time""
""fullscreenenter"",""1"",""2343""
","
","
","""event"",""trial"",""time""
""fullscreenenter"",""1"",""2343""
","
","","","-1","","","10","11124","3455","&#9789;","elianto","#f73b6a7A"," ","-1","0","-10","[]","0","0","4","","","","","","","",""
"pit-trial","99","748528","0.0-2.0-17.3-3.3","battery-v0.2","","""event"",""trial"",""time""
""fullscreenenter"",""1"",""2343""
","
","
","""event"",""trial"",""time""
""fullscreenenter"",""1"",""2343""
","
","","","-1","","","10","11124","3455","&#9789;","elianto","#f73b6a7A"," ","-1","0","0","[]","0","0","4","","","","","","","",""
"pit-trial","100","753382","0.0-2.0-17.3-4.3","battery-v0.2","","""event"",""trial"",""time""
""fullscreenenter"",""1"",""2343""
","
","
","""event"",""trial"",""time""
""fullscreenenter"",""1"",""2343""
","
","","","-1","","","10","11124","3455","&#9789;","elianto","#f73b6a7A"," ","-1","0","-10","[]","0","0","4","","","","","","","",""
"call-function","101","753384","0.0-2.0-18.0","battery-v0.2","","""event"",""trial"",""time""
""fullscreenenter"",""1"",""2343""
","
","
","""event"",""trial"",""time""
""fullscreenenter"",""1"",""2343""
","
","","","","","","","","","","","","","","","","","","","","","","","","","","",""
"pit-instructions","102","828906","0.0-2.0-19.0","battery-v0.2","","""event"",""trial"",""time""
""fullscreenenter"",""1"",""2343""
","
","
","""event"",""trial"",""time""
""fullscreenenter"",""1"",""2343""
","
","","[{""page_index"":0,""viewing_time"":8863.399999976158},{""page_index"":1,""viewing_time"":6643.899999976158},{""page_index"":2,""viewing_time"":14601.700000047684},{""page_index"":3,""viewing_time"":8591.399999976158},{""page_index"":4,""viewing_time"":8297.600000023842},{""page_index"":5,""viewing_time"":8449.099999964237},{""page_index"":6,""viewing_time"":9545.800000011921},{""page_index"":7,""viewing_time"":6243.800000011921},{""page_index"":8,""viewing_time"":4284.300000011921}]","75521.39999997616","","","","","","","","","","","","","","","","","","","","","","","",""
"pit-comprehension","103","835659","0.0-2.0-20.0-0.0","battery-v0.2","","""event"",""trial"",""time""
""fullscreenenter"",""1"",""2343""
","
","
","""event"",""trial"",""time""
""fullscreenenter"",""1"",""2343""
","
","","","6748.800000011921","[""SPACE""]","0","10","11124","3455","","","","","","","","","","","","","","","","","","",""
"pit-instructions","104","838426","0.0-2.0-20.0-1.0","battery-v0.2","","""event"",""trial"",""time""
""fullscreenenter"",""1"",""2343""
","
","
","""event"",""trial"",""time""
""fullscreenenter"",""1"",""2343""
","
","","[{""page_index"":0,""viewing_time"":2617.199999988079}]","2617.399999976158","","","","","","","","","","","","","","","","","","","","","","","",""
"pit-comprehension","105","845558","0.0-2.0-21.0-0.0","battery-v0.2","","""event"",""trial"",""time""
""fullscreenenter"",""1"",""2343""
","
","
","""event"",""trial"",""time""
""fullscreenenter"",""1"",""2343""
","
","","","7129.299999952316","[""10""]","0","10","11124","3455","","","","","","","","","","","","","","","","","","",""
"pit-instructions","106","848868","0.0-2.0-21.0-1.0","battery-v0.2","","""event"",""trial"",""time""
""fullscreenenter"",""1"",""2343""
","
","
","""event"",""trial"",""time""
""fullscreenenter"",""1"",""2343""
","
","","[{""page_index"":0,""viewing_time"":3261.300000011921}]","3261.699999988079","","","","","","","","","","","","","","","","","","","","","","","",""
"pit-comprehension","107","857598","0.0-2.0-22.0-0.0","battery-v0.2","","""event"",""trial"",""time""
""fullscreenenter"",""1"",""2343""
","
","
","""event"",""trial"",""time""
""fullscreenenter"",""1"",""2343""
","
","","","8727.099999964237","[""-10""]","1","10","11124","3455","","","","","","","","","","","","","","","","","","",""
"pit-instructions","108","864150","0.0-2.0-22.0-1.0","battery-v0.2","","""event"",""trial"",""time""
""fullscreenenter"",""1"",""2343""
","
","
","""event"",""trial"",""time""
""fullscreenenter"",""1"",""2343""
","
","","[{""page_index"":0,""viewing_time"":6505.599999964237}]","6505.800000011921","","","","","","","","","","","","","","","","","","","","","","","",""
"pit-instructions","109","865638","0.0-2.0-22.0-2.0-0.0","battery-v0.2","","""event"",""trial"",""time""
""fullscreenenter"",""1"",""2343""
","
","
","""event"",""trial"",""time""
""fullscreenenter"",""1"",""2343""
","
","","[{""page_index"":0,""viewing_time"":1486.800000011921}]","1487","","","","","","","","","","","","","","","","","","","","","","","",""
"pit-comprehension","110","872180","0.0-2.0-22.1-0.1","battery-v0.2","","""event"",""trial"",""time""
""fullscreenenter"",""1"",""2343""
","
","
","""event"",""trial"",""time""
""fullscreenenter"",""1"",""2343""
","
","","","6539.600000023842","[""0""]","0","10","11124","3455","","","","","","","","","","","","","","","","","","",""
"pit-instructions","111","874934","0.0-2.0-22.1-1.1","battery-v0.2","","""event"",""trial"",""time""
""fullscreenenter"",""1"",""2343""
","
","
","""event"",""trial"",""time""
""fullscreenenter"",""1"",""2343""
","
","","[{""page_index"":0,""viewing_time"":2708.5}]","2708.800000011921","","","","","","","","","","","","","","","","","","","","","","","",""
"pit-comprehension","112","887970","0.0-2.0-23.0-0.0","battery-v0.2","","""event"",""trial"",""time""
""fullscreenenter"",""1"",""2343""
","
","
","""event"",""trial"",""time""
""fullscreenenter"",""1"",""2343""
","
","","","13033.299999952316","[""True""]","0","10","11124","3455","","","","","","","","","","","","","","","","","","",""
"pit-instructions","113","890386","0.0-2.0-23.0-1.0","battery-v0.2","","""event"",""trial"",""time""
""fullscreenenter"",""1"",""2343""
","
","
","""event"",""trial"",""time""
""fullscreenenter"",""1"",""2343""
","
","","[{""page_index"":0,""viewing_time"":2366.7999999523163}]","2367.199999988079","","","","","","","","","","","","","","","","","","","","","","","",""
"pit-comprehension","114","898034","0.0-2.0-24.0-0.0","battery-v0.2","","""event"",""trial"",""time""
""fullscreenenter"",""1"",""2343""
","
","
","""event"",""trial"",""time""
""fullscreenenter"",""1"",""2343""
","
","","","7645.699999988079","[""True""]","0","10","11124","3455","","","","","","","","","","","","","","","","","","",""
"pit-instructions","115","900663","0.0-2.0-24.0-1.0","battery-v0.2","","""event"",""trial"",""time""
""fullscreenenter"",""1"",""2343""
","
","
","""event"",""trial"",""time""
""fullscreenenter"",""1"",""2343""
","
","","[{""page_index"":0,""viewing_time"":2582.800000011921}]","2583.100000023842","","","","","","","","","","","","","","","","","","","","","","","",""
"pit-comprehension","116","907236","0.0-2.0-25.0-0.0","battery-v0.2","","""event"",""trial"",""time""
""fullscreenenter"",""1"",""2343""
","
","
","""event"",""trial"",""time""
""fullscreenenter"",""1"",""2343""
","
","","","6569","[""True""]","0","10","11124","3455","","","","","","","","","","","","","","","","","","",""
"pit-instructions","117","909825","0.0-2.0-25.0-1.0","battery-v0.2","","""event"",""trial"",""time""
""fullscreenenter"",""1"",""2343""
","
","
","""event"",""trial"",""time""
""fullscreenenter"",""1"",""2343""
","
","","[{""page_index"":0,""viewing_time"":2542.199999988079}]","2542.599999964237","","","","","","","","","","","","","","","","","","","","","","","",""
"pit-comprehension","118","917350","0.0-2.0-26.0-0.0","battery-v0.2","","""event"",""trial"",""time""
""fullscreenenter"",""1"",""2343""
","
","
","""event"",""trial"",""time""
""fullscreenenter"",""1"",""2343""
","
","","","7521.300000011921","[""True""]","1","10","11124","3455","","","","","","","","","","","","","","","","","","",""
"pit-instructions","119","926580","0.0-2.0-26.0-1.0","battery-v0.2","","""event"",""trial"",""time""
""fullscreenenter"",""1"",""2343""
","
","
","""event"",""trial"",""time""
""fullscreenenter"",""1"",""2343""
","
","","[{""page_index"":0,""viewing_time"":9170.699999988079}]","9170.899999976158","","","","","","","","","","","","","","","","","","","","","","","",""
"pit-instructions","120","927435","0.0-2.0-26.0-2.0-0.0","battery-v0.2","","""event"",""trial"",""time""
""fullscreenenter"",""1"",""2343""
","
","
","""event"",""trial"",""time""
""fullscreenenter"",""1"",""2343""
","
","","[{""page_index"":0,""viewing_time"":853.5}]","853.8000000119209","","","","","","","","","","","","","","","","","","","","","","","",""
"pit-comprehension","121","932214","0.0-2.0-26.1-0.1","battery-v0.2","","""event"",""trial"",""time""
""fullscreenenter"",""1"",""2343""
","
","
","""event"",""trial"",""time""
""fullscreenenter"",""1"",""2343""
","
","","","4776.699999988079","[""False""]","0","10","11124","3455","","","","","","","","","","","","","","","","","","",""
"pit-instructions","122","934653","0.0-2.0-26.1-1.1","battery-v0.2","","""event"",""trial"",""time""
""fullscreenenter"",""1"",""2343""
","
","
","""event"",""trial"",""time""
""fullscreenenter"",""1"",""2343""
","
","","[{""page_index"":0,""viewing_time"":2383.800000011921}]","2384.300000011921","","","","","","","","","","","","","","","","","","","","","","","",""
"pit-instructions","123","952845","0.0-3.0","battery-v0.2","","""event"",""trial"",""time""
""fullscreenenter"",""1"",""2343""
","
","
","""event"",""trial"",""time""
""fullscreenenter"",""1"",""2343""
","
","","[{""page_index"":0,""viewing_time"":4760.100000023842},{""page_index"":1,""viewing_time"":5513.799999952316},{""page_index"":2,""viewing_time"":7916}]","18190.399999976158","","","","","","","","","","","","","","","","","","","","","","","",""
"pit-trial","124","957711","0.0-4.0","battery-v0.2","","""event"",""trial"",""time""
""fullscreenenter"",""1"",""2343""
","
","
","""event"",""trial"",""time""
""fullscreenenter"",""1"",""2343""
","
","","","2001.800000011921","","","10","11124","3455","&#9730;","elianto","#3366ff99"," "," ","1","+10","[2851.900000035763]","1","1","","","11124","1","1","1","win","go","0"
"pit-trial","125","962576","0.0-5.0","battery-v0.2","","""event"",""trial"",""time""
""fullscreenenter"",""1"",""2343""
","
","
","""event"",""trial"",""time""
""fullscreenenter"",""1"",""2343""
","
","","","-1","","","10","11124","3455","&#9752;","elianto","#f73b6a7A"," ","-1","0","-10","[]","0","1","","","11124","2","3","3","lose","go","0"
"pit-trial","126","967310","0.0-6.0","battery-v0.2","","""event"",""trial"",""time""
""fullscreenenter"",""1"",""2343""
","
","
","""event"",""trial"",""time""
""fullscreenenter"",""1"",""2343""
","
","","","1877.5","","","10","11124","3455","&#9733;","elianto","#3366ff99","-1"," ","0","0","[2729.199999988079]","1","1","","","11124","3","2","2","win","no-go","0"
"pit-trial","127","972174","0.0-7.0","battery-v0.2","","""event"",""trial"",""time""
""fullscreenenter"",""1"",""2343""
","
","
","""event"",""trial"",""time""
""fullscreenenter"",""1"",""2343""
","
","","","-1","","","10","11124","3455","&#9728;","elianto","#f73b6a7A","-1","-1","1","0","[]","0","1","","","11124","4","0","4","lose","no-go","0"
"pit-trial","128","975743","0.0-8.0","battery-v0.2","","""event"",""trial"",""time""
""fullscreenenter"",""1"",""2343""
","
","
","""event"",""trial"",""time""
""fullscreenenter"",""1"",""2343""
","
","","","705.0999999642372","","","10","11124","3455","&#9730;","elianto","#3366ff99"," "," ","1","+10","[1555.199999988079]","1","1","","","11124","5","1","1","win","go","0"
"pit-trial","129","980628","0.0-9.0","battery-v0.2","","""event"",""trial"",""time""
""fullscreenenter"",""1"",""2343""
","
","
","""event"",""trial"",""time""
""fullscreenenter"",""1"",""2343""
","
","","","-1","","","10","11124","3455","&#9728;","elianto","#f73b6a7A","-1","-1","1","0","[]","0","1","","","11124","6","0","4","lose","no-go","0"
"pit-trial","130","985482","0.0-10.0","battery-v0.2","","""event"",""trial"",""time""
""fullscreenenter"",""1"",""2343""
","
","
","""event"",""trial"",""time""
""fullscreenenter"",""1"",""2343""
","
","","","-1","","","10","11124","3455","&#9752;","elianto","#f73b6a7A"," ","-1","0","-10","[]","0","1","","","11124","7","3","3","lose","go","0"
"pit-trial","131","990335","0.0-11.0","battery-v0.2","","""event"",""trial"",""time""
""fullscreenenter"",""1"",""2343""
","
","
","""event"",""trial"",""time""
""fullscreenenter"",""1"",""2343""
","
","","","-1","","","10","11124","3455","&#9733;","elianto","#3366ff99","-1","-1","1","+10","[]","0","1","","","11124","8","2","2","win","no-go","0"
"pit-trial","132","993926","0.0-12.0","battery-v0.2","","""event"",""trial"",""time""
""fullscreenenter"",""1"",""2343""
","
","
","""event"",""trial"",""time""
""fullscreenenter"",""1"",""2343""
","
","","","734.8999999761581","","","10","11124","3455","&#9730;","elianto","#3366ff99"," "," ","1","0","[1586.8999999761581]","1","1","","","11124","9","1","1","win","go","1"
"pit-trial","133","998779","0.0-13.0","battery-v0.2","","""event"",""trial"",""time""
""fullscreenenter"",""1"",""2343""
","
","
","""event"",""trial"",""time""
""fullscreenenter"",""1"",""2343""
","
","","","-1","","","10","11124","3455","&#9752;","elianto","#f73b6a7A"," ","-1","0","0","[]","0","1","","","11124","10","3","3","lose","go","1"
"pit-trial","134","1002509","0.0-14.0","battery-v0.2","","""event"",""trial"",""time""
""fullscreenenter"",""1"",""2343""
","
","
","""event"",""trial"",""time""
""fullscreenenter"",""1"",""2343""
","
","","","877.3999999761581","","","10","11124","3455","&#9733;","elianto","#3366ff99","-1"," ","0","0","[1727.699999988079]","1","1","","","11124","11","2","2","win","no-go","0"
"pit-trial","135","1007363","0.0-15.0","battery-v0.2","","""event"",""trial"",""time""
""fullscreenenter"",""1"",""2343""
","
","
","""event"",""trial"",""time""
""fullscreenenter"",""1"",""2343""
","
","","","-1","","","10","11124","3455","&#9728;","elianto","#f73b6a7A","-1","-1","1","0","[]","0","1","","","11124","12","0","4","lose","no-go","0"
"pit-trial","136","1012218","0.0-16.0","battery-v0.2","","""event"",""trial"",""time""
""fullscreenenter"",""1"",""2343""
","
","
","""event"",""trial"",""time""
""fullscreenenter"",""1"",""2343""
","
","","","-1","","","10","11124","3455","&#9752;","elianto","#f73b6a7A"," ","-1","0","-10","[]","0","1","","","11124","13","3","3","lose","go","0"
"pit-trial","137","1015745","0.0-17.0","battery-v0.2","","""event"",""trial"",""time""
""fullscreenenter"",""1"",""2343""
","
","
","""event"",""trial"",""time""
""fullscreenenter"",""1"",""2343""
","
","","","673.0999999642372","","","10","11124","3455","&#9733;","elianto","#3366ff99","-1"," ","0","0","[1524.199999988079]","1","1","","","11124","14","2","2","win","no-go","0"
"pit-trial","138","1020599","0.0-18.0","battery-v0.2","","""event"",""trial"",""time""
""fullscreenenter"",""1"",""2343""
","
","
","""event"",""trial"",""time""
""fullscreenenter"",""1"",""2343""
","
","","","-1","","","10","11124","3455","&#9728;","elianto","#f73b6a7A","-1","-1","1","0","[]","0","1","","","11124","15","0","4","lose","no-go","0"
"pit-trial","139","1024021","0.0-19.0","battery-v0.2","","""event"",""trial"",""time""
""fullscreenenter"",""1"",""2343""
","
","
","""event"",""trial"",""time""
""fullscreenenter"",""1"",""2343""
","
","","","566.8999999761581","","","10","11124","3455","&#9730;","elianto","#3366ff99"," "," ","1","0","[1417.8999999761581]","1","1","","","11124","16","1","1","win","go","1"
"pit-trial","140","1027563","0.0-20.0","battery-v0.2","","""event"",""trial"",""time""
""fullscreenenter"",""1"",""2343""
","
","
","""event"",""trial"",""time""
""fullscreenenter"",""1"",""2343""
","
","","","688.0999999642372","","","10","11124","3455","&#9733;","elianto","#3366ff99","-1"," ","0","0","[1538.300000011921]","1","1","","","11124","17","2","2","win","no-go","0"
"pit-trial","141","1032419","0.0-21.0","battery-v0.2","","""event"",""trial"",""time""
""fullscreenenter"",""1"",""2343""
","
","
","""event"",""trial"",""time""
""fullscreenenter"",""1"",""2343""
","
","","","-1","","","10","11124","3455","&#9752;","elianto","#f73b6a7A"," ","-1","0","-10","[]","0","1","","","11124","18","3","3","lose","go","0"
"pit-trial","142","1035992","0.0-22.0","battery-v0.2","","""event"",""trial"",""time""
""fullscreenenter"",""1"",""2343""
","
","
","""event"",""trial"",""time""
""fullscreenenter"",""1"",""2343""
","
","","","717.5999999642372","","","10","11124","3455","&#9730;","elianto","#3366ff99"," "," ","1","+10","[1568.199999988079]","1","1","","","11124","19","1","1","win","go","0"
"pit-trial","143","1040846","0.0-23.0","battery-v0.2","","""event"",""trial"",""time""
""fullscreenenter"",""1"",""2343""
","
","
","""event"",""trial"",""time""
""fullscreenenter"",""1"",""2343""
","
","","","-1","","","10","11124","3455","&#9728;","elianto","#f73b6a7A","-1","-1","1","0","[]","0","1","","","11124","20","0","4","lose","no-go","0"
"pit-instructions","144","1054673","0.0-24.0","battery-v0.2","","""event"",""trial"",""time""
""fullscreenenter"",""1"",""2343""
","
","
","""event"",""trial"",""time""
""fullscreenenter"",""1"",""2343""
","
","","[{""page_index"":0,""viewing_time"":6257.699999988079},{""page_index"":1,""viewing_time"":7565.899999976158}]","13824","","","","","","","","","","","","","","","","","","","","","","","",""
"pit-trial","145","1058805","0.0-25.0","battery-v0.2","","""event"",""trial"",""time""
""fullscreenenter"",""1"",""2343""
","
","
","""event"",""trial"",""time""
""fullscreenenter"",""1"",""2343""
","
","","","1271.6000000238419","","","10","11124","3455","d","elianto","#3366ff99"," "," ","1","0","[2124.900000035763]","1","2","","","11124","21","1","1","win","go","1"
"pit-trial","146","1063677","0.0-26.0","battery-v0.2","","""event"",""trial"",""time""
""fullscreenenter"",""1"",""2343""
","
","
","""event"",""trial"",""time""
""fullscreenenter"",""1"",""2343""
","
","","","-1","","","10","11124","3455","e","elianto","#f73b6a7A","-1","-1","1","0","[]","0","2","","","11124","22","2","4","lose","no-go","0"
"pit-trial","147","1068545","0.0-27.0","battery-v0.2","","""event"",""trial"",""time""
""fullscreenenter"",""1"",""2343""
","
","
","""event"",""trial"",""time""
""fullscreenenter"",""1"",""2343""
","
","","","-1","","","10","11124","3455","j","elianto","#f73b6a7A","-1","-1","1","0","[]","0","2","","","11124","23","0","4","lose","no-go","0"
"pit-trial","148","1073408","0.0-28.0","battery-v0.2","","""event"",""trial"",""time""
""fullscreenenter"",""1"",""2343""
","
","
","""event"",""trial"",""time""
""fullscreenenter"",""1"",""2343""
","
","","","-1","","","10","11124","3455","w","elianto","#f73b6a7A"," ","-1","0","-10","[]","0","2","","","11124","24","3","3","lose","go","0"
"pit-trial","149","1078276","0.0-29.0","battery-v0.2","","""event"",""trial"",""time""
""fullscreenenter"",""1"",""2343""
","
","
","""event"",""trial"",""time""
""fullscreenenter"",""1"",""2343""
","
","","","-1","","","10","11124","3455","j","elianto","#f73b6a7A","-1","-1","1","0","[]","0","2","","","11124","25","0","4","lose","no-go","0"
"pit-trial","150","1081926","0.0-30.0","battery-v0.2","","""event"",""trial"",""time""
""fullscreenenter"",""1"",""2343""
","
","
","""event"",""trial"",""time""
""fullscreenenter"",""1"",""2343""
","
","","","785","","","10","11124","3455","d","elianto","#3366ff99"," "," ","1","+10","[1639.300000011921]","1","2","","","11124","26","1","1","win","go","0"
"pit-trial","151","1086780","0.0-31.0","battery-v0.2","","""event"",""trial"",""time""
""fullscreenenter"",""1"",""2343""
","
","
","""event"",""trial"",""time""
""fullscreenenter"",""1"",""2343""
","
","","","-1","","","10","11124","3455","e","elianto","#f73b6a7A","-1","-1","1","0","[]","0","2","","","11124","27","2","4","lose","no-go","0"
"pit-trial","152","1091634","0.0-32.0","battery-v0.2","","""event"",""trial"",""time""
""fullscreenenter"",""1"",""2343""
","
","
","""event"",""trial"",""time""
""fullscreenenter"",""1"",""2343""
","
","","","-1","","","10","11124","3455","w","elianto","#f73b6a7A"," ","-1","0","-10","[]","0","2","","","11124","28","3","3","lose","go","0"
"pit-trial","153","1096489","0.0-33.0","battery-v0.2","","""event"",""trial"",""time""
""fullscreenenter"",""1"",""2343""
","
","
","""event"",""trial"",""time""
""fullscreenenter"",""1"",""2343""
","
","","","-1","","","10","11124","3455","w","elianto","#f73b6a7A"," ","-1","0","0","[]","0","2","","","11124","29","3","3","lose","go","1"
"pit-trial","154","1100032","0.0-34.0","battery-v0.2","","""event"",""trial"",""time""
""fullscreenenter"",""1"",""2343""
","
","
","""event"",""trial"",""time""
""fullscreenenter"",""1"",""2343""
","
","","","688.6000000238419","","","10","11124","3455","d","elianto","#3366ff99"," "," ","1","0","[1539]","1","2","","","11124","30","1","1","win","go","1"
"pit-trial","155","1104887","0.0-35.0","battery-v0.2","","""event"",""trial"",""time""
""fullscreenenter"",""1"",""2343""
","
","
","""event"",""trial"",""time""
""fullscreenenter"",""1"",""2343""
","
","","","-1","","","10","11124","3455","j","elianto","#f73b6a7A","-1","-1","1","0","[]","0","2","","","11124","31","0","4","lose","no-go","0"
"pit-trial","156","1109741","0.0-36.0","battery-v0.2","","""event"",""trial"",""time""
""fullscreenenter"",""1"",""2343""
","
","
","""event"",""trial"",""time""
""fullscreenenter"",""1"",""2343""
","
","","","-1","","","10","11124","3455","e","elianto","#f73b6a7A","-1","-1","1","0","[]","0","2","","","11124","32","2","4","lose","no-go","0"
"pit-trial","157","1114604","0.0-37.0","battery-v0.2","","""event"",""trial"",""time""
""fullscreenenter"",""1"",""2343""
","
","
","""event"",""trial"",""time""
""fullscreenenter"",""1"",""2343""
","
","","","-1","","","10","11124","3455","j","elianto","#f73b6a7A","-1","-1","1","0","[]","0","2","","","11124","33","0","4","lose","no-go","0"
"pit-trial","158","1119458","0.0-38.0","battery-v0.2","","""event"",""trial"",""time""
""fullscreenenter"",""1"",""2343""
","
","
","""event"",""trial"",""time""
""fullscreenenter"",""1"",""2343""
","
","","","-1","","","10","11124","3455","w","elianto","#f73b6a7A"," ","-1","0","0","[]","0","2","","","11124","34","3","3","lose","go","1"
"pit-trial","159","1122862","0.0-39.0","battery-v0.2","","""event"",""trial"",""time""
""fullscreenenter"",""1"",""2343""
","
","
","""event"",""trial"",""time""
""fullscreenenter"",""1"",""2343""
","
","","","548.8000000119209","","","10","11124","3455","d","elianto","#3366ff99"," "," ","1","0","[1399.3999999761581]","1","2","","","11124","35","1","1","win","go","1"
"pit-trial","160","1127725","0.0-40.0","battery-v0.2","","""event"",""trial"",""time""
""fullscreenenter"",""1"",""2343""
","
","
","""event"",""trial"",""time""
""fullscreenenter"",""1"",""2343""
","
","","","-1","","","10","11124","3455","e","elianto","#f73b6a7A","-1","-1","1","0","[]","0","2","","","11124","36","2","4","lose","no-go","0"
"pit-trial","161","1132580","0.0-41.0","battery-v0.2","","""event"",""trial"",""time""
""fullscreenenter"",""1"",""2343""
","
","
","""event"",""trial"",""time""
""fullscreenenter"",""1"",""2343""
","
","","","-1","","","10","11124","3455","e","elianto","#f73b6a7A","-1","-1","1","0","[]","0","2","","","11124","37","2","4","lose","no-go","0"
"pit-trial","162","1136380","0.0-42.0","battery-v0.2","","""event"",""trial"",""time""
""fullscreenenter"",""1"",""2343""
","
","
","""event"",""trial"",""time""
""fullscreenenter"",""1"",""2343""
","
","","","946.8000000119209","","","10","11124","3455","d","elianto","#3366ff99"," "," ","1","+10","[1797.2000000476837]","1","2","","","11124","38","1","1","win","go","0"
"pit-trial","163","1141235","0.0-43.0","battery-v0.2","","""event"",""trial"",""time""
""fullscreenenter"",""1"",""2343""
","
","
","""event"",""trial"",""time""
""fullscreenenter"",""1"",""2343""
","
","","","-1","","","10","11124","3455","w","elianto","#f73b6a7A"," ","-1","0","-10","[]","0","2","","","11124","39","3","3","lose","go","0"
"pit-trial","164","1146088","0.0-44.0","battery-v0.2","","""event"",""trial"",""time""
""fullscreenenter"",""1"",""2343""
","
","
","""event"",""trial"",""time""
""fullscreenenter"",""1"",""2343""
","
","","","-1","","","10","11124","3455","j","elianto","#f73b6a7A","-1","-1","1","-10","[]","0","2","","","11124","40","0","4","lose","no-go","1"
"pit-trial","165","1149528","0.0-45.0","battery-v0.2","","""event"",""trial"",""time""
""fullscreenenter"",""1"",""2343""
","
","
","""event"",""trial"",""time""
""fullscreenenter"",""1"",""2343""
","
","","","584.9000000357628","","","10","11124","3455","d","elianto","#3366ff99"," "," ","1","+10","[1435.300000011921]","1","2","","","11124","41","1","1","win","go","0"
"pit-trial","166","1154382","0.0-46.0","battery-v0.2","","""event"",""trial"",""time""
""fullscreenenter"",""1"",""2343""
","
","
","""event"",""trial"",""time""
""fullscreenenter"",""1"",""2343""
","
","","","-1","","","10","11124","3455","e","elianto","#f73b6a7A","-1","-1","1","0","[]","0","2","","","11124","42","2","4","lose","no-go","0"
"pit-trial","167","1159237","0.0-47.0","battery-v0.2","","""event"",""trial"",""time""
""fullscreenenter"",""1"",""2343""
","
","
","""event"",""trial"",""time""
""fullscreenenter"",""1"",""2343""
","
","","","-1","","","10","11124","3455","j","elianto","#f73b6a7A","-1","-1","1","-10","[]","0","2","","","11124","43","0","4","lose","no-go","1"
"pit-trial","168","1164092","0.0-48.0","battery-v0.2","","""event"",""trial"",""time""
""fullscreenenter"",""1"",""2343""
","
","
","""event"",""trial"",""time""
""fullscreenenter"",""1"",""2343""
","
","","","-1","","","10","11124","3455","w","elianto","#f73b6a7A"," ","-1","0","0","[]","0","2","","","11124","44","3","3","lose","go","1"
"pit-trial","169","1168946","0.0-49.0","battery-v0.2","","""event"",""trial"",""time""
""fullscreenenter"",""1"",""2343""
","
","
","""event"",""trial"",""time""
""fullscreenenter"",""1"",""2343""
","
","","","-1","","","10","11124","3455","w","elianto","#f73b6a7A"," ","-1","0","-10","[]","0","2","","","11124","45","3","3","lose","go","0"
"pit-trial","170","1173801","0.0-50.0","battery-v0.2","","""event"",""trial"",""time""
""fullscreenenter"",""1"",""2343""
","
","
","""event"",""trial"",""time""
""fullscreenenter"",""1"",""2343""
","
","","","-1","","","10","11124","3455","e","elianto","#f73b6a7A","-1","-1","1","-10","[]","0","2","","","11124","46","2","4","lose","no-go","1"
"pit-trial","171","1178655","0.0-51.0","battery-v0.2","","""event"",""trial"",""time""
""fullscreenenter"",""1"",""2343""
","
","
","""event"",""trial"",""time""
""fullscreenenter"",""1"",""2343""
","
","","","-1","","","10","11124","3455","j","elianto","#f73b6a7A","-1","-1","1","0","[]","0","2","","","11124","47","0","4","lose","no-go","0"
"pit-trial","172","1182102","0.0-52.0","battery-v0.2","","""event"",""trial"",""time""
""fullscreenenter"",""1"",""2343""
","
","
","""event"",""trial"",""time""
""fullscreenenter"",""1"",""2343""
","
","","","592.4000000357628","","","10","11124","3455","s","elianto","#3366ff99","-1"," ","0","0","[1442.9000000357628]","1","2","","","11124","48","4","2","win","no-go","0"
"pit-trial","173","1186957","0.0-53.0","battery-v0.2","","""event"",""trial"",""time""
""fullscreenenter"",""1"",""2343""
","
","
","""event"",""trial"",""time""
""fullscreenenter"",""1"",""2343""
","
","","","-1","","","10","11124","3455","w","elianto","#f73b6a7A"," ","-1","0","-10","[]","0","2","","","11124","49","3","3","lose","go","0"
"pit-trial","174","1190390","0.0-54.0","battery-v0.2","","""event"",""trial"",""time""
""fullscreenenter"",""1"",""2343""
","
","
","""event"",""trial"",""time""
""fullscreenenter"",""1"",""2343""
","
","","","578.6000000238419","","","10","11124","3455","s","elianto","#3366ff99","-1"," ","0","+10","[1429.1000000238419]","1","2","","","11124","50","4","2","win","no-go","1"
"pit-trial","175","1193897","0.0-55.0","battery-v0.2","","""event"",""trial"",""time""
""fullscreenenter"",""1"",""2343""
","
","
","""event"",""trial"",""time""
""fullscreenenter"",""1"",""2343""
","
","","","650.8999999761581","","","10","11124","3455","d","elianto","#3366ff99"," "," ","1","+10","[1501.800000011921]","1","2","","","11124","51","1","1","win","go","0"
"pit-trial","176","1198751","0.0-56.0","battery-v0.2","","""event"",""trial"",""time""
""fullscreenenter"",""1"",""2343""
","
","
","""event"",""trial"",""time""
""fullscreenenter"",""1"",""2343""
","
","","","-1","","","10","11124","3455","j","elianto","#f73b6a7A","-1","-1","1","0","[]","0","2","","","11124","52","0","4","lose","no-go","0"
"pit-trial","177","1203617","0.0-57.0","battery-v0.2","","""event"",""trial"",""time""
""fullscreenenter"",""1"",""2343""
","
","
","""event"",""trial"",""time""
""fullscreenenter"",""1"",""2343""
","
","","","-1","","","10","11124","3455","j","elianto","#f73b6a7A","-1","-1","1","0","[]","0","2","","","11124","53","0","4","lose","no-go","0"
"pit-trial","178","1208471","0.0-58.0","battery-v0.2","","""event"",""trial"",""time""
""fullscreenenter"",""1"",""2343""
","
","
","""event"",""trial"",""time""
""fullscreenenter"",""1"",""2343""
","
","","","-1","","","10","11124","3455","e","elianto","#f73b6a7A","-1","-1","1","0","[]","0","2","","","11124","54","2","4","lose","no-go","0"
"pit-trial","179","1212070","0.0-59.0","battery-v0.2","","""event"",""trial"",""time""
""fullscreenenter"",""1"",""2343""
","
","
","""event"",""trial"",""time""
""fullscreenenter"",""1"",""2343""
","
","","","743.8000000119209","","","10","11124","3455","s","elianto","#3366ff99","-1"," ","0","0","[1594.699999988079]","1","2","","","11124","55","4","2","win","no-go","0"
"pit-trial","180","1215530","0.0-60.0","battery-v0.2","","""event"",""trial"",""time""
""fullscreenenter"",""1"",""2343""
","
","
","""event"",""trial"",""time""
""fullscreenenter"",""1"",""2343""
","
","","","604.1999999880791","","","10","11124","3455","d","elianto","#3366ff99"," "," ","1","+10","[1455.8999999761581]","1","2","","","11124","56","1","1","win","go","0"
"pit-trial","181","1220384","0.0-61.0","battery-v0.2","","""event"",""trial"",""time""
""fullscreenenter"",""1"",""2343""
","
","
","""event"",""trial"",""time""
""fullscreenenter"",""1"",""2343""
","
","","","-1","","","10","11124","3455","j","elianto","#f73b6a7A","-1","-1","1","0","[]","0","2","","","11124","57","0","4","lose","no-go","0"
"pit-trial","182","1223848","0.0-62.0","battery-v0.2","","""event"",""trial"",""time""
""fullscreenenter"",""1"",""2343""
","
","
","""event"",""trial"",""time""
""fullscreenenter"",""1"",""2343""
","
","","","610.8000000119209","","","10","11124","3455","d","elianto","#3366ff99"," "," ","1","+10","[1461.2000000476837]","1","2","","","11124","58","1","1","win","go","0"
"pit-trial","183","1228703","0.0-63.0","battery-v0.2","","""event"",""trial"",""time""
""fullscreenenter"",""1"",""2343""
","
","
","""event"",""trial"",""time""
""fullscreenenter"",""1"",""2343""
","
","","","-1","","","10","11124","3455","w","elianto","#f73b6a7A"," ","-1","0","-10","[]","0","2","","","11124","59","3","3","lose","go","0"
"pit-trial","184","1232393","0.0-64.0","battery-v0.2","","""event"",""trial"",""time""
""fullscreenenter"",""1"",""2343""
","
","
","""event"",""trial"",""time""
""fullscreenenter"",""1"",""2343""
","
","","","835.8000000119209","","","10","11124","3455","s","elianto","#3366ff99","-1"," ","0","+10","[1686.6000000238419]","1","2","","","11124","60","4","2","win","no-go","1"
"pit-trial","185","1235860","0.0-65.0","battery-v0.2","","""event"",""trial"",""time""
""fullscreenenter"",""1"",""2343""
","
","
","""event"",""trial"",""time""
""fullscreenenter"",""1"",""2343""
","
","","","611.1999999880791","","","10","11124","3455","s","elianto","#3366ff99","-1"," ","0","0","[1462.5]","1","2","","","11124","61","4","2","win","no-go","0"
"pit-trial","186","1240715","0.0-66.0","battery-v0.2","","""event"",""trial"",""time""
""fullscreenenter"",""1"",""2343""
","
","
","""event"",""trial"",""time""
""fullscreenenter"",""1"",""2343""
","
","","","-1","","","10","11124","3455","w","elianto","#f73b6a7A"," ","-1","0","-10","[]","0","2","","","11124","62","3","3","lose","go","0"
"pit-trial","187","1245362","0.0-67.0","battery-v0.2","","""event"",""trial"",""time""
""fullscreenenter"",""1"",""2343""
","
","
","""event"",""trial"",""time""
""fullscreenenter"",""1"",""2343""
","
","","","1793.699999988079","","","10","11124","3455","d","elianto","#3366ff99"," "," ","1","+10","[2643.7999999523163]","1","2","","","11124","63","1","1","win","go","0"
"pit-trial","188","1250217","0.0-68.0","battery-v0.2","","""event"",""trial"",""time""
""fullscreenenter"",""1"",""2343""
","
","
","""event"",""trial"",""time""
""fullscreenenter"",""1"",""2343""
","
","","","-1","","","10","11124","3455","e","elianto","#f73b6a7A","-1","-1","1","0","[]","0","2","","","11124","64","2","4","lose","no-go","0"
"pit-trial","189","1255072","0.0-69.0","battery-v0.2","","""event"",""trial"",""time""
""fullscreenenter"",""1"",""2343""
","
","
","""event"",""trial"",""time""
""fullscreenenter"",""1"",""2343""
","
","","","-1","","","10","11124","3455","w","elianto","#f73b6a7A"," ","-1","0","-10","[]","0","2","","","11124","65","3","3","lose","go","0"
"pit-trial","190","1259926","0.0-70.0","battery-v0.2","","""event"",""trial"",""time""
""fullscreenenter"",""1"",""2343""
","
","
","""event"",""trial"",""time""
""fullscreenenter"",""1"",""2343""
","
","","","-1","","","10","11124","3455","e","elianto","#f73b6a7A","-1","-1","1","0","[]","0","2","","","11124","66","2","4","lose","no-go","0"
"pit-trial","191","1263346","0.0-71.0","battery-v0.2","","""event"",""trial"",""time""
""fullscreenenter"",""1"",""2343""
","
","
","""event"",""trial"",""time""
""fullscreenenter"",""1"",""2343""
","
","","","566.1999999880791","","","10","11124","3455","d","elianto","#3366ff99"," "," ","1","0","[1416.199999988079]","1","2","","","11124","67","1","1","win","go","1"
"pit-trial","192","1266758","0.0-72.0","battery-v0.2","","""event"",""trial"",""time""
""fullscreenenter"",""1"",""2343""
","
","
","""event"",""trial"",""time""
""fullscreenenter"",""1"",""2343""
","
","","","557.8999999761581","","","10","11124","3455","s","elianto","#3366ff99","-1"," ","0","0","[1408.300000011921]","1","2","","","11124","68","4","2","win","no-go","0"
"pit-trial","193","1270424","0.0-73.0","battery-v0.2","","""event"",""trial"",""time""
""fullscreenenter"",""1"",""2343""
","
","
","""event"",""trial"",""time""
""fullscreenenter"",""1"",""2343""
","
","","","811","","","10","11124","3455","s","elianto","#3366ff99","-1"," ","0","+10","[1661.300000011921]","1","2","","","11124","69","4","2","win","no-go","1"
"pit-trial","194","1274092","0.0-74.0","battery-v0.2","","""event"",""trial"",""time""
""fullscreenenter"",""1"",""2343""
","
","
","""event"",""trial"",""time""
""fullscreenenter"",""1"",""2343""
","
","","","813.9000000357628","","","10","11124","3455","p","elianto","#3366ff99"," "," ","1","0","[1664.699999988079]","1","2","","","11124","70","5","1","win","go","1"
"pit-trial","195","1277729","0.0-75.0","battery-v0.2","","""event"",""trial"",""time""
""fullscreenenter"",""1"",""2343""
","
","
","""event"",""trial"",""time""
""fullscreenenter"",""1"",""2343""
","
","","","782","","","10","11124","3455","d","elianto","#3366ff99"," "," ","1","+10","[1632.199999988079]","1","2","","","11124","71","1","1","win","go","0"
"pit-trial","196","1282584","0.0-76.0","battery-v0.2","","""event"",""trial"",""time""
""fullscreenenter"",""1"",""2343""
","
","
","""event"",""trial"",""time""
""fullscreenenter"",""1"",""2343""
","
","","","-1","","","10","11124","3455","w","elianto","#f73b6a7A"," ","-1","0","-10","[]","0","2","","","11124","72","3","3","lose","go","0"
"pit-trial","197","1286675","0.0-77.0","battery-v0.2","","""event"",""trial"",""time""
""fullscreenenter"",""1"",""2343""
","
","
","""event"",""trial"",""time""
""fullscreenenter"",""1"",""2343""
","
","","","1236.3999999761581","","","10","11124","3455","s","elianto","#3366ff99","-1"," ","0","0","[2086.7999999523163]","1","2","","","11124","73","4","2","win","no-go","0"
"pit-trial","198","1290215","0.0-78.0","battery-v0.2","","""event"",""trial"",""time""
""fullscreenenter"",""1"",""2343""
","
","
","""event"",""trial"",""time""
""fullscreenenter"",""1"",""2343""
","
","","","685.5","","","10","11124","3455","d","elianto","#3366ff99"," "," ","1","+10","[1536.5]","1","2","","","11124","74","1","1","win","go","0"
"pit-trial","199","1293708","0.0-79.0","battery-v0.2","","""event"",""trial"",""time""
""fullscreenenter"",""1"",""2343""
","
","
","""event"",""trial"",""time""
""fullscreenenter"",""1"",""2343""
","
","","","636.6000000238419","","","10","11124","3455","p","elianto","#3366ff99"," "," ","1","+10","[1487]","1","2","","","11124","75","5","1","win","go","0"
"pit-trial","200","1298564","0.0-80.0","battery-v0.2","","""event"",""trial"",""time""
""fullscreenenter"",""1"",""2343""
","
","
","""event"",""trial"",""time""
""fullscreenenter"",""1"",""2343""
","
","","","-1","","","10","11124","3455","w","elianto","#f73b6a7A"," ","-1","0","-10","[]","0","2","","","11124","76","3","3","lose","go","0"
"pit-trial","201","1302012","0.0-81.0","battery-v0.2","","""event"",""trial"",""time""
""fullscreenenter"",""1"",""2343""
","
","
","""event"",""trial"",""time""
""fullscreenenter"",""1"",""2343""
","
","","","593.6000000238419","","","10","11124","3455","p","elianto","#3366ff99"," "," ","1","+10","[1445.1000000238419]","1","2","","","11124","77","5","1","win","go","0"
"pit-trial","202","1306867","0.0-82.0","battery-v0.2","","""event"",""trial"",""time""
""fullscreenenter"",""1"",""2343""
","
","
","""event"",""trial"",""time""
""fullscreenenter"",""1"",""2343""
","
","","","-1","","","10","11124","3455","g","elianto","#f73b6a7A","-1","-1","1","0","[]","0","2","","","11124","78","6","4","lose","no-go","0"
"pit-trial","203","1311721","0.0-83.0","battery-v0.2","","""event"",""trial"",""time""
""fullscreenenter"",""1"",""2343""
","
","
","""event"",""trial"",""time""
""fullscreenenter"",""1"",""2343""
","
","","","-1","","","10","11124","3455","w","elianto","#f73b6a7A"," ","-1","0","0","[]","0","2","","","11124","79","3","3","lose","go","1"
"pit-trial","204","1315312","0.0-84.0","battery-v0.2","","""event"",""trial"",""time""
""fullscreenenter"",""1"",""2343""
","
","
","""event"",""trial"",""time""
""fullscreenenter"",""1"",""2343""
","
","","","736.5","","","10","11124","3455","s","elianto","#3366ff99","-1"," ","0","0","[1587.8999999761581]","1","2","","","11124","80","4","2","win","no-go","0"
"pit-trial","205","1319065","0.0-85.0","battery-v0.2","","""event"",""trial"",""time""
""fullscreenenter"",""1"",""2343""
","
","
","""event"",""trial"",""time""
""fullscreenenter"",""1"",""2343""
","
","","","899.3999999761581","","","10","11124","3455","p","elianto","#3366ff99"," "," ","1","+10","[1749.699999988079]","1","2","","","11124","81","5","1","win","go","0"
"pit-trial","206","1322586","0.0-86.0","battery-v0.2","","""event"",""trial"",""time""
""fullscreenenter"",""1"",""2343""
","
","
","""event"",""trial"",""time""
""fullscreenenter"",""1"",""2343""
","
","","","666.5","","","10","11124","3455","s","elianto","#3366ff99","-1"," ","0","0","[1517]","1","2","","","11124","82","4","2","win","no-go","0"
"pit-trial","207","1327442","0.0-87.0","battery-v0.2","","""event"",""trial"",""time""
""fullscreenenter"",""1"",""2343""
","
","
","""event"",""trial"",""time""
""fullscreenenter"",""1"",""2343""
","
","","","-1","","","10","11124","3455","g","elianto","#f73b6a7A","-1","-1","1","0","[]","0","2","","","11124","83","6","4","lose","no-go","0"
"pit-trial","208","1332296","0.0-88.0","battery-v0.2","","""event"",""trial"",""time""
""fullscreenenter"",""1"",""2343""
","
","
","""event"",""trial"",""time""
""fullscreenenter"",""1"",""2343""
","
","","","-1","","","10","11124","3455","a","elianto","#f73b6a7A"," ","-1","0","-10","[]","0","2","","","11124","84","7","3","lose","go","0"
"pit-trial","209","1337151","0.0-89.0","battery-v0.2","","""event"",""trial"",""time""
""fullscreenenter"",""1"",""2343""
","
","
","""event"",""trial"",""time""
""fullscreenenter"",""1"",""2343""
","
","","","-1","","","10","11124","3455","g","elianto","#f73b6a7A","-1","-1","1","-10","[]","0","2","","","11124","85","6","4","lose","no-go","1"
"pit-trial","210","1340632","0.0-90.0","battery-v0.2","","""event"",""trial"",""time""
""fullscreenenter"",""1"",""2343""
","
","
","""event"",""trial"",""time""
""fullscreenenter"",""1"",""2343""
","
","","","626.1999999880791","","","10","11124","3455","s","elianto","#3366ff99","-1"," ","0","0","[1476.2999999523163]","1","2","","","11124","86","4","2","win","no-go","0"
"pit-trial","211","1345486","0.0-91.0","battery-v0.2","","""event"",""trial"",""time""
""fullscreenenter"",""1"",""2343""
","
","
","""event"",""trial"",""time""
""fullscreenenter"",""1"",""2343""
","
","","","-1","","","10","11124","3455","a","elianto","#f73b6a7A"," ","-1","0","0","[]","0","2","","","11124","87","7","3","lose","go","1"
"pit-trial","212","1349015","0.0-92.0","battery-v0.2","","""event"",""trial"",""time""
""fullscreenenter"",""1"",""2343""
","
","
","""event"",""trial"",""time""
""fullscreenenter"",""1"",""2343""
","
","","","675.1000000238419","","","10","11124","3455","p","elianto","#3366ff99"," "," ","1","+10","[1526]","1","2","","","11124","88","5","1","win","go","0"
"pit-trial","213","1353883","0.0-93.0","battery-v0.2","","""event"",""trial"",""time""
""fullscreenenter"",""1"",""2343""
","
","
","""event"",""trial"",""time""
""fullscreenenter"",""1"",""2343""
","
","","","-1","","","10","11124","3455","a","elianto","#f73b6a7A"," ","-1","0","0","[]","0","2","","","11124","89","7","3","lose","go","1"
"pit-trial","214","1357417","0.0-94.0","battery-v0.2","","""event"",""trial"",""time""
""fullscreenenter"",""1"",""2343""
","
","
","""event"",""trial"",""time""
""fullscreenenter"",""1"",""2343""
","
","","","675.6000000238419","","","10","11124","3455","s","elianto","#3366ff99","-1"," ","0","+10","[1530.8999999761581]","1","2","","","11124","90","4","2","win","no-go","1"
"pit-trial","215","1360831","0.0-95.0","battery-v0.2","","""event"",""trial"",""time""
""fullscreenenter"",""1"",""2343""
","
","
","""event"",""trial"",""time""
""fullscreenenter"",""1"",""2343""
","
","","","559.3000000119209","","","10","11124","3455","p","elianto","#3366ff99"," "," ","1","+10","[1410.0999999642372]","1","2","","","11124","91","5","1","win","go","0"
"pit-trial","216","1365685","0.0-96.0","battery-v0.2","","""event"",""trial"",""time""
""fullscreenenter"",""1"",""2343""
","
","
","""event"",""trial"",""time""
""fullscreenenter"",""1"",""2343""
","
","","","-1","","","10","11124","3455","g","elianto","#f73b6a7A","-1","-1","1","-10","[]","0","2","","","11124","92","6","4","lose","no-go","1"
"pit-trial","217","1369119","0.0-97.0","battery-v0.2","","""event"",""trial"",""time""
""fullscreenenter"",""1"",""2343""
","
","
","""event"",""trial"",""time""
""fullscreenenter"",""1"",""2343""
","
","","","580.3000000119209","","","10","11124","3455","l","elianto","#3366ff99","-1"," ","0","+10","[1430.8999999761581]","1","2","","","11124","93","8","2","win","no-go","1"
"pit-trial","218","1373973","0.0-98.0","battery-v0.2","","""event"",""trial"",""time""
""fullscreenenter"",""1"",""2343""
","
","
","""event"",""trial"",""time""
""fullscreenenter"",""1"",""2343""
","
","","","-1","","","10","11124","3455","a","elianto","#f73b6a7A"," ","-1","0","0","[]","0","2","","","11124","94","7","3","lose","go","1"
"pit-trial","219","1377644","0.0-99.0","battery-v0.2","","""event"",""trial"",""time""
""fullscreenenter"",""1"",""2343""
","
","
","""event"",""trial"",""time""
""fullscreenenter"",""1"",""2343""
","
","","","816.8000000119209","","","10","11124","3455","p","elianto","#3366ff99"," "," ","1","0","[1667.199999988079]","1","2","","","11124","95","5","1","win","go","1"
"pit-trial","220","1382500","0.0-100.0","battery-v0.2","","""event"",""trial"",""time""
""fullscreenenter"",""1"",""2343""
","
","
","""event"",""trial"",""time""
""fullscreenenter"",""1"",""2343""
","
","","","-1","","","10","11124","3455","g","elianto","#f73b6a7A","-1","-1","1","0","[]","0","2","","","11124","96","6","4","lose","no-go","0"
"pit-trial","221","1387352","0.0-101.0","battery-v0.2","","""event"",""trial"",""time""
""fullscreenenter"",""1"",""2343""
","
","
","""event"",""trial"",""time""
""fullscreenenter"",""1"",""2343""
","
","","","-1","","","10","11124","3455","g","elianto","#f73b6a7A","-1","-1","1","-10","[]","0","2","","","11124","97","6","4","lose","no-go","1"
"pit-trial","222","1392206","0.0-102.0","battery-v0.2","","""event"",""trial"",""time""
""fullscreenenter"",""1"",""2343""
","
","
","""event"",""trial"",""time""
""fullscreenenter"",""1"",""2343""
","
","","","-1","","","10","11124","3455","a","elianto","#f73b6a7A"," ","-1","0","-10","[]","0","2","","","11124","98","7","3","lose","go","0"
"pit-trial","223","1395636","0.0-103.0","battery-v0.2","","""event"",""trial"",""time""
""fullscreenenter"",""1"",""2343""
","
","
","""event"",""trial"",""time""
""fullscreenenter"",""1"",""2343""
","
","","","575.2999999523163","","","10","11124","3455","p","elianto","#3366ff99"," "," ","1","+10","[1426]","1","2","","","11124","99","5","1","win","go","0"
"pit-trial","224","1399075","0.0-104.0","battery-v0.2","","""event"",""trial"",""time""
""fullscreenenter"",""1"",""2343""
","
","
","""event"",""trial"",""time""
""fullscreenenter"",""1"",""2343""
","
","","","585.2999999523163","","","10","11124","3455","l","elianto","#3366ff99","-1"," ","0","0","[1435.5]","1","2","","","11124","100","8","2","win","no-go","0"
"pit-trial","225","1402571","0.0-105.0","battery-v0.2","","""event"",""trial"",""time""
""fullscreenenter"",""1"",""2343""
","
","
","""event"",""trial"",""time""
""fullscreenenter"",""1"",""2343""
","
","","","640.6999999880791","","","10","11124","3455","p","elianto","#3366ff99"," "," ","1","+10","[1491.699999988079]","1","2","","","11124","101","5","1","win","go","0"
"pit-trial","226","1406116","0.0-106.0","battery-v0.2","","""event"",""trial"",""time""
""fullscreenenter"",""1"",""2343""
","
","
","""event"",""trial"",""time""
""fullscreenenter"",""1"",""2343""
","
","","","690.6000000238419","","","10","11124","3455","u","elianto","#3366ff99","-1"," ","0","0","[1540.699999988079]","1","2","","","11124","102","9","2","win","no-go","0"
"pit-trial","227","1410971","0.0-107.0","battery-v0.2","","""event"",""trial"",""time""
""fullscreenenter"",""1"",""2343""
","
","
","""event"",""trial"",""time""
""fullscreenenter"",""1"",""2343""
","
","","","-1","","","10","11124","3455","g","elianto","#f73b6a7A","-1","-1","1","0","[]","0","2","","","11124","103","6","4","lose","no-go","0"
"pit-trial","228","1414670","0.0-108.0","battery-v0.2","","""event"",""trial"",""time""
""fullscreenenter"",""1"",""2343""
","
","
","""event"",""trial"",""time""
""fullscreenenter"",""1"",""2343""
","
","","","844.4000000357628","","","10","11124","3455","l","elianto","#3366ff99","-1"," ","0","0","[1695.0999999642372]","1","2","","","11124","104","8","2","win","no-go","0"
"pit-trial","229","1418142","0.0-109.0","battery-v0.2","","""event"",""trial"",""time""
""fullscreenenter"",""1"",""2343""
","
","
","""event"",""trial"",""time""
""fullscreenenter"",""1"",""2343""
","
","","","617.1000000238419","","","10","11124","3455","u","elianto","#3366ff99","-1"," ","0","0","[1468]","1","2","","","11124","105","9","2","win","no-go","0"
"pit-trial","230","1421731","0.0-110.0","battery-v0.2","","""event"",""trial"",""time""
""fullscreenenter"",""1"",""2343""
","
","
","""event"",""trial"",""time""
""fullscreenenter"",""1"",""2343""
","
","","","734.8000000119209","","","10","11124","3455","l","elianto","#3366ff99","-1"," ","0","0","[1585.5999999642372]","1","2","","","11124","106","8","2","win","no-go","0"
"pit-trial","231","1426586","0.0-111.0","battery-v0.2","","""event"",""trial"",""time""
""fullscreenenter"",""1"",""2343""
","
","
","""event"",""trial"",""time""
""fullscreenenter"",""1"",""2343""
","
","","","-1","","","10","11124","3455","g","elianto","#f73b6a7A","-1","-1","1","0","[]","0","2","","","11124","107","6","4","lose","no-go","0"
"pit-trial","232","1431441","0.0-112.0","battery-v0.2","","""event"",""trial"",""time""
""fullscreenenter"",""1"",""2343""
","
","
","""event"",""trial"",""time""
""fullscreenenter"",""1"",""2343""
","
","","","-1","","","10","11124","3455","p","elianto","#3366ff99"," ","-1","0","0","[]","0","2","","","11124","108","5","1","win","go","0"
"pit-trial","233","1434882","0.0-113.0","battery-v0.2","","""event"",""trial"",""time""
""fullscreenenter"",""1"",""2343""
","
","
","""event"",""trial"",""time""
""fullscreenenter"",""1"",""2343""
","
","","","586.6999999880791","","","10","11124","3455","u","elianto","#3366ff99","-1"," ","0","0","[1437]","1","2","","","11124","109","9","2","win","no-go","0"
"pit-trial","234","1438287","0.0-114.0","battery-v0.2","","""event"",""trial"",""time""
""fullscreenenter"",""1"",""2343""
","
","
","""event"",""trial"",""time""
""fullscreenenter"",""1"",""2343""
","
","","","551.7000000476837","","","10","11124","3455","p","elianto","#3366ff99"," "," ","1","+10","[1402.300000011921]","1","2","","","11124","110","5","1","win","go","0"
"pit-trial","235","1443141","0.0-115.0","battery-v0.2","","""event"",""trial"",""time""
""fullscreenenter"",""1"",""2343""
","
","
","""event"",""trial"",""time""
""fullscreenenter"",""1"",""2343""
","
","","","-1","","","10","11124","3455","g","elianto","#f73b6a7A","-1","-1","1","0","[]","0","2","","","11124","111","6","4","lose","no-go","0"
"pit-trial","236","1446553","0.0-116.0","battery-v0.2","","""event"",""trial"",""time""
""fullscreenenter"",""1"",""2343""
","
","
","""event"",""trial"",""time""
""fullscreenenter"",""1"",""2343""
","
","","","556.3999999761581","","","10","11124","3455","l","elianto","#3366ff99","-1"," ","0","0","[1406.800000011921]","1","2","","","11124","112","8","2","win","no-go","0"
"pit-trial","237","1451410","0.0-117.0","battery-v0.2","","""event"",""trial"",""time""
""fullscreenenter"",""1"",""2343""
","
","
","""event"",""trial"",""time""
""fullscreenenter"",""1"",""2343""
","
","","","-1","","","10","11124","3455","a","elianto","#f73b6a7A"," ","-1","0","-10","[]","0","2","","","11124","113","7","3","lose","go","0"
"pit-trial","238","1454935","0.0-118.0","battery-v0.2","","""event"",""trial"",""time""
""fullscreenenter"",""1"",""2343""
","
","
","""event"",""trial"",""time""
""fullscreenenter"",""1"",""2343""
","
","","","668.5","","","10","11124","3455","u","elianto","#3366ff99","-1"," ","0","0","[1520.5]","1","2","","","11124","114","9","2","win","no-go","0"
"pit-trial","239","1458497","0.0-119.0","battery-v0.2","","""event"",""trial"",""time""
""fullscreenenter"",""1"",""2343""
","
","
","""event"",""trial"",""time""
""fullscreenenter"",""1"",""2343""
","
","","","707.1999999880791","","","10","11124","3455","p","elianto","#3366ff99"," "," ","1","+10","[1557.3999999761581]","1","2","","","11124","115","5","1","win","go","0"
"pit-trial","240","1461912","0.0-120.0","battery-v0.2","","""event"",""trial"",""time""
""fullscreenenter"",""1"",""2343""
","
","
","""event"",""trial"",""time""
""fullscreenenter"",""1"",""2343""
","
","","","560","","","10","11124","3455","l","elianto","#3366ff99","-1"," ","0","0","[1410.300000011921]","1","2","","","11124","116","8","2","win","no-go","0"
"pit-trial","241","1466767","0.0-121.0","battery-v0.2","","""event"",""trial"",""time""
""fullscreenenter"",""1"",""2343""
","
","
","""event"",""trial"",""time""
""fullscreenenter"",""1"",""2343""
","
","","","-1","","","10","11124","3455","g","elianto","#f73b6a7A","-1","-1","1","0","[]","0","2","","","11124","117","6","4","lose","no-go","0"
"pit-trial","242","1470161","0.0-122.0","battery-v0.2","","""event"",""trial"",""time""
""fullscreenenter"",""1"",""2343""
","
","
","""event"",""trial"",""time""
""fullscreenenter"",""1"",""2343""
","
","","","538.6000000238419","","","10","11124","3455","p","elianto","#3366ff99"," "," ","1","+10","[1389.199999988079]","1","2","","","11124","118","5","1","win","go","0"
"pit-trial","243","1473626","0.0-123.0","battery-v0.2","","""event"",""trial"",""time""
""fullscreenenter"",""1"",""2343""
","
","
","""event"",""trial"",""time""
""fullscreenenter"",""1"",""2343""
","
","","","610.1999999880791","","","10","11124","3455","l","elianto","#3366ff99","-1"," ","0","0","[1460.699999988079]","1","2","","","11124","119","8","2","win","no-go","0"
"pit-trial","244","1477033","0.0-124.0","battery-v0.2","","""event"",""trial"",""time""
""fullscreenenter"",""1"",""2343""
","
","
","""event"",""trial"",""time""
""fullscreenenter"",""1"",""2343""
","
","","","552.6999999880791","","","10","11124","3455","u","elianto","#3366ff99","-1"," ","0","0","[1403.5]","1","2","","","11124","120","9","2","win","no-go","0"
"pit-trial","245","1480458","0.0-125.0","battery-v0.2","","""event"",""trial"",""time""
""fullscreenenter"",""1"",""2343""
","
","
","""event"",""trial"",""time""
""fullscreenenter"",""1"",""2343""
","
","","","569.4000000357628","","","10","11124","3455","l","elianto","#3366ff99","-1"," ","0","0","[1419.6000000238419]","1","2","","","11124","121","8","2","win","no-go","0"
"pit-trial","246","1483844","0.0-126.0","battery-v0.2","","""event"",""trial"",""time""
""fullscreenenter"",""1"",""2343""
","
","
","""event"",""trial"",""time""
""fullscreenenter"",""1"",""2343""
","
","","","533.8999999761581","","","10","11124","3455","u","elianto","#3366ff99","-1"," ","0","0","[1384.199999988079]","1","2","","","11124","122","9","2","win","no-go","0"
"pit-trial","247","1487243","0.0-127.0","battery-v0.2","","""event"",""trial"",""time""
""fullscreenenter"",""1"",""2343""
","
","
","""event"",""trial"",""time""
""fullscreenenter"",""1"",""2343""
","
","","","544.4000000357628","","","10","11124","3455","p","elianto","#3366ff99"," "," ","1","+10","[1394.5]","1","2","","","11124","123","5","1","win","go","0"
"pit-trial","248","1492098","0.0-128.0","battery-v0.2","","""event"",""trial"",""time""
""fullscreenenter"",""1"",""2343""
","
","
","""event"",""trial"",""time""
""fullscreenenter"",""1"",""2343""
","
","","","-1","","","10","11124","3455","a","elianto","#f73b6a7A"," ","-1","0","-10","[]","0","2","","","11124","124","7","3","lose","go","0"
"pit-trial","249","1496953","0.0-129.0","battery-v0.2","","""event"",""trial"",""time""
""fullscreenenter"",""1"",""2343""
","
","
","""event"",""trial"",""time""
""fullscreenenter"",""1"",""2343""
","
","","","-1","","","10","11124","3455","a","elianto","#f73b6a7A"," ","-1","0","-10","[]","0","2","","","11124","125","7","3","lose","go","0"
"pit-trial","250","1500333","0.0-130.0","battery-v0.2","","""event"",""trial"",""time""
""fullscreenenter"",""1"",""2343""
","
","
","""event"",""trial"",""time""
""fullscreenenter"",""1"",""2343""
","
","","","523.3999999761581","","","10","11124","3455","u","elianto","#3366ff99","-1"," ","0","0","[1375.5]","1","2","","","11124","126","9","2","win","no-go","0"
"pit-trial","251","1503750","0.0-131.0","battery-v0.2","","""event"",""trial"",""time""
""fullscreenenter"",""1"",""2343""
","
","
","""event"",""trial"",""time""
""fullscreenenter"",""1"",""2343""
","
","","","560.5","","","10","11124","3455","l","elianto","#3366ff99","-1"," ","0","0","[1412.3999999761581]","1","2","","","11124","127","8","2","win","no-go","0"
"pit-trial","252","1508604","0.0-132.0","battery-v0.2","","""event"",""trial"",""time""
""fullscreenenter"",""1"",""2343""
","
","
","""event"",""trial"",""time""
""fullscreenenter"",""1"",""2343""
","
","","","-1","","","10","11124","3455","g","elianto","#f73b6a7A","-1","-1","1","0","[]","0","2","","","11124","128","6","4","lose","no-go","0"
"pit-trial","253","1513459","0.0-133.0","battery-v0.2","","""event"",""trial"",""time""
""fullscreenenter"",""1"",""2343""
","
","
","""event"",""trial"",""time""
""fullscreenenter"",""1"",""2343""
","
","","","-1","","","10","11124","3455","a","elianto","#f73b6a7A"," ","-1","0","-10","[]","0","2","","","11124","129","7","3","lose","go","0"
"pit-trial","254","1516850","0.0-134.0","battery-v0.2","","""event"",""trial"",""time""
""fullscreenenter"",""1"",""2343""
","
","
","""event"",""trial"",""time""
""fullscreenenter"",""1"",""2343""
","
","","","537.6000000238419","","","10","11124","3455","l","elianto","#3366ff99","-1"," ","0","0","[1388]","1","2","","","11124","130","8","2","win","no-go","0"
"pit-trial","255","1521706","0.0-135.0","battery-v0.2","","""event"",""trial"",""time""
""fullscreenenter"",""1"",""2343""
","
","
","""event"",""trial"",""time""
""fullscreenenter"",""1"",""2343""
","
","","","-1","","","10","11124","3455","g","elianto","#f73b6a7A","-1","-1","1","0","[]","0","2","","","11124","131","6","4","lose","no-go","0"
"pit-trial","256","1525147","0.0-136.0","battery-v0.2","","""event"",""trial"",""time""
""fullscreenenter"",""1"",""2343""
","
","
","""event"",""trial"",""time""
""fullscreenenter"",""1"",""2343""
","
","","","584.2000000476837","","","10","11124","3455","u","elianto","#3366ff99","-1"," ","0","+10","[1436]","1","2","","","11124","132","9","2","win","no-go","1"
"pit-trial","257","1530002","0.0-137.0","battery-v0.2","","""event"",""trial"",""time""
""fullscreenenter"",""1"",""2343""
","
","
","""event"",""trial"",""time""
""fullscreenenter"",""1"",""2343""
","
","","","-1","","","10","11124","3455","a","elianto","#f73b6a7A"," ","-1","0","-10","[]","0","2","","","11124","133","7","3","lose","go","0"
"pit-trial","258","1533386","0.0-138.0","battery-v0.2","","""event"",""trial"",""time""
""fullscreenenter"",""1"",""2343""
","
","
","""event"",""trial"",""time""
""fullscreenenter"",""1"",""2343""
","
","","","529.0999999642372","","","10","11124","3455","u","elianto","#3366ff99","-1"," ","0","0","[1379.4000000357628]","1","2","","","11124","134","9","2","win","no-go","0"
"pit-trial","259","1538240","0.0-139.0","battery-v0.2","","""event"",""trial"",""time""
""fullscreenenter"",""1"",""2343""
","
","
","""event"",""trial"",""time""
""fullscreenenter"",""1"",""2343""
","
","","","-1","","","10","11124","3455","g","elianto","#f73b6a7A","-1","-1","1","0","[]","0","2","","","11124","135","6","4","lose","no-go","0"
"pit-trial","260","1541637","0.0-140.0","battery-v0.2","","""event"",""trial"",""time""
""fullscreenenter"",""1"",""2343""
","
","
","""event"",""trial"",""time""
""fullscreenenter"",""1"",""2343""
","
","","","543.1999999880791","","","10","11124","3455","l","elianto","#3366ff99","-1"," ","0","+10","[1393.3999999761581]","1","2","","","11124","136","8","2","win","no-go","1"
"pit-trial","261","1545038","0.0-141.0","battery-v0.2","","""event"",""trial"",""time""
""fullscreenenter"",""1"",""2343""
","
","
","""event"",""trial"",""time""
""fullscreenenter"",""1"",""2343""
","
","","","547.7000000476837","","","10","11124","3455","u","elianto","#3366ff99","-1"," ","0","0","[1397.800000011921]","1","2","","","11124","137","9","2","win","no-go","0"
"pit-trial","262","1548551","0.0-142.0","battery-v0.2","","""event"",""trial"",""time""
""fullscreenenter"",""1"",""2343""
","
","
","""event"",""trial"",""time""
""fullscreenenter"",""1"",""2343""
","
","","","659.1000000238419","","","10","11124","3455","l","elianto","#3366ff99","-1"," ","0","0","[1510]","1","2","","","11124","138","8","2","win","no-go","0"
"pit-trial","263","1553404","0.0-143.0","battery-v0.2","","""event"",""trial"",""time""
""fullscreenenter"",""1"",""2343""
","
","
","""event"",""trial"",""time""
""fullscreenenter"",""1"",""2343""
","
","","","-1","","","10","11124","3455","a","elianto","#f73b6a7A"," ","-1","0","0","[]","0","2","","","11124","139","7","3","lose","go","1"
"pit-trial","264","1558259","0.0-144.0","battery-v0.2","","""event"",""trial"",""time""
""fullscreenenter"",""1"",""2343""
","
","
","""event"",""trial"",""time""
""fullscreenenter"",""1"",""2343""
","
","","","-1","","","10","11124","3455","g","elianto","#f73b6a7A","-1","-1","1","0","[]","0","2","","","11124","140","6","4","lose","no-go","0"
"pit-instructions","265","1572270","0.0-145.0","battery-v0.2","","""event"",""trial"",""time""
""fullscreenenter"",""1"",""2343""
","
","
","""event"",""trial"",""time""
""fullscreenenter"",""1"",""2343""
","
","","[{""page_index"":0,""viewing_time"":5823.199999988079},{""page_index"":1,""viewing_time"":8184}]","14007.5","","","","","","","","","","","","","","","","","","","","","","","",""
"pit-trial","266","1577139","0.0-146.0","battery-v0.2","","""event"",""trial"",""time""
""fullscreenenter"",""1"",""2343""
","
","
","""event"",""trial"",""time""
""fullscreenenter"",""1"",""2343""
","
","","","-1","","","10","11124","3455","m","elianto","#f73b6a7A"," ","-1","0","-10","[]","0","3","","","11124","141","0","3","lose","go","0"
"pit-trial","267","1581451","0.0-147.0","battery-v0.2","","""event"",""trial"",""time""
""fullscreenenter"",""1"",""2343""
","
","
","""event"",""trial"",""time""
""fullscreenenter"",""1"",""2343""
","
","","","1454.199999988079","","","10","11124","3455","r","elianto","#3366ff99","-1"," ","0","0","[2304.900000035763]","1","3","","","11124","142","1","2","win","no-go","0"
"pit-trial","268","1586324","0.0-148.0","battery-v0.2","","""event"",""trial"",""time""
""fullscreenenter"",""1"",""2343""
","
","
","""event"",""trial"",""time""
""fullscreenenter"",""1"",""2343""
","
","","","-1","","","10","11124","3455","y","elianto","#f73b6a7A"," ","-1","0","-10","[]","0","3","","","11124","143","2","3","lose","go","0"
"pit-trial","269","1591187","0.0-149.0","battery-v0.2","","""event"",""trial"",""time""
""fullscreenenter"",""1"",""2343""
","
","
","""event"",""trial"",""time""
