"trial_type","trial_index","time_elapsed","internal_node_id","task_version","subject_id","interactions","blur_events","focus_events","fullscreenenter_events","fullscreenexit_events","success","view_history","rt","responses","num_errors","age","subject","participantId","rune","rune_set","hex","correct","choice","accuracy","outcome","keys","total_keys","block","practice","value","sub","trial","stimulus","robot","valence","action","sham"
"pavlovia","0","33","0.0-0.0","battery-v0.2","","""event"",""trial"",""time""
""fullscreenenter"",""1"",""4415""
","
","
","""event"",""trial"",""time""
""fullscreenenter"",""1"",""4415""
","
","","","","","","","","","","","","","","","","","","","","","","","","","","",""
"fullscreen","1","5390","0.0-1.0","battery-v0.2","","""event"",""trial"",""time""
""fullscreenenter"",""1"",""4415""
","
","
","""event"",""trial"",""time""
""fullscreenenter"",""1"",""4415""
","
","true","","","","","","","","","","","","","","","","","","","","","","","","","",""
"pit-instructions","2","15276","0.0-2.0-0.0","battery-v0.2","","""event"",""trial"",""time""
""fullscreenenter"",""1"",""4415""
","
","
","""event"",""trial"",""time""
""fullscreenenter"",""1"",""4415""
","
","","[{""page_index"":0,""viewing_time"":9884}]","9884.40000000596","","","","","","","","","","","","","","","","","","","","","","","",""
"pit-comprehension","3","18548","0.0-2.0-1.0-0.0","battery-v0.2","","""event"",""trial"",""time""
""fullscreenenter"",""1"",""4415""
","
","
","""event"",""trial"",""time""
""fullscreenenter"",""1"",""4415""
","
","","","3269.5","[""shark""]","0","15","20302","3268","","","","","","","","","","","","","","","","","","",""
"pit-instructions","4","20611","0.0-2.0-1.0-1.0","battery-v0.2","","""event"",""trial"",""time""
""fullscreenenter"",""1"",""4415""
","
","
","""event"",""trial"",""time""
""fullscreenenter"",""1"",""4415""
","
","","[{""page_index"":0,""viewing_time"":2056.7000000178814}]","2056.9000000059605","","","","","","","","","","","","","","","","","","","","","","","",""
"pit-comprehension","5","24924","0.0-2.0-2.0-0.0","battery-v0.2","","""event"",""trial"",""time""
""fullscreenenter"",""1"",""4415""
","
","
","""event"",""trial"",""time""
""fullscreenenter"",""1"",""4415""
","
","","","4309.199999988079","[""tiger""]","0","15","20302","3268","","","","","","","","","","","","","","","","","","",""
"pit-instructions","6","27619","0.0-2.0-2.0-1.0","battery-v0.2","","""event"",""trial"",""time""
""fullscreenenter"",""1"",""4415""
","
","
","""event"",""trial"",""time""
""fullscreenenter"",""1"",""4415""
","
","","[{""page_index"":0,""viewing_time"":2692.5}]","2692.699999988079","","","","","","","","","","","","","","","","","","","","","","","",""
"pit-instructions","7","174051","0.0-2.0-3.0","battery-v0.2","","""event"",""trial"",""time""
""fullscreenenter"",""1"",""4415""
","
","
","""event"",""trial"",""time""
""fullscreenenter"",""1"",""4415""
","
","","[{""page_index"":0,""viewing_time"":13941.5},{""page_index"":1,""viewing_time"":14472},{""page_index"":2,""viewing_time"":7440.0999999940395},{""page_index"":3,""viewing_time"":9136},{""page_index"":4,""viewing_time"":11296},{""page_index"":5,""viewing_time"":7071.9000000059605},{""page_index"":6,""viewing_time"":10904.09999999404},{""page_index"":7,""viewing_time"":11767.800000011921},{""page_index"":8,""viewing_time"":10664.09999999404},{""page_index"":9,""viewing_time"":13881.59999999404},{""page_index"":10,""viewing_time"":7511.4000000059605},{""page_index"":11,""viewing_time"":12192.199999988079},{""page_index"":12,""viewing_time"":10024.09999999404},{""page_index"":13,""viewing_time"":6136}]","146439","","","","","","","","","","","","","","","","","","","","","","","",""
"pit-trial","8","177684","0.0-2.0-4.0-0.0","battery-v0.2","","""event"",""trial"",""time""
""fullscreenenter"",""1"",""4415""
","
","
","""event"",""trial"",""time""
""fullscreenenter"",""1"",""4415""
","
","","","779.1999999880791","","","15","20302","3268","&#9784;","elianto","#FFFFF080"," "," ","1","&#10004","[1630.699999988079]","1","0","0","","","","","","","",""
"pit-trial","9","180624","0.0-2.0-4.1-0.1","battery-v0.2","","""event"",""trial"",""time""
""fullscreenenter"",""1"",""4415""
","
","
","""event"",""trial"",""time""
""fullscreenenter"",""1"",""4415""
","
","","","85.2999999821186","","","15","20302","3268","&#9784;","elianto","#FFFFF080"," "," ","1","&#10004","[936]","1","0","0","","","","","","","",""
"pit-trial","10","183748","0.0-2.0-4.2-0.2","battery-v0.2","","""event"",""trial"",""time""
""fullscreenenter"",""1"",""4415""
","
","
","""event"",""trial"",""time""
""fullscreenenter"",""1"",""4415""
","
","","","270.90000000596046","","","15","20302","3268","&#9784;","elianto","#FFFFF080"," "," ","1","&#10004","[1121.199999988079]","1","0","0","","","","","","","",""
"pit-trial","11","186949","0.0-2.0-4.3-0.3","battery-v0.2","","""event"",""trial"",""time""
""fullscreenenter"",""1"",""4415""
","
","
","""event"",""trial"",""time""
""fullscreenenter"",""1"",""4415""
","
","","","345.39999997615814","","","15","20302","3268","&#9784;","elianto","#FFFFF080"," "," ","1","&#10004","[1197.4000000059605]","1","0","0","","","","","","","",""
"pit-trial","12","189909","0.0-2.0-4.4-0.4","battery-v0.2","","""event"",""trial"",""time""
""fullscreenenter"",""1"",""4415""
","
","
","""event"",""trial"",""time""
""fullscreenenter"",""1"",""4415""
","
","","","106.59999999403954","","","15","20302","3268","&#9784;","elianto","#FFFFF080"," "," ","1","&#10004","[957.3000000119209]","1","0","0","","","","","","","",""
"pit-instructions","13","229720","0.0-2.0-5.0","battery-v0.2","","""event"",""trial"",""time""
""fullscreenenter"",""1"",""4415""
","
","
","""event"",""trial"",""time""
""fullscreenenter"",""1"",""4415""
","
","","[{""page_index"":0,""viewing_time"":15802.300000011921},{""page_index"":1,""viewing_time"":8495.90000000596},{""page_index"":2,""viewing_time"":8185.5},{""page_index"":3,""viewing_time"":7327.5}]","39811.40000000596","","","","","","","","","","","","","","","","","","","","","","","",""
"pit-trial","14","234573","0.0-2.0-6.0-0.0","battery-v0.2","","""event"",""trial"",""time""
""fullscreenenter"",""1"",""4415""
","
","
","""event"",""trial"",""time""
""fullscreenenter"",""1"",""4415""
","
","","","-1","","","15","20302","3268","&#9854;","elianto","#FFFFF080","-1","-1","1","&#10004","[]","0","0","1","","","","","","","",""
"pit-trial","15","239428","0.0-2.0-6.1-0.1","battery-v0.2","","""event"",""trial"",""time""
""fullscreenenter"",""1"",""4415""
","
","
","""event"",""trial"",""time""
""fullscreenenter"",""1"",""4415""
","
","","","-1","","","15","20302","3268","&#9854;","elianto","#FFFFF080","-1","-1","1","&#10004","[]","0","0","1","","","","","","","",""
"pit-trial","16","244281","0.0-2.0-6.2-0.2","battery-v0.2","","""event"",""trial"",""time""
""fullscreenenter"",""1"",""4415""
","
","
","""event"",""trial"",""time""
""fullscreenenter"",""1"",""4415""
","
","","","-1","","","15","20302","3268","&#9854;","elianto","#FFFFF080","-1","-1","1","&#10004","[]","0","0","1","","","","","","","",""
"pit-trial","17","249135","0.0-2.0-6.3-0.3","battery-v0.2","","""event"",""trial"",""time""
""fullscreenenter"",""1"",""4415""
","
","
","""event"",""trial"",""time""
""fullscreenenter"",""1"",""4415""
","
","","","-1","","","15","20302","3268","&#9854;","elianto","#FFFFF080","-1","-1","1","&#10004","[]","0","0","1","","","","","","","",""
"pit-trial","18","253989","0.0-2.0-6.4-0.4","battery-v0.2","","""event"",""trial"",""time""
""fullscreenenter"",""1"",""4415""
","
","
","""event"",""trial"",""time""
""fullscreenenter"",""1"",""4415""
","
","","","-1","","","15","20302","3268","&#9854;","elianto","#FFFFF080","-1","-1","1","&#10004","[]","0","0","1","","","","","","","",""
"pit-instructions","19","451458","0.0-2.0-7.0","battery-v0.2","","""event"",""trial"",""time""
""fullscreenenter"",""1"",""4415""
","
","
","""event"",""trial"",""time""
""fullscreenenter"",""1"",""4415""
","
","","[{""page_index"":0,""viewing_time"":18845.80000001192},{""page_index"":1,""viewing_time"":10521},{""page_index"":2,""viewing_time"":9008.199999988079},{""page_index"":3,""viewing_time"":15247.59999999404},{""page_index"":4,""viewing_time"":7943.9000000059605},{""page_index"":5,""viewing_time"":8336.59999999404},{""page_index"":6,""viewing_time"":6415.9000000059605},{""page_index"":7,""viewing_time"":10231.5},{""page_index"":8,""viewing_time"":9752.300000011921},{""page_index"":9,""viewing_time"":11112.299999982119},{""page_index"":10,""viewing_time"":8679.5},{""page_index"":11,""viewing_time"":21248.30000001192},{""page_index"":12,""viewing_time"":10056.300000011921},{""page_index"":13,""viewing_time"":10871.5},{""page_index"":14,""viewing_time"":10744.199999988079},{""page_index"":15,""viewing_time"":11807.90000000596},{""page_index"":16,""viewing_time"":8008.299999982119},{""page_index"":17,""viewing_time"":8647.5}]","197479","","","","","","","","","","","","","","","","","","","","","","","",""
"pit-trial","20","455180","0.0-2.0-8.0-0.0","battery-v0.2","","""event"",""trial"",""time""
""fullscreenenter"",""1"",""4415""
","
","
","""event"",""trial"",""time""
""fullscreenenter"",""1"",""4415""
","
","","","867.7000000178814","","","15","20302","3268","&#9776;","elianto","#3366ff99"," "," ","1","+10","[1719.0999999940395]","1","0","1","","","","","","","",""
"pit-trial","21","459004","0.0-2.0-8.0-1.0","battery-v0.2","","""event"",""trial"",""time""
""fullscreenenter"",""1"",""4415""
","
","
","""event"",""trial"",""time""
""fullscreenenter"",""1"",""4415""
","
","","","970.3000000119209","","","15","20302","3268","&#9776;","elianto","#3366ff99"," "," ","1","+10","[1821.4000000059605]","1","0","1","","","","","","","",""
"pit-trial","22","462588","0.0-2.0-8.0-2.0","battery-v0.2","","""event"",""trial"",""time""
""fullscreenenter"",""1"",""4415""
","
","
","""event"",""trial"",""time""
""fullscreenenter"",""1"",""4415""
","
","","","730.5999999940395","","","15","20302","3268","&#9776;","elianto","#3366ff99"," "," ","1","+10","[1581.5999999940395]","1","0","1","","","","","","","",""
"pit-trial","23","465955","0.0-2.0-8.0-3.0","battery-v0.2","","""event"",""trial"",""time""
""fullscreenenter"",""1"",""4415""
","
","
","""event"",""trial"",""time""
""fullscreenenter"",""1"",""4415""
","
","","","514.8000000119209","","","15","20302","3268","&#9776;","elianto","#3366ff99"," "," ","1","0","[1365.1000000238419]","1","0","1","","","","","","","",""
"pit-trial","24","470004","0.0-2.0-8.0-4.0","battery-v0.2","","""event"",""trial"",""time""
""fullscreenenter"",""1"",""4415""
","
","
","""event"",""trial"",""time""
""fullscreenenter"",""1"",""4415""
","
","","","1195.3999999761581","","","15","20302","3268","&#9776;","elianto","#3366ff99"," "," ","1","+10","[2046]","1","0","1","","","","","","","",""
"pit-trial","25","473716","0.0-2.0-8.1-0.1","battery-v0.2","","""event"",""trial"",""time""
""fullscreenenter"",""1"",""4415""
","
","
","""event"",""trial"",""time""
""fullscreenenter"",""1"",""4415""
","
","","","857.5","","","15","20302","3268","&#9776;","elianto","#3366ff99"," "," ","1","+10","[1708.5]","1","0","1","","","","","","","",""
"pit-trial","26","477835","0.0-2.0-8.1-1.1","battery-v0.2","","""event"",""trial"",""time""
""fullscreenenter"",""1"",""4415""
","
","
","""event"",""trial"",""time""
""fullscreenenter"",""1"",""4415""
","
","","","1266.2999999821186","","","15","20302","3268","&#9776;","elianto","#3366ff99"," "," ","1","+10","[2117]","1","0","1","","","","","","","",""
"pit-trial","27","482688","0.0-2.0-8.1-2.1","battery-v0.2","","""event"",""trial"",""time""
""fullscreenenter"",""1"",""4415""
","
","
","""event"",""trial"",""time""
""fullscreenenter"",""1"",""4415""
","
","","","-1","","","15","20302","3268","&#9776;","elianto","#3366ff99"," ","-1","0","0","[]","0","0","1","","","","","","","",""
"pit-trial","28","486179","0.0-2.0-8.1-3.1","battery-v0.2","","""event"",""trial"",""time""
""fullscreenenter"",""1"",""4415""
","
","
","""event"",""trial"",""time""
""fullscreenenter"",""1"",""4415""
","
","","","637.6999999880791","","","15","20302","3268","&#9776;","elianto","#3366ff99"," "," ","1","0","[1487.8999999761581]","1","0","1","","","","","","","",""
"pit-trial","29","489882","0.0-2.0-8.1-4.1","battery-v0.2","","""event"",""trial"",""time""
""fullscreenenter"",""1"",""4415""
","
","
","""event"",""trial"",""time""
""fullscreenenter"",""1"",""4415""
","
","","","849.1999999880791","","","15","20302","3268","&#9776;","elianto","#3366ff99"," "," ","1","+10","[1701.199999988079]","1","0","1","","","","","","","",""
"pit-trial","30","493497","0.0-2.0-8.2-0.2","battery-v0.2","","""event"",""trial"",""time""
""fullscreenenter"",""1"",""4415""
","
","
","""event"",""trial"",""time""
""fullscreenenter"",""1"",""4415""
","
","","","760.9000000059605","","","15","20302","3268","&#9776;","elianto","#3366ff99"," "," ","1","+10","[1612.800000011921]","1","0","1","","","","","","","",""
"pit-trial","31","497553","0.0-2.0-8.2-1.2","battery-v0.2","","""event"",""trial"",""time""
""fullscreenenter"",""1"",""4415""
","
","
","""event"",""trial"",""time""
""fullscreenenter"",""1"",""4415""
","
","","","1202.4000000059605","","","15","20302","3268","&#9776;","elianto","#3366ff99"," "," ","1","+10","[2053.800000011921]","1","0","1","","","","","","","",""
"pit-trial","32","501810","0.0-2.0-8.2-2.2","battery-v0.2","","""event"",""trial"",""time""
""fullscreenenter"",""1"",""4415""
","
","
","""event"",""trial"",""time""
""fullscreenenter"",""1"",""4415""
","
","","","1403.2000000178814","","","15","20302","3268","&#9776;","elianto","#3366ff99"," "," ","1","+10","[2254.100000023842]","1","0","1","","","","","","","",""
"pit-trial","33","506663","0.0-2.0-8.2-3.2","battery-v0.2","","""event"",""trial"",""time""
""fullscreenenter"",""1"",""4415""
","
","
","""event"",""trial"",""time""
""fullscreenenter"",""1"",""4415""
","
","","","-1","","","15","20302","3268","&#9776;","elianto","#3366ff99"," ","-1","0","+10","[]","0","0","1","","","","","","","",""
"pit-trial","34","509912","0.0-2.0-8.2-4.2","battery-v0.2","","""event"",""trial"",""time""
""fullscreenenter"",""1"",""4415""
","
","
","""event"",""trial"",""time""
""fullscreenenter"",""1"",""4415""
","
","","","397","","","15","20302","3268","&#9776;","elianto","#3366ff99"," "," ","1","+10","[1247.9000000059605]","1","0","1","","","","","","","",""
"call-function","35","509914","0.0-2.0-9.0","battery-v0.2","","""event"",""trial"",""time""
""fullscreenenter"",""1"",""4415""
","
","
","""event"",""trial"",""time""
""fullscreenenter"",""1"",""4415""
","
","","","","","","","","","","","","","","","","","","","","","","","","","","",""
"pit-instructions","36","573331","0.0-2.0-10.0","battery-v0.2","","""event"",""trial"",""time""
""fullscreenenter"",""1"",""4415""
","
","
","""event"",""trial"",""time""
""fullscreenenter"",""1"",""4415""
","
","","[{""page_index"":0,""viewing_time"":12363.199999988079},{""page_index"":1,""viewing_time"":8457.700000017881},{""page_index"":2,""viewing_time"":15199.899999976158},{""page_index"":3,""viewing_time"":13720},{""page_index"":4,""viewing_time"":13679.800000011921}]","63420.90000000596","","","","","","","","","","","","","","","","","","","","","","","",""
"pit-trial","37","576957","0.0-2.0-11.0-0.0","battery-v0.2","","""event"",""trial"",""time""
""fullscreenenter"",""1"",""4415""
","
","
","""event"",""trial"",""time""
""fullscreenenter"",""1"",""4415""
","
","","","772.3000000119209","","","15","20302","3268","&#9761;","elianto","#3366ff99","-1"," ","0","0","[1623,2947.4000000059605]","2","0","2","","","","","","","",""
"pit-trial","38","580101","0.0-2.0-11.0-1.0","battery-v0.2","","""event"",""trial"",""time""
""fullscreenenter"",""1"",""4415""
","
","
","""event"",""trial"",""time""
""fullscreenenter"",""1"",""4415""
","
","","","290.39999997615814","","","15","20302","3268","&#9761;","elianto","#3366ff99","-1"," ","0","0","[1141.3999999761581]","1","0","2","","","","","","","",""
"pit-trial","39","584381","0.0-2.0-11.0-2.0","battery-v0.2","","""event"",""trial"",""time""
""fullscreenenter"",""1"",""4415""
","
","
","""event"",""trial"",""time""
""fullscreenenter"",""1"",""4415""
","
","","","1427.699999988079","","","15","20302","3268","&#9761;","elianto","#3366ff99","-1"," ","0","0","[2277.699999988079]","1","0","2","","","","","","","",""
"pit-trial","40","587372","0.0-2.0-11.0-3.0","battery-v0.2","","""event"",""trial"",""time""
""fullscreenenter"",""1"",""4415""
","
","
","""event"",""trial"",""time""
""fullscreenenter"",""1"",""4415""
","
","","","137.90000000596046","","","15","20302","3268","&#9761;","elianto","#3366ff99","-1"," ","0","+10","[989.7000000178814]","1","0","2","","","","","","","",""
"pit-trial","41","590748","0.0-2.0-11.0-4.0","battery-v0.2","","""event"",""trial"",""time""
""fullscreenenter"",""1"",""4415""
","
","
","""event"",""trial"",""time""
""fullscreenenter"",""1"",""4415""
","
","","","522.2999999821186","","","15","20302","3268","&#9761;","elianto","#3366ff99","-1"," ","0","0","[1373.9000000059605]","1","0","2","","","","","","","",""
"pit-trial","42","595602","0.0-2.0-11.1-0.1","battery-v0.2","","""event"",""trial"",""time""
""fullscreenenter"",""1"",""4415""
","
","
","""event"",""trial"",""time""
""fullscreenenter"",""1"",""4415""
","
","","","-1","","","15","20302","3268","&#9761;","elianto","#3366ff99","-1","-1","1","+10","[]","0","0","2","","","","","","","",""
"pit-trial","43","598796","0.0-2.0-11.1-1.1","battery-v0.2","","""event"",""trial"",""time""
""fullscreenenter"",""1"",""4415""
","
","
","""event"",""trial"",""time""
""fullscreenenter"",""1"",""4415""
","
","","","340.7000000178814","","","15","20302","3268","&#9761;","elianto","#3366ff99","-1"," ","0","0","[1192]","1","0","2","","","","","","","",""
"pit-trial","44","603650","0.0-2.0-11.1-2.1","battery-v0.2","","""event"",""trial"",""time""
""fullscreenenter"",""1"",""4415""
","
","
","""event"",""trial"",""time""
""fullscreenenter"",""1"",""4415""
","
","","","-1","","","15","20302","3268","&#9761;","elianto","#3366ff99","-1","-1","1","+10","[4221.4000000059605]","1","0","2","","","","","","","",""
"pit-trial","45","608503","0.0-2.0-11.1-3.1","battery-v0.2","","""event"",""trial"",""time""
""fullscreenenter"",""1"",""4415""
","
","
","""event"",""trial"",""time""
""fullscreenenter"",""1"",""4415""
","
","","","-1","","","15","20302","3268","&#9761;","elianto","#3366ff99","-1","-1","1","0","[]","0","0","2","","","","","","","",""
"pit-trial","46","611563","0.0-2.0-11.1-4.1","battery-v0.2","","""event"",""trial"",""time""
""fullscreenenter"",""1"",""4415""
","
","
","""event"",""trial"",""time""
""fullscreenenter"",""1"",""4415""
","
","","","207","","","15","20302","3268","&#9761;","elianto","#3366ff99","-1"," ","0","0","[424.19999998807907,1058.0999999940395]","2","0","2","","","","","","","",""
"pit-trial","47","615267","0.0-2.0-11.2-0.2","battery-v0.2","","""event"",""trial"",""time""
""fullscreenenter"",""1"",""4415""
","
","
","""event"",""trial"",""time""
""fullscreenenter"",""1"",""4415""
","
","","","849","","","15","20302","3268","&#9761;","elianto","#3366ff99","-1"," ","0","0","[1700.7999999821186]","1","0","2","","","","","","","",""
"pit-trial","48","619034","0.0-2.0-11.2-1.2","battery-v0.2","","""event"",""trial"",""time""
""fullscreenenter"",""1"",""4415""
","
","
","""event"",""trial"",""time""
""fullscreenenter"",""1"",""4415""
","
","","","913.2000000178814","","","15","20302","3268","&#9761;","elianto","#3366ff99","-1"," ","0","0","[1764.800000011921]","1","0","2","","","","","","","",""
"pit-trial","49","623066","0.0-2.0-11.2-2.2","battery-v0.2","","""event"",""trial"",""time""
""fullscreenenter"",""1"",""4415""
","
","
","""event"",""trial"",""time""
""fullscreenenter"",""1"",""4415""
","
","","","1179.5999999940395","","","15","20302","3268","&#9761;","elianto","#3366ff99","-1"," ","0","0","[2030.0999999940395]","1","0","2","","","","","","","",""
"pit-trial","50","627921","0.0-2.0-11.2-3.2","battery-v0.2","","""event"",""trial"",""time""
""fullscreenenter"",""1"",""4415""
","
","
","""event"",""trial"",""time""
""fullscreenenter"",""1"",""4415""
","
","","","-1","","","15","20302","3268","&#9761;","elianto","#3366ff99","-1","-1","1","0","[]","0","0","2","","","","","","","",""
"pit-trial","51","632338","0.0-2.0-11.2-4.2","battery-v0.2","","""event"",""trial"",""time""
""fullscreenenter"",""1"",""4415""
","
","
","""event"",""trial"",""time""
""fullscreenenter"",""1"",""4415""
","
","","","1564.1000000238419","","","15","20302","3268","&#9761;","elianto","#3366ff99","-1"," ","0","0","[2414.7999999821186,4375]","2","0","2","","","","","","","",""
"pit-trial","52","636185","0.0-2.0-11.3-0.3","battery-v0.2","","""event"",""trial"",""time""
""fullscreenenter"",""1"",""4415""
","
","
","""event"",""trial"",""time""
""fullscreenenter"",""1"",""4415""
","
","","","994.5","","","15","20302","3268","&#9761;","elianto","#3366ff99","-1"," ","0","0","[1844.9000000059605]","1","0","2","","","","","","","",""
"pit-trial","53","639801","0.0-2.0-11.3-1.3","battery-v0.2","","""event"",""trial"",""time""
""fullscreenenter"",""1"",""4415""
","
","
","""event"",""trial"",""time""
""fullscreenenter"",""1"",""4415""
","
","","","762.5","","","15","20302","3268","&#9761;","elianto","#3366ff99","-1"," ","0","0","[1613.699999988079]","1","0","2","","","","","","","",""
"pit-trial","54","644652","0.0-2.0-11.3-2.3","battery-v0.2","","""event"",""trial"",""time""
""fullscreenenter"",""1"",""4415""
","
","
","""event"",""trial"",""time""
""fullscreenenter"",""1"",""4415""
","
","","","-1","","","15","20302","3268","&#9761;","elianto","#3366ff99","-1","-1","1","+10","[]","0","0","2","","","","","","","",""
"pit-trial","55","647929","0.0-2.0-11.3-3.3","battery-v0.2","","""event"",""trial"",""time""
""fullscreenenter"",""1"",""4415""
","
","
","""event"",""trial"",""time""
""fullscreenenter"",""1"",""4415""
","
","","","424","","","15","20302","3268","&#9761;","elianto","#3366ff99","-1"," ","0","+10","[1274.2000000178814]","1","0","2","","","","","","","",""
"pit-trial","56","652120","0.0-2.0-11.3-4.3","battery-v0.2","","""event"",""trial"",""time""
""fullscreenenter"",""1"",""4415""
","
","
","""event"",""trial"",""time""
""fullscreenenter"",""1"",""4415""
","
","","","1337.9000000059605","","","15","20302","3268","&#9761;","elianto","#3366ff99","-1"," ","0","0","[2188.9000000059605]","1","0","2","","","","","","","",""
"call-function","57","652121","0.0-2.0-12.0","battery-v0.2","","""event"",""trial"",""time""
""fullscreenenter"",""1"",""4415""
","
","
","""event"",""trial"",""time""
""fullscreenenter"",""1"",""4415""
","
","","","","","","","","","","","","","","","","","","","","","","","","","","",""
"pit-instructions","58","702858","0.0-2.0-13.0","battery-v0.2","","""event"",""trial"",""time""
""fullscreenenter"",""1"",""4415""
","
","
","""event"",""trial"",""time""
""fullscreenenter"",""1"",""4415""
","
","","[{""page_index"":0,""viewing_time"":15371.5},{""page_index"":1,""viewing_time"":8720.199999988079},{""page_index"":2,""viewing_time"":4791.5999999940395},{""page_index"":3,""viewing_time"":15632.40000000596},{""page_index"":4,""viewing_time"":6223.9000000059605}]","50739.79999998212","","","","","","","","","","","","","","","","","","","","","","","",""
"pit-trial","59","707012","0.0-2.0-14.0-0.0","battery-v0.2","","""event"",""trial"",""time""
""fullscreenenter"",""1"",""4415""
","
","
","""event"",""trial"",""time""
""fullscreenenter"",""1"",""4415""
","
","","","1301.0999999940395","","","15","20302","3268","&#9826;","elianto","#f73b6a7A","-1"," ","0","-10","[2152.0999999940395]","1","0","3","","","","","","","",""
"pit-trial","60","711021","0.0-2.0-14.0-1.0","battery-v0.2","","""event"",""trial"",""time""
""fullscreenenter"",""1"",""4415""
","
","
","""event"",""trial"",""time""
""fullscreenenter"",""1"",""4415""
","
","","","1156","","","15","20302","3268","&#9826;","elianto","#f73b6a7A","-1"," ","0","-10","[2006.800000011921]","1","0","3","","","","","","","",""
"pit-trial","61","715874","0.0-2.0-14.0-2.0","battery-v0.2","","""event"",""trial"",""time""
""fullscreenenter"",""1"",""4415""
","
","
","""event"",""trial"",""time""
""fullscreenenter"",""1"",""4415""
","
","","","-1","","","15","20302","3268","&#9826;","elianto","#f73b6a7A","-1","-1","1","0","[]","0","0","3","","","","","","","",""
"pit-trial","62","719708","0.0-2.0-14.0-3.0","battery-v0.2","","""event"",""trial"",""time""
""fullscreenenter"",""1"",""4415""
","
","
","""event"",""trial"",""time""
""fullscreenenter"",""1"",""4415""
","
","","","980.9000000059605","","","15","20302","3268","&#9826;","elianto","#f73b6a7A","-1"," ","0","0","[1831.4000000059605]","1","0","3","","","","","","","",""
"pit-trial","63","724563","0.0-2.0-14.0-4.0","battery-v0.2","","""event"",""trial"",""time""
""fullscreenenter"",""1"",""4415""
","
","
","""event"",""trial"",""time""
""fullscreenenter"",""1"",""4415""
","
","","","-1","","","15","20302","3268","&#9826;","elianto","#f73b6a7A","-1","-1","1","0","[]","0","0","3","","","","","","","",""
"pit-trial","64","729417","0.0-2.0-14.1-0.1","battery-v0.2","","""event"",""trial"",""time""
""fullscreenenter"",""1"",""4415""
","
","
","""event"",""trial"",""time""
""fullscreenenter"",""1"",""4415""
","
","","","-1","","","15","20302","3268","&#9826;","elianto","#f73b6a7A","-1","-1","1","0","[3566.600000023842]","1","0","3","","","","","","","",""
"pit-trial","65","733411","0.0-2.0-14.1-1.1","battery-v0.2","","""event"",""trial"",""time""
""fullscreenenter"",""1"",""4415""
","
","
","""event"",""trial"",""time""
""fullscreenenter"",""1"",""4415""
","
","","","1142.2999999821186","","","15","20302","3268","&#9826;","elianto","#f73b6a7A","-1"," ","0","-10","[1992.5999999940395]","1","0","3","","","","","","","",""
"pit-trial","66","737131","0.0-2.0-14.1-2.1","battery-v0.2","","""event"",""trial"",""time""
""fullscreenenter"",""1"",""4415""
","
","
","""event"",""trial"",""time""
""fullscreenenter"",""1"",""4415""
","
","","","867.6999999880791","","","15","20302","3268","&#9826;","elianto","#f73b6a7A","-1"," ","0","-10","[1718.2999999821186]","1","0","3","","","","","","","",""
"pit-trial","67","741412","0.0-2.0-14.1-3.1","battery-v0.2","","""event"",""trial"",""time""
""fullscreenenter"",""1"",""4415""
","
","
","""event"",""trial"",""time""
""fullscreenenter"",""1"",""4415""
","
","","","1427.800000011921","","","15","20302","3268","&#9826;","elianto","#f73b6a7A","-1"," ","0","0","[2277.800000011921]","1","0","3","","","","","","","",""
"pit-trial","68","744746","0.0-2.0-14.1-4.1","battery-v0.2","","""event"",""trial"",""time""
""fullscreenenter"",""1"",""4415""
","
","
","""event"",""trial"",""time""
""fullscreenenter"",""1"",""4415""
","
","","","482.09999999403954","","","15","20302","3268","&#9826;","elianto","#f73b6a7A","-1"," ","0","-10","[1332.8999999761581]","1","0","3","","","","","","","",""
"pit-trial","69","749601","0.0-2.0-14.2-0.2","battery-v0.2","","""event"",""trial"",""time""
""fullscreenenter"",""1"",""4415""
","
","
","""event"",""trial"",""time""
""fullscreenenter"",""1"",""4415""
","
","","","-1","","","15","20302","3268","&#9826;","elianto","#f73b6a7A","-1","-1","1","0","[]","0","0","3","","","","","","","",""
"pit-trial","70","753107","0.0-2.0-14.2-1.2","battery-v0.2","","""event"",""trial"",""time""
""fullscreenenter"",""1"",""4415""
","
","
","""event"",""trial"",""time""
""fullscreenenter"",""1"",""4415""
","
","","","652.0999999940395","","","15","20302","3268","&#9826;","elianto","#f73b6a7A","-1"," ","0","-10","[1503.2000000178814]","1","0","3","","","","","","","",""
"pit-trial","71","757363","0.0-2.0-14.2-2.2","battery-v0.2","","""event"",""trial"",""time""
""fullscreenenter"",""1"",""4415""
","
","
","""event"",""trial"",""time""
""fullscreenenter"",""1"",""4415""
","
","","","1402","","","15","20302","3268","&#9826;","elianto","#f73b6a7A","-1"," ","0","-10","[2253]","1","0","3","","","","","","","",""
"pit-trial","72","760731","0.0-2.0-14.2-3.2","battery-v0.2","","""event"",""trial"",""time""
""fullscreenenter"",""1"",""4415""
","
","
","""event"",""trial"",""time""
""fullscreenenter"",""1"",""4415""
","
","","","513.1999999880791","","","15","20302","3268","&#9826;","elianto","#f73b6a7A","-1"," ","0","0","[1365.2000000178814]","1","0","3","","","","","","","",""
"pit-trial","73","763610","0.0-2.0-14.2-4.2","battery-v0.2","","""event"",""trial"",""time""
""fullscreenenter"",""1"",""4415""
","
","
","""event"",""trial"",""time""
""fullscreenenter"",""1"",""4415""
","
","","","26.19999998807907","","","15","20302","3268","&#9826;","elianto","#f73b6a7A","-1"," ","0","-10","[877.2999999821186]","1","0","3","","","","","","","",""
"pit-trial","74","768464","0.0-2.0-14.3-0.3","battery-v0.2","","""event"",""trial"",""time""
""fullscreenenter"",""1"",""4415""
","
","
","""event"",""trial"",""time""
""fullscreenenter"",""1"",""4415""
","
","","","-1","","","15","20302","3268","&#9826;","elianto","#f73b6a7A","-1","-1","1","0","[]","0","0","3","","","","","","","",""
"pit-trial","75","773317","0.0-2.0-14.3-1.3","battery-v0.2","","""event"",""trial"",""time""
""fullscreenenter"",""1"",""4415""
","
","
","""event"",""trial"",""time""
""fullscreenenter"",""1"",""4415""
","
","","","-1","","","15","20302","3268","&#9826;","elianto","#f73b6a7A","-1","-1","1","0","[]","0","0","3","","","","","","","",""
"pit-trial","76","777194","0.0-2.0-14.3-2.3","battery-v0.2","","""event"",""trial"",""time""
""fullscreenenter"",""1"",""4415""
","
","
","""event"",""trial"",""time""
""fullscreenenter"",""1"",""4415""
","
","","","1023.4000000059605","","","15","20302","3268","&#9826;","elianto","#f73b6a7A","-1"," ","0","-10","[1874.4000000059605]","1","0","3","","","","","","","",""
"pit-trial","77","782047","0.0-2.0-14.3-3.3","battery-v0.2","","""event"",""trial"",""time""
""fullscreenenter"",""1"",""4415""
","
","
","""event"",""trial"",""time""
""fullscreenenter"",""1"",""4415""
","
","","","-1","","","15","20302","3268","&#9826;","elianto","#f73b6a7A","-1","-1","1","-10","[]","0","0","3","","","","","","","",""
"pit-trial","78","785577","0.0-2.0-14.3-4.3","battery-v0.2","","""event"",""trial"",""time""
""fullscreenenter"",""1"",""4415""
","
","
","""event"",""trial"",""time""
""fullscreenenter"",""1"",""4415""
","
","","","676.1999999880791","","","15","20302","3268","&#9826;","elianto","#f73b6a7A","-1"," ","0","-10","[1527.5999999940395]","1","0","3","","","","","","","",""
"call-function","79","785578","0.0-2.0-15.0","battery-v0.2","","""event"",""trial"",""time""
""fullscreenenter"",""1"",""4415""
","
","
","""event"",""trial"",""time""
""fullscreenenter"",""1"",""4415""
","
","","","","","","","","","","","","","","","","","","","","","","","","","","",""
"pit-instructions","80","823223","0.0-2.0-16.0","battery-v0.2","","""event"",""trial"",""time""
""fullscreenenter"",""1"",""4415""
","
","
","""event"",""trial"",""time""
""fullscreenenter"",""1"",""4415""
","
","","[{""page_index"":0,""viewing_time"":9154.800000011921},{""page_index"":1,""viewing_time"":14647.799999982119},{""page_index"":2,""viewing_time"":7504.100000023842},{""page_index"":3,""viewing_time"":6344.199999988079}]","37651.09999999404","","","","","","","","","","","","","","","","","","","","","","","",""
"pit-trial","81","826961","0.0-2.0-17.0-0.0","battery-v0.2","","""event"",""trial"",""time""
""fullscreenenter"",""1"",""4415""
","
","
","""event"",""trial"",""time""
""fullscreenenter"",""1"",""4415""
","
","","","884.5","","","15","20302","3268","&#9789;","elianto","#f73b6a7A"," "," ","1","0","[1736.5]","1","0","4","","","","","","","",""
"pit-trial","82","831379","0.0-2.0-17.0-1.0","battery-v0.2","","""event"",""trial"",""time""
""fullscreenenter"",""1"",""4415""
","
","
","""event"",""trial"",""time""
""fullscreenenter"",""1"",""4415""
","
","","","1564.300000011921","","","15","20302","3268","&#9789;","elianto","#f73b6a7A"," "," ","1","0","[2416.0999999940395,2957]","2","0","4","","","","","","","",""
"pit-trial","83","834956","0.0-2.0-17.0-2.0","battery-v0.2","","""event"",""trial"",""time""
""fullscreenenter"",""1"",""4415""
","
","
","""event"",""trial"",""time""
""fullscreenenter"",""1"",""4415""
","
","","","723","","","15","20302","3268","&#9789;","elianto","#f73b6a7A"," "," ","1","0","[1574.7000000178814]","1","0","4","","","","","","","",""
"pit-trial","84","839809","0.0-2.0-17.0-3.0","battery-v0.2","","""event"",""trial"",""time""
""fullscreenenter"",""1"",""4415""
","
","
","""event"",""trial"",""time""
""fullscreenenter"",""1"",""4415""
","
","","","-1","","","15","20302","3268","&#9789;","elianto","#f73b6a7A"," ","-1","0","0","[]","0","0","4","","","","","","","",""
"pit-trial","85","843479","0.0-2.0-17.0-4.0","battery-v0.2","","""event"",""trial"",""time""
""fullscreenenter"",""1"",""4415""
","
","
","""event"",""trial"",""time""
""fullscreenenter"",""1"",""4415""
","
","","","816.5999999940395","","","15","20302","3268","&#9789;","elianto","#f73b6a7A"," "," ","1","0","[1668.699999988079]","1","0","4","","","","","","","",""
"pit-trial","86","848333","0.0-2.0-17.1-0.1","battery-v0.2","","""event"",""trial"",""time""
""fullscreenenter"",""1"",""4415""
","
","
","""event"",""trial"",""time""
""fullscreenenter"",""1"",""4415""
","
","","","-1","","","15","20302","3268","&#9789;","elianto","#f73b6a7A"," ","-1","0","-10","[]","0","0","4","","","","","","","",""
"pit-trial","87","853187","0.0-2.0-17.1-1.1","battery-v0.2","","""event"",""trial"",""time""
""fullscreenenter"",""1"",""4415""
","
","
","""event"",""trial"",""time""
""fullscreenenter"",""1"",""4415""
","
","","","-1","","","15","20302","3268","&#9789;","elianto","#f73b6a7A"," ","-1","0","-10","[]","0","0","4","","","","","","","",""
"pit-trial","88","857433","0.0-2.0-17.1-2.1","battery-v0.2","","""event"",""trial"",""time""
""fullscreenenter"",""1"",""4415""
","
","
","""event"",""trial"",""time""
""fullscreenenter"",""1"",""4415""
","
","","","1393.2999999821186","","","15","20302","3268","&#9789;","elianto","#f73b6a7A"," "," ","1","0","[2244.5]","1","0","4","","","","","","","",""
"pit-trial","89","861695","0.0-2.0-17.1-3.1","battery-v0.2","","""event"",""trial"",""time""
""fullscreenenter"",""1"",""4415""
","
","
","""event"",""trial"",""time""
""fullscreenenter"",""1"",""4415""
","
","","","1408.5999999940395","","","15","20302","3268","&#9789;","elianto","#f73b6a7A"," "," ","1","-10","[2258.699999988079]","1","0","4","","","","","","","",""
"pit-trial","90","866548","0.0-2.0-17.1-4.1","battery-v0.2","","""event"",""trial"",""time""
""fullscreenenter"",""1"",""4415""
","
","
","""event"",""trial"",""time""
""fullscreenenter"",""1"",""4415""
","
","","","-1","","","15","20302","3268","&#9789;","elianto","#f73b6a7A"," ","-1","0","-10","[]","0","0","4","","","","","","","",""
"pit-trial","91","870721","0.0-2.0-17.2-0.2","battery-v0.2","","""event"",""trial"",""time""
""fullscreenenter"",""1"",""4415""
","
","
","""event"",""trial"",""time""
""fullscreenenter"",""1"",""4415""
","
","","","1320","","","15","20302","3268","&#9789;","elianto","#f73b6a7A"," "," ","1","0","[2171.199999988079]","1","0","4","","","","","","","",""
"pit-trial","92","875573","0.0-2.0-17.2-1.2","battery-v0.2","","""event"",""trial"",""time""
""fullscreenenter"",""1"",""4415""
","
","
","""event"",""trial"",""time""
""fullscreenenter"",""1"",""4415""
","
","","","-1","","","15","20302","3268","&#9789;","elianto","#f73b6a7A"," ","-1","0","-10","[]","0","0","4","","","","","","","",""
"pit-trial","93","879900","0.0-2.0-17.2-2.2","battery-v0.2","","""event"",""trial"",""time""
""fullscreenenter"",""1"",""4415""
","
","
","""event"",""trial"",""time""
""fullscreenenter"",""1"",""4415""
","
","","","1474.7999999821186","","","15","20302","3268","&#9789;","elianto","#f73b6a7A"," "," ","1","0","[2326.2999999821186]","1","0","4","","","","","","","",""
"pit-trial","94","884752","0.0-2.0-17.2-3.2","battery-v0.2","","""event"",""trial"",""time""
""fullscreenenter"",""1"",""4415""
","
","
","""event"",""trial"",""time""
""fullscreenenter"",""1"",""4415""
","
","","","-1","","","15","20302","3268","&#9789;","elianto","#f73b6a7A"," ","-1","0","0","[]","0","0","4","","","","","","","",""
"pit-trial","95","888916","0.0-2.0-17.2-4.2","battery-v0.2","","""event"",""trial"",""time""
""fullscreenenter"",""1"",""4415""
","
","
","""event"",""trial"",""time""
""fullscreenenter"",""1"",""4415""
","
","","","1310.7000000178814","","","15","20302","3268","&#9789;","elianto","#f73b6a7A"," "," ","1","0","[2161.800000011921]","1","0","4","","","","","","","",""
"pit-trial","96","893181","0.0-2.0-17.3-0.3","battery-v0.2","","""event"",""trial"",""time""
""fullscreenenter"",""1"",""4415""
","
","
","""event"",""trial"",""time""
""fullscreenenter"",""1"",""4415""
","
","","","1412.199999988079","","","15","20302","3268","&#9789;","elianto","#f73b6a7A"," "," ","1","0","[2262.300000011921]","1","0","4","","","","","","","",""
"pit-trial","97","898034","0.0-2.0-17.3-1.3","battery-v0.2","","""event"",""trial"",""time""
""fullscreenenter"",""1"",""4415""
","
","
","""event"",""trial"",""time""
""fullscreenenter"",""1"",""4415""
","
","","","-1","","","15","20302","3268","&#9789;","elianto","#f73b6a7A"," ","-1","0","-10","[]","0","0","4","","","","","","","",""
"pit-trial","98","901500","0.0-2.0-17.3-2.3","battery-v0.2","","""event"",""trial"",""time""
""fullscreenenter"",""1"",""4415""
","
","
","""event"",""trial"",""time""
""fullscreenenter"",""1"",""4415""
","
","","","612.3000000119209","","","15","20302","3268","&#9789;","elianto","#f73b6a7A"," "," ","1","0","[1463.7000000178814]","1","0","4","","","","","","","",""
"pit-trial","99","905494","0.0-2.0-17.3-3.3","battery-v0.2","","""event"",""trial"",""time""
""fullscreenenter"",""1"",""4415""
","
","
","""event"",""trial"",""time""
""fullscreenenter"",""1"",""4415""
","
","","","1141.699999988079","","","15","20302","3268","&#9789;","elianto","#f73b6a7A"," "," ","1","-10","[1992.5]","1","0","4","","","","","","","",""
"pit-trial","100","910347","0.0-2.0-17.3-4.3","battery-v0.2","","""event"",""trial"",""time""
""fullscreenenter"",""1"",""4415""
","
","
","""event"",""trial"",""time""
""fullscreenenter"",""1"",""4415""
","
","","","-1","","","15","20302","3268","&#9789;","elianto","#f73b6a7A"," ","-1","0","-10","[]","0","0","4","","","","","","","",""
"call-function","101","910348","0.0-2.0-18.0","battery-v0.2","","""event"",""trial"",""time""
""fullscreenenter"",""1"",""4415""
","
","
","""event"",""trial"",""time""
""fullscreenenter"",""1"",""4415""
","
","","","","","","","","","","","","","","","","","","","","","","","","","","",""
"pit-instructions","102","1008908","0.0-2.0-19.0","battery-v0.2","","""event"",""trial"",""time""
""fullscreenenter"",""1"",""4415""
","
","
","""event"",""trial"",""time""
""fullscreenenter"",""1"",""4415""
","
","","[{""page_index"":0,""viewing_time"":8435.5},{""page_index"":1,""viewing_time"":10201.09999999404},{""page_index"":2,""viewing_time"":16504},{""page_index"":3,""viewing_time"":12039.90000000596},{""page_index"":4,""viewing_time"":9688.40000000596},{""page_index"":5,""viewing_time"":10159.899999976158},{""page_index"":6,""viewing_time"":16119.90000000596},{""page_index"":7,""viewing_time"":8800.09999999404},{""page_index"":8,""viewing_time"":6616.300000011921}]","98565.40000000596","","","","","","","","","","","","","","","","","","","","","","","",""
"pit-comprehension","103","1013507","0.0-2.0-20.0-0.0","battery-v0.2","","""event"",""trial"",""time""
""fullscreenenter"",""1"",""4415""
","
","
","""event"",""trial"",""time""
""fullscreenenter"",""1"",""4415""
","
","","","4596.200000017881","[""SPACE""]","0","15","20302","3268","","","","","","","","","","","","","","","","","","",""
"pit-instructions","104","1023234","0.0-2.0-20.0-1.0","battery-v0.2","","""event"",""trial"",""time""
""fullscreenenter"",""1"",""4415""
","
","
","""event"",""trial"",""time""
""fullscreenenter"",""1"",""4415""
","
","","[{""page_index"":0,""viewing_time"":9681.59999999404}]","9681.799999982119","","","","","","","","","","","","","","","","","","","","","","","",""
"pit-comprehension","105","1030890","0.0-2.0-21.0-0.0","battery-v0.2","","""event"",""trial"",""time""
""fullscreenenter"",""1"",""4415""
","
","
","""event"",""trial"",""time""
""fullscreenenter"",""1"",""4415""
","
","","","7654","[""10""]","0","15","20302","3268","","","","","","","","","","","","","","","","","","",""
"pit-instructions","106","1038377","0.0-2.0-21.0-1.0","battery-v0.2","","""event"",""trial"",""time""
""fullscreenenter"",""1"",""4415""
","
","
","""event"",""trial"",""time""
""fullscreenenter"",""1"",""4415""
","
","","[{""page_index"":0,""viewing_time"":7449.699999988079}]","7450","","","","","","","","","","","","","","","","","","","","","","","",""
"pit-comprehension","107","1047449","0.0-2.0-22.0-0.0","battery-v0.2","","""event"",""trial"",""time""
""fullscreenenter"",""1"",""4415""
","
","
","""event"",""trial"",""time""
""fullscreenenter"",""1"",""4415""
","
","","","9069.90000000596","[""-10""]","1","15","20302","3268","","","","","","","","","","","","","","","","","","",""
"pit-instructions","108","1049344","0.0-2.0-22.0-1.0","battery-v0.2","","""event"",""trial"",""time""
""fullscreenenter"",""1"",""4415""
","
","
","""event"",""trial"",""time""
""fullscreenenter"",""1"",""4415""
","
","","[{""page_index"":0,""viewing_time"":1853}]","1853.199999988079","","","","","","","","","","","","","","","","","","","","","","","",""
"pit-instructions","109","1050400","0.0-2.0-22.0-2.0-0.0","battery-v0.2","","""event"",""trial"",""time""
""fullscreenenter"",""1"",""4415""
","
","
","""event"",""trial"",""time""
""fullscreenenter"",""1"",""4415""
","
","","[{""page_index"":0,""viewing_time"":1054.5}]","1054.5999999940395","","","","","","","","","","","","","","","","","","","","","","","",""
"pit-comprehension","110","1057008","0.0-2.0-22.1-0.1","battery-v0.2","","""event"",""trial"",""time""
""fullscreenenter"",""1"",""4415""
","
","
","""event"",""trial"",""time""
""fullscreenenter"",""1"",""4415""
","
","","","6606.800000011921","[""0""]","0","15","20302","3268","","","","","","","","","","","","","","","","","","",""
"pit-instructions","111","1064871","0.0-2.0-22.1-1.1","battery-v0.2","","""event"",""trial"",""time""
""fullscreenenter"",""1"",""4415""
","
","
","""event"",""trial"",""time""
""fullscreenenter"",""1"",""4415""
","
","","[{""page_index"":0,""viewing_time"":7822.9000000059605}]","7823.100000023842","","","","","","","","","","","","","","","","","","","","","","","",""
"pit-comprehension","112","1082559","0.0-2.0-23.0-0.0","battery-v0.2","","""event"",""trial"",""time""
""fullscreenenter"",""1"",""4415""
","
","
","""event"",""trial"",""time""
""fullscreenenter"",""1"",""4415""
","
","","","17686","[""False""]","1","15","20302","3268","","","","","","","","","","","","","","","","","","",""
"pit-instructions","113","1084062","0.0-2.0-23.0-1.0","battery-v0.2","","""event"",""trial"",""time""
""fullscreenenter"",""1"",""4415""
","
","
","""event"",""trial"",""time""
""fullscreenenter"",""1"",""4415""
","
","","[{""page_index"":0,""viewing_time"":1464.5999999940395}]","1464.800000011921","","","","","","","","","","","","","","","","","","","","","","","",""
"pit-instructions","114","1084678","0.0-2.0-23.0-2.0-0.0","battery-v0.2","","""event"",""trial"",""time""
""fullscreenenter"",""1"",""4415""
","
","
","""event"",""trial"",""time""
""fullscreenenter"",""1"",""4415""
","
","","[{""page_index"":0,""viewing_time"":614.5}]","614.6999999880791","","","","","","","","","","","","","","","","","","","","","","","",""
"pit-comprehension","115","1093398","0.0-2.0-23.1-0.1","battery-v0.2","","""event"",""trial"",""time""
""fullscreenenter"",""1"",""4415""
","
","
","""event"",""trial"",""time""
""fullscreenenter"",""1"",""4415""
","
","","","8718.800000011921","[""True""]","0","15","20302","3268","","","","","","","","","","","","","","","","","","",""
"pit-instructions","116","1099477","0.0-2.0-23.1-1.1","battery-v0.2","","""event"",""trial"",""time""
""fullscreenenter"",""1"",""4415""
","
","
","""event"",""trial"",""time""
""fullscreenenter"",""1"",""4415""
","
","","[{""page_index"":0,""viewing_time"":6039.9000000059605}]","6040.0999999940395","","","","","","","","","","","","","","","","","","","","","","","",""
"pit-comprehension","117","1111085","0.0-2.0-24.0-0.0","battery-v0.2","","""event"",""trial"",""time""
""fullscreenenter"",""1"",""4415""
","
","
","""event"",""trial"",""time""
""fullscreenenter"",""1"",""4415""
","
","","","11606.199999988079","[""True""]","0","15","20302","3268","","","","","","","","","","","","","","","","","","",""
"pit-instructions","118","1116612","0.0-2.0-24.0-1.0","battery-v0.2","","""event"",""trial"",""time""
""fullscreenenter"",""1"",""4415""
","
","
","""event"",""trial"",""time""
""fullscreenenter"",""1"",""4415""
","
","","[{""page_index"":0,""viewing_time"":5485.5999999940395}]","5485.799999982119","","","","","","","","","","","","","","","","","","","","","","","",""
"pit-comprehension","119","1126156","0.0-2.0-25.0-0.0","battery-v0.2","","""event"",""trial"",""time""
""fullscreenenter"",""1"",""4415""
","
","
","""event"",""trial"",""time""
""fullscreenenter"",""1"",""4415""
","
","","","9542.09999999404","[""True""]","0","15","20302","3268","","","","","","","","","","","","","","","","","","",""
"pit-instructions","120","1135539","0.0-2.0-25.0-1.0","battery-v0.2","","""event"",""trial"",""time""
""fullscreenenter"",""1"",""4415""
","
","
","""event"",""trial"",""time""
""fullscreenenter"",""1"",""4415""
","
","","[{""page_index"":0,""viewing_time"":9343.300000011921}]","9343.5","","","","","","","","","","","","","","","","","","","","","","","",""
"pit-comprehension","121","1144339","0.0-2.0-26.0-0.0","battery-v0.2","","""event"",""trial"",""time""
""fullscreenenter"",""1"",""4415""
","
","
","""event"",""trial"",""time""
""fullscreenenter"",""1"",""4415""
","
","","","8797.90000000596","[""False""]","0","15","20302","3268","","","","","","","","","","","","","","","","","","",""
"pit-instructions","122","1152938","0.0-2.0-26.0-1.0","battery-v0.2","","""event"",""trial"",""time""
""fullscreenenter"",""1"",""4415""
","
","
","""event"",""trial"",""time""
""fullscreenenter"",""1"",""4415""
","
","","[{""page_index"":0,""viewing_time"":8556.09999999404}]","8556.299999982119","","","","","","","","","","","","","","","","","","","","","","","",""
"pit-instructions","123","1198951","0.0-3.0","battery-v0.2","","""event"",""trial"",""time""
""fullscreenenter"",""1"",""4415""
","
","
","""event"",""trial"",""time""
""fullscreenenter"",""1"",""4415""
","
","","[{""page_index"":0,""viewing_time"":5982},{""page_index"":1,""viewing_time"":11136},{""page_index"":2,""viewing_time"":28896.09999999404}]","46014.30000001192","","","","","","","","","","","","","","","","","","","","","","","",""
"pit-trial","124","1203807","0.0-4.0","battery-v0.2","","""event"",""trial"",""time""
""fullscreenenter"",""1"",""4415""
","
","
","""event"",""trial"",""time""
""fullscreenenter"",""1"",""4415""
","
","","","-1","","","15","20302","3268","&#9752;","elianto","#f73b6a7A"," ","-1","0","-10","[]","0","1","","","20302","1","3","3","lose","go","0"
"pit-trial","125","1207517","0.0-5.0","battery-v0.2","","""event"",""trial"",""time""
""fullscreenenter"",""1"",""4415""
","
","
","""event"",""trial"",""time""
""fullscreenenter"",""1"",""4415""
","
","","","855.7000000178814","","","15","20302","3268","&#9733;","elianto","#3366ff99","-1"," ","0","0","[1707]","1","1","","","20302","2","2","2","win","no-go","0"
"pit-trial","126","1211410","0.0-6.0","battery-v0.2","","""event"",""trial"",""time""
""fullscreenenter"",""1"",""4415""
","
","
","""event"",""trial"",""time""
""fullscreenenter"",""1"",""4415""
","
","","","1040.4000000059605","","","15","20302","3268","&#9730;","elianto","#3366ff99"," "," ","1","+10","[1890.800000011921]","1","1","","","20302","3","1","1","win","go","0"
"pit-trial","127","1215676","0.0-7.0","battery-v0.2","","""event"",""trial"",""time""
""fullscreenenter"",""1"",""4415""
","
","
","""event"",""trial"",""time""
""fullscreenenter"",""1"",""4415""
","
","","","1411.8999999761581","","","15","20302","3268","&#9728;","elianto","#f73b6a7A","-1"," ","0","-10","[2263.5]","1","1","","","20302","4","0","4","lose","no-go","0"
"pit-trial","128","1219576","0.0-8.0","battery-v0.2","","""event"",""trial"",""time""
""fullscreenenter"",""1"",""4415""
","
","
","""event"",""trial"",""time""
""fullscreenenter"",""1"",""4415""
","
","","","1048","","","15","20302","3268","&#9730;","elianto","#3366ff99"," "," ","1","+10","[1898.800000011921]","1","1","","","20302","5","1","1","win","go","0"
"pit-trial","129","1223300","0.0-9.0","battery-v0.2","","""event"",""trial"",""time""
""fullscreenenter"",""1"",""4415""
","
","
","""event"",""trial"",""time""
""fullscreenenter"",""1"",""4415""
","
","","","870.0999999940395","","","15","20302","3268","&#9752;","elianto","#f73b6a7A"," "," ","1","0","[1721]","1","1","","","20302","6","3","3","lose","go","0"
"pit-trial","130","1228152","0.0-10.0","battery-v0.2","","""event"",""trial"",""time""
""fullscreenenter"",""1"",""4415""
","
","
","""event"",""trial"",""time""
""fullscreenenter"",""1"",""4415""
","
","","","-1","","","15","20302","3268","&#9728;","elianto","#f73b6a7A","-1","-1","1","0","[]","0","1","","","20302","7","0","4","lose","no-go","0"
"pit-trial","131","1231713","0.0-11.0","battery-v0.2","","""event"",""trial"",""time""
""fullscreenenter"",""1"",""4415""
","
","
","""event"",""trial"",""time""
""fullscreenenter"",""1"",""4415""
","
","","","707.0999999940395","","","15","20302","3268","&#9733;","elianto","#3366ff99","-1"," ","0","0","[1558.0999999940395]","1","1","","","20302","8","2","2","win","no-go","0"
"pit-trial","132","1234907","0.0-12.0","battery-v0.2","","""event"",""trial"",""time""
""fullscreenenter"",""1"",""4415""
","
","
","""event"",""trial"",""time""
""fullscreenenter"",""1"",""4415""
","
","","","341","","","15","20302","3268","&#9730;","elianto","#3366ff99"," "," ","1","0","[1192]","1","1","","","20302","9","1","1","win","go","1"
"pit-trial","133","1238688","0.0-13.0","battery-v0.2","","""event"",""trial"",""time""
""fullscreenenter"",""1"",""4415""
","
","
","""event"",""trial"",""time""
""fullscreenenter"",""1"",""4415""
","
","","","926.7999999821186","","","15","20302","3268","&#9728;","elianto","#f73b6a7A","-1"," ","0","-10","[1778.4000000059605]","1","1","","","20302","10","0","4","lose","no-go","0"
"pit-trial","134","1242531","0.0-14.0","battery-v0.2","","""event"",""trial"",""time""
""fullscreenenter"",""1"",""4415""
","
","
","""event"",""trial"",""time""
""fullscreenenter"",""1"",""4415""
","
","","","990.4000000059605","","","15","20302","3268","&#9733;","elianto","#3366ff99","-1"," ","0","0","[1840.5]","1","1","","","20302","11","2","2","win","no-go","0"
"pit-trial","135","1247383","0.0-15.0","battery-v0.2","","""event"",""trial"",""time""
""fullscreenenter"",""1"",""4415""
","
","
","""event"",""trial"",""time""
""fullscreenenter"",""1"",""4415""
","
","","","-1","","","15","20302","3268","&#9752;","elianto","#f73b6a7A"," ","-1","0","0","[4386.299999982119]","1","1","","","20302","12","3","3","lose","go","1"
"pit-trial","136","1250817","0.0-16.0","battery-v0.2","","""event"",""trial"",""time""
""fullscreenenter"",""1"",""4415""
","
","
","""event"",""trial"",""time""
""fullscreenenter"",""1"",""4415""
","
","","","580.7000000178814","","","15","20302","3268","&#9730;","elianto","#3366ff99"," "," ","1","+10","[1432]","1","1","","","20302","13","1","1","win","go","0"
"pit-trial","137","1254255","0.0-17.0","battery-v0.2","","""event"",""trial"",""time""
""fullscreenenter"",""1"",""4415""
","
","
","""event"",""trial"",""time""
""fullscreenenter"",""1"",""4415""
","
","","","584.3000000119209","","","15","20302","3268","&#9733;","elianto","#3366ff99","-1"," ","0","0","[1434.7000000178814]","1","1","","","20302","14","2","2","win","no-go","0"
"pit-trial","138","1258210","0.0-18.0","battery-v0.2","","""event"",""trial"",""time""
""fullscreenenter"",""1"",""4415""
","
","
","""event"",""trial"",""time""
""fullscreenenter"",""1"",""4415""
","
","","","1100.699999988079","","","15","20302","3268","&#9752;","elianto","#f73b6a7A"," "," ","1","0","[1951.9000000059605]","1","1","","","20302","15","3","3","lose","go","0"
"pit-trial","139","1263064","0.0-19.0","battery-v0.2","","""event"",""trial"",""time""
""fullscreenenter"",""1"",""4415""
","
","
","""event"",""trial"",""time""
""fullscreenenter"",""1"",""4415""
","
","","","-1","","","15","20302","3268","&#9728;","elianto","#f73b6a7A","-1","-1","1","0","[]","0","1","","","20302","16","0","4","lose","no-go","0"
"pit-trial","140","1267102","0.0-20.0","battery-v0.2","","""event"",""trial"",""time""
""fullscreenenter"",""1"",""4415""
","
","
","""event"",""trial"",""time""
""fullscreenenter"",""1"",""4415""
","
","","","1184.4000000059605","","","15","20302","3268","&#9752;","elianto","#f73b6a7A"," "," ","1","0","[2035.5]","1","1","","","20302","17","3","3","lose","go","0"
"pit-trial","141","1270489","0.0-21.0","battery-v0.2","","""event"",""trial"",""time""
""fullscreenenter"",""1"",""4415""
","
","
","""event"",""trial"",""time""
""fullscreenenter"",""1"",""4415""
","
","","","533.1999999880791","","","15","20302","3268","&#9730;","elianto","#3366ff99"," "," ","1","+10","[1384.699999988079]","1","1","","","20302","18","1","1","win","go","0"
"pit-trial","142","1274278","0.0-22.0","battery-v0.2","","""event"",""trial"",""time""
""fullscreenenter"",""1"",""4415""
","
","
","""event"",""trial"",""time""
""fullscreenenter"",""1"",""4415""
","
","","","935.2999999821186","","","15","20302","3268","&#9728;","elianto","#f73b6a7A","-1"," ","0","-10","[1786.5999999940395]","1","1","","","20302","19","0","4","lose","no-go","0"
"pit-trial","143","1278287","0.0-23.0","battery-v0.2","","""event"",""trial"",""time""
""fullscreenenter"",""1"",""4415""
","
","
","""event"",""trial"",""time""
""fullscreenenter"",""1"",""4415""
","
","","","1156.1000000238419","","","15","20302","3268","&#9733;","elianto","#3366ff99","-1"," ","0","0","[2008.2000000178814]","1","1","","","20302","20","2","2","win","no-go","0"
"pit-instructions","144","1413962","0.0-24.0","battery-v0.2","","""event"",""trial"",""time""
""fullscreenenter"",""1"",""4415""
","
","
","""event"",""trial"",""time""
""fullscreenenter"",""1"",""4415""
","
","","[{""page_index"":0,""viewing_time"":23258},{""page_index"":1,""viewing_time"":112424.09999999404}]","135682.40000000596","","","","","","","","","","","","","","","","","","","","","","","",""
"pit-trial","145","1418036","0.0-25.0","battery-v0.2","","""event"",""trial"",""time""
""fullscreenenter"",""1"",""4415""
","
","
","""event"",""trial"",""time""
""fullscreenenter"",""1"",""4415""
","
","","","1221.0999999940395","","","15","20302","3268","y","elianto","#f73b6a7A","-1"," ","0","0","[2071.9000000059605]","1","2","","","20302","21","2","4","lose","no-go","1"
"pit-trial","146","1421680","0.0-26.0","battery-v0.2","","""event"",""trial"",""time""
""fullscreenenter"",""1"",""4415""
","
","
","""event"",""trial"",""time""
""fullscreenenter"",""1"",""4415""
","
","","","790.5999999940395","","","15","20302","3268","r","elianto","#3366ff99"," "," ","1","+10","[1641]","1","2","","","20302","22","1","1","win","go","0"
"pit-trial","147","1426534","0.0-27.0","battery-v0.2","","""event"",""trial"",""time""
""fullscreenenter"",""1"",""4415""
","
","
","""event"",""trial"",""time""
""fullscreenenter"",""1"",""4415""
","
","","","-1","","","15","20302","3268","h","elianto","#f73b6a7A"," ","-1","0","0","[]","0","2","","","20302","23","3","3","lose","go","1"
"pit-trial","148","1430980","0.0-28.0","battery-v0.2","","""event"",""trial"",""time""
""fullscreenenter"",""1"",""4415""
","
","
","""event"",""trial"",""time""
""fullscreenenter"",""1"",""4415""
","
","","","1593.9000000059605","","","15","20302","3268","m","elianto","#f73b6a7A","-1"," ","0","-10","[2444.4000000059605]","1","2","","","20302","24","0","4","lose","no-go","0"
"pit-trial","149","1434407","0.0-29.0","battery-v0.2","","""event"",""trial"",""time""
""fullscreenenter"",""1"",""4415""
","
","
","""event"",""trial"",""time""
""fullscreenenter"",""1"",""4415""
","
","","","573","","","15","20302","3268","r","elianto","#3366ff99"," "," ","1","+10","[1424.7000000178814]","1","2","","","20302","25","1","1","win","go","0"
"pit-trial","150","1439260","0.0-30.0","battery-v0.2","","""event"",""trial"",""time""
""fullscreenenter"",""1"",""4415""
","
","
","""event"",""trial"",""time""
""fullscreenenter"",""1"",""4415""
","
","","","-1","","","15","20302","3268","h","elianto","#f73b6a7A"," ","-1","0","-10","[3234.5999999940395]","1","2","","","20302","26","3","3","lose","go","0"
"pit-trial","151","1443695","0.0-31.0","battery-v0.2","","""event"",""trial"",""time""
""fullscreenenter"",""1"",""4415""
","
","
","""event"",""trial"",""time""
""fullscreenenter"",""1"",""4415""
","
","","","1580.5999999940395","","","15","20302","3268","m","elianto","#f73b6a7A","-1"," ","0","-10","[2431.5999999940395]","1","2","","","20302","27","0","4","lose","no-go","0"
"pit-trial","152","1446770","0.0-32.0","battery-v0.2","","""event"",""trial"",""time""
""fullscreenenter"",""1"",""4415""
","
","
","""event"",""trial"",""time""
""fullscreenenter"",""1"",""4415""
","
","","","223.5","","","15","20302","3268","y","elianto","#f73b6a7A","-1"," ","0","-10","[1073.9000000059605]","1","2","","","20302","28","2","4","lose","no-go","0"
"pit-trial","153","1451149","0.0-33.0","battery-v0.2","","""event"",""trial"",""time""
""fullscreenenter"",""1"",""4415""
","
","
","""event"",""trial"",""time""
""fullscreenenter"",""1"",""4415""
","
","","","1525.9000000059605","","","15","20302","3268","m","elianto","#f73b6a7A","-1"," ","0","-10","[2377]","1","2","","","20302","29","0","4","lose","no-go","0"
"pit-trial","154","1454594","0.0-34.0","battery-v0.2","","""event"",""trial"",""time""
""fullscreenenter"",""1"",""4415""
","
","
","""event"",""trial"",""time""
""fullscreenenter"",""1"",""4415""
","
","","","591.7000000178814","","","15","20302","3268","r","elianto","#3366ff99"," "," ","1","+10","[1443.3999999761581]","1","2","","","20302","30","1","1","win","go","0"
"pit-trial","155","1458765","0.0-35.0","battery-v0.2","","""event"",""trial"",""time""
""fullscreenenter"",""1"",""4415""
","
","
","""event"",""trial"",""time""
""fullscreenenter"",""1"",""4415""
","
","","","1318.0999999940395","","","15","20302","3268","y","elianto","#f73b6a7A","-1"," ","0","-10","[2168.7000000178814]","1","2","","","20302","31","2","4","lose","no-go","0"
"pit-trial","156","1461955","0.0-36.0","battery-v0.2","","""event"",""trial"",""time""
""fullscreenenter"",""1"",""4415""
","
","
","""event"",""trial"",""time""
""fullscreenenter"",""1"",""4415""
","
","","","335.5","","","15","20302","3268","h","elianto","#f73b6a7A"," "," ","1","0","[1186.9000000059605]","1","2","","","20302","32","3","3","lose","go","0"
"pit-trial","157","1465380","0.0-37.0","battery-v0.2","","""event"",""trial"",""time""
""fullscreenenter"",""1"",""4415""
","
","
","""event"",""trial"",""time""
""fullscreenenter"",""1"",""4415""
","
","","","573.3000000119209","","","15","20302","3268","h","elianto","#f73b6a7A"," "," ","1","0","[1424]","1","2","","","20302","33","3","3","lose","go","0"
"pit-trial","158","1469521","0.0-38.0","battery-v0.2","","""event"",""trial"",""time""
""fullscreenenter"",""1"",""4415""
","
","
","""event"",""trial"",""time""
""fullscreenenter"",""1"",""4415""
","
","","","1288.5999999940395","","","15","20302","3268","m","elianto","#f73b6a7A","-1"," ","0","-10","[2139.699999988079]","1","2","","","20302","34","0","4","lose","no-go","0"
"pit-trial","159","1472733","0.0-39.0","battery-v0.2","","""event"",""trial"",""time""
""fullscreenenter"",""1"",""4415""
","
","
","""event"",""trial"",""time""
""fullscreenenter"",""1"",""4415""
","
","","","358.80000001192093","","","15","20302","3268","r","elianto","#3366ff99"," "," ","1","+10","[1209.300000011921]","1","2","","","20302","35","1","1","win","go","0"
"pit-trial","160","1476474","0.0-40.0","battery-v0.2","","""event"",""trial"",""time""
""fullscreenenter"",""1"",""4415""
","
","
","""event"",""trial"",""time""
""fullscreenenter"",""1"",""4415""
","
","","","887.1000000238419","","","15","20302","3268","y","elianto","#f73b6a7A","-1"," ","0","-10","[1738.800000011921]","1","2","","","20302","36","2","4","lose","no-go","0"
"pit-trial","161","1479557","0.0-41.0","battery-v0.2","","""event"",""trial"",""time""
""fullscreenenter"",""1"",""4415""
","
","
","""event"",""trial"",""time""
""fullscreenenter"",""1"",""4415""
","
","","","228.39999997615814","","","15","20302","3268","h","elianto","#f73b6a7A"," "," ","1","-10","[1079.699999988079]","1","2","","","20302","37","3","3","lose","go","1"
"pit-trial","162","1483130","0.0-42.0","battery-v0.2","","""event"",""trial"",""time""
""fullscreenenter"",""1"",""4415""
","
","
","""event"",""trial"",""time""
""fullscreenenter"",""1"",""4415""
","
","","","718.7999999821186","","","15","20302","3268","y","elianto","#f73b6a7A","-1"," ","0","0","[1570.0999999940395]","1","2","","","20302","38","2","4","lose","no-go","1"
"pit-trial","163","1486372","0.0-43.0","battery-v0.2","","""event"",""trial"",""time""
""fullscreenenter"",""1"",""4415""
","
","
","""event"",""trial"",""time""
""fullscreenenter"",""1"",""4415""
","
","","","388.60000002384186","","","15","20302","3268","r","elianto","#3366ff99"," "," ","1","0","[1239.7000000178814]","1","2","","","20302","39","1","1","win","go","1"
"pit-trial","164","1489355","0.0-44.0","battery-v0.2","","""event"",""trial"",""time""
""fullscreenenter"",""1"",""4415""
","
","
","""event"",""trial"",""time""
""fullscreenenter"",""1"",""4415""
","
","","","130.59999999403954","","","15","20302","3268","m","elianto","#f73b6a7A","-1"," ","0","-10","[981.5999999940395]","1","2","","","20302","40","0","4","lose","no-go","0"
"pit-trial","165","1493587","0.0-45.0","battery-v0.2","","""event"",""trial"",""time""
""fullscreenenter"",""1"",""4415""
","
","
","""event"",""trial"",""time""
""fullscreenenter"",""1"",""4415""
","
","","","1377.5","","","15","20302","3268","y","elianto","#f73b6a7A","-1"," ","0","-10","[2229.2000000178814]","1","2","","","20302","41","2","4","lose","no-go","0"
"pit-trial","166","1497472","0.0-46.0","battery-v0.2","","""event"",""trial"",""time""
""fullscreenenter"",""1"",""4415""
","
","
","""event"",""trial"",""time""
""fullscreenenter"",""1"",""4415""
","
","","","1032","","","15","20302","3268","m","elianto","#f73b6a7A","-1"," ","0","-10","[1883.0999999940395]","1","2","","","20302","42","0","4","lose","no-go","0"
"pit-trial","167","1501098","0.0-47.0","battery-v0.2","","""event"",""trial"",""time""
""fullscreenenter"",""1"",""4415""
","
","
","""event"",""trial"",""time""
""fullscreenenter"",""1"",""4415""
","
","","","773.3999999761581","","","15","20302","3268","r","elianto","#3366ff99"," "," ","1","+10","[1623.8999999761581]","1","2","","","20302","43","1","1","win","go","0"
"pit-trial","168","1505953","0.0-48.0","battery-v0.2","","""event"",""trial"",""time""
""fullscreenenter"",""1"",""4415""
","
","
","""event"",""trial"",""time""
""fullscreenenter"",""1"",""4415""
","
","","","-1","","","15","20302","3268","h","elianto","#f73b6a7A"," ","-1","0","-10","[]","0","2","","","20302","44","3","3","lose","go","0"
"pit-trial","169","1510808","0.0-49.0","battery-v0.2","","""event"",""trial"",""time""
""fullscreenenter"",""1"",""4415""
","
","
","""event"",""trial"",""time""
""fullscreenenter"",""1"",""4415""
","
","","","-1","","","15","20302","3268","y","elianto","#f73b6a7A","-1","-1","1","0","[]","0","2","","","20302","45","2","4","lose","no-go","0"
"pit-trial","170","1513991","0.0-50.0","battery-v0.2","","""event"",""trial"",""time""
""fullscreenenter"",""1"",""4415""
","
","
","""event"",""trial"",""time""
""fullscreenenter"",""1"",""4415""
","
","","","330.2999999821186","","","15","20302","3268","m","elianto","#f73b6a7A","-1"," ","0","-10","[1182]","1","2","","","20302","46","0","4","lose","no-go","0"
"pit-trial","171","1517667","0.0-51.0","battery-v0.2","","""event"",""trial"",""time""
""fullscreenenter"",""1"",""4415""
","
","
","""event"",""trial"",""time""
""fullscreenenter"",""1"",""4415""
","
","","","821.1999999880791","","","15","20302","3268","h","elianto","#f73b6a7A"," "," ","1","0","[1672.4000000059605]","1","2","","","20302","47","3","3","lose","go","0"
"pit-trial","172","1521631","0.0-52.0","battery-v0.2","","""event"",""trial"",""time""
""fullscreenenter"",""1"",""4415""
","
","
","""event"",""trial"",""time""
""fullscreenenter"",""1"",""4415""
","
","","","1111","","","15","20302","3268","z","elianto","#3366ff99","-1"," ","0","+10","[1961.699999988079]","1","2","","","20302","48","4","2","win","no-go","1"
"pit-trial","173","1525482","0.0-53.0","battery-v0.2","","""event"",""trial"",""time""
""fullscreenenter"",""1"",""4415""
","
","
","""event"",""trial"",""time""
""fullscreenenter"",""1"",""4415""
","
","","","997.8999999761581","","","15","20302","3268","z","elianto","#3366ff99","-1"," ","0","0","[1848.2999999821186]","1","2","","","20302","49","4","2","win","no-go","0"
"pit-trial","174","1528583","0.0-54.0","battery-v0.2","","""event"",""trial"",""time""
""fullscreenenter"",""1"",""4415""
","
","
","""event"",""trial"",""time""
""fullscreenenter"",""1"",""4415""
","
","","","247.69999998807907","","","15","20302","3268","r","elianto","#3366ff99"," "," ","1","+10","[1098.2999999821186]","1","2","","","20302","50","1","1","win","go","0"
"pit-trial","175","1531809","0.0-55.0","battery-v0.2","","""event"",""trial"",""time""
""fullscreenenter"",""1"",""4415""
","
","
","""event"",""trial"",""time""
""fullscreenenter"",""1"",""4415""
","
","","","373","","","15","20302","3268","h","elianto","#f73b6a7A"," "," ","1","0","[1223.300000011921]","1","2","","","20302","51","3","3","lose","go","0"
"pit-trial","176","1535646","0.0-56.0","battery-v0.2","","""event"",""trial"",""time""
""fullscreenenter"",""1"",""4415""
","
","
","""event"",""trial"",""time""
""fullscreenenter"",""1"",""4415""
","
","","","983.5","","","15","20302","3268","m","elianto","#f73b6a7A","-1"," ","0","-10","[1834.4000000059605]","1","2","","","20302","52","0","4","lose","no-go","0"
"pit-trial","177","1539264","0.0-57.0","battery-v0.2","","""event"",""trial"",""time""
""fullscreenenter"",""1"",""4415""
","
","
","""event"",""trial"",""time""
""fullscreenenter"",""1"",""4415""
","
","","","765","","","15","20302","3268","z","elianto","#3366ff99","-1"," ","0","0","[1615.800000011921]","1","2","","","20302","53","4","2","win","no-go","0"
"pit-trial","178","1542702","0.0-58.0","battery-v0.2","","""event"",""trial"",""time""
""fullscreenenter"",""1"",""4415""
","
","
","""event"",""trial"",""time""
""fullscreenenter"",""1"",""4415""
","
","","","584.9000000059605","","","15","20302","3268","r","elianto","#3366ff99"," "," ","1","+10","[1435.7000000178814]","1","2","","","20302","54","1","1","win","go","0"
"pit-trial","179","1547556","0.0-59.0","battery-v0.2","","""event"",""trial"",""time""
""fullscreenenter"",""1"",""4415""
","
","
","""event"",""trial"",""time""
""fullscreenenter"",""1"",""4415""
","
","","","-1","","","15","20302","3268","y","elianto","#f73b6a7A","-1","-1","1","-10","[]","0","2","","","20302","55","2","4","lose","no-go","1"
"pit-trial","180","1552410","0.0-60.0","battery-v0.2","","""event"",""trial"",""time""
""fullscreenenter"",""1"",""4415""
","
","
","""event"",""trial"",""time""
""fullscreenenter"",""1"",""4415""
","
","","","-1","","","15","20302","3268","m","elianto","#f73b6a7A","-1","-1","1","0","[]","0","2","","","20302","56","0","4","lose","no-go","0"
"pit-trial","181","1555920","0.0-61.0","battery-v0.2","","""event"",""trial"",""time""
""fullscreenenter"",""1"",""4415""
","
","
","""event"",""trial"",""time""
""fullscreenenter"",""1"",""4415""
","
","","","657.6000000238419","","","15","20302","3268","r","elianto","#3366ff99"," "," ","1","+10","[1507.800000011921]","1","2","","","20302","57","1","1","win","go","0"
"pit-trial","182","1559644","0.0-62.0","battery-v0.2","","""event"",""trial"",""time""
""fullscreenenter"",""1"",""4415""
","
","
","""event"",""trial"",""time""
""fullscreenenter"",""1"",""4415""
","
","","","870.7000000178814","","","15","20302","3268","h","elianto","#f73b6a7A"," "," ","1","0","[1721.5999999940395]","1","2","","","20302","58","3","3","lose","go","0"
"pit-trial","183","1564498","0.0-63.0","battery-v0.2","","""event"",""trial"",""time""
""fullscreenenter"",""1"",""4415""
","
","
","""event"",""trial"",""time""
""fullscreenenter"",""1"",""4415""
","
","","","-1","","","15","20302","3268","m","elianto","#f73b6a7A","-1","-1","1","0","[]","0","2","","","20302","59","0","4","lose","no-go","0"
"pit-trial","184","1567967","0.0-64.0","battery-v0.2","","""event"",""trial"",""time""
""fullscreenenter"",""1"",""4415""
","
","
","""event"",""trial"",""time""
""fullscreenenter"",""1"",""4415""
","
","","","616.4000000059605","","","15","20302","3268","z","elianto","#3366ff99","-1"," ","0","0","[1467]","1","2","","","20302","60","4","2","win","no-go","0"
"pit-trial","185","1572820","0.0-65.0","battery-v0.2","","""event"",""trial"",""time""
""fullscreenenter"",""1"",""4415""
","
","
","""event"",""trial"",""time""
""fullscreenenter"",""1"",""4415""
","
","","","-1","","","15","20302","3268","h","elianto","#f73b6a7A"," ","-1","0","-10","[2994]","1","2","","","20302","61","3","3","lose","go","0"
"pit-trial","186","1576102","0.0-66.0","battery-v0.2","","""event"",""trial"",""time""
""fullscreenenter"",""1"",""4415""
","
","
","""event"",""trial"",""time""
""fullscreenenter"",""1"",""4415""
","
","","","429.59999999403954","","","15","20302","3268","z","elianto","#3366ff99","-1"," ","0","0","[1279.800000011921]","1","2","","","20302","62","4","2","win","no-go","0"
"pit-trial","187","1580954","0.0-67.0","battery-v0.2","","""event"",""trial"",""time""
""fullscreenenter"",""1"",""4415""
","
","
","""event"",""trial"",""time""
""fullscreenenter"",""1"",""4415""
","
","","","-1","","","15","20302","3268","y","elianto","#f73b6a7A","-1","-1","1","-10","[]","0","2","","","20302","63","2","4","lose","no-go","1"
"pit-trial","188","1584156","0.0-68.0","battery-v0.2","","""event"",""trial"",""time""
""fullscreenenter"",""1"",""4415""
","
","
","""event"",""trial"",""time""
""fullscreenenter"",""1"",""4415""
","
","","","348.2000000178814","","","15","20302","3268","r","elianto","#3366ff99"," "," ","1","+10","[1198.6000000238419]","1","2","","","20302","64","1","1","win","go","0"
"pit-trial","189","1589010","0.0-69.0","battery-v0.2","","""event"",""trial"",""time""
""fullscreenenter"",""1"",""4415""
","
","
","""event"",""trial"",""time""
""fullscreenenter"",""1"",""4415""
","
","","","-1","","","15","20302","3268","y","elianto","#f73b6a7A","-1","-1","1","0","[]","0","2","","","20302","65","2","4","lose","no-go","0"
"pit-trial","190","1593864","0.0-70.0","battery-v0.2","","""event"",""trial"",""time""
""fullscreenenter"",""1"",""4415""
","
","
","""event"",""trial"",""time""
""fullscreenenter"",""1"",""4415""
","
","","","-1","","","15","20302","3268","h","elianto","#f73b6a7A"," ","-1","0","-10","[]","0","2","","","20302","66","3","3","lose","go","0"
"pit-trial","191","1597581","0.0-71.0","battery-v0.2","","""event"",""trial"",""time""
""fullscreenenter"",""1"",""4415""
","
","
","""event"",""trial"",""time""
""fullscreenenter"",""1"",""4415""
","
","","","863.5","","","15","20302","3268","r","elianto","#3366ff99"," "," ","1","+10","[1714.2999999821186]","1","2","","","20302","67","1","1","win","go","0"
"pit-trial","192","1601242","0.0-72.0","battery-v0.2","","""event"",""trial"",""time""
""fullscreenenter"",""1"",""4415""
","
","
","""event"",""trial"",""time""
""fullscreenenter"",""1"",""4415""
","
","","","807.2999999821186","","","15","20302","3268","z","elianto","#3366ff99","-1"," ","0","0","[1658.699999988079]","1","2","","","20302","68","4","2","win","no-go","0"
"pit-trial","193","1604685","0.0-73.0","battery-v0.2","","""event"",""trial"",""time""
""fullscreenenter"",""1"",""4415""
","
","
","""event"",""trial"",""time""
""fullscreenenter"",""1"",""4415""
","
","","","589.6000000238419","","","15","20302","3268","r","elianto","#3366ff99"," "," ","1","+10","[1439.9000000059605]","1","2","","","20302","69","1","1","win","go","0"
"pit-trial","194","1608266","0.0-74.0","battery-v0.2","","""event"",""trial"",""time""
""fullscreenenter"",""1"",""4415""
","
","
","""event"",""trial"",""time""
""fullscreenenter"",""1"",""4415""
","
","","","727.5999999940395","","","15","20302","3268","c","elianto","#3366ff99"," "," ","1","+10","[1578.699999988079]","1","2","","","20302","70","5","1","win","go","0"
"pit-trial","195","1612108","0.0-75.0","battery-v0.2","","""event"",""trial"",""time""
""fullscreenenter"",""1"",""4415""
","
","
","""event"",""trial"",""time""
""fullscreenenter"",""1"",""4415""
","
","","","988.5","","","15","20302","3268","z","elianto","#3366ff99","-1"," ","0","0","[1839.2999999821186]","1","2","","","20302","71","4","2","win","no-go","0"
"pit-trial","196","1615945","0.0-76.0","battery-v0.2","","""event"",""trial"",""time""
""fullscreenenter"",""1"",""4415""
","
","
","""event"",""trial"",""time""
""fullscreenenter"",""1"",""4415""
","
","","","983.9000000059605","","","15","20302","3268","h","elianto","#f73b6a7A"," "," ","1","0","[1834.7000000178814]","1","2","","","20302","72","3","3","lose","go","0"
"pit-trial","197","1619300","0.0-77.0","battery-v0.2","","""event"",""trial"",""time""
""fullscreenenter"",""1"",""4415""
","
","
","""event"",""trial"",""time""
""fullscreenenter"",""1"",""4415""
","
","","","500.90000000596046","","","15","20302","3268","r","elianto","#3366ff99"," "," ","1","+10","[1352.5]","1","2","","","20302","73","1","1","win","go","0"
"pit-trial","198","1624152","0.0-78.0","battery-v0.2","","""event"",""trial"",""time""
""fullscreenenter"",""1"",""4415""
","
","
","""event"",""trial"",""time""
""fullscreenenter"",""1"",""4415""
","
","","","-1","","","15","20302","3268","h","elianto","#f73b6a7A"," ","-1","0","0","[]","0","2","","","20302","74","3","3","lose","go","1"
"pit-trial","199","1627665","0.0-79.0","battery-v0.2","","""event"",""trial"",""time""
""fullscreenenter"",""1"",""4415""
","
","
","""event"",""trial"",""time""
""fullscreenenter"",""1"",""4415""
","
","","","660","","","15","20302","3268","z","elianto","#3366ff99","-1"," ","0","0","[1510.300000011921]","1","2","","","20302","75","4","2","win","no-go","0"
"pit-trial","200","1631043","0.0-80.0","battery-v0.2","","""event"",""trial"",""time""
""fullscreenenter"",""1"",""4415""
","
","
","""event"",""trial"",""time""
""fullscreenenter"",""1"",""4415""
","
","","","524.2000000178814","","","15","20302","3268","c","elianto","#3366ff99"," "," ","1","+10","[1375.9000000059605]","1","2","","","20302","76","5","1","win","go","0"
"pit-trial","201","1634440","0.0-81.0","battery-v0.2","","""event"",""trial"",""time""
""fullscreenenter"",""1"",""4415""
","
","
","""event"",""trial"",""time""
""fullscreenenter"",""1"",""4415""
","
","","","544.2999999821186","","","15","20302","3268","c","elianto","#3366ff99"," "," ","1","0","[1395.199999988079]","1","2","","","20302","77","5","1","win","go","1"
"pit-trial","202","1638931","0.0-82.0","battery-v0.2","","""event"",""trial"",""time""
""fullscreenenter"",""1"",""4415""
","
","
","""event"",""trial"",""time""
""fullscreenenter"",""1"",""4415""
","
","","","1636.6000000238419","","","15","20302","3268","h","elianto","#f73b6a7A"," "," ","1","0","[2487.7000000178814]","1","2","","","20302","78","3","3","lose","go","0"
"pit-trial","203","1643785","0.0-83.0","battery-v0.2","","""event"",""trial"",""time""
""fullscreenenter"",""1"",""4415""
","
","
","""event"",""trial"",""time""
""fullscreenenter"",""1"",""4415""
","
","","","-1","","","15","20302","3268","b","elianto","#f73b6a7A","-1","-1","1","0","[]","0","2","","","20302","79","6","4","lose","no-go","0"
"pit-trial","204","1647895","0.0-84.0","battery-v0.2","","""event"",""trial"",""time""
""fullscreenenter"",""1"",""4415""
","
","
","""event"",""trial"",""time""
""fullscreenenter"",""1"",""4415""
","
","","","1256.1000000238419","","","15","20302","3268","z","elianto","#3366ff99","-1"," ","0","0","[2107.2999999821186]","1","2","","","20302","80","4","2","win","no-go","0"
"pit-trial","205","1652749","0.0-85.0","battery-v0.2","","""event"",""trial"",""time""
""fullscreenenter"",""1"",""4415""
","
","
","""event"",""trial"",""time""
""fullscreenenter"",""1"",""4415""
","
","","","-1","","","15","20302","3268","c","elianto","#3366ff99"," ","-1","0","+10","[2968.5999999940395]","1","2","","","20302","81","5","1","win","go","1"
"pit-trial","206","1657135","0.0-86.0","battery-v0.2","","""event"",""trial"",""time""
""fullscreenenter"",""1"",""4415""
","
","
","""event"",""trial"",""time""
""fullscreenenter"",""1"",""4415""
","
","","","1532.7000000178814","","","15","20302","3268","t","elianto","#f73b6a7A"," "," ","1","0","[2383.7000000178814]","1","2","","","20302","82","7","3","lose","go","0"
"pit-trial","207","1660457","0.0-87.0","battery-v0.2","","""event"",""trial"",""time""
""fullscreenenter"",""1"",""4415""
","
","
","""event"",""trial"",""time""
""fullscreenenter"",""1"",""4415""
","
","","","469.19999998807907","","","15","20302","3268","z","elianto","#3366ff99","-1"," ","0","+10","[1319.5999999940395]","1","2","","","20302","83","4","2","win","no-go","1"
"pit-trial","208","1665311","0.0-88.0","battery-v0.2","","""event"",""trial"",""time""
""fullscreenenter"",""1"",""4415""
","
","
","""event"",""trial"",""time""
""fullscreenenter"",""1"",""4415""
","
","","","-1","","","15","20302","3268","b","elianto","#f73b6a7A","-1","-1","1","-10","[]","0","2","","","20302","84","6","4","lose","no-go","1"
"pit-trial","209","1668678","0.0-89.0","battery-v0.2","","""event"",""trial"",""time""
""fullscreenenter"",""1"",""4415""
","
","
","""event"",""trial"",""time""
""fullscreenenter"",""1"",""4415""
","
","","","514.0999999940395","","","15","20302","3268","c","elianto","#3366ff99"," "," ","1","+10","[1364.699999988079]","1","2","","","20302","85","5","1","win","go","0"
"pit-trial","210","1672705","0.0-90.0","battery-v0.2","","""event"",""trial"",""time""
""fullscreenenter"",""1"",""4415""
","
","
","""event"",""trial"",""time""
""fullscreenenter"",""1"",""4415""
","
","","","1173.5","","","15","20302","3268","z","elianto","#3366ff99","-1"," ","0","0","[2024.300000011921]","1","2","","","20302","86","4","2","win","no-go","0"
"pit-trial","211","1676749","0.0-91.0","battery-v0.2","","""event"",""trial"",""time""
""fullscreenenter"",""1"",""4415""
","
","
","""event"",""trial"",""time""
""fullscreenenter"",""1"",""4415""
","
","","","1191.4000000059605","","","15","20302","3268","t","elianto","#f73b6a7A"," "," ","1","0","[2042.199999988079]","1","2","","","20302","87","7","3","lose","go","0"
"pit-trial","212","1680825","0.0-92.0","battery-v0.2","","""event"",""trial"",""time""
""fullscreenenter"",""1"",""4415""
","
","
","""event"",""trial"",""time""
""fullscreenenter"",""1"",""4415""
","
","","","1222","","","15","20302","3268","b","elianto","#f73b6a7A","-1"," ","0","-10","[2073.0999999940395]","1","2","","","20302","88","6","4","lose","no-go","0"
"pit-trial","213","1685678","0.0-93.0","battery-v0.2","","""event"",""trial"",""time""
""fullscreenenter"",""1"",""4415""
","
","
","""event"",""trial"",""time""
""fullscreenenter"",""1"",""4415""
","
","","","-1","","","15","20302","3268","b","elianto","#f73b6a7A","-1","-1","1","0","[]","0","2","","","20302","89","6","4","lose","no-go","0"
"pit-trial","214","1689845","0.0-94.0","battery-v0.2","","""event"",""trial"",""time""
""fullscreenenter"",""1"",""4415""
","
","
","""event"",""trial"",""time""
""fullscreenenter"",""1"",""4415""
","
","","","1312.9000000059605","","","15","20302","3268","z","elianto","#3366ff99","-1"," ","0","+10","[2164.5]","1","2","","","20302","90","4","2","win","no-go","1"
"pit-trial","215","1694344","0.0-95.0","battery-v0.2","","""event"",""trial"",""time""
""fullscreenenter"",""1"",""4415""
","
","
","""event"",""trial"",""time""
""fullscreenenter"",""1"",""4415""
","
","","","1645.199999988079","","","15","20302","3268","c","elianto","#3366ff99"," "," ","1","+10","[2496.399999976158]","1","2","","","20302","91","5","1","win","go","0"
"pit-trial","216","1699197","0.0-96.0","battery-v0.2","","""event"",""trial"",""time""
""fullscreenenter"",""1"",""4415""
","
","
","""event"",""trial"",""time""
""fullscreenenter"",""1"",""4415""
","
","","","-1","","","15","20302","3268","t","elianto","#f73b6a7A"," ","-1","0","-10","[]","0","2","","","20302","92","7","3","lose","go","0"
"pit-trial","217","1702595","0.0-97.0","battery-v0.2","","""event"",""trial"",""time""
""fullscreenenter"",""1"",""4415""
","
","
","""event"",""trial"",""time""
""fullscreenenter"",""1"",""4415""
","
","","","546.1000000238419","","","15","20302","3268","c","elianto","#3366ff99"," "," ","1","+10","[1396.300000011921]","1","2","","","20302","93","5","1","win","go","0"
"pit-trial","218","1707447","0.0-98.0","battery-v0.2","","""event"",""trial"",""time""
""fullscreenenter"",""1"",""4415""
","
","
","""event"",""trial"",""time""
""fullscreenenter"",""1"",""4415""
","
","","","-1","","","15","20302","3268","b","elianto","#f73b6a7A","-1","-1","1","0","[]","0","2","","","20302","94","6","4","lose","no-go","0"
"pit-trial","219","1712299","0.0-99.0","battery-v0.2","","""event"",""trial"",""time""
""fullscreenenter"",""1"",""4415""
","
","
","""event"",""trial"",""time""
""fullscreenenter"",""1"",""4415""
","
","","","-1","","","15","20302","3268","t","elianto","#f73b6a7A"," ","-1","0","-10","[]","0","2","","","20302","95","7","3","lose","go","0"
"pit-trial","220","1715834","0.0-100.0","battery-v0.2","","""event"",""trial"",""time""
""fullscreenenter"",""1"",""4415""
","
","
","""event"",""trial"",""time""
""fullscreenenter"",""1"",""4415""
","
","","","681","","","15","20302","3268","f","elianto","#3366ff99","-1"," ","0","0","[1533.0999999940395]","1","2","","","20302","96","8","2","win","no-go","0"
"pit-trial","221","1720688","0.0-101.0","battery-v0.2","","""event"",""trial"",""time""
""fullscreenenter"",""1"",""4415""
","
","
","""event"",""trial"",""time""
""fullscreenenter"",""1"",""4415""
","
","","","-1","","","15","20302","3268","b","elianto","#f73b6a7A","-1","-1","1","0","[]","0","2","","","20302","97","6","4","lose","no-go","0"
"pit-trial","222","1724022","0.0-102.0","battery-v0.2","","""event"",""trial"",""time""
""fullscreenenter"",""1"",""4415""
","
","
","""event"",""trial"",""time""
""fullscreenenter"",""1"",""4415""
","
","","","481.40000000596046","","","15","20302","3268","f","elianto","#3366ff99","-1"," ","0","+10","[1332.300000011921]","1","2","","","20302","98","8","2","win","no-go","1"
"pit-trial","223","1727416","0.0-103.0","battery-v0.2","","""event"",""trial"",""time""
""fullscreenenter"",""1"",""4415""
","
","
","""event"",""trial"",""time""
""fullscreenenter"",""1"",""4415""
","
","","","541","","","15","20302","3268","t","elianto","#f73b6a7A"," "," ","1","0","[1392.300000011921]","1","2","","","20302","99","7","3","lose","go","0"
"pit-trial","224","1731821","0.0-104.0","battery-v0.2","","""event"",""trial"",""time""
""fullscreenenter"",""1"",""4415""
","
","
","""event"",""trial"",""time""
""fullscreenenter"",""1"",""4415""
","
","","","1550.5999999940395","","","15","20302","3268","c","elianto","#3366ff99"," "," ","1","+10","[2402.5]","1","2","","","20302","100","5","1","win","go","0"
"pit-trial","225","1736675","0.0-105.0","battery-v0.2","","""event"",""trial"",""time""
""fullscreenenter"",""1"",""4415""
","
","
","""event"",""trial"",""time""
""fullscreenenter"",""1"",""4415""
","
","","","-1","","","15","20302","3268","b","elianto","#f73b6a7A","-1","-1","1","0","[]","0","2","","","20302","101","6","4","lose","no-go","0"
"pit-trial","226","1740016","0.0-106.0","battery-v0.2","","""event"",""trial"",""time""
""fullscreenenter"",""1"",""4415""
","
","
","""event"",""trial"",""time""
""fullscreenenter"",""1"",""4415""
","
","","","487.5","","","15","20302","3268","n","elianto","#3366ff99","-1"," ","0","0","[1338.5]","1","2","","","20302","102","9","2","win","no-go","0"
"pit-trial","227","1743316","0.0-107.0","battery-v0.2","","""event"",""trial"",""time""
""fullscreenenter"",""1"",""4415""
","
","
","""event"",""trial"",""time""
""fullscreenenter"",""1"",""4415""
","
","","","447","","","15","20302","3268","c","elianto","#3366ff99"," "," ","1","+10","[1298]","1","2","","","20302","103","5","1","win","go","0"
"pit-trial","228","1746711","0.0-108.0","battery-v0.2","","""event"",""trial"",""time""
""fullscreenenter"",""1"",""4415""
","
","
","""event"",""trial"",""time""
""fullscreenenter"",""1"",""4415""
","
","","","541.1999999880791","","","15","20302","3268","f","elianto","#3366ff99","-1"," ","0","+10","[1392.199999988079]","1","2","","","20302","104","8","2","win","no-go","1"
"pit-trial","229","1750308","0.0-109.0","battery-v0.2","","""event"",""trial"",""time""
""fullscreenenter"",""1"",""4415""
","
","
","""event"",""trial"",""time""
""fullscreenenter"",""1"",""4415""
","
","","","744.5999999940395","","","15","20302","3268","c","elianto","#3366ff99"," "," ","1","+10","[1595.199999988079]","1","2","","","20302","105","5","1","win","go","0"
"pit-trial","230","1753782","0.0-110.0","battery-v0.2","","""event"",""trial"",""time""
""fullscreenenter"",""1"",""4415""
","
","
","""event"",""trial"",""time""
""fullscreenenter"",""1"",""4415""
","
","","","620.8000000119209","","","15","20302","3268","n","elianto","#3366ff99","-1"," ","0","0","[1471.300000011921]","1","2","","","20302","106","9","2","win","no-go","0"
"pit-trial","231","1758635","0.0-111.0","battery-v0.2","","""event"",""trial"",""time""
""fullscreenenter"",""1"",""4415""
","
","
","""event"",""trial"",""time""
""fullscreenenter"",""1"",""4415""
","
","","","-1","","","15","20302","3268","b","elianto","#f73b6a7A","-1","-1","1","0","[]","0","2","","","20302","107","6","4","lose","no-go","0"
"pit-trial","232","1761739","0.0-112.0","battery-v0.2","","""event"",""trial"",""time""
""fullscreenenter"",""1"",""4415""
","
","
","""event"",""trial"",""time""
""fullscreenenter"",""1"",""4415""
","
","","","251.40000000596046","","","15","20302","3268","f","elianto","#3366ff99","-1"," ","0","+10","[1101.3999999761581]","1","2","","","20302","108","8","2","win","no-go","1"
"pit-trial","233","1765101","0.0-113.0","battery-v0.2","","""event"",""trial"",""time""
""fullscreenenter"",""1"",""4415""
","
","
","""event"",""trial"",""time""
""fullscreenenter"",""1"",""4415""
","
","","","509.60000002384186","","","15","20302","3268","c","elianto","#3366ff99"," "," ","1","+10","[1360.0999999940395]","1","2","","","20302","109","5","1","win","go","0"
"pit-trial","234","1769530","0.0-114.0","battery-v0.2","","""event"",""trial"",""time""
""fullscreenenter"",""1"",""4415""
","
","
","""event"",""trial"",""time""
""fullscreenenter"",""1"",""4415""
","
","","","1575.800000011921","","","15","20302","3268","n","elianto","#3366ff99","-1"," ","0","0","[2427.300000011921]","1","2","","","20302","110","9","2","win","no-go","0"
"pit-trial","235","1772892","0.0-115.0","battery-v0.2","","""event"",""trial"",""time""
""fullscreenenter"",""1"",""4415""
","
","
","""event"",""trial"",""time""
""fullscreenenter"",""1"",""4415""
","
","","","509.69999998807907","","","15","20302","3268","f","elianto","#3366ff99","-1"," ","0","+10","[1360.4000000059605]","1","2","","","20302","111","8","2","win","no-go","1"
"pit-trial","236","1777322","0.0-116.0","battery-v0.2","","""event"",""trial"",""time""
""fullscreenenter"",""1"",""4415""
","
","
","""event"",""trial"",""time""
""fullscreenenter"",""1"",""4415""
","
","","","1576","","","15","20302","3268","b","elianto","#f73b6a7A","-1"," ","0","-10","[2426.800000011921]","1","2","","","20302","112","6","4","lose","no-go","0"
"pit-trial","237","1780373","0.0-117.0","battery-v0.2","","""event"",""trial"",""time""
""fullscreenenter"",""1"",""4415""
","
","
","""event"",""trial"",""time""
""fullscreenenter"",""1"",""4415""
","
","","","197.59999999403954","","","15","20302","3268","c","elianto","#3366ff99"," "," ","1","+10","[1047.8999999761581]","1","2","","","20302","113","5","1","win","go","0"
"pit-trial","238","1783793","0.0-118.0","battery-v0.2","","""event"",""trial"",""time""
""fullscreenenter"",""1"",""4415""
","
","
","""event"",""trial"",""time""
""fullscreenenter"",""1"",""4415""
","
","","","568.0999999940395","","","15","20302","3268","t","elianto","#f73b6a7A"," "," ","1","0","[1418.5]","1","2","","","20302","114","7","3","lose","go","0"
"pit-trial","239","1787125","0.0-119.0","battery-v0.2","","""event"",""trial"",""time""
""fullscreenenter"",""1"",""4415""
","
","
","""event"",""trial"",""time""
""fullscreenenter"",""1"",""4415""
","
","","","477.7000000178814","","","15","20302","3268","f","elianto","#3366ff99","-1"," ","0","+10","[1328.2000000178814]","1","2","","","20302","115","8","2","win","no-go","1"
"pit-trial","240","1790449","0.0-120.0","battery-v0.2","","""event"",""trial"",""time""
""fullscreenenter"",""1"",""4415""
","
","
","""event"",""trial"",""time""
""fullscreenenter"",""1"",""4415""
","
","","","470.5","","","15","20302","3268","n","elianto","#3366ff99","-1"," ","0","0","[1321.9000000059605]","1","2","","","20302","116","9","2","win","no-go","0"
"pit-trial","241","1793486","0.0-121.0","battery-v0.2","","""event"",""trial"",""time""
""fullscreenenter"",""1"",""4415""
","
","
","""event"",""trial"",""time""
""fullscreenenter"",""1"",""4415""
","
","","","183.30000001192093","","","15","20302","3268","c","elianto","#3366ff99"," "," ","1","+10","[1034.800000011921]","1","2","","","20302","117","5","1","win","go","0"
"pit-trial","242","1796912","0.0-122.0","battery-v0.2","","""event"",""trial"",""time""
""fullscreenenter"",""1"",""4415""
","
","
","""event"",""trial"",""time""
""fullscreenenter"",""1"",""4415""
","
","","","573.0999999940395","","","15","20302","3268","n","elianto","#3366ff99","-1"," ","0","+10","[1424]","1","2","","","20302","118","9","2","win","no-go","1"
"pit-trial","243","1800426","0.0-123.0","battery-v0.2","","""event"",""trial"",""time""
""fullscreenenter"",""1"",""4415""
","
","
","""event"",""trial"",""time""
""fullscreenenter"",""1"",""4415""
","
","","","660.7000000178814","","","15","20302","3268","b","elianto","#f73b6a7A","-1"," ","0","-10","[1512.4000000059605]","1","2","","","20302","119","6","4","lose","no-go","0"
"pit-trial","244","1803687","0.0-124.0","battery-v0.2","","""event"",""trial"",""time""
""fullscreenenter"",""1"",""4415""
","
","
","""event"",""trial"",""time""
""fullscreenenter"",""1"",""4415""
","
","","","408.2000000178814","","","15","20302","3268","f","elianto","#3366ff99","-1"," ","0","0","[1259.5]","1","2","","","20302","120","8","2","win","no-go","0"
"pit-trial","245","1808540","0.0-125.0","battery-v0.2","","""event"",""trial"",""time""
""fullscreenenter"",""1"",""4415""
","
","
","""event"",""trial"",""time""
""fullscreenenter"",""1"",""4415""
","
","","","-1","","","15","20302","3268","n","elianto","#3366ff99","-1","-1","1","+10","[]","0","2","","","20302","121","9","2","win","no-go","0"
"pit-trial","246","1812579","0.0-126.0","battery-v0.2","","""event"",""trial"",""time""
""fullscreenenter"",""1"",""4415""
","
","
","""event"",""trial"",""time""
""fullscreenenter"",""1"",""4415""
","
","","","1186.7000000178814","","","15","20302","3268","f","elianto","#3366ff99","-1"," ","0","0","[2037.0999999940395]","1","2","","","20302","122","8","2","win","no-go","0"
"pit-trial","247","1815600","0.0-127.0","battery-v0.2","","""event"",""trial"",""time""
""fullscreenenter"",""1"",""4415""
","
","
","""event"",""trial"",""time""
""fullscreenenter"",""1"",""4415""
","
","","","168","","","15","20302","3268","c","elianto","#3366ff99"," "," ","1","0","[1018.5999999940395]","1","2","","","20302","123","5","1","win","go","1"
"pit-trial","248","1819594","0.0-128.0","battery-v0.2","","""event"",""trial"",""time""
""fullscreenenter"",""1"",""4415""
","
","
","""event"",""trial"",""time""
""fullscreenenter"",""1"",""4415""
","
","","","1141.5","","","15","20302","3268","t","elianto","#f73b6a7A"," "," ","1","0","[1992.300000011921]","1","2","","","20302","124","7","3","lose","go","0"
"pit-trial","249","1823535","0.0-129.0","battery-v0.2","","""event"",""trial"",""time""
""fullscreenenter"",""1"",""4415""
","
","
","""event"",""trial"",""time""
""fullscreenenter"",""1"",""4415""
","
","","","1087.7000000178814","","","15","20302","3268","t","elianto","#f73b6a7A"," "," ","1","0","[1939.0999999940395]","1","2","","","20302","125","7","3","lose","go","0"
"pit-trial","250","1827482","0.0-130.0","battery-v0.2","","""event"",""trial"",""time""
""fullscreenenter"",""1"",""4415""
","
","
","""event"",""trial"",""time""
""fullscreenenter"",""1"",""4415""
","
","","","1093.7999999821186","","","15","20302","3268","f","elianto","#3366ff99","-1"," ","0","0","[1944.9000000059605]","1","2","","","20302","126","8","2","win","no-go","0"
"pit-trial","251","1831063","0.0-131.0","battery-v0.2","","""event"",""trial"",""time""
""fullscreenenter"",""1"",""4415""
","
","
","""event"",""trial"",""time""
""fullscreenenter"",""1"",""4415""
","
","","","727.6999999880791","","","15","20302","3268","n","elianto","#3366ff99","-1"," ","0","0","[1578.5999999940395]","1","2","","","20302","127","9","2","win","no-go","0"
"pit-trial","252","1835917","0.0-132.0","battery-v0.2","","""event"",""trial"",""time""
""fullscreenenter"",""1"",""4415""
","
","
","""event"",""trial"",""time""
""fullscreenenter"",""1"",""4415""
","
","","","-1","","","15","20302","3268","b","elianto","#f73b6a7A","-1","-1","1","0","[]","0","2","","","20302","128","6","4","lose","no-go","0"
"pit-trial","253","1839970","0.0-133.0","battery-v0.2","","""event"",""trial"",""time""
""fullscreenenter"",""1"",""4415""
","
","
","""event"",""trial"",""time""
""fullscreenenter"",""1"",""4415""
","
","","","1199.9000000059605","","","15","20302","3268","f","elianto","#3366ff99","-1"," ","0","0","[2050.2000000178814]","1","2","","","20302","129","8","2","win","no-go","0"
"pit-trial","254","1844823","0.0-134.0","battery-v0.2","","""event"",""trial"",""time""
""fullscreenenter"",""1"",""4415""
","
","
","""event"",""trial"",""time""
""fullscreenenter"",""1"",""4415""
","
","","","-1","","","15","20302","3268","b","elianto","#f73b6a7A","-1","-1","1","-10","[2897.5999999940395,4236.5]","2","2","","","20302","130","6","4","lose","no-go","1"
"pit-trial","255","1848070","0.0-135.0","battery-v0.2","","""event"",""trial"",""time""
""fullscreenenter"",""1"",""4415""
","
","
","""event"",""trial"",""time""
""fullscreenenter"",""1"",""4415""
","
","","","393.19999998807907","","","15","20302","3268","t","elianto","#f73b6a7A"," "," ","1","0","[1244.199999988079]","1","2","","","20302","131","7","3","lose","go","0"
"pit-trial","256","1851304","0.0-136.0","battery-v0.2","","""event"",""trial"",""time""
""fullscreenenter"",""1"",""4415""
","
","
","""event"",""trial"",""time""
""fullscreenenter"",""1"",""4415""
","
","","","380.09999999403954","","","15","20302","3268","n","elianto","#3366ff99","-1"," ","0","0","[1231.9000000059605]","1","2","","","20302","132","9","2","win","no-go","0"
"pit-trial","257","1855005","0.0-137.0","battery-v0.2","","""event"",""trial"",""time""
""fullscreenenter"",""1"",""4415""
","
","
","""event"",""trial"",""time""
""fullscreenenter"",""1"",""4415""
","
","","","848.1999999880791","","","15","20302","3268","f","elianto","#3366ff99","-1"," ","0","+10","[1699.0999999940395]","1","2","","","20302","133","8","2","win","no-go","1"
"pit-trial","258","1858495","0.0-138.0","battery-v0.2","","""event"",""trial"",""time""
""fullscreenenter"",""1"",""4415""
","
","
","""event"",""trial"",""time""
""fullscreenenter"",""1"",""4415""
","
","","","638.0999999940395","","","15","20302","3268","n","elianto","#3366ff99","-1"," ","0","0","[1488.3999999761581]","1","2","","","20302","134","9","2","win","no-go","0"
"pit-trial","259","1861541","0.0-139.0","battery-v0.2","","""event"",""trial"",""time""
""fullscreenenter"",""1"",""4415""
","
","
","""event"",""trial"",""time""
""fullscreenenter"",""1"",""4415""
","
","","","192.80000001192093","","","15","20302","3268","b","elianto","#f73b6a7A","-1"," ","0","-10","[1043.800000011921]","1","2","","","20302","135","6","4","lose","no-go","0"
"pit-trial","260","1864864","0.0-140.0","battery-v0.2","","""event"",""trial"",""time""
""fullscreenenter"",""1"",""4415""
","
","
","""event"",""trial"",""time""
""fullscreenenter"",""1"",""4415""
","
","","","469.40000000596046","","","15","20302","3268","t","elianto","#f73b6a7A"," "," ","1","0","[1320.0999999940395]","1","2","","","20302","136","7","3","lose","go","0"
"pit-trial","261","1867989","0.0-141.0","battery-v0.2","","""event"",""trial"",""time""
""fullscreenenter"",""1"",""4415""
","
","
","""event"",""trial"",""time""
""fullscreenenter"",""1"",""4415""
","
","","","271.90000000596046","","","15","20302","3268","b","elianto","#f73b6a7A","-1"," ","0","-10","[1122.199999988079,1236.5]","2","2","","","20302","137","6","4","lose","no-go","0"
"pit-trial","262","1872125","0.0-142.0","battery-v0.2","","""event"",""trial"",""time""
""fullscreenenter"",""1"",""4415""
","
","
","""event"",""trial"",""time""
""fullscreenenter"",""1"",""4415""
","
","","","1282.5999999940395","","","15","20302","3268","t","elianto","#f73b6a7A"," "," ","1","0","[2133.800000011921]","1","2","","","20302","138","7","3","lose","go","0"
"pit-trial","263","1875623","0.0-143.0","battery-v0.2","","""event"",""trial"",""time""
""fullscreenenter"",""1"",""4415""
","
","
","""event"",""trial"",""time""
