"trial_type","trial_index","time_elapsed","internal_node_id","task_version","subject_id","interactions","blur_events","focus_events","fullscreenenter_events","fullscreenexit_events","success","view_history","rt","responses","num_errors","age","subject","participantId","rune","rune_set","hex","correct","choice","accuracy","outcome","keys","total_keys","block","practice","value","sub","trial","stimulus","robot","valence","action","sham"
"pavlovia","0","9","0.0-0.0","battery-v0.2","","""event"",""trial"",""time""
""fullscreenenter"",""1"",""2285""
","
","
","""event"",""trial"",""time""
""fullscreenenter"",""1"",""2285""
","
","","","","","","","","","","","","","","","","","","","","","","","","","","",""
"fullscreen","1","3264","0.0-1.0","battery-v0.2","","""event"",""trial"",""time""
""fullscreenenter"",""1"",""2285""
","
","
","""event"",""trial"",""time""
""fullscreenenter"",""1"",""2285""
","
","true","","","","","","","","","","","","","","","","","","","","","","","","","",""
"pit-instructions","2","8092","0.0-2.0-0.0","battery-v0.2","","""event"",""trial"",""time""
""fullscreenenter"",""1"",""2285""
","
","
","""event"",""trial"",""time""
""fullscreenenter"",""1"",""2285""
","
","","[{""page_index"":0,""viewing_time"":4825.100000023842}]","4825.700000047684","","","","","","","","","","","","","","","","","","","","","","","",""
"pit-comprehension","3","11206","0.0-2.0-1.0-0.0","battery-v0.2","","""event"",""trial"",""time""
""fullscreenenter"",""1"",""2285""
","
","
","""event"",""trial"",""time""
""fullscreenenter"",""1"",""2285""
","
","","","3109.100000023842","[""shark""]","0","22","16356","6109","","","","","","","","","","","","","","","","","","",""
"pit-instructions","4","12404","0.0-2.0-1.0-1.0","battery-v0.2","","""event"",""trial"",""time""
""fullscreenenter"",""1"",""2285""
","
","
","""event"",""trial"",""time""
""fullscreenenter"",""1"",""2285""
","
","","[{""page_index"":0,""viewing_time"":1185.6999999284744}]","1185.8999999761581","","","","","","","","","","","","","","","","","","","","","","","",""
"pit-comprehension","5","16227","0.0-2.0-2.0-0.0","battery-v0.2","","""event"",""trial"",""time""
""fullscreenenter"",""1"",""2285""
","
","
","""event"",""trial"",""time""
""fullscreenenter"",""1"",""2285""
","
","","","3820.5","[""tiger""]","0","22","16356","6109","","","","","","","","","","","","","","","","","","",""
"pit-instructions","6","22265","0.0-2.0-2.0-1.0","battery-v0.2","","""event"",""trial"",""time""
""fullscreenenter"",""1"",""2285""
","
","
","""event"",""trial"",""time""
""fullscreenenter"",""1"",""2285""
","
","","[{""page_index"":0,""viewing_time"":6036}]","6036.099999904633","","","","","","","","","","","","","","","","","","","","","","","",""
"pit-instructions","7","239034","0.0-2.0-3.0","battery-v0.2","","""event"",""trial"",""time""
""fullscreenenter"",""1"",""2285""
","
","
","""event"",""trial"",""time""
""fullscreenenter"",""1"",""2285""
","
","","[{""page_index"":0,""viewing_time"":9122.200000047684},{""page_index"":1,""viewing_time"":65395.699999928474},{""page_index"":2,""viewing_time"":8162.600000023842},{""page_index"":3,""viewing_time"":42236.10000002384},{""page_index"":4,""viewing_time"":8623.799999952316},{""page_index"":5,""viewing_time"":6501.600000023842},{""page_index"":6,""viewing_time"":25606},{""page_index"":7,""viewing_time"":6683.700000047684},{""page_index"":8,""viewing_time"":7326.899999976158},{""page_index"":9,""viewing_time"":8062.600000023842},{""page_index"":10,""viewing_time"":8026.299999952316},{""page_index"":11,""viewing_time"":9093.299999952316},{""page_index"":12,""viewing_time"":6199.900000095367},{""page_index"":13,""viewing_time"":5725.5}]","216766.79999995232","","","","","","","","","","","","","","","","","","","","","","","",""
"pit-trial","8","242521","0.0-2.0-4.0-0.0","battery-v0.2","","""event"",""trial"",""time""
""fullscreenenter"",""1"",""2285""
","
","
","""event"",""trial"",""time""
""fullscreenenter"",""1"",""2285""
","
","","","617.3999999761581","","","22","16356","6109","&#9784;","elianto","#FFFFF080"," "," ","1","&#10004","[1470.1999999284744]","1","0","0","","","","","","","",""
"pit-trial","9","245981","0.0-2.0-4.1-0.1","battery-v0.2","","""event"",""trial"",""time""
""fullscreenenter"",""1"",""2285""
","
","
","""event"",""trial"",""time""
""fullscreenenter"",""1"",""2285""
","
","","","592.9000000953674","","","22","16356","6109","&#9784;","elianto","#FFFFF080"," "," ","1","&#10004","[1444.3999999761581]","1","0","0","","","","","","","",""
"pit-trial","10","249485","0.0-2.0-4.2-0.2","battery-v0.2","","""event"",""trial"",""time""
""fullscreenenter"",""1"",""2285""
","
","
","""event"",""trial"",""time""
""fullscreenenter"",""1"",""2285""
","
","","","629.1999999284744","","","22","16356","6109","&#9784;","elianto","#FFFFF080"," "," ","1","&#10004","[1489.7999999523163]","1","0","0","","","","","","","",""
"pit-trial","11","252865","0.0-2.0-4.3-0.3","battery-v0.2","","""event"",""trial"",""time""
""fullscreenenter"",""1"",""2285""
","
","
","""event"",""trial"",""time""
""fullscreenenter"",""1"",""2285""
","
","","","514.6999999284744","","","22","16356","6109","&#9784;","elianto","#FFFFF080"," "," ","1","&#10004","[1367.1000000238419]","1","0","0","","","","","","","",""
"pit-trial","12","256322","0.0-2.0-4.4-0.4","battery-v0.2","","""event"",""trial"",""time""
""fullscreenenter"",""1"",""2285""
","
","
","""event"",""trial"",""time""
""fullscreenenter"",""1"",""2285""
","
","","","596.7999999523163","","","22","16356","6109","&#9784;","elianto","#FFFFF080"," "," ","1","&#10004","[1452.1999999284744]","1","0","0","","","","","","","",""
"pit-instructions","13","287848","0.0-2.0-5.0","battery-v0.2","","""event"",""trial"",""time""
""fullscreenenter"",""1"",""2285""
","
","
","""event"",""trial"",""time""
""fullscreenenter"",""1"",""2285""
","
","","[{""page_index"":0,""viewing_time"":12246.599999904633},{""page_index"":1,""viewing_time"":6916.600000023842},{""page_index"":2,""viewing_time"":5010.800000071526},{""page_index"":3,""viewing_time"":7348.899999976158}]","31523.399999976158","","","","","","","","","","","","","","","","","","","","","","","",""
"pit-trial","14","292715","0.0-2.0-6.0-0.0","battery-v0.2","","""event"",""trial"",""time""
""fullscreenenter"",""1"",""2285""
","
","
","""event"",""trial"",""time""
""fullscreenenter"",""1"",""2285""
","
","","","-1","","","22","16356","6109","&#9854;","elianto","#FFFFF080","-1","-1","1","&#10004","[]","0","0","1","","","","","","","",""
"pit-trial","15","297586","0.0-2.0-6.1-0.1","battery-v0.2","","""event"",""trial"",""time""
""fullscreenenter"",""1"",""2285""
","
","
","""event"",""trial"",""time""
""fullscreenenter"",""1"",""2285""
","
","","","-1","","","22","16356","6109","&#9854;","elianto","#FFFFF080","-1","-1","1","&#10004","[]","0","0","1","","","","","","","",""
"pit-trial","16","302460","0.0-2.0-6.2-0.2","battery-v0.2","","""event"",""trial"",""time""
""fullscreenenter"",""1"",""2285""
","
","
","""event"",""trial"",""time""
""fullscreenenter"",""1"",""2285""
","
","","","-1","","","22","16356","6109","&#9854;","elianto","#FFFFF080","-1","-1","1","&#10004","[]","0","0","1","","","","","","","",""
"pit-trial","17","307333","0.0-2.0-6.3-0.3","battery-v0.2","","""event"",""trial"",""time""
""fullscreenenter"",""1"",""2285""
","
","
","""event"",""trial"",""time""
""fullscreenenter"",""1"",""2285""
","
","","","-1","","","22","16356","6109","&#9854;","elianto","#FFFFF080","-1","-1","1","&#10004","[]","0","0","1","","","","","","","",""
"pit-trial","18","312195","0.0-2.0-6.4-0.4","battery-v0.2","","""event"",""trial"",""time""
""fullscreenenter"",""1"",""2285""
","
","
","""event"",""trial"",""time""
""fullscreenenter"",""1"",""2285""
","
","","","-1","","","22","16356","6109","&#9854;","elianto","#FFFFF080","-1","-1","1","&#10004","[]","0","0","1","","","","","","","",""
"pit-instructions","19","540630","0.0-2.0-7.0","battery-v0.2","","""event"",""trial"",""time""
""fullscreenenter"",""1"",""2285""
","
","
","""event"",""trial"",""time""
""fullscreenenter"",""1"",""2285""
","
","","[{""page_index"":0,""viewing_time"":10713.899999976158},{""page_index"":1,""viewing_time"":7935.799999952316},{""page_index"":2,""viewing_time"":16937.400000095367},{""page_index"":3,""viewing_time"":10913.899999976158},{""page_index"":4,""viewing_time"":6132.299999952316},{""page_index"":5,""viewing_time"":7746},{""page_index"":6,""viewing_time"":6458.600000023842},{""page_index"":7,""viewing_time"":7036.899999976158},{""page_index"":8,""viewing_time"":11314.5},{""page_index"":9,""viewing_time"":6916.700000047684},{""page_index"":10,""viewing_time"":8634.600000023842},{""page_index"":11,""viewing_time"":7973.199999928474},{""page_index"":12,""viewing_time"":10274.5},{""page_index"":13,""viewing_time"":9067.600000023842},{""page_index"":14,""viewing_time"":71172},{""page_index"":15,""viewing_time"":8127.399999976158},{""page_index"":16,""viewing_time"":12362.300000071526},{""page_index"":17,""viewing_time"":8712.399999976158}]","228430.60000002384","","","","","","","","","","","","","","","","","","","","","","","",""
"pit-trial","20","545498","0.0-2.0-8.0-0.0","battery-v0.2","","""event"",""trial"",""time""
""fullscreenenter"",""1"",""2285""
","
","
","""event"",""trial"",""time""
""fullscreenenter"",""1"",""2285""
","
","","","-1","","","22","16356","6109","&#9776;","elianto","#3366ff99"," ","-1","0","0","[]","0","0","1","","","","","","","",""
"pit-trial","21","550371","0.0-2.0-8.0-1.0","battery-v0.2","","""event"",""trial"",""time""
""fullscreenenter"",""1"",""2285""
","
","
","""event"",""trial"",""time""
""fullscreenenter"",""1"",""2285""
","
","","","-1","","","22","16356","6109","&#9776;","elianto","#3366ff99"," ","-1","0","0","[]","0","0","1","","","","","","","",""
"pit-trial","22","553845","0.0-2.0-8.0-2.0","battery-v0.2","","""event"",""trial"",""time""
""fullscreenenter"",""1"",""2285""
","
","
","""event"",""trial"",""time""
""fullscreenenter"",""1"",""2285""
","
","","","601.2000000476837","","","22","16356","6109","&#9776;","elianto","#3366ff99"," "," ","1","+10","[1455.8999999761581]","1","0","1","","","","","","","",""
"pit-trial","23","557282","0.0-2.0-8.0-3.0","battery-v0.2","","""event"",""trial"",""time""
""fullscreenenter"",""1"",""2285""
","
","
","""event"",""trial"",""time""
""fullscreenenter"",""1"",""2285""
","
","","","580.3000000715256","","","22","16356","6109","&#9776;","elianto","#3366ff99"," "," ","1","0","[1431.7000000476837]","1","0","1","","","","","","","",""
"pit-trial","24","560913","0.0-2.0-8.0-4.0","battery-v0.2","","""event"",""trial"",""time""
""fullscreenenter"",""1"",""2285""
","
","
","""event"",""trial"",""time""
""fullscreenenter"",""1"",""2285""
","
","","","769.1000000238419","","","22","16356","6109","&#9776;","elianto","#3366ff99"," "," ","1","+10","[1624.2999999523163]","1","0","1","","","","","","","",""
"pit-trial","25","564371","0.0-2.0-8.1-0.1","battery-v0.2","","""event"",""trial"",""time""
""fullscreenenter"",""1"",""2285""
","
","
","""event"",""trial"",""time""
""fullscreenenter"",""1"",""2285""
","
","","","589.6000000238419","","","22","16356","6109","&#9776;","elianto","#3366ff99"," "," ","1","+10","[1440.3999999761581]","1","0","1","","","","","","","",""
"pit-trial","26","567865","0.0-2.0-8.1-1.1","battery-v0.2","","""event"",""trial"",""time""
""fullscreenenter"",""1"",""2285""
","
","
","""event"",""trial"",""time""
""fullscreenenter"",""1"",""2285""
","
","","","623.2999999523163","","","22","16356","6109","&#9776;","elianto","#3366ff99"," "," ","1","+10","[1475.7999999523163]","1","0","1","","","","","","","",""
"pit-trial","27","571197","0.0-2.0-8.1-2.1","battery-v0.2","","""event"",""trial"",""time""
""fullscreenenter"",""1"",""2285""
","
","
","""event"",""trial"",""time""
""fullscreenenter"",""1"",""2285""
","
","","","478.10000002384186","","","22","16356","6109","&#9776;","elianto","#3366ff99"," "," ","1","+10","[1328.3999999761581]","1","0","1","","","","","","","",""
"pit-trial","28","574495","0.0-2.0-8.1-3.1","battery-v0.2","","""event"",""trial"",""time""
""fullscreenenter"",""1"",""2285""
","
","
","""event"",""trial"",""time""
""fullscreenenter"",""1"",""2285""
","
","","","442.3000000715256","","","22","16356","6109","&#9776;","elianto","#3366ff99"," "," ","1","0","[1292.8000000715256]","1","0","1","","","","","","","",""
"pit-trial","29","577585","0.0-2.0-8.1-4.1","battery-v0.2","","""event"",""trial"",""time""
""fullscreenenter"",""1"",""2285""
","
","
","""event"",""trial"",""time""
""fullscreenenter"",""1"",""2285""
","
","","","236.09999990463257","","","22","16356","6109","&#9776;","elianto","#3366ff99"," "," ","1","+10","[1086.5]","1","0","1","","","","","","","",""
"pit-trial","30","580724","0.0-2.0-8.2-0.2","battery-v0.2","","""event"",""trial"",""time""
""fullscreenenter"",""1"",""2285""
","
","
","""event"",""trial"",""time""
""fullscreenenter"",""1"",""2285""
","
","","","285.2999999523163","","","22","16356","6109","&#9776;","elianto","#3366ff99"," "," ","1","+10","[1135.6999999284744]","1","0","1","","","","","","","",""
"pit-trial","31","584018","0.0-2.0-8.2-1.2","battery-v0.2","","""event"",""trial"",""time""
""fullscreenenter"",""1"",""2285""
","
","
","""event"",""trial"",""time""
""fullscreenenter"",""1"",""2285""
","
","","","438.60000002384186","","","22","16356","6109","&#9776;","elianto","#3366ff99"," "," ","1","+10","[1290]","1","0","1","","","","","","","",""
"pit-trial","32","587274","0.0-2.0-8.2-2.2","battery-v0.2","","""event"",""trial"",""time""
""fullscreenenter"",""1"",""2285""
","
","
","""event"",""trial"",""time""
""fullscreenenter"",""1"",""2285""
","
","","","402.09999990463257","","","22","16356","6109","&#9776;","elianto","#3366ff99"," "," ","1","+10","[1252.9000000953674]","1","0","1","","","","","","","",""
"pit-trial","33","590561","0.0-2.0-8.2-3.2","battery-v0.2","","""event"",""trial"",""time""
""fullscreenenter"",""1"",""2285""
","
","
","""event"",""trial"",""time""
""fullscreenenter"",""1"",""2285""
","
","","","430.6999999284744","","","22","16356","6109","&#9776;","elianto","#3366ff99"," "," ","1","0","[1282.5]","1","0","1","","","","","","","",""
"pit-trial","34","593829","0.0-2.0-8.2-4.2","battery-v0.2","","""event"",""trial"",""time""
""fullscreenenter"",""1"",""2285""
","
","
","""event"",""trial"",""time""
""fullscreenenter"",""1"",""2285""
","
","","","414.90000009536743","","","22","16356","6109","&#9776;","elianto","#3366ff99"," "," ","1","+10","[1264.8999999761581]","1","0","1","","","","","","","",""
"call-function","35","593833","0.0-2.0-9.0","battery-v0.2","","""event"",""trial"",""time""
""fullscreenenter"",""1"",""2285""
","
","
","""event"",""trial"",""time""
""fullscreenenter"",""1"",""2285""
","
","","","","","","","","","","","","","","","","","","","","","","","","","","",""
"pit-instructions","36","646217","0.0-2.0-10.0","battery-v0.2","","""event"",""trial"",""time""
""fullscreenenter"",""1"",""2285""
","
","
","""event"",""trial"",""time""
""fullscreenenter"",""1"",""2285""
","
","","[{""page_index"":0,""viewing_time"":5538.899999976158},{""page_index"":1,""viewing_time"":6809},{""page_index"":2,""viewing_time"":9567.100000023842},{""page_index"":3,""viewing_time"":22756.899999976158},{""page_index"":4,""viewing_time"":7710.200000047684}]","52382.799999952316","","","","","","","","","","","","","","","","","","","","","","","",""
"pit-trial","37","649608","0.0-2.0-11.0-0.0","battery-v0.2","","""event"",""trial"",""time""
""fullscreenenter"",""1"",""2285""
","
","
","""event"",""trial"",""time""
""fullscreenenter"",""1"",""2285""
","
","","","524.3999999761581","","","22","16356","6109","&#9761;","elianto","#3366ff99","-1"," ","0","0","[1374.5]","1","0","2","","","","","","","",""
"pit-trial","38","652910","0.0-2.0-11.0-1.0","battery-v0.2","","""event"",""trial"",""time""
""fullscreenenter"",""1"",""2285""
","
","
","""event"",""trial"",""time""
""fullscreenenter"",""1"",""2285""
","
","","","428.7000000476837","","","22","16356","6109","&#9761;","elianto","#3366ff99","-1"," ","0","0","[1283.3000000715256]","1","0","2","","","","","","","",""
"pit-trial","39","657783","0.0-2.0-11.0-2.0","battery-v0.2","","""event"",""trial"",""time""
""fullscreenenter"",""1"",""2285""
","
","
","""event"",""trial"",""time""
""fullscreenenter"",""1"",""2285""
","
","","","-1","","","22","16356","6109","&#9761;","elianto","#3366ff99","-1","-1","1","+10","[]","0","0","2","","","","","","","",""
"pit-trial","40","662655","0.0-2.0-11.0-3.0","battery-v0.2","","""event"",""trial"",""time""
""fullscreenenter"",""1"",""2285""
","
","
","""event"",""trial"",""time""
""fullscreenenter"",""1"",""2285""
","
","","","-1","","","22","16356","6109","&#9761;","elianto","#3366ff99","-1","-1","1","0","[]","0","0","2","","","","","","","",""
"pit-trial","41","667520","0.0-2.0-11.0-4.0","battery-v0.2","","""event"",""trial"",""time""
""fullscreenenter"",""1"",""2285""
","
","
","""event"",""trial"",""time""
""fullscreenenter"",""1"",""2285""
","
","","","-1","","","22","16356","6109","&#9761;","elianto","#3366ff99","-1","-1","1","+10","[]","0","0","2","","","","","","","",""
"pit-trial","42","672389","0.0-2.0-11.1-0.1","battery-v0.2","","""event"",""trial"",""time""
""fullscreenenter"",""1"",""2285""
","
","
","""event"",""trial"",""time""
""fullscreenenter"",""1"",""2285""
","
","","","-1","","","22","16356","6109","&#9761;","elianto","#3366ff99","-1","-1","1","+10","[]","0","0","2","","","","","","","",""
"pit-trial","43","677244","0.0-2.0-11.1-1.1","battery-v0.2","","""event"",""trial"",""time""
""fullscreenenter"",""1"",""2285""
","
","
","""event"",""trial"",""time""
""fullscreenenter"",""1"",""2285""
","
","","","-1","","","22","16356","6109","&#9761;","elianto","#3366ff99","-1","-1","1","+10","[]","0","0","2","","","","","","","",""
"pit-trial","44","682099","0.0-2.0-11.1-2.1","battery-v0.2","","""event"",""trial"",""time""
""fullscreenenter"",""1"",""2285""
","
","
","""event"",""trial"",""time""
""fullscreenenter"",""1"",""2285""
","
","","","-1","","","22","16356","6109","&#9761;","elianto","#3366ff99","-1","-1","1","+10","[]","0","0","2","","","","","","","",""
"pit-trial","45","686952","0.0-2.0-11.1-3.1","battery-v0.2","","""event"",""trial"",""time""
""fullscreenenter"",""1"",""2285""
","
","
","""event"",""trial"",""time""
""fullscreenenter"",""1"",""2285""
","
","","","-1","","","22","16356","6109","&#9761;","elianto","#3366ff99","-1","-1","1","0","[]","0","0","2","","","","","","","",""
"pit-trial","46","691806","0.0-2.0-11.1-4.1","battery-v0.2","","""event"",""trial"",""time""
""fullscreenenter"",""1"",""2285""
","
","
","""event"",""trial"",""time""
""fullscreenenter"",""1"",""2285""
","
","","","-1","","","22","16356","6109","&#9761;","elianto","#3366ff99","-1","-1","1","+10","[]","0","0","2","","","","","","","",""
"pit-trial","47","696662","0.0-2.0-11.2-0.2","battery-v0.2","","""event"",""trial"",""time""
""fullscreenenter"",""1"",""2285""
","
","
","""event"",""trial"",""time""
""fullscreenenter"",""1"",""2285""
","
","","","-1","","","22","16356","6109","&#9761;","elianto","#3366ff99","-1","-1","1","+10","[]","0","0","2","","","","","","","",""
"pit-trial","48","701516","0.0-2.0-11.2-1.2","battery-v0.2","","""event"",""trial"",""time""
""fullscreenenter"",""1"",""2285""
","
","
","""event"",""trial"",""time""
""fullscreenenter"",""1"",""2285""
","
","","","-1","","","22","16356","6109","&#9761;","elianto","#3366ff99","-1","-1","1","+10","[]","0","0","2","","","","","","","",""
"pit-trial","49","706371","0.0-2.0-11.2-2.2","battery-v0.2","","""event"",""trial"",""time""
""fullscreenenter"",""1"",""2285""
","
","
","""event"",""trial"",""time""
""fullscreenenter"",""1"",""2285""
","
","","","-1","","","22","16356","6109","&#9761;","elianto","#3366ff99","-1","-1","1","+10","[]","0","0","2","","","","","","","",""
"pit-trial","50","711224","0.0-2.0-11.2-3.2","battery-v0.2","","""event"",""trial"",""time""
""fullscreenenter"",""1"",""2285""
","
","
","""event"",""trial"",""time""
""fullscreenenter"",""1"",""2285""
","
","","","-1","","","22","16356","6109","&#9761;","elianto","#3366ff99","-1","-1","1","0","[]","0","0","2","","","","","","","",""
"pit-trial","51","716079","0.0-2.0-11.2-4.2","battery-v0.2","","""event"",""trial"",""time""
""fullscreenenter"",""1"",""2285""
","
","
","""event"",""trial"",""time""
""fullscreenenter"",""1"",""2285""
","
","","","-1","","","22","16356","6109","&#9761;","elianto","#3366ff99","-1","-1","1","+10","[]","0","0","2","","","","","","","",""
"pit-trial","52","720932","0.0-2.0-11.3-0.3","battery-v0.2","","""event"",""trial"",""time""
""fullscreenenter"",""1"",""2285""
","
","
","""event"",""trial"",""time""
""fullscreenenter"",""1"",""2285""
","
","","","-1","","","22","16356","6109","&#9761;","elianto","#3366ff99","-1","-1","1","+10","[]","0","0","2","","","","","","","",""
"pit-trial","53","725786","0.0-2.0-11.3-1.3","battery-v0.2","","""event"",""trial"",""time""
""fullscreenenter"",""1"",""2285""
","
","
","""event"",""trial"",""time""
""fullscreenenter"",""1"",""2285""
","
","","","-1","","","22","16356","6109","&#9761;","elianto","#3366ff99","-1","-1","1","+10","[]","0","0","2","","","","","","","",""
"pit-trial","54","730641","0.0-2.0-11.3-2.3","battery-v0.2","","""event"",""trial"",""time""
""fullscreenenter"",""1"",""2285""
","
","
","""event"",""trial"",""time""
""fullscreenenter"",""1"",""2285""
","
","","","-1","","","22","16356","6109","&#9761;","elianto","#3366ff99","-1","-1","1","+10","[]","0","0","2","","","","","","","",""
"pit-trial","55","735504","0.0-2.0-11.3-3.3","battery-v0.2","","""event"",""trial"",""time""
""fullscreenenter"",""1"",""2285""
","
","
","""event"",""trial"",""time""
""fullscreenenter"",""1"",""2285""
","
","","","-1","","","22","16356","6109","&#9761;","elianto","#3366ff99","-1","-1","1","0","[]","0","0","2","","","","","","","",""
"pit-trial","56","740359","0.0-2.0-11.3-4.3","battery-v0.2","","""event"",""trial"",""time""
""fullscreenenter"",""1"",""2285""
","
","
","""event"",""trial"",""time""
""fullscreenenter"",""1"",""2285""
","
","","","-1","","","22","16356","6109","&#9761;","elianto","#3366ff99","-1","-1","1","+10","[]","0","0","2","","","","","","","",""
"call-function","57","740362","0.0-2.0-12.0","battery-v0.2","","""event"",""trial"",""time""
""fullscreenenter"",""1"",""2285""
","
","
","""event"",""trial"",""time""
""fullscreenenter"",""1"",""2285""
","
","","","","","","","","","","","","","","","","","","","","","","","","","","",""
"pit-instructions","58","802447","0.0-2.0-13.0","battery-v0.2","","""event"",""trial"",""time""
""fullscreenenter"",""1"",""2285""
","
","
","""event"",""trial"",""time""
""fullscreenenter"",""1"",""2285""
","
","","[{""page_index"":0,""viewing_time"":29171.099999904633},{""page_index"":1,""viewing_time"":8275.900000095367},{""page_index"":2,""viewing_time"":6322.299999952316},{""page_index"":3,""viewing_time"":11145.100000023842},{""page_index"":4,""viewing_time"":7169}]","62083.59999990463","","","","","","","","","","","","","","","","","","","","","","","",""
"pit-trial","59","805829","0.0-2.0-14.0-0.0","battery-v0.2","","""event"",""trial"",""time""
""fullscreenenter"",""1"",""2285""
","
","
","""event"",""trial"",""time""
""fullscreenenter"",""1"",""2285""
","
","","","515.6000000238419","","","22","16356","6109","&#9826;","elianto","#f73b6a7A","-1"," ","0","-10","[1365.6999999284744]","1","0","3","","","","","","","",""
"pit-trial","60","809285","0.0-2.0-14.0-1.0","battery-v0.2","","""event"",""trial"",""time""
""fullscreenenter"",""1"",""2285""
","
","
","""event"",""trial"",""time""
""fullscreenenter"",""1"",""2285""
","
","","","590.5999999046326","","","22","16356","6109","&#9826;","elianto","#f73b6a7A","-1"," ","0","-10","[1447.7999999523163]","1","0","3","","","","","","","",""
"pit-trial","61","814156","0.0-2.0-14.0-2.0","battery-v0.2","","""event"",""trial"",""time""
""fullscreenenter"",""1"",""2285""
","
","
","""event"",""trial"",""time""
""fullscreenenter"",""1"",""2285""
","
","","","-1","","","22","16356","6109","&#9826;","elianto","#f73b6a7A","-1","-1","1","0","[]","0","0","3","","","","","","","",""
"pit-trial","62","819033","0.0-2.0-14.0-3.0","battery-v0.2","","""event"",""trial"",""time""
""fullscreenenter"",""1"",""2285""
","
","
","""event"",""trial"",""time""
""fullscreenenter"",""1"",""2285""
","
","","","-1","","","22","16356","6109","&#9826;","elianto","#f73b6a7A","-1","-1","1","-10","[]","0","0","3","","","","","","","",""
"pit-trial","63","823895","0.0-2.0-14.0-4.0","battery-v0.2","","""event"",""trial"",""time""
""fullscreenenter"",""1"",""2285""
","
","
","""event"",""trial"",""time""
""fullscreenenter"",""1"",""2285""
","
","","","-1","","","22","16356","6109","&#9826;","elianto","#f73b6a7A","-1","-1","1","0","[]","0","0","3","","","","","","","",""
"pit-trial","64","828755","0.0-2.0-14.1-0.1","battery-v0.2","","""event"",""trial"",""time""
""fullscreenenter"",""1"",""2285""
","
","
","""event"",""trial"",""time""
""fullscreenenter"",""1"",""2285""
","
","","","-1","","","22","16356","6109","&#9826;","elianto","#f73b6a7A","-1","-1","1","0","[]","0","0","3","","","","","","","",""
"pit-trial","65","833608","0.0-2.0-14.1-1.1","battery-v0.2","","""event"",""trial"",""time""
""fullscreenenter"",""1"",""2285""
","
","
","""event"",""trial"",""time""
""fullscreenenter"",""1"",""2285""
","
","","","-1","","","22","16356","6109","&#9826;","elianto","#f73b6a7A","-1","-1","1","0","[]","0","0","3","","","","","","","",""
"pit-trial","66","838460","0.0-2.0-14.1-2.1","battery-v0.2","","""event"",""trial"",""time""
""fullscreenenter"",""1"",""2285""
","
","
","""event"",""trial"",""time""
""fullscreenenter"",""1"",""2285""
","
","","","-1","","","22","16356","6109","&#9826;","elianto","#f73b6a7A","-1","-1","1","0","[]","0","0","3","","","","","","","",""
"pit-trial","67","843314","0.0-2.0-14.1-3.1","battery-v0.2","","""event"",""trial"",""time""
""fullscreenenter"",""1"",""2285""
","
","
","""event"",""trial"",""time""
""fullscreenenter"",""1"",""2285""
","
","","","-1","","","22","16356","6109","&#9826;","elianto","#f73b6a7A","-1","-1","1","-10","[]","0","0","3","","","","","","","",""
"pit-trial","68","848177","0.0-2.0-14.1-4.1","battery-v0.2","","""event"",""trial"",""time""
""fullscreenenter"",""1"",""2285""
","
","
","""event"",""trial"",""time""
""fullscreenenter"",""1"",""2285""
","
","","","-1","","","22","16356","6109","&#9826;","elianto","#f73b6a7A","-1","-1","1","0","[]","0","0","3","","","","","","","",""
"pit-trial","69","853037","0.0-2.0-14.2-0.2","battery-v0.2","","""event"",""trial"",""time""
""fullscreenenter"",""1"",""2285""
","
","
","""event"",""trial"",""time""
""fullscreenenter"",""1"",""2285""
","
","","","-1","","","22","16356","6109","&#9826;","elianto","#f73b6a7A","-1","-1","1","0","[]","0","0","3","","","","","","","",""
"pit-trial","70","857890","0.0-2.0-14.2-1.2","battery-v0.2","","""event"",""trial"",""time""
""fullscreenenter"",""1"",""2285""
","
","
","""event"",""trial"",""time""
""fullscreenenter"",""1"",""2285""
","
","","","-1","","","22","16356","6109","&#9826;","elianto","#f73b6a7A","-1","-1","1","0","[]","0","0","3","","","","","","","",""
"pit-trial","71","862743","0.0-2.0-14.2-2.2","battery-v0.2","","""event"",""trial"",""time""
""fullscreenenter"",""1"",""2285""
","
","
","""event"",""trial"",""time""
""fullscreenenter"",""1"",""2285""
","
","","","-1","","","22","16356","6109","&#9826;","elianto","#f73b6a7A","-1","-1","1","0","[]","0","0","3","","","","","","","",""
"pit-trial","72","867598","0.0-2.0-14.2-3.2","battery-v0.2","","""event"",""trial"",""time""
""fullscreenenter"",""1"",""2285""
","
","
","""event"",""trial"",""time""
""fullscreenenter"",""1"",""2285""
","
","","","-1","","","22","16356","6109","&#9826;","elianto","#f73b6a7A","-1","-1","1","-10","[]","0","0","3","","","","","","","",""
"pit-trial","73","872451","0.0-2.0-14.2-4.2","battery-v0.2","","""event"",""trial"",""time""
""fullscreenenter"",""1"",""2285""
","
","
","""event"",""trial"",""time""
""fullscreenenter"",""1"",""2285""
","
","","","-1","","","22","16356","6109","&#9826;","elianto","#f73b6a7A","-1","-1","1","0","[]","0","0","3","","","","","","","",""
"pit-trial","74","877311","0.0-2.0-14.3-0.3","battery-v0.2","","""event"",""trial"",""time""
""fullscreenenter"",""1"",""2285""
","
","
","""event"",""trial"",""time""
""fullscreenenter"",""1"",""2285""
","
","","","-1","","","22","16356","6109","&#9826;","elianto","#f73b6a7A","-1","-1","1","0","[]","0","0","3","","","","","","","",""
"pit-trial","75","882163","0.0-2.0-14.3-1.3","battery-v0.2","","""event"",""trial"",""time""
""fullscreenenter"",""1"",""2285""
","
","
","""event"",""trial"",""time""
""fullscreenenter"",""1"",""2285""
","
","","","-1","","","22","16356","6109","&#9826;","elianto","#f73b6a7A","-1","-1","1","0","[]","0","0","3","","","","","","","",""
"pit-trial","76","887020","0.0-2.0-14.3-2.3","battery-v0.2","","""event"",""trial"",""time""
""fullscreenenter"",""1"",""2285""
","
","
","""event"",""trial"",""time""
""fullscreenenter"",""1"",""2285""
","
","","","-1","","","22","16356","6109","&#9826;","elianto","#f73b6a7A","-1","-1","1","0","[]","0","0","3","","","","","","","",""
"pit-trial","77","891874","0.0-2.0-14.3-3.3","battery-v0.2","","""event"",""trial"",""time""
""fullscreenenter"",""1"",""2285""
","
","
","""event"",""trial"",""time""
""fullscreenenter"",""1"",""2285""
","
","","","-1","","","22","16356","6109","&#9826;","elianto","#f73b6a7A","-1","-1","1","-10","[]","0","0","3","","","","","","","",""
"pit-trial","78","896728","0.0-2.0-14.3-4.3","battery-v0.2","","""event"",""trial"",""time""
""fullscreenenter"",""1"",""2285""
","
","
","""event"",""trial"",""time""
""fullscreenenter"",""1"",""2285""
","
","","","-1","","","22","16356","6109","&#9826;","elianto","#f73b6a7A","-1","-1","1","0","[]","0","0","3","","","","","","","",""
"call-function","79","896729","0.0-2.0-15.0","battery-v0.2","","""event"",""trial"",""time""
""fullscreenenter"",""1"",""2285""
","
","
","""event"",""trial"",""time""
""fullscreenenter"",""1"",""2285""
","
","","","","","","","","","","","","","","","","","","","","","","","","","","",""
"pit-instructions","80","931792","0.0-2.0-16.0","battery-v0.2","","""event"",""trial"",""time""
""fullscreenenter"",""1"",""2285""
","
","
","""event"",""trial"",""time""
""fullscreenenter"",""1"",""2285""
","
","","[{""page_index"":0,""viewing_time"":10918.700000047684},{""page_index"":1,""viewing_time"":11676.199999928474},{""page_index"":2,""viewing_time"":5361},{""page_index"":3,""viewing_time"":7106.399999976158}]","35062.5","","","","","","","","","","","","","","","","","","","","","","","",""
"pit-trial","81","936671","0.0-2.0-17.0-0.0","battery-v0.2","","""event"",""trial"",""time""
""fullscreenenter"",""1"",""2285""
","
","
","""event"",""trial"",""time""
""fullscreenenter"",""1"",""2285""
","
","","","-1","","","22","16356","6109","&#9789;","elianto","#f73b6a7A"," ","-1","0","-10","[]","0","0","4","","","","","","","",""
"pit-trial","82","940112","0.0-2.0-17.0-1.0","battery-v0.2","","""event"",""trial"",""time""
""fullscreenenter"",""1"",""2285""
","
","
","""event"",""trial"",""time""
""fullscreenenter"",""1"",""2285""
","
","","","583.3999999761581","","","22","16356","6109","&#9789;","elianto","#f73b6a7A"," "," ","1","0","[1439.3999999761581]","1","0","4","","","","","","","",""
"pit-trial","83","943358","0.0-2.0-17.0-2.0","battery-v0.2","","""event"",""trial"",""time""
""fullscreenenter"",""1"",""2285""
","
","
","""event"",""trial"",""time""
""fullscreenenter"",""1"",""2285""
","
","","","375.5","","","22","16356","6109","&#9789;","elianto","#f73b6a7A"," "," ","1","0","[1240.3999999761581]","1","0","4","","","","","","","",""
"pit-trial","84","946548","0.0-2.0-17.0-3.0","battery-v0.2","","""event"",""trial"",""time""
""fullscreenenter"",""1"",""2285""
","
","
","""event"",""trial"",""time""
""fullscreenenter"",""1"",""2285""
","
","","","317.7000000476837","","","22","16356","6109","&#9789;","elianto","#f73b6a7A"," "," ","1","-10","[1171.8000000715256]","1","0","4","","","","","","","",""
"pit-trial","85","949629","0.0-2.0-17.0-4.0","battery-v0.2","","""event"",""trial"",""time""
""fullscreenenter"",""1"",""2285""
","
","
","""event"",""trial"",""time""
""fullscreenenter"",""1"",""2285""
","
","","","222","","","22","16356","6109","&#9789;","elianto","#f73b6a7A"," "," ","1","0","[1075.1999999284744]","1","0","4","","","","","","","",""
"pit-trial","86","952855","0.0-2.0-17.1-0.1","battery-v0.2","","""event"",""trial"",""time""
""fullscreenenter"",""1"",""2285""
","
","
","""event"",""trial"",""time""
""fullscreenenter"",""1"",""2285""
","
","","","363.60000002384186","","","22","16356","6109","&#9789;","elianto","#f73b6a7A"," "," ","1","0","[1214.9000000953674]","1","0","4","","","","","","","",""
"pit-trial","87","956132","0.0-2.0-17.1-1.1","battery-v0.2","","""event"",""trial"",""time""
""fullscreenenter"",""1"",""2285""
","
","
","""event"",""trial"",""time""
""fullscreenenter"",""1"",""2285""
","
","","","411.3000000715256","","","22","16356","6109","&#9789;","elianto","#f73b6a7A"," "," ","1","0","[1266.2000000476837]","1","0","4","","","","","","","",""
"pit-trial","88","959359","0.0-2.0-17.1-2.1","battery-v0.2","","""event"",""trial"",""time""
""fullscreenenter"",""1"",""2285""
","
","
","""event"",""trial"",""time""
""fullscreenenter"",""1"",""2285""
","
","","","356.3000000715256","","","22","16356","6109","&#9789;","elianto","#f73b6a7A"," "," ","1","0","[1210.9000000953674]","1","0","4","","","","","","","",""
"pit-trial","89","962665","0.0-2.0-17.1-3.1","battery-v0.2","","""event"",""trial"",""time""
""fullscreenenter"",""1"",""2285""
","
","
","""event"",""trial"",""time""
""fullscreenenter"",""1"",""2285""
","
","","","451.2000000476837","","","22","16356","6109","&#9789;","elianto","#f73b6a7A"," "," ","1","-10","[1302.3999999761581]","1","0","4","","","","","","","",""
"pit-trial","90","965859","0.0-2.0-17.1-4.1","battery-v0.2","","""event"",""trial"",""time""
""fullscreenenter"",""1"",""2285""
","
","
","""event"",""trial"",""time""
""fullscreenenter"",""1"",""2285""
","
","","","341.5","","","22","16356","6109","&#9789;","elianto","#f73b6a7A"," "," ","1","0","[1192.2999999523163]","1","0","4","","","","","","","",""
"pit-trial","91","970714","0.0-2.0-17.2-0.2","battery-v0.2","","""event"",""trial"",""time""
""fullscreenenter"",""1"",""2285""
","
","
","""event"",""trial"",""time""
""fullscreenenter"",""1"",""2285""
","
","","","-1","","","22","16356","6109","&#9789;","elianto","#f73b6a7A"," ","-1","0","-10","[]","0","0","4","","","","","","","",""
"pit-trial","92","973949","0.0-2.0-17.2-1.2","battery-v0.2","","""event"",""trial"",""time""
""fullscreenenter"",""1"",""2285""
","
","
","""event"",""trial"",""time""
""fullscreenenter"",""1"",""2285""
","
","","","381.39999997615814","","","22","16356","6109","&#9789;","elianto","#f73b6a7A"," "," ","1","0","[1232.1000000238419]","1","0","4","","","","","","","",""
"pit-trial","93","976983","0.0-2.0-17.2-2.2","battery-v0.2","","""event"",""trial"",""time""
""fullscreenenter"",""1"",""2285""
","
","
","""event"",""trial"",""time""
""fullscreenenter"",""1"",""2285""
","
","","","179.09999990463257","","","22","16356","6109","&#9789;","elianto","#f73b6a7A"," "," ","1","0","[1029.3999999761581]","1","0","4","","","","","","","",""
"pit-trial","94","980093","0.0-2.0-17.2-3.2","battery-v0.2","","""event"",""trial"",""time""
""fullscreenenter"",""1"",""2285""
","
","
","""event"",""trial"",""time""
""fullscreenenter"",""1"",""2285""
","
","","","254.70000004768372","","","22","16356","6109","&#9789;","elianto","#f73b6a7A"," "," ","1","-10","[1105.7000000476837]","1","0","4","","","","","","","",""
"pit-trial","95","983428","0.0-2.0-17.2-4.2","battery-v0.2","","""event"",""trial"",""time""
""fullscreenenter"",""1"",""2285""
","
","
","""event"",""trial"",""time""
""fullscreenenter"",""1"",""2285""
","
","","","481.89999997615814","","","22","16356","6109","&#9789;","elianto","#f73b6a7A"," "," ","1","0","[1332]","1","0","4","","","","","","","",""
"pit-trial","96","986753","0.0-2.0-17.3-0.3","battery-v0.2","","""event"",""trial"",""time""
""fullscreenenter"",""1"",""2285""
","
","
","""event"",""trial"",""time""
""fullscreenenter"",""1"",""2285""
","
","","","470.10000002384186","","","22","16356","6109","&#9789;","elianto","#f73b6a7A"," "," ","1","0","[1320.2999999523163]","1","0","4","","","","","","","",""
"pit-trial","97","990054","0.0-2.0-17.3-1.3","battery-v0.2","","""event"",""trial"",""time""
""fullscreenenter"",""1"",""2285""
","
","
","""event"",""trial"",""time""
""fullscreenenter"",""1"",""2285""
","
","","","447.5","","","22","16356","6109","&#9789;","elianto","#f73b6a7A"," "," ","1","0","[1297.8000000715256]","1","0","4","","","","","","","",""
"pit-trial","98","993349","0.0-2.0-17.3-2.3","battery-v0.2","","""event"",""trial"",""time""
""fullscreenenter"",""1"",""2285""
","
","
","""event"",""trial"",""time""
""fullscreenenter"",""1"",""2285""
","
","","","440.59999990463257","","","22","16356","6109","&#9789;","elianto","#f73b6a7A"," "," ","1","0","[1290.7999999523163]","1","0","4","","","","","","","",""
"pit-trial","99","997047","0.0-2.0-17.3-3.3","battery-v0.2","","""event"",""trial"",""time""
""fullscreenenter"",""1"",""2285""
","
","
","""event"",""trial"",""time""
""fullscreenenter"",""1"",""2285""
","
","","","844.3999999761581","","","22","16356","6109","&#9789;","elianto","#f73b6a7A"," "," ","1","-10","[1694.4000000953674]","1","0","4","","","","","","","",""
"pit-trial","100","1000288","0.0-2.0-17.3-4.3","battery-v0.2","","""event"",""trial"",""time""
""fullscreenenter"",""1"",""2285""
","
","
","""event"",""trial"",""time""
""fullscreenenter"",""1"",""2285""
","
","","","388.39999997615814","","","22","16356","6109","&#9789;","elianto","#f73b6a7A"," "," ","1","0","[1239.2000000476837]","1","0","4","","","","","","","",""
"call-function","101","1000294","0.0-2.0-18.0","battery-v0.2","","""event"",""trial"",""time""
""fullscreenenter"",""1"",""2285""
","
","
","""event"",""trial"",""time""
""fullscreenenter"",""1"",""2285""
","
","","","","","","","","","","","","","","","","","","","","","","","","","","",""
"pit-instructions","102","1071832","0.0-2.0-19.0","battery-v0.2","","""event"",""trial"",""time""
""fullscreenenter"",""1"",""2285""
","
","
","""event"",""trial"",""time""
""fullscreenenter"",""1"",""2285""
","
","","[{""page_index"":0,""viewing_time"":8906.599999904633},{""page_index"":1,""viewing_time"":6447.5},{""page_index"":2,""viewing_time"":15878.400000095367},{""page_index"":3,""viewing_time"":5797.599999904633},{""page_index"":4,""viewing_time"":6183.800000071526},{""page_index"":5,""viewing_time"":8939.799999952316},{""page_index"":6,""viewing_time"":8560.5},{""page_index"":7,""viewing_time"":4938.300000071526},{""page_index"":8,""viewing_time"":5883.599999904633}]","71536.69999992847","","","","","","","","","","","","","","","","","","","","","","","",""
"pit-comprehension","103","1076434","0.0-2.0-20.0-0.0","battery-v0.2","","""event"",""trial"",""time""
""fullscreenenter"",""1"",""2285""
","
","
","""event"",""trial"",""time""
""fullscreenenter"",""1"",""2285""
","
","","","4594","[""SPACE""]","0","22","16356","6109","","","","","","","","","","","","","","","","","","",""
"pit-instructions","104","1079852","0.0-2.0-20.0-1.0","battery-v0.2","","""event"",""trial"",""time""
""fullscreenenter"",""1"",""2285""
","
","
","""event"",""trial"",""time""
""fullscreenenter"",""1"",""2285""
","
","","[{""page_index"":0,""viewing_time"":3293.3000000715256}]","3293.9000000953674","","","","","","","","","","","","","","","","","","","","","","","",""
"pit-comprehension","105","1085824","0.0-2.0-21.0-0.0","battery-v0.2","","""event"",""trial"",""time""
""fullscreenenter"",""1"",""2285""
","
","
","""event"",""trial"",""time""
""fullscreenenter"",""1"",""2285""
","
","","","5964.600000023842","[""10""]","0","22","16356","6109","","","","","","","","","","","","","","","","","","",""
"pit-instructions","106","1089234","0.0-2.0-21.0-1.0","battery-v0.2","","""event"",""trial"",""time""
""fullscreenenter"",""1"",""2285""
","
","
","""event"",""trial"",""time""
""fullscreenenter"",""1"",""2285""
","
","","[{""page_index"":0,""viewing_time"":3334.7999999523163}]","3335.399999976158","","","","","","","","","","","","","","","","","","","","","","","",""
"pit-comprehension","107","1095695","0.0-2.0-22.0-0.0","battery-v0.2","","""event"",""trial"",""time""
""fullscreenenter"",""1"",""2285""
","
","
","""event"",""trial"",""time""
""fullscreenenter"",""1"",""2285""
","
","","","6454.199999928474","[""0""]","0","22","16356","6109","","","","","","","","","","","","","","","","","","",""
"pit-instructions","108","1098034","0.0-2.0-22.0-1.0","battery-v0.2","","""event"",""trial"",""time""
""fullscreenenter"",""1"",""2285""
","
","
","""event"",""trial"",""time""
""fullscreenenter"",""1"",""2285""
","
","","[{""page_index"":0,""viewing_time"":2237.8000000715256}]","2238.3000000715256","","","","","","","","","","","","","","","","","","","","","","","",""
"pit-comprehension","109","1106498","0.0-2.0-23.0-0.0","battery-v0.2","","""event"",""trial"",""time""
""fullscreenenter"",""1"",""2285""
","
","
","""event"",""trial"",""time""
""fullscreenenter"",""1"",""2285""
","
","","","8457.899999976158","[""True""]","0","22","16356","6109","","","","","","","","","","","","","","","","","","",""
"pit-instructions","110","1109004","0.0-2.0-23.0-1.0","battery-v0.2","","""event"",""trial"",""time""
""fullscreenenter"",""1"",""2285""
","
","
","""event"",""trial"",""time""
""fullscreenenter"",""1"",""2285""
","
","","[{""page_index"":0,""viewing_time"":2427}]","2427.399999976158","","","","","","","","","","","","","","","","","","","","","","","",""
"pit-comprehension","111","1116462","0.0-2.0-24.0-0.0","battery-v0.2","","""event"",""trial"",""time""
""fullscreenenter"",""1"",""2285""
","
","
","""event"",""trial"",""time""
""fullscreenenter"",""1"",""2285""
","
","","","7452.100000023842","[""True""]","0","22","16356","6109","","","","","","","","","","","","","","","","","","",""
"pit-instructions","112","1118868","0.0-2.0-24.0-1.0","battery-v0.2","","""event"",""trial"",""time""
""fullscreenenter"",""1"",""2285""
","
","
","""event"",""trial"",""time""
""fullscreenenter"",""1"",""2285""
","
","","[{""page_index"":0,""viewing_time"":2357.899999976158}]","2358.399999976158","","","","","","","","","","","","","","","","","","","","","","","",""
"pit-comprehension","113","1126120","0.0-2.0-25.0-0.0","battery-v0.2","","""event"",""trial"",""time""
""fullscreenenter"",""1"",""2285""
","
","
","""event"",""trial"",""time""
""fullscreenenter"",""1"",""2285""
","
","","","7246.899999976158","[""True""]","0","22","16356","6109","","","","","","","","","","","","","","","","","","",""
"pit-instructions","114","1128124","0.0-2.0-25.0-1.0","battery-v0.2","","""event"",""trial"",""time""
""fullscreenenter"",""1"",""2285""
","
","
","""event"",""trial"",""time""
""fullscreenenter"",""1"",""2285""
","
","","[{""page_index"":0,""viewing_time"":1971.8999999761581}]","1972.0999999046326","","","","","","","","","","","","","","","","","","","","","","","",""
"pit-comprehension","115","1135811","0.0-2.0-26.0-0.0","battery-v0.2","","""event"",""trial"",""time""
""fullscreenenter"",""1"",""2285""
","
","
","""event"",""trial"",""time""
""fullscreenenter"",""1"",""2285""
","
","","","7685","[""False""]","0","22","16356","6109","","","","","","","","","","","","","","","","","","",""
"pit-instructions","116","1139761","0.0-2.0-26.0-1.0","battery-v0.2","","""event"",""trial"",""time""
""fullscreenenter"",""1"",""2285""
","
","
","""event"",""trial"",""time""
""fullscreenenter"",""1"",""2285""
","
","","[{""page_index"":0,""viewing_time"":3862.7000000476837}]","3863.100000023842","","","","","","","","","","","","","","","","","","","","","","","",""
"pit-instructions","117","1159117","0.0-3.0","battery-v0.2","","""event"",""trial"",""time""
""fullscreenenter"",""1"",""2285""
","
","
","""event"",""trial"",""time""
""fullscreenenter"",""1"",""2285""
","
","","[{""page_index"":0,""viewing_time"":4443.200000047684},{""page_index"":1,""viewing_time"":7924.100000023842},{""page_index"":2,""viewing_time"":6983.799999952316}]","19351.600000023842","","","","","","","","","","","","","","","","","","","","","","","",""
"pit-trial","118","1162588","0.0-4.0","battery-v0.2","","""event"",""trial"",""time""
""fullscreenenter"",""1"",""2285""
","
","
","""event"",""trial"",""time""
""fullscreenenter"",""1"",""2285""
","
","","","603.5","","","22","16356","6109","&#9730;","elianto","#3366ff99"," "," ","1","0","[1454.1999999284744]","1","1","","","16356","1","1","1","win","go","1"
"pit-trial","119","1165968","0.0-5.0","battery-v0.2","","""event"",""trial"",""time""
""fullscreenenter"",""1"",""2285""
","
","
","""event"",""trial"",""time""
""fullscreenenter"",""1"",""2285""
","
","","","516.1000000238419","","","22","16356","6109","&#9733;","elianto","#3366ff99","-1"," ","0","0","[1368.2000000476837]","1","1","","","16356","2","2","2","win","no-go","0"
"pit-trial","120","1169637","0.0-6.0","battery-v0.2","","""event"",""trial"",""time""
""fullscreenenter"",""1"",""2285""
","
","
","""event"",""trial"",""time""
""fullscreenenter"",""1"",""2285""
","
","","","803.0999999046326","","","22","16356","6109","&#9752;","elianto","#f73b6a7A"," "," ","1","0","[1657.5]","1","1","","","16356","3","3","3","lose","go","0"
"pit-trial","121","1174512","0.0-7.0","battery-v0.2","","""event"",""trial"",""time""
""fullscreenenter"",""1"",""2285""
","
","
","""event"",""trial"",""time""
""fullscreenenter"",""1"",""2285""
","
","","","-1","","","22","16356","6109","&#9728;","elianto","#f73b6a7A","-1","-1","1","0","[]","0","1","","","16356","4","0","4","lose","no-go","0"
"pit-trial","122","1178126","0.0-8.0","battery-v0.2","","""event"",""trial"",""time""
""fullscreenenter"",""1"",""2285""
","
","
","""event"",""trial"",""time""
""fullscreenenter"",""1"",""2285""
","
","","","741.3999999761581","","","22","16356","6109","&#9733;","elianto","#3366ff99","-1"," ","0","+10","[1596.1000000238419]","1","1","","","16356","5","2","2","win","no-go","1"
"pit-trial","123","1183000","0.0-9.0","battery-v0.2","","""event"",""trial"",""time""
""fullscreenenter"",""1"",""2285""
","
","
","""event"",""trial"",""time""
""fullscreenenter"",""1"",""2285""
","
","","","-1","","","22","16356","6109","&#9752;","elianto","#f73b6a7A"," ","-1","0","-10","[]","0","1","","","16356","6","3","3","lose","go","0"
"pit-trial","124","1187874","0.0-10.0","battery-v0.2","","""event"",""trial"",""time""
""fullscreenenter"",""1"",""2285""
","
","
","""event"",""trial"",""time""
""fullscreenenter"",""1"",""2285""
","
","","","-1","","","22","16356","6109","&#9728;","elianto","#f73b6a7A","-1","-1","1","0","[]","0","1","","","16356","7","0","4","lose","no-go","0"
"pit-trial","125","1191781","0.0-11.0","battery-v0.2","","""event"",""trial"",""time""
""fullscreenenter"",""1"",""2285""
","
","
","""event"",""trial"",""time""
""fullscreenenter"",""1"",""2285""
","
","","","1047.6000000238419","","","22","16356","6109","&#9730;","elianto","#3366ff99"," "," ","1","+10","[1902.3999999761581]","1","1","","","16356","8","1","1","win","go","0"
"pit-trial","126","1195604","0.0-12.0","battery-v0.2","","""event"",""trial"",""time""
""fullscreenenter"",""1"",""2285""
","
","
","""event"",""trial"",""time""
""fullscreenenter"",""1"",""2285""
","
","","","955.2999999523163","","","22","16356","6109","&#9752;","elianto","#f73b6a7A"," "," ","1","0","[1805.6999999284744]","1","1","","","16356","9","3","3","lose","go","0"
"pit-trial","127","1200459","0.0-13.0","battery-v0.2","","""event"",""trial"",""time""
""fullscreenenter"",""1"",""2285""
","
","
","""event"",""trial"",""time""
""fullscreenenter"",""1"",""2285""
","
","","","-1","","","22","16356","6109","&#9728;","elianto","#f73b6a7A","-1","-1","1","-10","[]","0","1","","","16356","10","0","4","lose","no-go","1"
"pit-trial","128","1203969","0.0-14.0","battery-v0.2","","""event"",""trial"",""time""
""fullscreenenter"",""1"",""2285""
","
","
","""event"",""trial"",""time""
""fullscreenenter"",""1"",""2285""
","
","","","655.5","","","22","16356","6109","&#9733;","elianto","#3366ff99","-1"," ","0","0","[1506.3000000715256]","1","1","","","16356","11","2","2","win","no-go","0"
"pit-trial","129","1207601","0.0-15.0","battery-v0.2","","""event"",""trial"",""time""
""fullscreenenter"",""1"",""2285""
","
","
","""event"",""trial"",""time""
""fullscreenenter"",""1"",""2285""
","
","","","773.6999999284744","","","22","16356","6109","&#9730;","elianto","#3366ff99"," "," ","1","+10","[1624.5999999046326]","1","1","","","16356","12","1","1","win","go","0"
"pit-trial","130","1211457","0.0-16.0","battery-v0.2","","""event"",""trial"",""time""
""fullscreenenter"",""1"",""2285""
","
","
","""event"",""trial"",""time""
""fullscreenenter"",""1"",""2285""
","
","","","1000.8000000715256","","","22","16356","6109","&#9728;","elianto","#f73b6a7A","-1"," ","0","-10","[1851.5]","1","1","","","16356","13","0","4","lose","no-go","0"
"pit-trial","131","1216311","0.0-17.0","battery-v0.2","","""event"",""trial"",""time""
""fullscreenenter"",""1"",""2285""
","
","
","""event"",""trial"",""time""
""fullscreenenter"",""1"",""2285""
","
","","","-1","","","22","16356","6109","&#9752;","elianto","#f73b6a7A"," ","-1","0","-10","[]","0","1","","","16356","14","3","3","lose","go","0"
"pit-trial","132","1221164","0.0-18.0","battery-v0.2","","""event"",""trial"",""time""
""fullscreenenter"",""1"",""2285""
","
","
","""event"",""trial"",""time""
""fullscreenenter"",""1"",""2285""
","
","","","-1","","","22","16356","6109","&#9733;","elianto","#3366ff99","-1","-1","1","+10","[]","0","1","","","16356","15","2","2","win","no-go","0"
"pit-trial","133","1224665","0.0-19.0","battery-v0.2","","""event"",""trial"",""time""
""fullscreenenter"",""1"",""2285""
","
","
","""event"",""trial"",""time""
""fullscreenenter"",""1"",""2285""
","
","","","646.3999999761581","","","22","16356","6109","&#9730;","elianto","#3366ff99"," "," ","1","0","[1496.8999999761581]","1","1","","","16356","16","1","1","win","go","1"
"pit-trial","134","1229492","0.0-20.0","battery-v0.2","","""event"",""trial"",""time""
""fullscreenenter"",""1"",""2285""
","
","
","""event"",""trial"",""time""
""fullscreenenter"",""1"",""2285""
","
","","","1972.8999999761581","","","22","16356","6109","&#9733;","elianto","#3366ff99","-1"," ","0","0","[2823.5]","1","1","","","16356","17","2","2","win","no-go","0"
"pit-trial","135","1234346","0.0-21.0","battery-v0.2","","""event"",""trial"",""time""
""fullscreenenter"",""1"",""2285""
","
","
","""event"",""trial"",""time""
""fullscreenenter"",""1"",""2285""
","
","","","-1","","","22","16356","6109","&#9752;","elianto","#f73b6a7A"," ","-1","0","0","[]","0","1","","","16356","18","3","3","lose","go","1"
"pit-trial","136","1238332","0.0-22.0","battery-v0.2","","""event"",""trial"",""time""
""fullscreenenter"",""1"",""2285""
","
","
","""event"",""trial"",""time""
""fullscreenenter"",""1"",""2285""
","
","","","1129.7000000476837","","","22","16356","6109","&#9728;","elianto","#f73b6a7A","-1"," ","0","-10","[1981.6000000238419]","1","1","","","16356","19","0","4","lose","no-go","0"
"pit-trial","137","1241910","0.0-23.0","battery-v0.2","","""event"",""trial"",""time""
""fullscreenenter"",""1"",""2285""
","
","
","""event"",""trial"",""time""
""fullscreenenter"",""1"",""2285""
","
","","","724.8999999761581","","","22","16356","6109","&#9730;","elianto","#3366ff99"," "," ","1","+10","[1575.7000000476837]","1","1","","","16356","20","1","1","win","go","0"
"pit-instructions","138","1255677","0.0-24.0","battery-v0.2","","""event"",""trial"",""time""
""fullscreenenter"",""1"",""2285""
","
","
","""event"",""trial"",""time""
""fullscreenenter"",""1"",""2285""
","
","","[{""page_index"":0,""viewing_time"":6663.100000023842},{""page_index"":1,""viewing_time"":7101}]","13764.600000023842","","","","","","","","","","","","","","","","","","","","","","","",""
"pit-trial","139","1259950","0.0-25.0","battery-v0.2","","""event"",""trial"",""time""
""fullscreenenter"",""1"",""2285""
","
","
","""event"",""trial"",""time""
""fullscreenenter"",""1"",""2285""
","
","","","1399.2000000476837","","","22","16356","6109","n","elianto","#f73b6a7A"," "," ","1","0","[2256.5]","1","2","","","16356","21","0","3","lose","go","0"
"pit-trial","140","1263487","0.0-26.0","battery-v0.2","","""event"",""trial"",""time""
""fullscreenenter"",""1"",""2285""
","
","
","""event"",""trial"",""time""
""fullscreenenter"",""1"",""2285""
","
","","","674.8000000715256","","","22","16356","6109","f","elianto","#3366ff99","-1"," ","0","0","[1526.6000000238419]","1","2","","","16356","22","1","2","win","no-go","0"
"pit-trial","141","1268368","0.0-27.0","battery-v0.2","","""event"",""trial"",""time""
""fullscreenenter"",""1"",""2285""
","
","
","""event"",""trial"",""time""
""fullscreenenter"",""1"",""2285""
","
","","","-1","","","22","16356","6109","t","elianto","#f73b6a7A"," ","-1","0","-10","[]","0","2","","","16356","23","2","3","lose","go","0"
"pit-trial","142","1272033","0.0-28.0","battery-v0.2","","""event"",""trial"",""time""
""fullscreenenter"",""1"",""2285""
","
","
","""event"",""trial"",""time""
""fullscreenenter"",""1"",""2285""
","
","","","804.6999999284744","","","22","16356","6109","b","elianto","#f73b6a7A","-1"," ","0","-10","[1659.2999999523163]","1","2","","","16356","24","3","4","lose","no-go","0"
"pit-trial","143","1276034","0.0-29.0","battery-v0.2","","""event"",""trial"",""time""
""fullscreenenter"",""1"",""2285""
","
","
","""event"",""trial"",""time""
""fullscreenenter"",""1"",""2285""
","
","","","1141","","","22","16356","6109","t","elianto","#f73b6a7A"," "," ","1","0","[1992.5]","1","2","","","16356","25","2","3","lose","go","0"
"pit-trial","144","1280077","0.0-30.0","battery-v0.2","","""event"",""trial"",""time""
""fullscreenenter"",""1"",""2285""
","
","
","""event"",""trial"",""time""
""fullscreenenter"",""1"",""2285""
","
","","","1180","","","22","16356","6109","n","elianto","#f73b6a7A"," "," ","1","0","[2034.6999999284744]","1","2","","","16356","26","0","3","lose","go","0"
"pit-trial","145","1283631","0.0-31.0","battery-v0.2","","""event"",""trial"",""time""
""fullscreenenter"",""1"",""2285""
","
","
","""event"",""trial"",""time""
""fullscreenenter"",""1"",""2285""
","
","","","695","","","22","16356","6109","f","elianto","#3366ff99","-1"," ","0","0","[1549.5]","1","2","","","16356","27","1","2","win","no-go","0"
"pit-trial","146","1287138","0.0-32.0","battery-v0.2","","""event"",""trial"",""time""
""fullscreenenter"",""1"",""2285""
","
","
","""event"",""trial"",""time""
""fullscreenenter"",""1"",""2285""
","
","","","652.3999999761581","","","22","16356","6109","b","elianto","#f73b6a7A","-1"," ","0","-10","[1503.1000000238419]","1","2","","","16356","28","3","4","lose","no-go","0"
"pit-trial","147","1290745","0.0-33.0","battery-v0.2","","""event"",""trial"",""time""
""fullscreenenter"",""1"",""2285""
","
","
","""event"",""trial"",""time""
""fullscreenenter"",""1"",""2285""
","
","","","754","","","22","16356","6109","f","elianto","#3366ff99","-1"," ","0","0","[1605.5]","1","2","","","16356","29","1","2","win","no-go","0"
"pit-trial","148","1294513","0.0-34.0","battery-v0.2","","""event"",""trial"",""time""
""fullscreenenter"",""1"",""2285""
","
","
","""event"",""trial"",""time""
""fullscreenenter"",""1"",""2285""
","
","","","912.5","","","22","16356","6109","b","elianto","#f73b6a7A","-1"," ","0","-10","[1763.8999999761581]","1","2","","","16356","30","3","4","lose","no-go","0"
"pit-trial","149","1298366","0.0-35.0","battery-v0.2","","""event"",""trial"",""time""
""fullscreenenter"",""1"",""2285""
","
","
","""event"",""trial"",""time""
""fullscreenenter"",""1"",""2285""
","
","","","997.5","","","22","16356","6109","n","elianto","#f73b6a7A"," "," ","1","-10","[1847.6000000238419]","1","2","","","16356","31","0","3","lose","go","1"
"pit-trial","150","1303221","0.0-36.0","battery-v0.2","","""event"",""trial"",""time""
""fullscreenenter"",""1"",""2285""
","
","
","""event"",""trial"",""time""
""fullscreenenter"",""1"",""2285""
","
","","","-1","","","22","16356","6109","t","elianto","#f73b6a7A"," ","-1","0","-10","[]","0","2","","","16356","32","2","3","lose","go","0"
"pit-trial","151","1308077","0.0-37.0","battery-v0.2","","""event"",""trial"",""time""
""fullscreenenter"",""1"",""2285""
","
","
","""event"",""trial"",""time""
""fullscreenenter"",""1"",""2285""
","
","","","-1","","","22","16356","6109","f","elianto","#3366ff99","-1","-1","1","0","[]","0","2","","","16356","33","1","2","win","no-go","1"
"pit-trial","152","1311797","0.0-38.0","battery-v0.2","","""event"",""trial"",""time""
""fullscreenenter"",""1"",""2285""
","
","
","""event"",""trial"",""time""
""fullscreenenter"",""1"",""2285""
","
","","","861.4000000953674","","","22","16356","6109","b","elianto","#f73b6a7A","-1"," ","0","-10","[1716.3999999761581]","1","2","","","16356","34","3","4","lose","no-go","0"
"pit-trial","153","1315375","0.0-39.0","battery-v0.2","","""event"",""trial"",""time""
""fullscreenenter"",""1"",""2285""
","
","
","""event"",""trial"",""time""
""fullscreenenter"",""1"",""2285""
","
","","","714.8999999761581","","","22","16356","6109","n","elianto","#f73b6a7A"," "," ","1","0","[1565.1999999284744]","1","2","","","16356","35","0","3","lose","go","0"
"pit-trial","154","1320229","0.0-40.0","battery-v0.2","","""event"",""trial"",""time""
""fullscreenenter"",""1"",""2285""
","
","
","""event"",""trial"",""time""
""fullscreenenter"",""1"",""2285""
","
","","","-1","","","22","16356","6109","t","elianto","#f73b6a7A"," ","-1","0","-10","[]","0","2","","","16356","36","2","3","lose","go","0"
"pit-trial","155","1324009","0.0-41.0","battery-v0.2","","""event"",""trial"",""time""
""fullscreenenter"",""1"",""2285""
","
","
","""event"",""trial"",""time""
""fullscreenenter"",""1"",""2285""
","
","","","926.7000000476837","","","22","16356","6109","b","elianto","#f73b6a7A","-1"," ","0","0","[1777.7000000476837]","1","2","","","16356","37","3","4","lose","no-go","1"
"pit-trial","156","1328059","0.0-42.0","battery-v0.2","","""event"",""trial"",""time""
""fullscreenenter"",""1"",""2285""
","
","
","""event"",""trial"",""time""
""fullscreenenter"",""1"",""2285""
","
","","","1195.7000000476837","","","22","16356","6109","f","elianto","#3366ff99","-1"," ","0","0","[2046.4000000953674]","1","2","","","16356","38","1","2","win","no-go","0"
"pit-trial","157","1331796","0.0-43.0","battery-v0.2","","""event"",""trial"",""time""
""fullscreenenter"",""1"",""2285""
","
","
","""event"",""trial"",""time""
""fullscreenenter"",""1"",""2285""
","
","","","883.1000000238419","","","22","16356","6109","n","elianto","#f73b6a7A"," "," ","1","0","[1733.3999999761581]","1","2","","","16356","39","0","3","lose","go","0"
"pit-trial","158","1336653","0.0-44.0","battery-v0.2","","""event"",""trial"",""time""
""fullscreenenter"",""1"",""2285""
","
","
","""event"",""trial"",""time""
""fullscreenenter"",""1"",""2285""
","
","","","-1","","","22","16356","6109","t","elianto","#f73b6a7A"," ","-1","0","-10","[]","0","2","","","16356","40","2","3","lose","go","0"
"pit-trial","159","1340323","0.0-45.0","battery-v0.2","","""event"",""trial"",""time""
""fullscreenenter"",""1"",""2285""
","
","
","""event"",""trial"",""time""
""fullscreenenter"",""1"",""2285""
","
","","","815.1000000238419","","","22","16356","6109","t","elianto","#f73b6a7A"," "," ","1","0","[1666.1999999284744]","1","2","","","16356","41","2","3","lose","go","0"
"pit-trial","160","1343866","0.0-46.0","battery-v0.2","","""event"",""trial"",""time""
""fullscreenenter"",""1"",""2285""
","
","
","""event"",""trial"",""time""
""fullscreenenter"",""1"",""2285""
","
","","","689.2999999523163","","","22","16356","6109","b","elianto","#f73b6a7A","-1"," ","0","-10","[1540.2999999523163]","1","2","","","16356","42","3","4","lose","no-go","0"
"pit-trial","161","1348240","0.0-47.0","battery-v0.2","","""event"",""trial"",""time""
""fullscreenenter"",""1"",""2285""
","
","
","""event"",""trial"",""time""
""fullscreenenter"",""1"",""2285""
","
","","","1519.8999999761581","","","22","16356","6109","n","elianto","#f73b6a7A"," "," ","1","-10","[2371]","1","2","","","16356","43","0","3","lose","go","1"
"pit-trial","162","1351871","0.0-48.0","battery-v0.2","","""event"",""trial"",""time""
""fullscreenenter"",""1"",""2285""
","
","
","""event"",""trial"",""time""
""fullscreenenter"",""1"",""2285""
","
","","","764.9000000953674","","","22","16356","6109","f","elianto","#3366ff99","-1"," ","0","0","[1615.2000000476837]","1","2","","","16356","44","1","2","win","no-go","0"
"pit-trial","163","1356023","0.0-49.0","battery-v0.2","","""event"",""trial"",""time""
""fullscreenenter"",""1"",""2285""
","
","
","""event"",""trial"",""time""
""fullscreenenter"",""1"",""2285""
","
","","","1298.0999999046326","","","22","16356","6109","b","elianto","#f73b6a7A","-1"," ","0","-10","[2148.399999976158]","1","2","","","16356","45","3","4","lose","no-go","0"
"pit-trial","164","1360136","0.0-50.0","battery-v0.2","","""event"",""trial"",""time""
""fullscreenenter"",""1"",""2285""
","
","
","""event"",""trial"",""time""
""fullscreenenter"",""1"",""2285""
","
","","","1259.3000000715256","","","22","16356","6109","n","elianto","#f73b6a7A"," "," ","1","0","[2110.100000023842]","1","2","","","16356","46","0","3","lose","go","0"
"pit-trial","165","1364990","0.0-51.0","battery-v0.2","","""event"",""trial"",""time""
""fullscreenenter"",""1"",""2285""
","
","
","""event"",""trial"",""time""
""fullscreenenter"",""1"",""2285""
","
","","","-1","","","22","16356","6109","t","elianto","#f73b6a7A"," ","-1","0","-10","[]","0","2","","","16356","47","2","3","lose","go","0"
"pit-trial","166","1369844","0.0-52.0","battery-v0.2","","""event"",""trial"",""time""
""fullscreenenter"",""1"",""2285""
","
","
","""event"",""trial"",""time""
""fullscreenenter"",""1"",""2285""
","
","","","-1","","","22","16356","6109","f","elianto","#3366ff99","-1","-1","1","+10","[]","0","2","","","16356","48","1","2","win","no-go","0"
"pit-trial","167","1373813","0.0-53.0","battery-v0.2","","""event"",""trial"",""time""
""fullscreenenter"",""1"",""2285""
","
","
","""event"",""trial"",""time""
""fullscreenenter"",""1"",""2285""
","
","","","1116","","","22","16356","6109","n","elianto","#f73b6a7A"," "," ","1","0","[1966.3999999761581]","1","2","","","16356","49","0","3","lose","go","0"
"pit-trial","168","1378677","0.0-54.0","battery-v0.2","","""event"",""trial"",""time""
""fullscreenenter"",""1"",""2285""
","
","
","""event"",""trial"",""time""
""fullscreenenter"",""1"",""2285""
","
","","","-1","","","22","16356","6109","f","elianto","#3366ff99","-1","-1","1","+10","[]","0","2","","","16356","50","1","2","win","no-go","0"
"pit-trial","169","1382341","0.0-55.0","battery-v0.2","","""event"",""trial"",""time""
""fullscreenenter"",""1"",""2285""
","
","
","""event"",""trial"",""time""
""fullscreenenter"",""1"",""2285""
","
","","","809.8999999761581","","","22","16356","6109","t","elianto","#f73b6a7A"," "," ","1","-10","[1662]","1","2","","","16356","51","2","3","lose","go","1"
"pit-trial","170","1387196","0.0-56.0","battery-v0.2","","""event"",""trial"",""time""
""fullscreenenter"",""1"",""2285""
","
","
","""event"",""trial"",""time""
""fullscreenenter"",""1"",""2285""
","
","","","-1","","","22","16356","6109","b","elianto","#f73b6a7A","-1","-1","1","0","[]","0","2","","","16356","52","3","4","lose","no-go","0"
"pit-trial","171","1390975","0.0-57.0","battery-v0.2","","""event"",""trial"",""time""
""fullscreenenter"",""1"",""2285""
","
","
","""event"",""trial"",""time""
""fullscreenenter"",""1"",""2285""
","
","","","924.3000000715256","","","22","16356","6109","n","elianto","#f73b6a7A"," "," ","1","0","[1775]","1","2","","","16356","53","0","3","lose","go","0"
"pit-trial","172","1395227","0.0-58.0","battery-v0.2","","""event"",""trial"",""time""
""fullscreenenter"",""1"",""2285""
","
","
","""event"",""trial"",""time""
""fullscreenenter"",""1"",""2285""
","
","","","1397.1000000238419","","","22","16356","6109","t","elianto","#f73b6a7A"," "," ","1","0","[2247.5]","1","2","","","16356","54","2","3","lose","go","0"
"pit-trial","173","1400082","0.0-59.0","battery-v0.2","","""event"",""trial"",""time""
""fullscreenenter"",""1"",""2285""
","
","
","""event"",""trial"",""time""
""fullscreenenter"",""1"",""2285""
","
","","","-1","","","22","16356","6109","b","elianto","#f73b6a7A","-1","-1","1","0","[]","0","2","","","16356","55","3","4","lose","no-go","0"
"pit-trial","174","1404936","0.0-60.0","battery-v0.2","","""event"",""trial"",""time""
""fullscreenenter"",""1"",""2285""
","
","
","""event"",""trial"",""time""
""fullscreenenter"",""1"",""2285""
","
","","","-1","","","22","16356","6109","f","elianto","#3366ff99","-1","-1","1","+10","[]","0","2","","","16356","56","1","2","win","no-go","0"
"pit-trial","175","1409789","0.0-61.0","battery-v0.2","","""event"",""trial"",""time""
""fullscreenenter"",""1"",""2285""
","
","
","""event"",""trial"",""time""
""fullscreenenter"",""1"",""2285""
","
","","","-1","","","22","16356","6109","b","elianto","#f73b6a7A","-1","-1","1","-10","[]","0","2","","","16356","57","3","4","lose","no-go","1"
"pit-trial","176","1413357","0.0-62.0","battery-v0.2","","""event"",""trial"",""time""
""fullscreenenter"",""1"",""2285""
","
","
","""event"",""trial"",""time""
""fullscreenenter"",""1"",""2285""
","
","","","713","","","22","16356","6109","n","elianto","#f73b6a7A"," "," ","1","0","[1566.1000000238419]","1","2","","","16356","58","0","3","lose","go","0"
"pit-trial","177","1417003","0.0-63.0","battery-v0.2","","""event"",""trial"",""time""
""fullscreenenter"",""1"",""2285""
","
","
","""event"",""trial"",""time""
""fullscreenenter"",""1"",""2285""
","
","","","777.5","","","22","16356","6109","c","elianto","#3366ff99"," "," ","1","+10","[1627.7999999523163]","1","2","","","16356","59","4","1","win","go","0"
"pit-trial","178","1420868","0.0-64.0","battery-v0.2","","""event"",""trial"",""time""
""fullscreenenter"",""1"",""2285""
","
","
","""event"",""trial"",""time""
""fullscreenenter"",""1"",""2285""
","
","","","1008.0999999046326","","","22","16356","6109","t","elianto","#f73b6a7A"," "," ","1","0","[1859.1999999284744]","1","2","","","16356","60","2","3","lose","go","0"
"pit-trial","179","1424479","0.0-65.0","battery-v0.2","","""event"",""trial"",""time""
""fullscreenenter"",""1"",""2285""
","
","
","""event"",""trial"",""time""
""fullscreenenter"",""1"",""2285""
","
","","","756.2000000476837","","","22","16356","6109","t","elianto","#f73b6a7A"," "," ","1","0","[1606.5]","1","2","","","16356","61","2","3","lose","go","0"
"pit-trial","180","1429334","0.0-66.0","battery-v0.2","","""event"",""trial"",""time""
""fullscreenenter"",""1"",""2285""
","
","
","""event"",""trial"",""time""
""fullscreenenter"",""1"",""2285""
","
","","","-1","","","22","16356","6109","b","elianto","#f73b6a7A","-1","-1","1","0","[]","0","2","","","16356","62","3","4","lose","no-go","0"
"pit-trial","181","1433022","0.0-67.0","battery-v0.2","","""event"",""trial"",""time""
""fullscreenenter"",""1"",""2285""
","
","
","""event"",""trial"",""time""
""fullscreenenter"",""1"",""2285""
","
","","","832.5","","","22","16356","6109","c","elianto","#3366ff99"," "," ","1","0","[1684.1999999284744]","1","2","","","16356","63","4","1","win","go","1"
"pit-trial","182","1437893","0.0-68.0","battery-v0.2","","""event"",""trial"",""time""
""fullscreenenter"",""1"",""2285""
","
","
","""event"",""trial"",""time""
""fullscreenenter"",""1"",""2285""
","
","","","-1","","","22","16356","6109","f","elianto","#3366ff99","-1","-1","1","+10","[]","0","2","","","16356","64","1","2","win","no-go","0"
"pit-trial","183","1441673","0.0-69.0","battery-v0.2","","""event"",""trial"",""time""
""fullscreenenter"",""1"",""2285""
","
","
","""event"",""trial"",""time""
""fullscreenenter"",""1"",""2285""
","
","","","925.5999999046326","","","22","16356","6109","z","elianto","#3366ff99","-1"," ","0","0","[1775.7999999523163]","1","2","","","16356","65","5","2","win","no-go","0"
"pit-trial","184","1446527","0.0-70.0","battery-v0.2","","""event"",""trial"",""time""
""fullscreenenter"",""1"",""2285""
","
","
","""event"",""trial"",""time""
""fullscreenenter"",""1"",""2285""
","
","","","-1","","","22","16356","6109","b","elianto","#f73b6a7A","-1","-1","1","-10","[]","0","2","","","16356","66","3","4","lose","no-go","1"
"pit-trial","185","1451381","0.0-71.0","battery-v0.2","","""event"",""trial"",""time""
""fullscreenenter"",""1"",""2285""
","
","
","""event"",""trial"",""time""
""fullscreenenter"",""1"",""2285""
","
","","","-1","","","22","16356","6109","f","elianto","#3366ff99","-1","-1","1","0","[]","0","2","","","16356","67","1","2","win","no-go","1"
"pit-trial","186","1454993","0.0-72.0","battery-v0.2","","""event"",""trial"",""time""
""fullscreenenter"",""1"",""2285""
","
","
","""event"",""trial"",""time""
""fullscreenenter"",""1"",""2285""
","
","","","756.2999999523163","","","22","16356","6109","c","elianto","#3366ff99"," "," ","1","+10","[1607.6000000238419]","1","2","","","16356","68","4","1","win","go","0"
"pit-trial","187","1459848","0.0-73.0","battery-v0.2","","""event"",""trial"",""time""
""fullscreenenter"",""1"",""2285""
","
","
","""event"",""trial"",""time""
""fullscreenenter"",""1"",""2285""
","
","","","-1","","","22","16356","6109","f","elianto","#3366ff99","-1","-1","1","0","[]","0","2","","","16356","69","1","2","win","no-go","1"
"pit-trial","188","1463458","0.0-74.0","battery-v0.2","","""event"",""trial"",""time""
""fullscreenenter"",""1"",""2285""
","
","
","""event"",""trial"",""time""
""fullscreenenter"",""1"",""2285""
","
","","","757.1000000238419","","","22","16356","6109","t","elianto","#f73b6a7A"," "," ","1","-10","[1607.6999999284744]","1","2","","","16356","70","2","3","lose","go","1"
"pit-trial","189","1466906","0.0-75.0","battery-v0.2","","""event"",""trial"",""time""
""fullscreenenter"",""1"",""2285""
","
","
","""event"",""trial"",""time""
""fullscreenenter"",""1"",""2285""
","
","","","585.5","","","22","16356","6109","c","elianto","#3366ff99"," "," ","1","+10","[1435.8999999761581]","1","2","","","16356","71","4","1","win","go","0"
"pit-trial","190","1470532","0.0-76.0","battery-v0.2","","""event"",""trial"",""time""
""fullscreenenter"",""1"",""2285""
","
","
","""event"",""trial"",""time""
""fullscreenenter"",""1"",""2285""
","
","","","771.2000000476837","","","22","16356","6109","z","elianto","#3366ff99","-1"," ","0","0","[1621.7999999523163]","1","2","","","16356","72","5","2","win","no-go","0"
"pit-trial","191","1475386","0.0-77.0","battery-v0.2","","""event"",""trial"",""time""
""fullscreenenter"",""1"",""2285""
","
","
","""event"",""trial"",""time""
""fullscreenenter"",""1"",""2285""
","
","","","-1","","","22","16356","6109","b","elianto","#f73b6a7A","-1","-1","1","0","[]","0","2","","","16356","73","3","4","lose","no-go","0"
"pit-trial","192","1478942","0.0-78.0","battery-v0.2","","""event"",""trial"",""time""
""fullscreenenter"",""1"",""2285""
","
","
","""event"",""trial"",""time""
""fullscreenenter"",""1"",""2285""
","
","","","689.5","","","22","16356","6109","z","elianto","#3366ff99","-1"," ","0","0","[1540.5]","1","2","","","16356","74","5","2","win","no-go","0"
"pit-trial","193","1483798","0.0-79.0","battery-v0.2","","""event"",""trial"",""time""
""fullscreenenter"",""1"",""2285""
","
","
","""event"",""trial"",""time""
""fullscreenenter"",""1"",""2285""
","
","","","-1","","","22","16356","6109","f","elianto","#3366ff99","-1","-1","1","0","[]","0","2","","","16356","75","1","2","win","no-go","1"
"pit-trial","194","1487347","0.0-80.0","battery-v0.2","","""event"",""trial"",""time""
""fullscreenenter"",""1"",""2285""
","
","
","""event"",""trial"",""time""
""fullscreenenter"",""1"",""2285""
","
","","","693.7000000476837","","","22","16356","6109","c","elianto","#3366ff99"," "," ","1","+10","[1544.7999999523163]","1","2","","","16356","76","4","1","win","go","0"
"pit-trial","195","1491402","0.0-81.0","battery-v0.2","","""event"",""trial"",""time""
""fullscreenenter"",""1"",""2285""
","
","
","""event"",""trial"",""time""
""fullscreenenter"",""1"",""2285""
","
","","","1199.8999999761581","","","22","16356","6109","z","elianto","#3366ff99","-1"," ","0","0","[2051.2000000476837]","1","2","","","16356","77","5","2","win","no-go","0"
"pit-trial","196","1495578","0.0-82.0","battery-v0.2","","""event"",""trial"",""time""
""fullscreenenter"",""1"",""2285""
","
","
","""event"",""trial"",""time""
""fullscreenenter"",""1"",""2285""
","
","","","1321.6000000238419","","","22","16356","6109","c","elianto","#3366ff99"," "," ","1","+10","[2172]","1","2","","","16356","78","4","1","win","go","0"
"pit-trial","197","1500433","0.0-83.0","battery-v0.2","","""event"",""trial"",""time""
""fullscreenenter"",""1"",""2285""
","
","
","""event"",""trial"",""time""
""fullscreenenter"",""1"",""2285""
","
","","","-1","","","22","16356","6109","b","elianto","#f73b6a7A","-1","-1","1","0","[]","0","2","","","16356","79","3","4","lose","no-go","0"
"pit-trial","198","1503982","0.0-84.0","battery-v0.2","","""event"",""trial"",""time""
""fullscreenenter"",""1"",""2285""
","
","
","""event"",""trial"",""time""
""fullscreenenter"",""1"",""2285""
","
","","","693.7000000476837","","","22","16356","6109","c","elianto","#3366ff99"," "," ","1","+10","[1544.5]","1","2","","","16356","80","4","1","win","go","0"
"pit-trial","199","1507520","0.0-85.0","battery-v0.2","","""event"",""trial"",""time""
""fullscreenenter"",""1"",""2285""
","
","
","""event"",""trial"",""time""
""fullscreenenter"",""1"",""2285""
","
","","","684","","","22","16356","6109","c","elianto","#3366ff99"," "," ","1","+10","[1535.6000000238419]","1","2","","","16356","81","4","1","win","go","0"
"pit-trial","200","1511118","0.0-86.0","battery-v0.2","","""event"",""trial"",""time""
""fullscreenenter"",""1"",""2285""
","
","
","""event"",""trial"",""time""
""fullscreenenter"",""1"",""2285""
","
","","","743.3000000715256","","","22","16356","6109","z","elianto","#3366ff99","-1"," ","0","0","[1595]","1","2","","","16356","82","5","2","win","no-go","0"
"pit-trial","201","1515973","0.0-87.0","battery-v0.2","","""event"",""trial"",""time""
""fullscreenenter"",""1"",""2285""
","
","
","""event"",""trial"",""time""
""fullscreenenter"",""1"",""2285""
","
","","","-1","","","22","16356","6109","b","elianto","#f73b6a7A","-1","-1","1","-10","[]","0","2","","","16356","83","3","4","lose","no-go","1"
"pit-trial","202","1519626","0.0-88.0","battery-v0.2","","""event"",""trial"",""time""
""fullscreenenter"",""1"",""2285""
","
","
","""event"",""trial"",""time""
""fullscreenenter"",""1"",""2285""
","
","","","800.4000000953674","","","22","16356","6109","y","elianto","#f73b6a7A","-1"," ","0","-10","[1651]","1","2","","","16356","84","7","4","lose","no-go","0"
"pit-trial","203","1523314","0.0-89.0","battery-v0.2","","""event"",""trial"",""time""
""fullscreenenter"",""1"",""2285""
","
","
","""event"",""trial"",""time""
""fullscreenenter"",""1"",""2285""
","
","","","821.3000000715256","","","22","16356","6109","h","elianto","#f73b6a7A"," "," ","1","0","[1683]","1","2","","","16356","85","6","3","lose","go","0"
"pit-trial","204","1526883","0.0-90.0","battery-v0.2","","""event"",""trial"",""time""
""fullscreenenter"",""1"",""2285""
","
","
","""event"",""trial"",""time""
""fullscreenenter"",""1"",""2285""
","
","","","713.7999999523163","","","22","16356","6109","z","elianto","#3366ff99","-1"," ","0","0","[1565.7999999523163]","1","2","","","16356","86","5","2","win","no-go","0"
"pit-trial","205","1530540","0.0-91.0","battery-v0.2","","""event"",""trial"",""time""
""fullscreenenter"",""1"",""2285""
","
","
","""event"",""trial"",""time""
""fullscreenenter"",""1"",""2285""
","
","","","802.7000000476837","","","22","16356","6109","y","elianto","#f73b6a7A","-1"," ","0","-10","[1653]","1","2","","","16356","87","7","4","lose","no-go","0"
"pit-trial","206","1534156","0.0-92.0","battery-v0.2","","""event"",""trial"",""time""
""fullscreenenter"",""1"",""2285""
","
","
","""event"",""trial"",""time""
""fullscreenenter"",""1"",""2285""
","
","","","761.2999999523163","","","22","16356","6109","c","elianto","#3366ff99"," "," ","1","+10","[1611.5999999046326]","1","2","","","16356","88","4","1","win","go","0"
"pit-trial","207","1539012","0.0-93.0","battery-v0.2","","""event"",""trial"",""time""
""fullscreenenter"",""1"",""2285""
","
","
","""event"",""trial"",""time""
""fullscreenenter"",""1"",""2285""
","
","","","-1","","","22","16356","6109","y","elianto","#f73b6a7A","-1","-1","1","-10","[]","0","2","","","16356","89","7","4","lose","no-go","1"
"pit-trial","208","1542541","0.0-94.0","battery-v0.2","","""event"",""trial"",""time""
""fullscreenenter"",""1"",""2285""
","
","
","""event"",""trial"",""time""
""fullscreenenter"",""1"",""2285""
","
","","","674.1999999284744","","","22","16356","6109","c","elianto","#3366ff99"," "," ","1","+10","[1524.2999999523163]","1","2","","","16356","90","4","1","win","go","0"
"pit-trial","209","1546210","0.0-95.0","battery-v0.2","","""event"",""trial"",""time""
""fullscreenenter"",""1"",""2285""
","
","
","""event"",""trial"",""time""
""fullscreenenter"",""1"",""2285""
","
","","","815.0999999046326","","","22","16356","6109","h","elianto","#f73b6a7A"," "," ","1","0","[1666.1999999284744]","1","2","","","16356","91","6","3","lose","go","0"
"pit-trial","210","1549691","0.0-96.0","battery-v0.2","","""event"",""trial"",""time""
""fullscreenenter"",""1"",""2285""
","
","
","""event"",""trial"",""time""
""fullscreenenter"",""1"",""2285""
","
","","","626","","","22","16356","6109","z","elianto","#3366ff99","-1"," ","0","0","[1476.8999999761581]","1","2","","","16356","92","5","2","win","no-go","0"
"pit-trial","211","1553174","0.0-97.0","battery-v0.2","","""event"",""trial"",""time""
""fullscreenenter"",""1"",""2285""
","
","
","""event"",""trial"",""time""
""fullscreenenter"",""1"",""2285""
","
","","","629.3999999761581","","","22","16356","6109","z","elianto","#3366ff99","-1"," ","0","0","[1479.7999999523163]","1","2","","","16356","93","5","2","win","no-go","0"
"pit-trial","212","1558029","0.0-98.0","battery-v0.2","","""event"",""trial"",""time""
""fullscreenenter"",""1"",""2285""
","
","
","""event"",""trial"",""time""
""fullscreenenter"",""1"",""2285""
","
","","","-1","","","22","16356","6109","y","elianto","#f73b6a7A","-1","-1","1","0","[]","0","2","","","16356","94","7","4","lose","no-go","0"
"pit-trial","213","1561731","0.0-99.0","battery-v0.2","","""event"",""trial"",""time""
""fullscreenenter"",""1"",""2285""
","
","
","""event"",""trial"",""time""
""fullscreenenter"",""1"",""2285""
","
","","","847.3999999761581","","","22","16356","6109","r","elianto","#3366ff99"," "," ","1","+10","[1697.8999999761581]","1","2","","","16356","95","8","1","win","go","0"
"pit-trial","214","1566586","0.0-100.0","battery-v0.2","","""event"",""trial"",""time""
""fullscreenenter"",""1"",""2285""
","
","
","""event"",""trial"",""time""
""fullscreenenter"",""1"",""2285""
","
","","","-1","","","22","16356","6109","h","elianto","#f73b6a7A"," ","-1","0","-10","[]","0","2","","","16356","96","6","3","lose","go","0"
"pit-trial","215","1571159","0.0-101.0","battery-v0.2","","""event"",""trial"",""time""
""fullscreenenter"",""1"",""2285""
","
","
","""event"",""trial"",""time""
""fullscreenenter"",""1"",""2285""
","
","","","1712","","","22","16356","6109","z","elianto","#3366ff99","-1"," ","0","0","[2569.399999976158]","1","2","","","16356","97","5","2","win","no-go","0"
"pit-trial","216","1574870","0.0-102.0","battery-v0.2","","""event"",""trial"",""time""
""fullscreenenter"",""1"",""2285""
","
","
","""event"",""trial"",""time""
""fullscreenenter"",""1"",""2285""
","
","","","857.1999999284744","","","22","16356","6109","r","elianto","#3366ff99"," "," ","1","+10","[1707.4000000953674]","1","2","","","16356","98","8","1","win","go","0"
"pit-trial","217","1579725","0.0-103.0","battery-v0.2","","""event"",""trial"",""time""
""fullscreenenter"",""1"",""2285""
","
","
","""event"",""trial"",""time""
""fullscreenenter"",""1"",""2285""
","
","","","-1","","","22","16356","6109","y","elianto","#f73b6a7A","-1","-1","1","0","[]","0","2","","","16356","99","7","4","lose","no-go","0"
"pit-trial","218","1584102","0.0-104.0","battery-v0.2","","""event"",""trial"",""time""
""fullscreenenter"",""1"",""2285""
","
","
","""event"",""trial"",""time""
""fullscreenenter"",""1"",""2285""
","
","","","1522.6000000238419","","","22","16356","6109","h","elianto","#f73b6a7A"," "," ","1","0","[2374.100000023842]","1","2","","","16356","100","6","3","lose","go","0"
"pit-trial","219","1587707","0.0-105.0","battery-v0.2","","""event"",""trial"",""time""
""fullscreenenter"",""1"",""2285""
","
","
","""event"",""trial"",""time""
""fullscreenenter"",""1"",""2285""
","
","","","737.8999999761581","","","22","16356","6109","r","elianto","#3366ff99"," "," ","1","+10","[1588.5]","1","2","","","16356","101","8","1","win","go","0"
"pit-trial","220","1591513","0.0-106.0","battery-v0.2","","""event"",""trial"",""time""
""fullscreenenter"",""1"",""2285""
","
","
","""event"",""trial"",""time""
""fullscreenenter"",""1"",""2285""
","
","","","951.7999999523163","","","22","16356","6109","m","elianto","#3366ff99"," "," ","1","0","[1801.8999999761581]","1","2","","","16356","102","9","1","win","go","1"
"pit-trial","221","1595683","0.0-107.0","battery-v0.2","","""event"",""trial"",""time""
""fullscreenenter"",""1"",""2285""
","
","
","""event"",""trial"",""time""
""fullscreenenter"",""1"",""2285""
","
","","","1314.7000000476837","","","22","16356","6109","z","elianto","#3366ff99","-1"," ","0","0","[2166.5]","1","2","","","16356","103","5","2","win","no-go","0"
"pit-trial","222","1600537","0.0-108.0","battery-v0.2","","""event"",""trial"",""time""
""fullscreenenter"",""1"",""2285""
","
","
","""event"",""trial"",""time""
""fullscreenenter"",""1"",""2285""
","
","","","-1","","","22","16356","6109","y","elianto","#f73b6a7A","-1","-1","1","0","[]","0","2","","","16356","104","7","4","lose","no-go","0"
"pit-trial","223","1604083","0.0-109.0","battery-v0.2","","""event"",""trial"",""time""
""fullscreenenter"",""1"",""2285""
","
","
","""event"",""trial"",""time""
""fullscreenenter"",""1"",""2285""
","
","","","691.6000000238419","","","22","16356","6109","c","elianto","#3366ff99"," "," ","1","+10","[1542.5]","1","2","","","16356","105","4","1","win","go","0"
"pit-trial","224","1608191","0.0-110.0","battery-v0.2","","""event"",""trial"",""time""
""fullscreenenter"",""1"",""2285""
","
","
","""event"",""trial"",""time""
""fullscreenenter"",""1"",""2285""
","
","","","1254.3999999761581","","","22","16356","6109","h","elianto","#f73b6a7A"," "," ","1","0","[2105.2999999523163]","1","2","","","16356","106","6","3","lose","go","0"
"pit-trial","225","1612064","0.0-111.0","battery-v0.2","","""event"",""trial"",""time""
""fullscreenenter"",""1"",""2285""
","
","
","""event"",""trial"",""time""
""fullscreenenter"",""1"",""2285""
","
","","","1018.7000000476837","","","22","16356","6109","m","elianto","#3366ff99"," "," ","1","+10","[1869.6000000238419]","1","2","","","16356","107","9","1","win","go","0"
"pit-trial","226","1615830","0.0-112.0","battery-v0.2","","""event"",""trial"",""time""
""fullscreenenter"",""1"",""2285""
","
","
","""event"",""trial"",""time""
""fullscreenenter"",""1"",""2285""
","
","","","912.8999999761581","","","22","16356","6109","r","elianto","#3366ff99"," "," ","1","0","[1763.5]","1","2","","","16356","108","8","1","win","go","1"
"pit-trial","227","1619936","0.0-113.0","battery-v0.2","","""event"",""trial"",""time""
""fullscreenenter"",""1"",""2285""
","
","
","""event"",""trial"",""time""
""fullscreenenter"",""1"",""2285""
","
","","","1251.9000000953674","","","22","16356","6109","h","elianto","#f73b6a7A"," "," ","1","-10","[2103.100000023842]","1","2","","","16356","109","6","3","lose","go","1"
"pit-trial","228","1624048","0.0-114.0","battery-v0.2","","""event"",""trial"",""time""
""fullscreenenter"",""1"",""2285""
","
","
","""event"",""trial"",""time""
""fullscreenenter"",""1"",""2285""
","
","","","1256.5","","","22","16356","6109","z","elianto","#3366ff99","-1"," ","0","0","[2107.399999976158]","1","2","","","16356","110","5","2","win","no-go","0"
"pit-trial","229","1627561","0.0-115.0","battery-v0.2","","""event"",""trial"",""time""
""fullscreenenter"",""1"",""2285""
","
","
","""event"",""trial"",""time""
""fullscreenenter"",""1"",""2285""
","
","","","657.8999999761581","","","22","16356","6109","r","elianto","#3366ff99"," "," ","1","+10","[1508]","1","2","","","16356","111","8","1","win","go","0"
"pit-trial","230","1631497","0.0-116.0","battery-v0.2","","""event"",""trial"",""time""
""fullscreenenter"",""1"",""2285""
","
","
","""event"",""trial"",""time""
""fullscreenenter"",""1"",""2285""
","
","","","1083","","","22","16356","6109","m","elianto","#3366ff99"," "," ","1","+10","[1933]","1","2","","","16356","112","9","1","win","go","0"
"pit-trial","231","1636349","0.0-117.0","battery-v0.2","","""event"",""trial"",""time""
""fullscreenenter"",""1"",""2285""
","
","
","""event"",""trial"",""time""
""fullscreenenter"",""1"",""2285""
","
","","","-1","","","22","16356","6109","z","elianto","#3366ff99","-1","-1","1","+10","[]","0","2","","","16356","113","5","2","win","no-go","0"
"pit-trial","232","1640405","0.0-118.0","battery-v0.2","","""event"",""trial"",""time""
""fullscreenenter"",""1"",""2285""
","
","
","""event"",""trial"",""time""
""fullscreenenter"",""1"",""2285""
","
","","","1201.3999999761581","","","22","16356","6109","h","elianto","#f73b6a7A"," "," ","1","0","[2052.2000000476837]","1","2","","","16356","114","6","3","lose","go","0"
"pit-trial","233","1643961","0.0-119.0","battery-v0.2","","""event"",""trial"",""time""
""fullscreenenter"",""1"",""2285""
","
","
","""event"",""trial"",""time""
""fullscreenenter"",""1"",""2285""
","
","","","702","","","22","16356","6109","r","elianto","#3366ff99"," "," ","1","0","[1552.1999999284744,3531.1999999284744]","2","2","","","16356","115","8","1","win","go","1"
"pit-trial","234","1648041","0.0-120.0","battery-v0.2","","""event"",""trial"",""time""
""fullscreenenter"",""1"",""2285""
","
","
","""event"",""trial"",""time""
""fullscreenenter"",""1"",""2285""
","
","","","1227.1000000238419","","","22","16356","6109","m","elianto","#3366ff99"," "," ","1","+10","[2077.600000023842]","1","2","","","16356","116","9","1","win","go","0"
"pit-trial","235","1652080","0.0-121.0","battery-v0.2","","""event"",""trial"",""time""
""fullscreenenter"",""1"",""2285""
","
","
","""event"",""trial"",""time""
""fullscreenenter"",""1"",""2285""
","
","","","1186.4000000953674","","","22","16356","6109","m","elianto","#3366ff99"," "," ","1","+10","[2036.9000000953674]","1","2","","","16356","117","9","1","win","go","0"
"pit-trial","236","1655730","0.0-122.0","battery-v0.2","","""event"",""trial"",""time""
""fullscreenenter"",""1"",""2285""
","
","
","""event"",""trial"",""time""
""fullscreenenter"",""1"",""2285""
","
","","","796.2999999523163","","","22","16356","6109","r","elianto","#3366ff99"," "," ","1","+10","[1646.7999999523163]","1","2","","","16356","118","8","1","win","go","0"
"pit-trial","237","1659491","0.0-123.0","battery-v0.2","","""event"",""trial"",""time""
""fullscreenenter"",""1"",""2285""
","
","
","""event"",""trial"",""time""
""fullscreenenter"",""1"",""2285""
","
","","","906.9000000953674","","","22","16356","6109","h","elianto","#f73b6a7A"," "," ","1","0","[1758.8000000715256]","1","2","","","16356","119","6","3","lose","go","0"
"pit-trial","238","1664346","0.0-124.0","battery-v0.2","","""event"",""trial"",""time""
""fullscreenenter"",""1"",""2285""
","
","
","""event"",""trial"",""time""
""fullscreenenter"",""1"",""2285""
","
","","","-1","","","22","16356","6109","z","elianto","#3366ff99","-1","-1","1","+10","[]","0","2","","","16356","120","5","2","win","no-go","0"
"pit-trial","239","1667882","0.0-125.0","battery-v0.2","","""event"",""trial"",""time""
""fullscreenenter"",""1"",""2285""
","
","
","""event"",""trial"",""time""
""fullscreenenter"",""1"",""2285""
","
","","","683.3000000715256","","","22","16356","6109","r","elianto","#3366ff99"," "," ","1","+10","[1534.2000000476837]","1","2","","","16356","121","8","1","win","go","0"
"pit-trial","240","1671571","0.0-126.0","battery-v0.2","","""event"",""trial"",""time""
""fullscreenenter"",""1"",""2285""
","
","
","""event"",""trial"",""time""
""fullscreenenter"",""1"",""2285""
","
","","","833.8000000715256","","","22","16356","6109","m","elianto","#3366ff99"," "," ","1","0","[1684.3999999761581]","1","2","","","16356","122","9","1","win","go","1"
"pit-trial","241","1676426","0.0-127.0","battery-v0.2","","""event"",""trial"",""time""
""fullscreenenter"",""1"",""2285""
","
","
","""event"",""trial"",""time""
""fullscreenenter"",""1"",""2285""
","
","","","-1","","","22","16356","6109","y","elianto","#f73b6a7A","-1","-1","1","0","[]","0","2","","","16356","123","7","4","lose","no-go","0"
"pit-trial","242","1680097","0.0-128.0","battery-v0.2","","""event"",""trial"",""time""
""fullscreenenter"",""1"",""2285""
","
","
","""event"",""trial"",""time""
""fullscreenenter"",""1"",""2285""
","
","","","816","","","22","16356","6109","h","elianto","#f73b6a7A"," "," ","1","0","[1666.9000000953674]","1","2","","","16356","124","6","3","lose","go","0"
"pit-trial","243","1683956","0.0-129.0","battery-v0.2","","""event"",""trial"",""time""
""fullscreenenter"",""1"",""2285""
","
","
","""event"",""trial"",""time""
""fullscreenenter"",""1"",""2285""
","
","","","1005.8999999761581","","","22","16356","6109","m","elianto","#3366ff99"," "," ","1","0","[1856.1999999284744]","1","2","","","16356","125","9","1","win","go","1"
"pit-trial","244","1687729","0.0-130.0","battery-v0.2","","""event"",""trial"",""time""
""fullscreenenter"",""1"",""2285""
","
","
","""event"",""trial"",""time""
""fullscreenenter"",""1"",""2285""
","
","","","918.2000000476837","","","22","16356","6109","h","elianto","#f73b6a7A"," "," ","1","-10","[1769.2000000476837]","1","2","","","16356","126","6","3","lose","go","1"
"pit-trial","245","1692583","0.0-131.0","battery-v0.2","","""event"",""trial"",""time""
""fullscreenenter"",""1"",""2285""
","
","
","""event"",""trial"",""time""
""fullscreenenter"",""1"",""2285""
","
","","","-1","","","22","16356","6109","y","elianto","#f73b6a7A","-1","-1","1","0","[]","0","2","","","16356","127","7","4","lose","no-go","0"
"pit-trial","246","1696016","0.0-132.0","battery-v0.2","","""event"",""trial"",""time""
""fullscreenenter"",""1"",""2285""
","
","
","""event"",""trial"",""time""
""fullscreenenter"",""1"",""2285""
","
","","","579.6000000238419","","","22","16356","6109","r","elianto","#3366ff99"," "," ","1","0","[1430.1000000238419]","1","2","","","16356","128","8","1","win","go","1"
"pit-trial","247","1700059","0.0-133.0","battery-v0.2","","""event"",""trial"",""time""
""fullscreenenter"",""1"",""2285""
","
","
","""event"",""trial"",""time""
""fullscreenenter"",""1"",""2285""
","
","","","1187.5","","","22","16356","6109","h","elianto","#f73b6a7A"," "," ","1","0","[2038.2999999523163]","1","2","","","16356","129","6","3","lose","go","0"
"pit-trial","248","1703641","0.0-134.0","battery-v0.2","","""event"",""trial"",""time""
""fullscreenenter"",""1"",""2285""
","
","
","""event"",""trial"",""time""
""fullscreenenter"",""1"",""2285""
","
","","","724.6999999284744","","","22","16356","6109","r","elianto","#3366ff99"," "," ","1","+10","[1577]","1","2","","","16356","130","8","1","win","go","0"
"pit-trial","249","1707365","0.0-135.0","battery-v0.2","","""event"",""trial"",""time""
""fullscreenenter"",""1"",""2285""
","
","
","""event"",""trial"",""time""
""fullscreenenter"",""1"",""2285""
","
","","","870.7000000476837","","","22","16356","6109","m","elianto","#3366ff99"," "," ","1","+10","[1721.7999999523163]","1","2","","","16356","131","9","1","win","go","0"
"pit-trial","250","1712220","0.0-136.0","battery-v0.2","","""event"",""trial"",""time""
""fullscreenenter"",""1"",""2285""
","
","
","""event"",""trial"",""time""
""fullscreenenter"",""1"",""2285""
","
","","","-1","","","22","16356","6109","y","elianto","#f73b6a7A","-1","-1","1","0","[]","0","2","","","16356","132","7","4","lose","no-go","0"
"pit-trial","251","1717074","0.0-137.0","battery-v0.2","","""event"",""trial"",""time""
""fullscreenenter"",""1"",""2285""
","
","
","""event"",""trial"",""time""
""fullscreenenter"",""1"",""2285""
","
","","","-1","","","22","16356","6109","y","elianto","#f73b6a7A","-1","-1","1","0","[]","0","2","","","16356","133","7","4","lose","no-go","0"
"pit-trial","252","1720691","0.0-138.0","battery-v0.2","","""event"",""trial"",""time""
""fullscreenenter"",""1"",""2285""
","
","
","""event"",""trial"",""time""
""fullscreenenter"",""1"",""2285""
","
","","","763.2999999523163","","","22","16356","6109","r","elianto","#3366ff99"," "," ","1","+10","[1614.1000000238419]","1","2","","","16356","134","8","1","win","go","0"
"pit-trial","253","1724398","0.0-139.0","battery-v0.2","","""event"",""trial"",""time""
""fullscreenenter"",""1"",""2285""
","
","
","""event"",""trial"",""time""
""fullscreenenter"",""1"",""2285""
","
","","","853","","","22","16356","6109","h","elianto","#f73b6a7A"," "," ","1","0","[1703.5]","1","2","","","16356","135","6","3","lose","go","0"
"pit-trial","254","1727990","0.0-140.0","battery-v0.2","","""event"",""trial"",""time""
""fullscreenenter"",""1"",""2285""
","
","
","""event"",""trial"",""time""
""fullscreenenter"",""1"",""2285""
","
","","","736.5","","","22","16356","6109","m","elianto","#3366ff99"," "," ","1","+10","[1587.1999999284744]","1","2","","","16356","136","9","1","win","go","0"
"pit-trial","255","1731922","0.0-141.0","battery-v0.2","","""event"",""trial"",""time""
""fullscreenenter"",""1"",""2285""
","
","
","""event"",""trial"",""time""
""fullscreenenter"",""1"",""2285""
","
","","","1076.9000000953674","","","22","16356","6109","r","elianto","#3366ff99"," "," ","1","+10","[1927.3999999761581]","1","2","","","16356","137","8","1","win","go","0"
"pit-trial","256","1735663","0.0-142.0","battery-v0.2","","""event"",""trial"",""time""
""fullscreenenter"",""1"",""2285""
","
","
","""event"",""trial"",""time""
""fullscreenenter"",""1"",""2285""
","
","","","885.5999999046326","","","22","16356","6109","m","elianto","#3366ff99"," "," ","1","+10","[1737.1000000238419]","1","2","","","16356","138","9","1","win","go","0"
"pit-trial","257","1740516","0.0-143.0","battery-v0.2","","""event"",""trial"",""time""
""fullscreenenter"",""1"",""2285""
","
","
","""event"",""trial"",""time""
""fullscreenenter"",""1"",""2285""
","
","","","-1","","","22","16356","6109","y","elianto","#f73b6a7A","-1","-1","1","0","[]","0","2","","","16356","139","7","4","lose","no-go","0"
"pit-trial","258","1744219","0.0-144.0","battery-v0.2","","""event"",""trial"",""time""
""fullscreenenter"",""1"",""2285""
","
","
","""event"",""trial"",""time""
""fullscreenenter"",""1"",""2285""
","
","","","848.9000000953674","","","22","16356","6109","h","elianto","#f73b6a7A"," "," ","1","0","[1698.8999999761581]","1","2","","","16356","140","6","3","lose","go","0"
"pit-instructions","259","2091339","0.0-145.0","battery-v0.2","","""event"",""trial"",""time""
""fullscreenenter"",""1"",""2285""
","
","
","""event"",""trial"",""time""
""fullscreenenter"",""1"",""2285""
","
","","[{""page_index"":0,""viewing_time"":344317.2000000477},{""page_index"":1,""viewing_time"":8448.200000047684}]","352766","","","","","","","","","","","","","","","","","","","","","","","",""
"pit-trial","260","2094970","0.0-146.0","battery-v0.2","","""event"",""trial"",""time""
""fullscreenenter"",""1"",""2285""
","
","
","""event"",""trial"",""time""
""fullscreenenter"",""1"",""2285""
","
","","","752.3999999761581","","","22","16356","6109","j","elianto","#f73b6a7A","-1"," ","0","0","[1607.5]","1","3","","","16356","141","0","4","lose","no-go","1"
"pit-trial","261","2098866","0.0-147.0","battery-v0.2","","""event"",""trial"",""time""
""fullscreenenter"",""1"",""2285""
","
","
","""event"",""trial"",""time""
""fullscreenenter"",""1"",""2285""
","
","","","1027.1000000238419","","","22","16356","6109","w","elianto","#f73b6a7A"," "," ","1","0","[1878.3999999761581]","1","3","","","16356","142","3","3","lose","go","0"
"pit-trial","262","2102441","0.0-148.0","battery-v0.2","","""event"",""trial"",""time""
""fullscreenenter"",""1"",""2285""
","
","
","""event"",""trial"",""time""
""fullscreenenter"",""1"",""2285""
","
","","","716","","","22","16356","6109","d","elianto","#3366ff99"," "," ","1","+10","[1569.6000000238419]","1","3","","","16356","143","1","1","win","go","0"
"pit-trial","263","2107305","0.0-149.0","battery-v0.2","","""event"",""trial"",""time""
""fullscreenenter"",""1"",""2285""
","
","
","""event"",""trial"",""time""
""fullscreenenter"",""1"",""2285""
","
","","","-1","","","22","16356","6109","e","elianto","#f73b6a7A","-1","-1","1","0","[]","0","3","","","16356","144","2","4","lose","no-go","0"
"pit-trial","264","2111187","0.0-150.0","battery-v0.2","","""event"",""trial"",""time""
""fullscreenenter"",""1"",""2285""
","
","
","""event"",""trial"",""time""
""fullscreenenter"",""1"",""2285""
","
","","","1009.7999999523163","","","22","16356","6109","w","elianto","#f73b6a7A"," "," ","1","0","[1864.5999999046326]","1","3","","","16356","145","3","3","lose","go","0"
"pit-trial","265","2116065","0.0-151.0","battery-v0.2","","""event"",""trial"",""time""
""fullscreenenter"",""1"",""2285""
","
","
","""event"",""trial"",""time""
""fullscreenenter"",""1"",""2285""
","
