"trial_type","trial_index","time_elapsed","internal_node_id","task_version","subject_id","interactions","blur_events","focus_events","fullscreenenter_events","fullscreenexit_events","success","view_history","rt","responses","num_errors","age","subject","participantId","rune","rune_set","hex","correct","choice","accuracy","outcome","keys","total_keys","block","practice","value","sub","trial","stimulus","robot","valence","action","sham"
"pavlovia","0","19","0.0-0.0","battery-v0.2","","""event"",""trial"",""time""
""fullscreenenter"",""1"",""3278""
","
","
","""event"",""trial"",""time""
""fullscreenenter"",""1"",""3278""
","
","","","","","","","","","","","","","","","","","","","","","","","","","","",""
"fullscreen","1","4263","0.0-1.0","battery-v0.2","","""event"",""trial"",""time""
""fullscreenenter"",""1"",""3278""
","
","
","""event"",""trial"",""time""
""fullscreenenter"",""1"",""3278""
","
","true","","","","","","","","","","","","","","","","","","","","","","","","","",""
"pit-instructions","2","15121","0.0-2.0-0.0","battery-v0.2","","""event"",""trial"",""time""
""fullscreenenter"",""1"",""3278""
","
","
","""event"",""trial"",""time""
""fullscreenenter"",""1"",""3278""
","
","","[{""page_index"":0,""viewing_time"":10849.700000000012}]","10850.299999999988","","","","","","","","","","","","","","","","","","","","","","","",""
"pit-comprehension","3","18590","0.0-2.0-1.0-0.0","battery-v0.2","","""event"",""trial"",""time""
""fullscreenenter"",""1"",""3278""
","
","
","""event"",""trial"",""time""
""fullscreenenter"",""1"",""3278""
","
","","","3463.2999999999884","[""shark""]","0","10","5328","3251","","","","","","","","","","","","","","","","","","",""
"pit-instructions","4","20391","0.0-2.0-1.0-1.0","battery-v0.2","","""event"",""trial"",""time""
""fullscreenenter"",""1"",""3278""
","
","
","""event"",""trial"",""time""
""fullscreenenter"",""1"",""3278""
","
","","[{""page_index"":0,""viewing_time"":1788.4000000000233}]","1789","","","","","","","","","","","","","","","","","","","","","","","",""
"pit-comprehension","5","23808","0.0-2.0-2.0-0.0","battery-v0.2","","""event"",""trial"",""time""
""fullscreenenter"",""1"",""3278""
","
","
","""event"",""trial"",""time""
""fullscreenenter"",""1"",""3278""
","
","","","3410.100000000035","[""tiger""]","0","10","5328","3251","","","","","","","","","","","","","","","","","","",""
"pit-instructions","6","25430","0.0-2.0-2.0-1.0","battery-v0.2","","""event"",""trial"",""time""
""fullscreenenter"",""1"",""3278""
","
","
","""event"",""trial"",""time""
""fullscreenenter"",""1"",""3278""
","
","","[{""page_index"":0,""viewing_time"":1617}]","1617.600000000035","","","","","","","","","","","","","","","","","","","","","","","",""
"pit-instructions","7","116827","0.0-2.0-3.0","battery-v0.2","","""event"",""trial"",""time""
""fullscreenenter"",""1"",""3278""
","
","
","""event"",""trial"",""time""
""fullscreenenter"",""1"",""3278""
","
","","[{""page_index"":0,""viewing_time"":8021.100000000035},{""page_index"":1,""viewing_time"":6013.899999999965},{""page_index"":2,""viewing_time"":10593.400000000023},{""page_index"":3,""viewing_time"":5493.400000000023},{""page_index"":4,""viewing_time"":5274.899999999965},{""page_index"":5,""viewing_time"":5229.5},{""page_index"":6,""viewing_time"":6569.900000000023},{""page_index"":7,""viewing_time"":6419.700000000012},{""page_index"":8,""viewing_time"":6095.299999999988},{""page_index"":9,""viewing_time"":5074.899999999965},{""page_index"":10,""viewing_time"":7540.600000000035},{""page_index"":11,""viewing_time"":7492.200000000012},{""page_index"":12,""viewing_time"":6247.199999999953},{""page_index"":13,""viewing_time"":5323.600000000035}]","91390.90000000002","","","","","","","","","","","","","","","","","","","","","","","",""
"pit-trial","8","119832","0.0-2.0-4.0-0.0","battery-v0.2","","""event"",""trial"",""time""
""fullscreenenter"",""1"",""3278""
","
","
","""event"",""trial"",""time""
""fullscreenenter"",""1"",""3278""
","
","","","136.20000000001164","","","10","5328","3251","&#9784;","elianto","#FFFFF080"," "," ","1","&#10004","[993.4000000000233,2209.7000000000116,2807.5]","3","0","0","","","","","","","",""
"pit-trial","9","123472","0.0-2.0-4.1-0.1","battery-v0.2","","""event"",""trial"",""time""
""fullscreenenter"",""1"",""3278""
","
","
","""event"",""trial"",""time""
""fullscreenenter"",""1"",""3278""
","
","","","779.7000000000116","","","10","5328","3251","&#9784;","elianto","#FFFFF080"," "," ","1","&#10004","[843.5,1631.5,2240,2962.2999999999884]","4","0","0","","","","","","","",""
"pit-trial","10","127016","0.0-2.0-4.2-0.2","battery-v0.2","","""event"",""trial"",""time""
""fullscreenenter"",""1"",""3278""
","
","
","""event"",""trial"",""time""
""fullscreenenter"",""1"",""3278""
","
","","","687.1000000000349","","","10","5328","3251","&#9784;","elianto","#FFFFF080"," "," ","1","&#10004","[832.7000000000116,1539.8000000000466,2037.8000000000466,3488.5]","4","0","0","","","","","","","",""
"pit-trial","11","130000","0.0-2.0-4.3-0.3","battery-v0.2","","""event"",""trial"",""time""
""fullscreenenter"",""1"",""3278""
","
","
","""event"",""trial"",""time""
""fullscreenenter"",""1"",""3278""
","
","","","124.20000000001164","","","10","5328","3251","&#9784;","elianto","#FFFFF080"," "," ","1","&#10004","[781.2999999999884,976.5999999999767,1147.1999999999534,1308,1455.1999999999534,1817.2999999999884,1968.5999999999767,2116.0999999999767,2287.399999999965,2425.899999999965,2582.1999999999534,2724.399999999965,2958.2999999999884]","13","0","0","","","","","","","",""
"pit-trial","12","132928","0.0-2.0-4.4-0.4","battery-v0.2","","""event"",""trial"",""time""
""fullscreenenter"",""1"",""3278""
","
","
","""event"",""trial"",""time""
""fullscreenenter"",""1"",""3278""
","
","","","65","","","10","5328","3251","&#9784;","elianto","#FFFFF080"," "," ","1","&#10004","[93.40000000002328,423.4000000000233,593.7999999999884,755,915.9000000000233,1083,1237.5,1413.9000000000233,1570.5,1758.4000000000233,1941.2000000000116,2108.2000000000116,2285.2999999999884,2464,2631.2000000000116,2801.7999999999884]","16","0","0","","","","","","","",""
"pit-instructions","13","164052","0.0-2.0-5.0","battery-v0.2","","""event"",""trial"",""time""
""fullscreenenter"",""1"",""3278""
","
","
","""event"",""trial"",""time""
""fullscreenenter"",""1"",""3278""
","
","","[{""page_index"":0,""viewing_time"":13830},{""page_index"":1,""viewing_time"":5071.099999999977},{""page_index"":2,""viewing_time"":6910.700000000012},{""page_index"":3,""viewing_time"":5307.599999999977}]","31120.29999999999","","","","","","","","","","","","","","","","","","","","","","","",""
"pit-trial","14","168920","0.0-2.0-6.0-0.0","battery-v0.2","","""event"",""trial"",""time""
""fullscreenenter"",""1"",""3278""
","
","
","""event"",""trial"",""time""
""fullscreenenter"",""1"",""3278""
","
","","","-1","","","10","5328","3251","&#9854;","elianto","#FFFFF080","-1","-1","1","&#10004","[]","0","0","1","","","","","","","",""
"pit-trial","15","173784","0.0-2.0-6.1-0.1","battery-v0.2","","""event"",""trial"",""time""
""fullscreenenter"",""1"",""3278""
","
","
","""event"",""trial"",""time""
""fullscreenenter"",""1"",""3278""
","
","","","-1","","","10","5328","3251","&#9854;","elianto","#FFFFF080","-1","-1","1","&#10004","[]","0","0","1","","","","","","","",""
"pit-trial","16","178648","0.0-2.0-6.2-0.2","battery-v0.2","","""event"",""trial"",""time""
""fullscreenenter"",""1"",""3278""
","
","
","""event"",""trial"",""time""
""fullscreenenter"",""1"",""3278""
","
","","","-1","","","10","5328","3251","&#9854;","elianto","#FFFFF080","-1","-1","1","&#10004","[]","0","0","1","","","","","","","",""
"pit-trial","17","183512","0.0-2.0-6.3-0.3","battery-v0.2","","""event"",""trial"",""time""
""fullscreenenter"",""1"",""3278""
","
","
","""event"",""trial"",""time""
""fullscreenenter"",""1"",""3278""
","
","","","-1","","","10","5328","3251","&#9854;","elianto","#FFFFF080","-1","-1","1","&#10004","[]","0","0","1","","","","","","","",""
"pit-trial","18","188376","0.0-2.0-6.4-0.4","battery-v0.2","","""event"",""trial"",""time""
""fullscreenenter"",""1"",""3278""
","
","
","""event"",""trial"",""time""
""fullscreenenter"",""1"",""3278""
","
","","","-1","","","10","5328","3251","&#9854;","elianto","#FFFFF080","-1","-1","1","&#10004","[]","0","0","1","","","","","","","",""
"pit-instructions","19","302582","0.0-2.0-7.0","battery-v0.2","","""event"",""trial"",""time""
""fullscreenenter"",""1"",""3278""
","
","
","""event"",""trial"",""time""
""fullscreenenter"",""1"",""3278""
","
","","[{""page_index"":0,""viewing_time"":6375.300000000047},{""page_index"":1,""viewing_time"":7361.099999999977},{""page_index"":2,""viewing_time"":6493.700000000012},{""page_index"":3,""viewing_time"":6656.200000000012},{""page_index"":4,""viewing_time"":5060.099999999977},{""page_index"":5,""viewing_time"":5232.900000000023},{""page_index"":6,""viewing_time"":4384.400000000023},{""page_index"":7,""viewing_time"":7153.5},{""page_index"":8,""viewing_time"":6034},{""page_index"":9,""viewing_time"":8922},{""page_index"":10,""viewing_time"":6235.79999999993},{""page_index"":11,""viewing_time"":4088.9000000000233},{""page_index"":12,""viewing_time"":6802.300000000047},{""page_index"":13,""viewing_time"":6315.599999999977},{""page_index"":14,""viewing_time"":7225.599999999977},{""page_index"":15,""viewing_time"":6369.400000000023},{""page_index"":16,""viewing_time"":6617.099999999977},{""page_index"":17,""viewing_time"":6873.400000000023}]","114202.5","","","","","","","","","","","","","","","","","","","","","","","",""
"pit-trial","20","305472","0.0-2.0-8.0-0.0","battery-v0.2","","""event"",""trial"",""time""
""fullscreenenter"",""1"",""3278""
","
","
","""event"",""trial"",""time""
""fullscreenenter"",""1"",""3278""
","
","","","28.5","","","10","5328","3251","&#9776;","elianto","#3366ff99"," "," ","1","+10","[878.5999999999767,1863.5999999999767]","2","0","1","","","","","","","",""
"pit-trial","21","308728","0.0-2.0-8.0-1.0","battery-v0.2","","""event"",""trial"",""time""
""fullscreenenter"",""1"",""3278""
","
","
","""event"",""trial"",""time""
""fullscreenenter"",""1"",""3278""
","
","","","395.19999999995343","","","10","5328","3251","&#9776;","elianto","#3366ff99"," "," ","1","+10","[35.89999999990687,1248.7999999999302,1971,2840.6999999999534]","4","0","1","","","","","","","",""
"pit-trial","22","311696","0.0-2.0-8.0-2.0","battery-v0.2","","""event"",""trial"",""time""
""fullscreenenter"",""1"",""3278""
","
","
","""event"",""trial"",""time""
""fullscreenenter"",""1"",""3278""
","
","","","111.40000000002328","","","10","5328","3251","&#9776;","elianto","#3366ff99"," "," ","1","+10","[358.0999999999767,748.7999999999302,963.1999999999534,1238,1462.3999999999069,1720.8999999999069,1940.0999999999767,2171.399999999907,2400.5,2580.899999999907,2776,2943.79999999993]","12","0","1","","","","","","","",""
"pit-trial","23","314655","0.0-2.0-8.0-3.0","battery-v0.2","","""event"",""trial"",""time""
""fullscreenenter"",""1"",""3278""
","
","
","""event"",""trial"",""time""
""fullscreenenter"",""1"",""3278""
","
","","","100.10000000009313","","","10","5328","3251","&#9776;","elianto","#3366ff99"," "," ","1","0","[165.09999999997672,332.5,505.9000000000233,657,798.9000000000233,952.8000000000466,1100.5999999999767,1254.8000000000466,1425.1999999999534,1605.9000000000233,1782.8000000000466,1947]","12","0","1","","","","","","","",""
"pit-trial","24","318880","0.0-2.0-8.0-4.0","battery-v0.2","","""event"",""trial"",""time""
""fullscreenenter"",""1"",""3278""
","
","
","""event"",""trial"",""time""
""fullscreenenter"",""1"",""3278""
","
","","","1360.9000000000233","","","10","5328","3251","&#9776;","elianto","#3366ff99"," "," ","1","+10","[2213.1999999999534,3281.8000000000466,3467.0999999999767,3653.8000000000466,3854.3000000000466]","5","0","1","","","","","","","",""
"pit-trial","25","322000","0.0-2.0-8.1-0.1","battery-v0.2","","""event"",""trial"",""time""
""fullscreenenter"",""1"",""3278""
","
","
","""event"",""trial"",""time""
""fullscreenenter"",""1"",""3278""
","
","","","262.30000000004657","","","10","5328","3251","&#9776;","elianto","#3366ff99"," "," ","1","+10","[771.9000000000233,1114.4000000000233,1287.9000000000233,1542.8000000000466,1910.5,2984.4000000000233]","6","0","1","","","","","","","",""
"pit-trial","26","325104","0.0-2.0-8.1-1.1","battery-v0.2","","""event"",""trial"",""time""
""fullscreenenter"",""1"",""3278""
","
","
","""event"",""trial"",""time""
""fullscreenenter"",""1"",""3278""
","
","","","244.90000000002328","","","10","5328","3251","&#9776;","elianto","#3366ff99"," "," ","1","+10","[244.19999999995343,439.69999999995343,620.3000000000466,1097.8000000000466,1376.4000000000233,2196.1999999999534,2385.9000000000233,2556.4000000000233,2905.6999999999534]","9","0","1","","","","","","","",""
"pit-trial","27","328336","0.0-2.0-8.1-2.1","battery-v0.2","","""event"",""trial"",""time""
""fullscreenenter"",""1"",""3278""
","
","
","""event"",""trial"",""time""
""fullscreenenter"",""1"",""3278""
","
","","","368","","","10","5328","3251","&#9776;","elianto","#3366ff99"," "," ","1","+10","[14.199999999953434,199.09999999997672,414.80000000004657,599.1999999999534,814.9000000000233,1220.5999999999767]","6","0","1","","","","","","","",""
"pit-trial","28","331280","0.0-2.0-8.1-3.1","battery-v0.2","","""event"",""trial"",""time""
""fullscreenenter"",""1"",""3278""
","
","
","""event"",""trial"",""time""
""fullscreenenter"",""1"",""3278""
","
","","","87.10000000009313","","","10","5328","3251","&#9776;","elianto","#3366ff99"," "," ","1","0","[533.7000000000698,739.5,940,1191.6000000000931]","4","0","1","","","","","","","",""
"pit-trial","29","334336","0.0-2.0-8.1-4.1","battery-v0.2","","""event"",""trial"",""time""
""fullscreenenter"",""1"",""3278""
","
","
","""event"",""trial"",""time""
""fullscreenenter"",""1"",""3278""
","
","","","197.59999999997672","","","10","5328","3251","&#9776;","elianto","#3366ff99"," "," ","1","+10","[661.2999999999302,844.7999999999302,1050.5999999999767,1230.6999999999534,1432.1999999999534]","5","0","1","","","","","","","",""
"pit-trial","30","337312","0.0-2.0-8.2-0.2","battery-v0.2","","""event"",""trial"",""time""
""fullscreenenter"",""1"",""3278""
","
","
","""event"",""trial"",""time""
""fullscreenenter"",""1"",""3278""
","
","","","115.69999999995343","","","10","5328","3251","&#9776;","elianto","#3366ff99"," "," ","1","+10","[968.4000000000233,1167.9000000000233]","2","0","1","","","","","","","",""
"pit-trial","31","340600","0.0-2.0-8.2-1.2","battery-v0.2","","""event"",""trial"",""time""
""fullscreenenter"",""1"",""3278""
","
","
","""event"",""trial"",""time""
""fullscreenenter"",""1"",""3278""
","
","","","424.5","","","10","5328","3251","&#9776;","elianto","#3366ff99"," "," ","1","+10","[715,1277.5999999999767]","2","0","1","","","","","","","",""
"pit-trial","32","343512","0.0-2.0-8.2-2.2","battery-v0.2","","""event"",""trial"",""time""
""fullscreenenter"",""1"",""3278""
","
","
","""event"",""trial"",""time""
""fullscreenenter"",""1"",""3278""
","
","","","51.20000000006985","","","10","5328","3251","&#9776;","elianto","#3366ff99"," "," ","1","+10","[657.8000000000466,905.8000000000466,1343.0999999999767]","3","0","1","","","","","","","",""
"pit-trial","33","346472","0.0-2.0-8.2-3.2","battery-v0.2","","""event"",""trial"",""time""
""fullscreenenter"",""1"",""3278""
","
","
","""event"",""trial"",""time""
""fullscreenenter"",""1"",""3278""
","
","","","104","","","10","5328","3251","&#9776;","elianto","#3366ff99"," "," ","1","0","[743.1999999999534,955.6999999999534]","2","0","1","","","","","","","",""
"pit-trial","34","349624","0.0-2.0-8.2-4.2","battery-v0.2","","""event"",""trial"",""time""
""fullscreenenter"",""1"",""3278""
","
","
","""event"",""trial"",""time""
""fullscreenenter"",""1"",""3278""
","
","","","288.9000000000233","","","10","5328","3251","&#9776;","elianto","#3366ff99"," "," ","1","+10","[664.3000000000466,1141.9000000000233,2194.20000000007]","3","0","1","","","","","","","",""
"call-function","35","349626","0.0-2.0-9.0","battery-v0.2","","""event"",""trial"",""time""
""fullscreenenter"",""1"",""3278""
","
","
","""event"",""trial"",""time""
""fullscreenenter"",""1"",""3278""
","
","","","","","","","","","","","","","","","","","","","","","","","","","","",""
"pit-instructions","36","389998","0.0-2.0-10.0","battery-v0.2","","""event"",""trial"",""time""
""fullscreenenter"",""1"",""3278""
","
","
","""event"",""trial"",""time""
""fullscreenenter"",""1"",""3278""
","
","","[{""page_index"":0,""viewing_time"":8366.099999999977},{""page_index"":1,""viewing_time"":6279.099999999977},{""page_index"":2,""viewing_time"":9169.70000000007},{""page_index"":3,""viewing_time"":9095.599999999977},{""page_index"":4,""viewing_time"":7460.199999999953}]","40371.29999999993","","","","","","","","","","","","","","","","","","","","","","","",""
"pit-trial","37","393079","0.0-2.0-11.0-0.0","battery-v0.2","","""event"",""trial"",""time""
""fullscreenenter"",""1"",""3278""
","
","
","""event"",""trial"",""time""
""fullscreenenter"",""1"",""3278""
","
","","","222","","","10","5328","3251","&#9761;","elianto","#3366ff99","-1"," ","0","0","[1072.3000000000466]","1","0","2","","","","","","","",""
"pit-trial","38","396055","0.0-2.0-11.0-1.0","battery-v0.2","","""event"",""trial"",""time""
""fullscreenenter"",""1"",""3278""
","
","
","""event"",""trial"",""time""
""fullscreenenter"",""1"",""3278""
","
","","","118","","","10","5328","3251","&#9761;","elianto","#3366ff99","-1"," ","0","0","[970]","1","0","2","","","","","","","",""
"pit-trial","39","398927","0.0-2.0-11.0-2.0","battery-v0.2","","""event"",""trial"",""time""
""fullscreenenter"",""1"",""3278""
","
","
","""event"",""trial"",""time""
""fullscreenenter"",""1"",""3278""
","
","","","13.900000000023283","","","10","5328","3251","&#9761;","elianto","#3366ff99","-1"," ","0","0","[344.89999999990687,483.39999999990687,707.6999999999534,868.6999999999534,1029,1267.8999999999069,1452.1999999999534,1630.2999999999302]","8","0","2","","","","","","","",""
"pit-trial","40","402607","0.0-2.0-11.0-3.0","battery-v0.2","","""event"",""trial"",""time""
""fullscreenenter"",""1"",""3278""
","
","
","""event"",""trial"",""time""
""fullscreenenter"",""1"",""3278""
","
","","","816.5999999999767","","","10","5328","3251","&#9761;","elianto","#3366ff99","-1"," ","0","+10","[1669.2999999999302,2888.79999999993,3268.0999999999767,3453.6999999999534]","4","0","2","","","","","","","",""
"pit-trial","41","405632","0.0-2.0-11.0-4.0","battery-v0.2","","""event"",""trial"",""time""
""fullscreenenter"",""1"",""3278""
","
","
","""event"",""trial"",""time""
""fullscreenenter"",""1"",""3278""
","
","","","164.39999999990687","","","10","5328","3251","&#9761;","elianto","#3366ff99","-1"," ","0","0","[104.40000000002328,290.80000000004657,458.0999999999767,628.5,819.0999999999767,1018.1999999999534,1389.0999999999767,1601.4000000000233,1785.0999999999767,1976.0999999999767,2169.0999999999767,2381.1999999999534,2535.5,2772,2957.9000000000233]","15","0","2","","","","","","","",""
"pit-trial","42","408576","0.0-2.0-11.1-0.1","battery-v0.2","","""event"",""trial"",""time""
""fullscreenenter"",""1"",""3278""
","
","
","""event"",""trial"",""time""
""fullscreenenter"",""1"",""3278""
","
","","","86.40000000002328","","","10","5328","3251","&#9761;","elianto","#3366ff99","-1"," ","0","0","[127.29999999993015,337.5999999999767,520.3999999999069,721.6999999999534,938.2999999999302]","5","0","2","","","","","","","",""
"pit-trial","43","412176","0.0-2.0-11.1-1.1","battery-v0.2","","""event"",""trial"",""time""
""fullscreenenter"",""1"",""3278""
","
","
","""event"",""trial"",""time""
""fullscreenenter"",""1"",""3278""
","
","","","738.5","","","10","5328","3251","&#9761;","elianto","#3366ff99","-1"," ","0","0","[808.0999999999767,1591.5999999999767]","2","0","2","","","","","","","",""
"pit-trial","44","416647","0.0-2.0-11.1-2.1","battery-v0.2","","""event"",""trial"",""time""
""fullscreenenter"",""1"",""3278""
","
","
","""event"",""trial"",""time""
""fullscreenenter"",""1"",""3278""
","
","","","1613.2999999999302","","","10","5328","3251","&#9761;","elianto","#3366ff99","-1"," ","0","0","[793.0999999999767,2466.9000000000233,3317.5999999999767,3477,3664.70000000007,3865.4000000000233,4013.3000000000466,4167.70000000007,4304.800000000047,4463.70000000007]","10","0","2","","","","","","","",""
"pit-trial","45","419680","0.0-2.0-11.1-3.1","battery-v0.2","","""event"",""trial"",""time""
""fullscreenenter"",""1"",""3278""
","
","
","""event"",""trial"",""time""
""fullscreenenter"",""1"",""3278""
","
","","","168.89999999990687","","","10","5328","3251","&#9761;","elianto","#3366ff99","-1"," ","0","+10","[167.70000000006985,323.0999999999767,481.4000000000233,616.9000000000233,838.8000000000466,1022.5999999999767,1384.5,1851.8000000000466,2422.20000000007,2592.5,2788,2990.5999999999767]","12","0","2","","","","","","","",""
"pit-trial","46","422608","0.0-2.0-11.1-4.1","battery-v0.2","","""event"",""trial"",""time""
""fullscreenenter"",""1"",""3278""
","
","
","""event"",""trial"",""time""
""fullscreenenter"",""1"",""3278""
","
","","","64.70000000006985","","","10","5328","3251","&#9761;","elianto","#3366ff99","-1"," ","0","0","[143.09999999997672,352.19999999995343,555.5,735.5,917.4000000000233,1104.0999999999767,1302.1999999999534,1515.0999999999767,1690.1999999999534,1884.2999999999302,2099.5999999999767,2325.5,2887.0999999999767]","13","0","2","","","","","","","",""
"pit-trial","47","425608","0.0-2.0-11.2-0.2","battery-v0.2","","""event"",""trial"",""time""
""fullscreenenter"",""1"",""3278""
","
","
","""event"",""trial"",""time""
""fullscreenenter"",""1"",""3278""
","
","","","142.30000000004657","","","10","5328","3251","&#9761;","elianto","#3366ff99","-1"," ","0","0","[146.90000000002328,318,499.20000000006985,995.2000000000698,1235.4000000000233,1386.2000000000698]","6","0","2","","","","","","","",""
"pit-trial","48","428520","0.0-2.0-11.2-1.2","battery-v0.2","","""event"",""trial"",""time""
""fullscreenenter"",""1"",""3278""
","
","
","""event"",""trial"",""time""
""fullscreenenter"",""1"",""3278""
","
","","","54.699999999953434","","","10","5328","3251","&#9761;","elianto","#3366ff99","-1"," ","0","0","[633.0999999999767,908.0999999999767,1809.1999999999534,2311.9000000000233,2567.29999999993,2821.6999999999534]","6","0","2","","","","","","","",""
"pit-trial","49","432000","0.0-2.0-11.2-2.2","battery-v0.2","","""event"",""trial"",""time""
""fullscreenenter"",""1"",""3278""
","
","
","""event"",""trial"",""time""
""fullscreenenter"",""1"",""3278""
","
","","","623.0999999999767","","","10","5328","3251","&#9761;","elianto","#3366ff99","-1"," ","0","0","[384.5,1474,1669.6999999999534,2458.4000000000233,2698.0999999999767,2891.29999999993,3071.5,3306]","8","0","2","","","","","","","",""
"pit-trial","50","435032","0.0-2.0-11.2-3.2","battery-v0.2","","""event"",""trial"",""time""
""fullscreenenter"",""1"",""3278""
","
","
","""event"",""trial"",""time""
""fullscreenenter"",""1"",""3278""
","
","","","177.5","","","10","5328","3251","&#9761;","elianto","#3366ff99","-1"," ","0","+10","[64.30000000004657,314.5999999999767,542.7000000000698,789,1028.5,1237.5999999999767,1692.5,1923.7000000000698,2420.5]","9","0","2","","","","","","","",""
"pit-trial","51","438247","0.0-2.0-11.2-4.2","battery-v0.2","","""event"",""trial"",""time""
""fullscreenenter"",""1"",""3278""
","
","
","""event"",""trial"",""time""
""fullscreenenter"",""1"",""3278""
","
","","","356.5","","","10","5328","3251","&#9761;","elianto","#3366ff99","-1"," ","0","0","[376.5999999999767,1206.5999999999767,1435.3999999999069]","3","0","2","","","","","","","",""
"pit-trial","52","441207","0.0-2.0-11.3-0.3","battery-v0.2","","""event"",""trial"",""time""
""fullscreenenter"",""1"",""3278""
","
","
","""event"",""trial"",""time""
""fullscreenenter"",""1"",""3278""
","
","","","96.10000000009313","","","10","5328","3251","&#9761;","elianto","#3366ff99","-1"," ","0","0","[381.79999999993015,583.5999999999767,772.1999999999534,949,1280.0999999999767]","5","0","2","","","","","","","",""
"pit-trial","53","446072","0.0-2.0-11.3-1.3","battery-v0.2","","""event"",""trial"",""time""
""fullscreenenter"",""1"",""3278""
","
","
","""event"",""trial"",""time""
""fullscreenenter"",""1"",""3278""
","
","","","-1","","","10","5328","3251","&#9761;","elianto","#3366ff99","-1","-1","1","+10","[4194.70000000007,4652.900000000023]","2","0","2","","","","","","","",""
"pit-trial","54","449048","0.0-2.0-11.3-2.3","battery-v0.2","","""event"",""trial"",""time""
""fullscreenenter"",""1"",""3278""
","
","
","""event"",""trial"",""time""
""fullscreenenter"",""1"",""3278""
","
","","","116.79999999993015","","","10","5328","3251","&#9761;","elianto","#3366ff99","-1"," ","0","0","[13.29999999993015,412.29999999993015,567.3999999999069,764.5,969.6999999999534,1167.5999999999767,1360.1999999999534,1566.5,1792.3999999999069,2002.7999999999302,2208.399999999907,2414.6999999999534,2611.5999999999767,2842.399999999907]","14","0","2","","","","","","","",""
"pit-trial","55","452064","0.0-2.0-11.3-3.3","battery-v0.2","","""event"",""trial"",""time""
""fullscreenenter"",""1"",""3278""
","
","
","""event"",""trial"",""time""
""fullscreenenter"",""1"",""3278""
","
","","","156.39999999990687","","","10","5328","3251","&#9761;","elianto","#3366ff99","-1"," ","0","+10","[75.79999999993015,251,434.39999999990687,646.6999999999534,820.6999999999534,1009.8999999999069,1221.5999999999767,1420.5,1612.3999999999069,1785.5999999999767,2006.5,2616.6999999999534,2798.5,2991.79999999993]","14","0","2","","","","","","","",""
"pit-trial","56","455200","0.0-2.0-11.3-4.3","battery-v0.2","","""event"",""trial"",""time""
""fullscreenenter"",""1"",""3278""
","
","
","""event"",""trial"",""time""
""fullscreenenter"",""1"",""3278""
","
","","","272.4000000000233","","","10","5328","3251","&#9761;","elianto","#3366ff99","-1"," ","0","0","[167,348.9000000000233,551.4000000000233,743.1999999999534,1124.3000000000466,1301.1999999999534,1543.6999999999534,1735.5,1944.5999999999767,2137.3000000000466,2317.6999999999534,2498.3000000000466,2704.6999999999534,2900.8000000000466,3091.5]","15","0","2","","","","","","","",""
"call-function","57","455202","0.0-2.0-12.0","battery-v0.2","","""event"",""trial"",""time""
""fullscreenenter"",""1"",""3278""
","
","
","""event"",""trial"",""time""
""fullscreenenter"",""1"",""3278""
","
","","","","","","","","","","","","","","","","","","","","","","","","","","",""
"pit-instructions","58","496724","0.0-2.0-13.0","battery-v0.2","","""event"",""trial"",""time""
""fullscreenenter"",""1"",""3278""
","
","
","""event"",""trial"",""time""
""fullscreenenter"",""1"",""3278""
","
","","[{""page_index"":0,""viewing_time"":13740},{""page_index"":1,""viewing_time"":6260},{""page_index"":2,""viewing_time"":3054.5999999999767},{""page_index"":3,""viewing_time"":13651.70000000007},{""page_index"":4,""viewing_time"":4813.79999999993}]","41520.90000000002","","","","","","","","","","","","","","","","","","","","","","","",""
"pit-trial","59","499792","0.0-2.0-14.0-0.0","battery-v0.2","","""event"",""trial"",""time""
""fullscreenenter"",""1"",""3278""
","
","
","""event"",""trial"",""time""
""fullscreenenter"",""1"",""3278""
","
","","","198.90000000002328","","","10","5328","3251","&#9826;","elianto","#f73b6a7A","-1"," ","0","-10","[848.4000000000233,1055.5,1260.2999999999302,1447,1664.5]","5","0","3","","","","","","","",""
"pit-trial","60","503313","0.0-2.0-14.0-1.0","battery-v0.2","","""event"",""trial"",""time""
""fullscreenenter"",""1"",""3278""
","
","
","""event"",""trial"",""time""
""fullscreenenter"",""1"",""3278""
","
","","","663","","","10","5328","3251","&#9826;","elianto","#f73b6a7A","-1"," ","0","-10","[1516.2000000000698]","1","0","3","","","","","","","",""
"pit-trial","61","506288","0.0-2.0-14.0-2.0","battery-v0.2","","""event"",""trial"",""time""
""fullscreenenter"",""1"",""3278""
","
","
","""event"",""trial"",""time""
""fullscreenenter"",""1"",""3278""
","
","","","116.09999999997672","","","10","5328","3251","&#9826;","elianto","#f73b6a7A","-1"," ","0","-10","[370.5,611.5999999999767,779.5,966.6999999999534,1159.7999999999302,1366.0999999999767,1560.5999999999767,1772.5999999999767,2094.9000000000233,2294.79999999993,2848.9000000000233]","11","0","3","","","","","","","",""
"pit-trial","62","509159","0.0-2.0-14.0-3.0","battery-v0.2","","""event"",""trial"",""time""
""fullscreenenter"",""1"",""3278""
","
","
","""event"",""trial"",""time""
""fullscreenenter"",""1"",""3278""
","
","","","4.800000000046566","","","10","5328","3251","&#9826;","elianto","#f73b6a7A","-1"," ","0","0","[67.5,478.0999999999767,679,862.4000000000233,1013,1179.6999999999534,1373.9000000000233,1551.9000000000233,1745.6999999999534,1919.6999999999534,2117,2336.8000000000466,2542.9000000000233,2730.5999999999767]","14","0","3","","","","","","","",""
"pit-trial","63","512184","0.0-2.0-14.0-4.0","battery-v0.2","","""event"",""trial"",""time""
""fullscreenenter"",""1"",""3278""
","
","
","""event"",""trial"",""time""
""fullscreenenter"",""1"",""3278""
","
","","","164.40000000002328","","","10","5328","3251","&#9826;","elianto","#f73b6a7A","-1"," ","0","-10","[83.60000000009313,260.20000000006985,437.20000000006985,618.3000000000466,802.8000000000466,1017.9000000000233,1220.1000000000931,1420.1000000000931,1604.2000000000698,2052.4000000000233,2399.70000000007,2701.9000000000233,2939.20000000007]","13","0","3","","","","","","","",""
"pit-trial","64","515256","0.0-2.0-14.1-0.1","battery-v0.2","","""event"",""trial"",""time""
""fullscreenenter"",""1"",""3278""
","
","
","""event"",""trial"",""time""
""fullscreenenter"",""1"",""3278""
","
","","","205.40000000002328","","","10","5328","3251","&#9826;","elianto","#f73b6a7A","-1"," ","0","-10","[117.79999999993015,356.19999999995343,663.0999999999767,1060.5,1266.1999999999534,1471.1999999999534,1656.4000000000233,1846.4000000000233,2061.4000000000233,2222.5,2393,2566.5,2743.79999999993,2907.5]","14","0","3","","","","","","","",""
"pit-trial","65","518295","0.0-2.0-14.1-1.1","battery-v0.2","","""event"",""trial"",""time""
""fullscreenenter"",""1"",""3278""
","
","
","""event"",""trial"",""time""
""fullscreenenter"",""1"",""3278""
","
","","","182.80000000004657","","","10","5328","3251","&#9826;","elianto","#f73b6a7A","-1"," ","0","-10","[5.400000000023283,168.30000000004657,336.70000000006985,515.4000000000233,688.4000000000233,851.3000000000466,1034.3000000000466,1214.5999999999767,1428.3000000000466,1640.5999999999767,1800,1957.5999999999767,2135.8000000000466,2317.5999999999767,2499.5999999999767,2701.5999999999767,2875.5]","17","0","3","","","","","","","",""
"pit-trial","66","521464","0.0-2.0-14.1-2.1","battery-v0.2","","""event"",""trial"",""time""
""fullscreenenter"",""1"",""3278""
","
","
","""event"",""trial"",""time""
""fullscreenenter"",""1"",""3278""
","
","","","305","","","10","5328","3251","&#9826;","elianto","#f73b6a7A","-1"," ","0","-10","[48.90000000002328,251.30000000004657,462.30000000004657,594,832,1160.5,1361.5,1543.4000000000233,1740.3000000000466,1920,2137.5,2690.4000000000233,2909.0999999999767,3024.5999999999767]","14","0","3","","","","","","","",""
"pit-trial","67","524376","0.0-2.0-14.1-3.1","battery-v0.2","","""event"",""trial"",""time""
""fullscreenenter"",""1"",""3278""
","
","
","""event"",""trial"",""time""
""fullscreenenter"",""1"",""3278""
","
","","","51.39999999990687","","","10","5328","3251","&#9826;","elianto","#f73b6a7A","-1"," ","0","0","[127.69999999995343,340.69999999995343,902.2999999999884,1134.1999999998952,1485.2999999999884,1707.7999999999884,1904.600000000035,2100.699999999895,2338.499999999942,2522.999999999942,2733.100000000035,2897.4000000000815]","12","0","3","","","","","","","",""
"pit-trial","68","527352","0.0-2.0-14.1-4.1","battery-v0.2","","""event"",""trial"",""time""
""fullscreenenter"",""1"",""3278""
","
","
","""event"",""trial"",""time""
""fullscreenenter"",""1"",""3278""
","
","","","113.9000000001397","","","10","5328","3251","&#9826;","elianto","#f73b6a7A","-1"," ","0","-10","[306.5,499.80000000004657,694.6000000000931,968.6000000000931,1146.8000000000466,1405.6000000000931,1582.8999999999069,1801.3999999999069,2089.600000000093,2295.8000000000466,2704.600000000093,2906.8000000000466]","12","0","3","","","","","","","",""
"pit-trial","69","530288","0.0-2.0-14.2-0.2","battery-v0.2","","""event"",""trial"",""time""
""fullscreenenter"",""1"",""3278""
","
","
","""event"",""trial"",""time""
""fullscreenenter"",""1"",""3278""
","
","","","78.4000000001397","","","10","5328","3251","&#9826;","elianto","#f73b6a7A","-1"," ","0","-10","[51.800000000046566,333.5,531.8000000000466,760.1999999999534,931,1105,1284.6999999999534,1487.1999999999534,1654.6000000000931,1863,2013.6999999999534,2277.1999999999534,2515.9000000001397,2752.4000000001397]","14","0","3","","","","","","","",""
"pit-trial","70","533400","0.0-2.0-14.2-1.2","battery-v0.2","","""event"",""trial"",""time""
""fullscreenenter"",""1"",""3278""
","
","
","""event"",""trial"",""time""
""fullscreenenter"",""1"",""3278""
","
","","","253.79999999981374","","","10","5328","3251","&#9826;","elianto","#f73b6a7A","-1"," ","0","-10","[33.10000000009313,238.69999999995343,399.60000000009313,607.9000000001397,760.8000000000466,1108.1000000000931,1303.8000000000466,1528.5,1691.8000000000466,1960.6000000000931,2649.9000000001397,2992.9000000001397]","12","0","3","","","","","","","",""
"pit-trial","71","536480","0.0-2.0-14.2-2.2","battery-v0.2","","""event"",""trial"",""time""
""fullscreenenter"",""1"",""3278""
","
","
","""event"",""trial"",""time""
""fullscreenenter"",""1"",""3278""
","
","","","216.30000000004657","","","10","5328","3251","&#9826;","elianto","#f73b6a7A","-1"," ","0","-10","[68.20000000018626,291.80000000004657,543,822,1069.4000000001397,1301.3000000000466,1558.4000000001397,1732.5,1857.5,2181.2000000001863,2634.600000000093,2830.600000000093,3009.8000000000466]","13","0","3","","","","","","","",""
"pit-trial","72","539354","0.0-2.0-14.2-3.2","battery-v0.2","","""event"",""trial"",""time""
""fullscreenenter"",""1"",""3278""
","
","
","""event"",""trial"",""time""
""fullscreenenter"",""1"",""3278""
","
","","","17","","","10","5328","3251","&#9826;","elianto","#f73b6a7A","-1"," ","0","0","[148.30000000004657,307.80000000004657,683.8000000000466,870.3999999999069,1058.6999999999534,1270.1999999999534,1463.1000000000931,1654.1999999999534,1827.1999999999534,2010.6999999999534,2196.899999999907,2380.1999999999534,2557.1999999999534,2746.899999999907]","14","0","3","","","","","","","",""
"pit-trial","73","542344","0.0-2.0-14.2-4.2","battery-v0.2","","""event"",""trial"",""time""
""fullscreenenter"",""1"",""3278""
","
","
","""event"",""trial"",""time""
""fullscreenenter"",""1"",""3278""
","
","","","128","","","10","5328","3251","&#9826;","elianto","#f73b6a7A","-1"," ","0","-10","[16.9000000001397,291,461.4000000001397,701.5,979.1999999999534,1058.4000000001397,1351.1999999999534,1578.8000000000466,1762.3000000000466,2138.100000000093,2338,2532.100000000093,2732.3000000000466,2912.3000000000466]","14","0","3","","","","","","","",""
"pit-trial","74","545336","0.0-2.0-14.3-0.3","battery-v0.2","","""event"",""trial"",""time""
""fullscreenenter"",""1"",""3278""
","
","
","""event"",""trial"",""time""
""fullscreenenter"",""1"",""3278""
","
","","","134.5999999998603","","","10","5328","3251","&#9826;","elianto","#f73b6a7A","-1"," ","0","-10","[95.5,266,439.60000000009313,580.5,795.8000000000466,986.8000000000466,1208.6999999999534,1407.6000000000931,1615.3999999999069,1799.3000000000466,1979.8999999999069,2283.600000000093,2495.6999999999534,2684.5,2825.5]","15","0","3","","","","","","","",""
"pit-trial","75","548312","0.0-2.0-14.3-1.3","battery-v0.2","","""event"",""trial"",""time""
""fullscreenenter"",""1"",""3278""
","
","
","""event"",""trial"",""time""
""fullscreenenter"",""1"",""3278""
","
","","","111.60000000009313","","","10","5328","3251","&#9826;","elianto","#f73b6a7A","-1"," ","0","-10","[91.5999999998603,304.5,739.0999999998603,964.6999999999534,1425,1626.1999999999534,1831.0999999998603,2219.8000000000466,2431.5,2622.8000000000466,2856.0999999998603]","11","0","3","","","","","","","",""
"pit-trial","76","551336","0.0-2.0-14.3-2.3","battery-v0.2","","""event"",""trial"",""time""
""fullscreenenter"",""1"",""3278""
","
","
","""event"",""trial"",""time""
""fullscreenenter"",""1"",""3278""
","
","","","160.60000000009313","","","10","5328","3251","&#9826;","elianto","#f73b6a7A","-1"," ","0","-10","[174.5,393.19999999995343,590.6999999999534,827.0999999998603,1014,1247.3999999999069,1830.6999999999534,2059.5999999998603,2271.6999999999534,2570.399999999907,2786.5999999998603,2998.1999999999534]","12","0","3","","","","","","","",""
"pit-trial","77","554408","0.0-2.0-14.3-3.3","battery-v0.2","","""event"",""trial"",""time""
""fullscreenenter"",""1"",""3278""
","
","
","""event"",""trial"",""time""
""fullscreenenter"",""1"",""3278""
","
","","","207.4000000001397","","","10","5328","3251","&#9826;","elianto","#f73b6a7A","-1"," ","0","0","[211.89999999990687,473.39999999990687,1060.5999999998603,1280.5999999998603,1481.5,1640.5,1794.5,1948.5,2176.0999999998603,2330.6999999999534,2531.5999999998603,2673.2999999998137,2830.899999999907]","13","0","3","","","","","","","",""
"pit-trial","78","557400","0.0-2.0-14.3-4.3","battery-v0.2","","""event"",""trial"",""time""
""fullscreenenter"",""1"",""3278""
","
","
","""event"",""trial"",""time""
""fullscreenenter"",""1"",""3278""
","
","","","132.10000000009313","","","10","5328","3251","&#9826;","elianto","#f73b6a7A","-1"," ","0","-10","[4.899999999906868,216.89999999990687,740.1999999999534,982.7999999998137,1385.6999999999534,1611.7999999998137,1811.5,2023.7999999998137,2234.1999999999534,2486.0999999998603,2694.5999999998603,2938.6999999999534]","12","0","3","","","","","","","",""
"call-function","79","557402","0.0-2.0-15.0","battery-v0.2","","""event"",""trial"",""time""
""fullscreenenter"",""1"",""3278""
","
","
","""event"",""trial"",""time""
""fullscreenenter"",""1"",""3278""
","
","","","","","","","","","","","","","","","","","","","","","","","","","","",""
"pit-instructions","80","589986","0.0-2.0-16.0","battery-v0.2","","""event"",""trial"",""time""
""fullscreenenter"",""1"",""3278""
","
","
","""event"",""trial"",""time""
""fullscreenenter"",""1"",""3278""
","
","","[{""page_index"":0,""viewing_time"":10291},{""page_index"":1,""viewing_time"":11987.300000000047},{""page_index"":2,""viewing_time"":5464.199999999953},{""page_index"":3,""viewing_time"":4839.600000000093}]","32583.100000000093","","","","","","","","","","","","","","","","","","","","","","","",""
"pit-trial","81","593680","0.0-2.0-17.0-0.0","battery-v0.2","","""event"",""trial"",""time""
""fullscreenenter"",""1"",""3278""
","
","
","""event"",""trial"",""time""
""fullscreenenter"",""1"",""3278""
","
","","","837.0999999998603","","","10","5328","3251","&#9789;","elianto","#f73b6a7A"," "," ","1","0","[1688,1895.4000000001397,2081.100000000093,2261.100000000093,2440.8000000000466,2629.3000000000466,2824.100000000093,3028.7000000001863,3224.7000000001863,3427,3594.2000000001863]","11","0","4","","","","","","","",""
"pit-trial","82","596705","0.0-2.0-17.0-1.0","battery-v0.2","","""event"",""trial"",""time""
""fullscreenenter"",""1"",""3278""
","
","
","""event"",""trial"",""time""
""fullscreenenter"",""1"",""3278""
","
","","","163.9000000001397","","","10","5328","3251","&#9789;","elianto","#f73b6a7A"," "," ","1","0","[62.299999999813735,241.39999999990687,414.29999999981374,617,840.2999999998137,1016.0999999998603,1202.8999999999069,1385.7999999998137,1550.0999999998603,1735.6999999999534,1929.3999999999069,2122.399999999907,2327,2520.5999999998603,2706.2999999998137,2904]","16","0","4","","","","","","","",""
"pit-trial","83","599695","0.0-2.0-17.0-2.0","battery-v0.2","","""event"",""trial"",""time""
""fullscreenenter"",""1"",""3278""
","
","
","""event"",""trial"",""time""
""fullscreenenter"",""1"",""3278""
","
","","","133.69999999995343","","","10","5328","3251","&#9789;","elianto","#f73b6a7A"," "," ","1","0","[75.19999999995343,260,455.69999999995343,637,828.8999999999069,987.0999999998603,1176.5999999998603,1580.8999999999069,1893.5999999998603,2079.6999999999534,2256.6999999999534,2414.5,2645.5999999998603,2831.7999999998137]","14","0","4","","","","","","","",""
"pit-trial","84","602808","0.0-2.0-17.0-3.0","battery-v0.2","","""event"",""trial"",""time""
""fullscreenenter"",""1"",""3278""
","
","
","""event"",""trial"",""time""
""fullscreenenter"",""1"",""3278""
","
","","","252.5","","","10","5328","3251","&#9789;","elianto","#f73b6a7A"," "," ","1","-10","[49.699999999953434,265.19999999995343,458.60000000009313,695,1106.1999999999534,1316.5,1521.8999999999069,1733.8000000000466,1943.8999999999069,2126.6999999999534,2357.8000000000466,2592.600000000093,2787.8000000000466,2977.600000000093]","14","0","4","","","","","","","",""
"pit-trial","85","605880","0.0-2.0-17.0-4.0","battery-v0.2","","""event"",""trial"",""time""
""fullscreenenter"",""1"",""3278""
","
","
","""event"",""trial"",""time""
""fullscreenenter"",""1"",""3278""
","
","","","212.4000000001397","","","10","5328","3251","&#9789;","elianto","#f73b6a7A"," "," ","1","0","[20.600000000093132,199.20000000018626,377,596.6000000000931,815.8000000000466,1065.8000000000466,1248,1471.1000000000931,1902.4000000001397,2295.7000000001863,2490,2707.9000000001397,2960.3000000000466]","13","0","4","","","","","","","",""
"pit-trial","86","608792","0.0-2.0-17.1-0.1","battery-v0.2","","""event"",""trial"",""time""
""fullscreenenter"",""1"",""3278""
","
","
","""event"",""trial"",""time""
""fullscreenenter"",""1"",""3278""
","
","","","50.800000000046566","","","10","5328","3251","&#9789;","elianto","#f73b6a7A"," "," ","1","0","[120.80000000004657,338.60000000009313,538,713.7000000001863,904.7000000001863,1094.3000000000466,1284.3000000000466,1506.4000000001397,1730.5,1957.3000000000466,2207.600000000093,2479.8000000000466,2707.7000000001863]","13","0","4","","","","","","","",""
"pit-trial","87","611656","0.0-2.0-17.1-1.1","battery-v0.2","","""event"",""trial"",""time""
""fullscreenenter"",""1"",""3278""
","
","
","""event"",""trial"",""time""
""fullscreenenter"",""1"",""3278""
","
","","","4.800000000046566","","","10","5328","3251","&#9789;","elianto","#f73b6a7A"," "," ","1","0","[57.9000000001397,261.30000000004657,481.4000000001397,671.4000000001397,858.2000000001863,1055,1277.4000000001397,1500,1692.8000000000466,1914.1000000000931,2132.9000000001397,2401,2616.5,2825.9000000001397]","14","0","4","","","","","","","",""
"pit-trial","88","614520","0.0-2.0-17.1-2.1","battery-v0.2","","""event"",""trial"",""time""
""fullscreenenter"",""1"",""3278""
","
","
","""event"",""trial"",""time""
""fullscreenenter"",""1"",""3278""
","
","","","6.7999999998137355","","","10","5328","3251","&#9789;","elianto","#f73b6a7A"," "," ","1","0","[132.69999999995343,309.39999999990687,492.39999999990687,669,860.5999999998603,1067.5,1263.5999999998603,1411,1836.8000000000466,2068.8000000000466,2278.1999999999534,2617.0999999998603]","12","0","4","","","","","","","",""
"pit-trial","89","617408","0.0-2.0-17.1-3.1","battery-v0.2","","""event"",""trial"",""time""
""fullscreenenter"",""1"",""3278""
","
","
","""event"",""trial"",""time""
""fullscreenenter"",""1"",""3278""
","
","","","25.699999999953434","","","10","5328","3251","&#9789;","elianto","#f73b6a7A"," "," ","1","-10","[879.4000000001397,1247,2106.5,2279.8000000000466,2447,2636.9000000001397,2826.5]","7","0","4","","","","","","","",""
"pit-trial","90","620279","0.0-2.0-17.1-4.1","battery-v0.2","","""event"",""trial"",""time""
""fullscreenenter"",""1"",""3278""
","
","
","""event"",""trial"",""time""
""fullscreenenter"",""1"",""3278""
","
","","","15.600000000093132","","","10","5328","3251","&#9789;","elianto","#f73b6a7A"," "," ","1","0","[122.89999999990687,318.79999999981374,508.69999999995343,865.7999999998137,1038.5999999998603,1225.5999999998603,1447.0999999998603,1870.1999999999534,2047.0999999998603,2217.1999999999534,2408.0999999998603,2790.7999999998137]","12","0","4","","","","","","","",""
"pit-trial","91","623287","0.0-2.0-17.2-0.2","battery-v0.2","","""event"",""trial"",""time""
""fullscreenenter"",""1"",""3278""
","
","
","""event"",""trial"",""time""
""fullscreenenter"",""1"",""3278""
","
","","","146.19999999995343","","","10","5328","3251","&#9789;","elianto","#f73b6a7A"," "," ","1","0","[114.80000000004657,441.5,627.4000000001397,811.1000000000931,999.4000000001397,1211.6000000000931,1407.6000000000931,1610.3000000000466,1926,2663.100000000093,2825.3000000000466,2986.100000000093]","12","0","4","","","","","","","",""
"pit-trial","92","626240","0.0-2.0-17.2-1.2","battery-v0.2","","""event"",""trial"",""time""
""fullscreenenter"",""1"",""3278""
","
","
","""event"",""trial"",""time""
""fullscreenenter"",""1"",""3278""
","
","","","95.30000000004657","","","10","5328","3251","&#9789;","elianto","#f73b6a7A"," "," ","1","0","[242.80000000004657,422.9000000001397,600.8000000000466,764.2000000001863,947.4000000001397,1128.8000000000466,1466.9000000001397,1677.8000000000466,1859.9000000001397,2073.3000000000466,2464.7000000001863,2653.9000000001397,2847.3000000000466]","13","0","4","","","","","","","",""
"pit-trial","93","629240","0.0-2.0-17.2-2.2","battery-v0.2","","""event"",""trial"",""time""
""fullscreenenter"",""1"",""3278""
","
","
","""event"",""trial"",""time""
""fullscreenenter"",""1"",""3278""
","
","","","138.5","","","10","5328","3251","&#9789;","elianto","#f73b6a7A"," "," ","1","0","[90.60000000009313,434,627.3000000000466,824.8999999999069,991.6999999999534,1194.3999999999069,1371.1000000000931,1593.8000000000466,1716.6000000000931,1949.1000000000931,2135.100000000093,2317.3000000000466,2539.899999999907,2746,2887.5]","15","0","4","","","","","","","",""
"pit-trial","94","632144","0.0-2.0-17.2-3.2","battery-v0.2","","""event"",""trial"",""time""
""fullscreenenter"",""1"",""3278""
","
","
","""event"",""trial"",""time""
""fullscreenenter"",""1"",""3278""
","
","","","41.5","","","10","5328","3251","&#9789;","elianto","#f73b6a7A"," "," ","1","-10","[96.5,298.60000000009313,503.10000000009313,706,894.8999999999069,1081.8000000000466,1330.3999999999069,1543.5,1905.6999999999534,2104.6999999999534,2527.8000000000466,2739]","12","0","4","","","","","","","",""
"pit-trial","95","635040","0.0-2.0-17.2-4.2","battery-v0.2","","""event"",""trial"",""time""
""fullscreenenter"",""1"",""3278""
","
","
","""event"",""trial"",""time""
""fullscreenenter"",""1"",""3278""
","
","","","35","","","10","5328","3251","&#9789;","elianto","#f73b6a7A"," "," ","1","0","[45.10000000009313,188.39999999990687,440.89999999990687,647.8000000000466,888.8000000000466,1099.8000000000466,1393.1000000000931,1603.6999999999534,1847.6999999999534,2045.3999999999069,2546,2787.600000000093]","12","0","4","","","","","","","",""
"pit-trial","96","638056","0.0-2.0-17.3-0.3","battery-v0.2","","""event"",""trial"",""time""
""fullscreenenter"",""1"",""3278""
","
","
","""event"",""trial"",""time""
""fullscreenenter"",""1"",""3278""
","
","","","151.10000000009313","","","10","5328","3251","&#9789;","elianto","#f73b6a7A"," "," ","1","0","[91.5,299.69999999995343,510.10000000009313,795.5,1006,1206.6999999999534,1401.9000000001397,1546,1819.9000000001397,2032.1999999999534,2319.5,2410,2595.600000000093,2839.100000000093]","14","0","4","","","","","","","",""
"pit-trial","97","640935","0.0-2.0-17.3-1.3","battery-v0.2","","""event"",""trial"",""time""
""fullscreenenter"",""1"",""3278""
","
","
","""event"",""trial"",""time""
""fullscreenenter"",""1"",""3278""
","
","","","18.199999999953434","","","10","5328","3251","&#9789;","elianto","#f73b6a7A"," "," ","1","0","[32.699999999953434,477.39999999990687,710,871.5999999998603,1042.8999999999069,1213.6999999999534,1404,1598.7999999998137,1787.3999999999069,1996.6999999999534,2394.6999999999534,2591.1999999999534,2772.5]","13","0","4","","","","","","","",""
"pit-trial","98","643832","0.0-2.0-17.3-2.3","battery-v0.2","","""event"",""trial"",""time""
""fullscreenenter"",""1"",""3278""
","
","
","""event"",""trial"",""time""
""fullscreenenter"",""1"",""3278""
","
","","","33.299999999813735","","","10","5328","3251","&#9789;","elianto","#f73b6a7A"," "," ","1","0","[82.89999999990687,308.39999999990687,505.89999999990687,706.8999999999069,889.3000000000466,1073.1000000000931,1220.3000000000466,1465.5,1662.8999999999069,1851.3999999999069,2051.6999999999534,2286.5,2449.6999999999534,2669.6999999999534,2840.3000000000466]","15","0","4","","","","","","","",""
"pit-trial","99","646872","0.0-2.0-17.3-3.3","battery-v0.2","","""event"",""trial"",""time""
""fullscreenenter"",""1"",""3278""
","
","
","""event"",""trial"",""time""
""fullscreenenter"",""1"",""3278""
","
","","","179","","","10","5328","3251","&#9789;","elianto","#f73b6a7A"," "," ","1","-10","[193.19999999995343,608.3999999999069,838.6999999999534,1032.2999999998137,1243.2999999998137,1437.8999999999069,1622.2999999998137,1815.6999999999534,2023.5999999998603,2211.2999999998137,2416.7999999998137,2630.5999999998603,2837.6999999999534]","13","0","4","","","","","","","",""
"pit-trial","100","649936","0.0-2.0-17.3-4.3","battery-v0.2","","""event"",""trial"",""time""
""fullscreenenter"",""1"",""3278""
","
","
","""event"",""trial"",""time""
""fullscreenenter"",""1"",""3278""
","
","","","203.79999999981374","","","10","5328","3251","&#9789;","elianto","#f73b6a7A"," "," ","1","0","[6.300000000046566,232.30000000004657,418.19999999995343,635.5,850.6999999999534,1054.5999999998603,1253.3000000000466,1486.3000000000466,1687.8000000000466,1909,2105,2321.3000000000466,2518.3000000000466,2711.6999999999534,2955.5]","15","0","4","","","","","","","",""
"call-function","101","649938","0.0-2.0-18.0","battery-v0.2","","""event"",""trial"",""time""
""fullscreenenter"",""1"",""3278""
","
","
","""event"",""trial"",""time""
""fullscreenenter"",""1"",""3278""
","
","","","","","","","","","","","","","","","","","","","","","","","","","","",""
"pit-instructions","102","877077","0.0-2.0-19.0","battery-v0.2","","""event"",""trial"",""time""
""fullscreenenter"",""1"",""3278""
","
","
","""event"",""trial"",""time""
""fullscreenenter"",""1"",""3278""
","
","","[{""page_index"":0,""viewing_time"":8759.199999999953},{""page_index"":1,""viewing_time"":9661.90000000014},{""page_index"":2,""viewing_time"":14158.899999999907},{""page_index"":3,""viewing_time"":8457.800000000047},{""page_index"":4,""viewing_time"":10135.399999999907},{""page_index"":5,""viewing_time"":9199.5},{""page_index"":6,""viewing_time"":156761.30000000005},{""page_index"":7,""viewing_time"":6128.59999999986},{""page_index"":8,""viewing_time"":3874.7000000001863}]","227138.3999999999","","","","","","","","","","","","","","","","","","","","","","","",""
"pit-comprehension","103","885892","0.0-2.0-20.0-0.0","battery-v0.2","","""event"",""trial"",""time""
""fullscreenenter"",""1"",""3278""
","
","
","""event"",""trial"",""time""
""fullscreenenter"",""1"",""3278""
","
","","","8806.899999999907","[""ENTER""]","1","10","5328","3251","","","","","","","","","","","","","","","","","","",""
"pit-instructions","104","888594","0.0-2.0-20.0-1.0","battery-v0.2","","""event"",""trial"",""time""
""fullscreenenter"",""1"",""3278""
","
","
","""event"",""trial"",""time""
""fullscreenenter"",""1"",""3278""
","
","","[{""page_index"":0,""viewing_time"":2648.1999999999534}]","2649","","","","","","","","","","","","","","","","","","","","","","","",""
"pit-instructions","105","889734","0.0-2.0-20.0-2.0-0.0","battery-v0.2","","""event"",""trial"",""time""
""fullscreenenter"",""1"",""3278""
","
","
","""event"",""trial"",""time""
""fullscreenenter"",""1"",""3278""
","
","","[{""page_index"":0,""viewing_time"":1136.3999999999069}]","1137","","","","","","","","","","","","","","","","","","","","","","","",""
"pit-comprehension","106","894001","0.0-2.0-20.1-0.1","battery-v0.2","","""event"",""trial"",""time""
""fullscreenenter"",""1"",""3278""
","
","
","""event"",""trial"",""time""
""fullscreenenter"",""1"",""3278""
","
","","","4263","[""SPACE""]","0","10","5328","3251","","","","","","","","","","","","","","","","","","",""
"pit-instructions","107","898505","0.0-2.0-20.1-1.1","battery-v0.2","","""event"",""trial"",""time""
""fullscreenenter"",""1"",""3278""
","
","
","""event"",""trial"",""time""
""fullscreenenter"",""1"",""3278""
","
","","[{""page_index"":0,""viewing_time"":4448.600000000093}]","4449.300000000047","","","","","","","","","","","","","","","","","","","","","","","",""
"pit-comprehension","108","904582","0.0-2.0-21.0-0.0","battery-v0.2","","""event"",""trial"",""time""
""fullscreenenter"",""1"",""3278""
","
","
","""event"",""trial"",""time""
""fullscreenenter"",""1"",""3278""
","
","","","6070.300000000047","[""10""]","0","10","5328","3251","","","","","","","","","","","","","","","","","","",""
"pit-instructions","109","906213","0.0-2.0-21.0-1.0","battery-v0.2","","""event"",""trial"",""time""
""fullscreenenter"",""1"",""3278""
","
","
","""event"",""trial"",""time""
""fullscreenenter"",""1"",""3278""
","
","","[{""page_index"":0,""viewing_time"":1542.7999999998137}]","1543.2999999998137","","","","","","","","","","","","","","","","","","","","","","","",""
"pit-comprehension","110","912683","0.0-2.0-22.0-0.0","battery-v0.2","","""event"",""trial"",""time""
""fullscreenenter"",""1"",""3278""
","
","
","""event"",""trial"",""time""
""fullscreenenter"",""1"",""3278""
","
","","","6464.899999999907","[""-10""]","1","10","5328","3251","","","","","","","","","","","","","","","","","","",""
"pit-instructions","111","916289","0.0-2.0-22.0-1.0","battery-v0.2","","""event"",""trial"",""time""
""fullscreenenter"",""1"",""3278""
","
","
","""event"",""trial"",""time""
""fullscreenenter"",""1"",""3278""
","
","","[{""page_index"":0,""viewing_time"":3551.6999999999534}]","3552.3000000000466","","","","","","","","","","","","","","","","","","","","","","","",""
"pit-instructions","112","916781","0.0-2.0-22.0-2.0-0.0","battery-v0.2","","""event"",""trial"",""time""
""fullscreenenter"",""1"",""3278""
","
","
","""event"",""trial"",""time""
""fullscreenenter"",""1"",""3278""
","
","","[{""page_index"":0,""viewing_time"":488.5}]","489.20000000018626","","","","","","","","","","","","","","","","","","","","","","","",""
"pit-comprehension","113","923143","0.0-2.0-22.1-0.1","battery-v0.2","","""event"",""trial"",""time""
""fullscreenenter"",""1"",""3278""
","
","
","""event"",""trial"",""time""
""fullscreenenter"",""1"",""3278""
","
","","","6357.600000000093","[""0""]","0","10","5328","3251","","","","","","","","","","","","","","","","","","",""
"pit-instructions","114","925255","0.0-2.0-22.1-1.1","battery-v0.2","","""event"",""trial"",""time""
""fullscreenenter"",""1"",""3278""
","
","
","""event"",""trial"",""time""
""fullscreenenter"",""1"",""3278""
","
","","[{""page_index"":0,""viewing_time"":2055.3000000000466}]","2055.899999999907","","","","","","","","","","","","","","","","","","","","","","","",""
"pit-comprehension","115","933667","0.0-2.0-23.0-0.0","battery-v0.2","","""event"",""trial"",""time""
""fullscreenenter"",""1"",""3278""
","
","
","""event"",""trial"",""time""
""fullscreenenter"",""1"",""3278""
","
","","","8406.40000000014","[""True""]","0","10","5328","3251","","","","","","","","","","","","","","","","","","",""
"pit-instructions","116","936277","0.0-2.0-23.0-1.0","battery-v0.2","","""event"",""trial"",""time""
""fullscreenenter"",""1"",""3278""
","
","
","""event"",""trial"",""time""
""fullscreenenter"",""1"",""3278""
","
","","[{""page_index"":0,""viewing_time"":2554.399999999907}]","2554.899999999907","","","","","","","","","","","","","","","","","","","","","","","",""
"pit-comprehension","117","945737","0.0-2.0-24.0-0.0","battery-v0.2","","""event"",""trial"",""time""
""fullscreenenter"",""1"",""3278""
","
","
","""event"",""trial"",""time""
""fullscreenenter"",""1"",""3278""
","
","","","9454.5","[""True""]","0","10","5328","3251","","","","","","","","","","","","","","","","","","",""
"pit-instructions","118","947397","0.0-2.0-24.0-1.0","battery-v0.2","","""event"",""trial"",""time""
""fullscreenenter"",""1"",""3278""
","
","
","""event"",""trial"",""time""
""fullscreenenter"",""1"",""3278""
","
","","[{""page_index"":0,""viewing_time"":1605}]","1605.8000000000466","","","","","","","","","","","","","","","","","","","","","","","",""
"pit-comprehension","119","955604","0.0-2.0-25.0-0.0","battery-v0.2","","""event"",""trial"",""time""
""fullscreenenter"",""1"",""3278""
","
","
","""event"",""trial"",""time""
""fullscreenenter"",""1"",""3278""
","
","","","8202.09999999986","[""False""]","1","10","5328","3251","","","","","","","","","","","","","","","","","","",""
"pit-instructions","120","958384","0.0-2.0-25.0-1.0","battery-v0.2","","""event"",""trial"",""time""
""fullscreenenter"",""1"",""3278""
","
","
","""event"",""trial"",""time""
""fullscreenenter"",""1"",""3278""
","
","","[{""page_index"":0,""viewing_time"":2720.6999999999534}]","2721","","","","","","","","","","","","","","","","","","","","","","","",""
"pit-instructions","121","959385","0.0-2.0-25.0-2.0-0.0","battery-v0.2","","""event"",""trial"",""time""
""fullscreenenter"",""1"",""3278""
","
","
","""event"",""trial"",""time""
""fullscreenenter"",""1"",""3278""
","
","","[{""page_index"":0,""viewing_time"":997.8999999999069}]","998.3999999999069","","","","","","","","","","","","","","","","","","","","","","","",""
"pit-comprehension","122","965525","0.0-2.0-25.1-0.1","battery-v0.2","","""event"",""trial"",""time""
""fullscreenenter"",""1"",""3278""
","
","
","""event"",""trial"",""time""
""fullscreenenter"",""1"",""3278""
","
","","","6136","[""True""]","0","10","5328","3251","","","","","","","","","","","","","","","","","","",""
"pit-instructions","123","966774","0.0-2.0-25.1-1.1","battery-v0.2","","""event"",""trial"",""time""
""fullscreenenter"",""1"",""3278""
","
","
","""event"",""trial"",""time""
""fullscreenenter"",""1"",""3278""
","
","","[{""page_index"":0,""viewing_time"":1191.1000000000931}]","1191.6999999999534","","","","","","","","","","","","","","","","","","","","","","","",""
"pit-comprehension","124","975957","0.0-2.0-26.0-0.0","battery-v0.2","","""event"",""trial"",""time""
""fullscreenenter"",""1"",""3278""
","
","
","""event"",""trial"",""time""
""fullscreenenter"",""1"",""3278""
","
","","","9177.40000000014","[""False""]","0","10","5328","3251","","","","","","","","","","","","","","","","","","",""
"pit-instructions","125","977119","0.0-2.0-26.0-1.0","battery-v0.2","","""event"",""trial"",""time""
""fullscreenenter"",""1"",""3278""
","
","
","""event"",""trial"",""time""
""fullscreenenter"",""1"",""3278""
","
","","[{""page_index"":0,""viewing_time"":1094.5}]","1095.1000000000931","","","","","","","","","","","","","","","","","","","","","","","",""
"pit-instructions","126","996444","0.0-3.0","battery-v0.2","","""event"",""trial"",""time""
""fullscreenenter"",""1"",""3278""
","
","
","""event"",""trial"",""time""
""fullscreenenter"",""1"",""3278""
","
","","[{""page_index"":0,""viewing_time"":6251.600000000093},{""page_index"":1,""viewing_time"":5517.300000000047},{""page_index"":2,""viewing_time"":7553.5}]","19323","","","","","","","","","","","","","","","","","","","","","","","",""
"pit-trial","127","1000952","0.0-4.0","battery-v0.2","","""event"",""trial"",""time""
""fullscreenenter"",""1"",""3278""
","
","
","""event"",""trial"",""time""
""fullscreenenter"",""1"",""3278""
","
","","","1641.2999999998137","","","10","5328","3251","&#9752;","elianto","#f73b6a7A"," "," ","1","0","[2492.4000000001397,2645.600000000093,2800.7000000001863,2961.3000000000466,3256.9000000001397,3401.600000000093,3555.600000000093,3763.7000000001863,3949.9000000001397,4123.300000000047,4306.800000000047]","11","1","","","5328","1","3","3","lose","go","0"
"pit-trial","128","1003869","0.0-5.0","battery-v0.2","","""event"",""trial"",""time""
""fullscreenenter"",""1"",""3278""
","
","
","""event"",""trial"",""time""
""fullscreenenter"",""1"",""3278""
","
","","","59.4000000001397","","","10","5328","3251","&#9730;","elianto","#3366ff99"," "," ","1","0","[108.0999999998603,330,529,720.5,912.3000000000466,1094.8000000000466,1294.3999999999069,1479,1662.0999999998603,1870.0999999998603,2060.3000000000466,2259.899999999907,2552.399999999907,2761.5]","14","1","","","5328","2","1","1","win","go","1"
"pit-trial","129","1006936","0.0-6.0","battery-v0.2","","""event"",""trial"",""time""
""fullscreenenter"",""1"",""3278""
","
","
","""event"",""trial"",""time""
""fullscreenenter"",""1"",""3278""
","
","","","199","","","10","5328","3251","&#9728;","elianto","#f73b6a7A","-1"," ","0","-10","[185.10000000009313,512.4000000001397,719.3000000000466,1055.3000000000466,1243.2000000001863,1433.8000000000466,1682.2000000001863,2117.4000000001397,2322.5,2661.3000000000466,3020.3000000000466]","11","1","","","5328","3","0","4","lose","no-go","0"
"pit-trial","130","1009880","0.0-7.0","battery-v0.2","","""event"",""trial"",""time""
""fullscreenenter"",""1"",""3278""
","
","
","""event"",""trial"",""time""
""fullscreenenter"",""1"",""3278""
","
","","","83.80000000004657","","","10","5328","3251","&#9733;","elianto","#3366ff99","-1"," ","0","0","[133.30000000004657,332.10000000009313,539,730,936.6000000000931,1153.2000000001863,1339.8000000000466,1562.1000000000931,1747.1000000000931,2010.8000000000466,2246.5,2404.100000000093,2571.100000000093,2766.7000000001863,2933.4000000001397]","15","1","","","5328","4","2","2","win","no-go","0"
"pit-trial","131","1012752","0.0-8.0","battery-v0.2","","""event"",""trial"",""time""
""fullscreenenter"",""1"",""3278""
","
","
","""event"",""trial"",""time""
""fullscreenenter"",""1"",""3278""
","
","","","15.099999999860302","","","10","5328","3251","&#9752;","elianto","#f73b6a7A"," "," ","1","0","[156.39999999990687,531.6999999999534,719.3000000000466,868,1058,1243,1425.5,1610.8000000000466,1803.5,1999.5,2195.6999999999534,2382.1999999999534,2565.1999999999534,2748.8000000000466]","14","1","","","5328","5","3","3","lose","go","0"
"pit-trial","132","1015704","0.0-9.0","battery-v0.2","","""event"",""trial"",""time""
""fullscreenenter"",""1"",""3278""
","
","
","""event"",""trial"",""time""
""fullscreenenter"",""1"",""3278""
","
","","","91.89999999990687","","","10","5328","3251","&#9728;","elianto","#f73b6a7A","-1"," ","0","0","[56.699999999953434,238.19999999995343,546.1000000000931,710,942.6000000000931,1309.3999999999069,1488.6000000000931,1764.6999999999534,1944.1999999999534,2157.6999999999534,2353.600000000093,2555.1999999999534,2728.3000000000466,2927.600000000093]","14","1","","","5328","6","0","4","lose","no-go","1"
"pit-trial","133","1018624","0.0-10.0","battery-v0.2","","""event"",""trial"",""time""
""fullscreenenter"",""1"",""3278""
","
","
","""event"",""trial"",""time""
""fullscreenenter"",""1"",""3278""
","
","","","61.5","","","10","5328","3251","&#9730;","elianto","#3366ff99"," "," ","1","0","[123.5,337.69999999995343,523.5,718.8999999999069,914.5999999998603,1123,1322.1999999999534,1453.5999999998603,1663.5,1856.1999999999534,2206.5999999998603,2430.5,2642.6999999999534]","13","1","","","5328","7","1","1","win","go","1"
"pit-trial","134","1021520","0.0-11.0","battery-v0.2","","""event"",""trial"",""time""
""fullscreenenter"",""1"",""3278""
","
","
","""event"",""trial"",""time""
""fullscreenenter"",""1"",""3278""
","
","","","33.10000000009313","","","10","5328","3251","&#9733;","elianto","#3366ff99","-1"," ","0","+10","[92.60000000009313,280.89999999990687,482.10000000009313,696.8999999999069,885.5,1103.6000000000931,1472.6999999999534,1684.3999999999069,1908.6000000000931,2184.5,2313.5,2493.399999999907]","12","1","","","5328","8","2","2","win","no-go","1"
"pit-trial","135","1024416","0.0-12.0","battery-v0.2","","""event"",""trial"",""time""
""fullscreenenter"",""1"",""3278""
","
","
","""event"",""trial"",""time""
""fullscreenenter"",""1"",""3278""
","
","","","37","","","10","5328","3251","&#9728;","elianto","#f73b6a7A","-1"," ","0","0","[56,279.69999999995343,513.3999999999069,713.3000000000466,889.8999999999069,1105.1999999999534,1365.3999999999069,1593.6999999999534,1787,1973,2168.5,2347.8000000000466,2527.3000000000466,2740.6999999999534]","14","1","","","5328","9","0","4","lose","no-go","1"
"pit-trial","136","1027592","0.0-13.0","battery-v0.2","","""event"",""trial"",""time""
""fullscreenenter"",""1"",""3278""
","
","
","""event"",""trial"",""time""
""fullscreenenter"",""1"",""3278""
","
","","","316.0999999998603","","","10","5328","3251","&#9752;","elianto","#f73b6a7A"," "," ","1","0","[62.800000000046566,342.30000000004657,593.8000000000466,796.8000000000466,1169.1999999999534,1345.1999999999534,1582.8999999999069,1810.6000000000931,2042.3999999999069,2248.5,2466.8000000000466,2648.1999999999534,2863.1999999999534,3004.1999999999534]","14","1","","","5328","10","3","3","lose","go","0"
"pit-trial","137","1030584","0.0-14.0","battery-v0.2","","""event"",""trial"",""time""
""fullscreenenter"",""1"",""3278""
","
","
","""event"",""trial"",""time""
""fullscreenenter"",""1"",""3278""
","
","","","132.80000000004657","","","10","5328","3251","&#9733;","elianto","#3366ff99","-1"," ","0","+10","[125.19999999995343,317.29999999981374,746.5,985.5999999998603,1174,1442.2999999998137,1682.5999999998603,1883.0999999998603,2065.7999999998137,2339.5,2659.399999999907,2928.2999999998137]","12","1","","","5328","11","2","2","win","no-go","1"
"pit-trial","138","1033520","0.0-15.0","battery-v0.2","","""event"",""trial"",""time""
""fullscreenenter"",""1"",""3278""
","
","
","""event"",""trial"",""time""
""fullscreenenter"",""1"",""3278""
","
","","","74.30000000004657","","","10","5328","3251","&#9730;","elianto","#3366ff99"," "," ","1","+10","[308.9000000001397,528,725.6000000000931,927.1999999999534,1089.1999999999534,1316.6999999999534,1539.4000000001397,1954.3000000000466,2323.8000000000466,2788.3000000000466]","10","1","","","5328","12","1","1","win","go","0"
"pit-trial","139","1036472","0.0-16.0","battery-v0.2","","""event"",""trial"",""time""
""fullscreenenter"",""1"",""3278""
","
","
","""event"",""trial"",""time""
""fullscreenenter"",""1"",""3278""
","
","","","90.10000000009313","","","10","5328","3251","&#9752;","elianto","#f73b6a7A"," "," ","1","0","[49.199999999953434,289.30000000004657,486.30000000004657,722.6999999999534,940.4000000001397,1383.6000000000931,1616.9000000001397,1828,2033.1999999999534,2275.3000000000466,2442.8000000000466,2654.5,2884.3000000000466]","13","1","","","5328","13","3","3","lose","go","0"
"pit-trial","140","1039416","0.0-17.0","battery-v0.2","","""event"",""trial"",""time""
""fullscreenenter"",""1"",""3278""
","
","
","""event"",""trial"",""time""
""fullscreenenter"",""1"",""3278""
","
","","","87","","","10","5328","3251","&#9730;","elianto","#3366ff99"," "," ","1","+10","[225.19999999995343,503.80000000004657,743.5999999998603,939.8000000000466,1154.1999999999534,1399.3999999999069,1777.0999999998603,2029.1999999999534,2154.5,2435,2650.399999999907,2906.399999999907]","12","1","","","5328","14","1","1","win","go","0"
"pit-trial","141","1042296","0.0-18.0","battery-v0.2","","""event"",""trial"",""time""
""fullscreenenter"",""1"",""3278""
","
","
","""event"",""trial"",""time""
""fullscreenenter"",""1"",""3278""
","
","","","18.5","","","10","5328","3251","&#9728;","elianto","#f73b6a7A","-1"," ","0","-10","[191.80000000004657,435.10000000009313,869.9000000001397,1119.9000000001397,1315.8000000000466,1539.9000000001397,1741.4000000001397,2030.3000000000466,2449,2662.600000000093]","10","1","","","5328","15","0","4","lose","no-go","0"
"pit-trial","142","1045325","0.0-19.0","battery-v0.2","","""event"",""trial"",""time""
""fullscreenenter"",""1"",""3278""
","
","
","""event"",""trial"",""time""
""fullscreenenter"",""1"",""3278""
","
","","","169.5","","","10","5328","3251","&#9733;","elianto","#3366ff99","-1"," ","0","0","[204.69999999995343,459.5,610,849.1999999999534,1022.7999999998137,1270.2999999998137,1456.8999999999069,1673.0999999998603,1881.7999999998137,2129.0999999998603,2359.7999999998137,2574.899999999907,2835.0999999998603,3026]","14","1","","","5328","16","2","2","win","no-go","0"
"pit-trial","143","1048259","0.0-20.0","battery-v0.2","","""event"",""trial"",""time""
""fullscreenenter"",""1"",""3278""
","
","
","""event"",""trial"",""time""
""fullscreenenter"",""1"",""3278""
","
","","","73.69999999995343","","","10","5328","3251","&#9730;","elianto","#3366ff99"," "," ","1","0","[248.4000000001397,473.10000000009313,687.5,929.3000000000466,1191,1425.1000000000931,1707.8000000000466,2079.600000000093,2332.9000000001397,2513,2739.4000000001397,2930.100000000093]","12","1","","","5328","17","1","1","win","go","1"
"pit-trial","144","1051336","0.0-21.0","battery-v0.2","","""event"",""trial"",""time""
""fullscreenenter"",""1"",""3278""
","
","
","""event"",""trial"",""time""
""fullscreenenter"",""1"",""3278""
","
","","","217.0999999998603","","","10","5328","3251","&#9728;","elianto","#f73b6a7A","-1"," ","0","-10","[216.60000000009313,435.5,845,1070.1999999999534,1295.1000000000931,1495.6000000000931,1726.3000000000466,1885.5,2056.100000000093,2200.8000000000466,2442,2712.3000000000466,2946.100000000093]","13","1","","","5328","18","0","4","lose","no-go","0"
"pit-trial","145","1054407","0.0-22.0","battery-v0.2","","""event"",""trial"",""time""
""fullscreenenter"",""1"",""3278""
","
","
","""event"",""trial"",""time""
""fullscreenenter"",""1"",""3278""
","
","","","210.89999999990687","","","10","5328","3251","&#9733;","elianto","#3366ff99","-1"," ","0","0","[85.0999999998603,274.0999999998603,651.8999999999069,835.2999999998137,1063.3999999999069,1223.8999999999069,1413,1583.6999999999534,1769.8999999999069,1959.7999999998137,2234,2436.1999999999534,2617.399999999907,2826.5,3016.0999999998603]","15","1","","","5328","19","2","2","win","no-go","0"
"pit-trial","146","1057480","0.0-23.0","battery-v0.2","","""event"",""trial"",""time""
""fullscreenenter"",""1"",""3278""
","
","
","""event"",""trial"",""time""
""fullscreenenter"",""1"",""3278""
","
","","","209","","","10","5328","3251","&#9752;","elianto","#f73b6a7A"," "," ","1","0","[192.39999999990687,396.29999999981374,620.3999999999069,817.5999999998603,1062.5999999998603,1425,1645.7999999998137,1780.7999999998137,2028.0999999998603,2242,2445.2999999998137,2694.6999999999534]","12","1","","","5328","20","3","3","lose","go","0"
"pit-instructions","147","1070584","0.0-24.0","battery-v0.2","","""event"",""trial"",""time""
""fullscreenenter"",""1"",""3278""
","
","
","""event"",""trial"",""time""
""fullscreenenter"",""1"",""3278""
","
","","[{""page_index"":0,""viewing_time"":7053.399999999907},{""page_index"":1,""viewing_time"":6048.40000000014}]","13102.399999999907","","","","","","","","","","","","","","","","","","","","","","","",""
"pit-trial","148","1073512","0.0-25.0","battery-v0.2","","""event"",""trial"",""time""
""fullscreenenter"",""1"",""3278""
","
","
","""event"",""trial"",""time""
""fullscreenenter"",""1"",""3278""
","
","","","64.89999999990687","","","10","5328","3251","w","elianto","#f73b6a7A","-1"," ","0","-10","[597.1999999999534,916.1000000000931,1089.6999999999534,1275.8000000000466,1468.1999999999534,1648.1000000000931,1827.6000000000931,2151.5,2341.1999999999534,2508.399999999907,2691.399999999907,2869.1999999999534]","12","2","","","5328","21","3","4","lose","no-go","0"
"pit-trial","149","1076400","0.0-26.0","battery-v0.2","","""event"",""trial"",""time""
""fullscreenenter"",""1"",""3278""
","
","
","""event"",""trial"",""time""
""fullscreenenter"",""1"",""3278""
","
","","","25","","","10","5328","3251","e","elianto","#f73b6a7A"," "," ","1","0","[120,309.9000000001397,518.7000000001863,704.2000000001863,878.2000000001863,1199,1473.8000000000466,1614,1800.6000000000931,1957.9000000001397,2208.7000000001863,2356.8000000000466,2527.5,2731.7000000001863]","14","2","","","5328","22","2","3","lose","go","0"
"pit-trial","150","1079280","0.0-27.0","battery-v0.2","","""event"",""trial"",""time""
""fullscreenenter"",""1"",""3278""
","
","
","""event"",""trial"",""time""
""fullscreenenter"",""1"",""3278""
","
","","","21.300000000046566","","","10","5328","3251","d","elianto","#3366ff99","-1"," ","0","0","[49.5,257.80000000004657,444.69999999995343,644.8999999999069,874.5,1090.5,1317.1999999999534,1534.3999999999069,1784.6999999999534,2029.1999999999534,2257.600000000093,2490.899999999907,2677,2864.1999999999534]","14","2","","","5328","23","1","2","win","no-go","0"
"pit-trial","151","1082272","0.0-28.0","battery-v0.2","","""event"",""trial"",""time""
""fullscreenenter"",""1"",""3278""
","
","
","""event"",""trial"",""time""
""fullscreenenter"",""1"",""3278""
","
","","","129.89999999990687","","","10","5328","3251","j","elianto","#f73b6a7A"," "," ","1","0","[164.5,545.0999999998603,770.7999999998137,983.3999999999069,1256.1999999999534,1467.5999999998603,1730.3999999999069,1974.2999999998137,2284.399999999907,2523.7999999998137,2716.5999999998603,2956.6999999999534]","12","2","","","5328","24","0","3","lose","go","0"
"pit-trial","152","1085336","0.0-29.0","battery-v0.2","","""event"",""trial"",""time""
""fullscreenenter"",""1"",""3278""
","
","
","""event"",""trial"",""time""
""fullscreenenter"",""1"",""3278""
","
","","","200.30000000004657","","","10","5328","3251","w","elianto","#f73b6a7A","-1"," ","0","-10","[108.89999999990687,355.19999999995343,842,1053,1267.3999999999069,1443.1999999999534,1812.3999999999069,2067.899999999907,2344.100000000093,2487.899999999907,2677.100000000093,2964.100000000093]","12","2","","","5328","25","3","4","lose","no-go","0"
"pit-trial","153","1088280","0.0-30.0","battery-v0.2","","""event"",""trial"",""time""
""fullscreenenter"",""1"",""3278""
","
","
","""event"",""trial"",""time""
""fullscreenenter"",""1"",""3278""
","
","","","82.30000000004657","","","10","5328","3251","j","elianto","#f73b6a7A"," "," ","1","0","[88.79999999981374,269.69999999995343,417.79999999981374,607.3999999999069,935.3999999999069,1158.8999999999069,1442.7999999998137,1643.2999999998137,1851.8999999999069,2093.5,2290.899999999907,2652,2904.2999999998137]","13","2","","","5328","26","0","3","lose","go","0"
"pit-trial","154","1091400","0.0-31.0","battery-v0.2","","""event"",""trial"",""time""
""fullscreenenter"",""1"",""3278""
","
","
","""event"",""trial"",""time""
""fullscreenenter"",""1"",""3278""
","
","","","263.4000000001397","","","10","5328","3251","d","elianto","#3366ff99","-1"," ","0","0","[404.10000000009313,658.1000000000931,1114.1000000000931,1368.9000000001397,1796.5,2065.5,2456.6999999999534,2731.5]","8","2","","","5328","27","1","2","win","no-go","0"
"pit-trial","155","1094280","0.0-32.0","battery-v0.2","","""event"",""trial"",""time""
""fullscreenenter"",""1"",""3278""
","
","
","""event"",""trial"",""time""
""fullscreenenter"",""1"",""3278""
","
","","","21.699999999953434","","","10","5328","3251","e","elianto","#f73b6a7A"," "," ","1","-10","[24.199999999953434,294.19999999995343,874.5999999998603,1176.8999999999069,1580.6999999999534,2060.0999999998603,2284.7999999998137,2747]","8","2","","","5328","28","2","3","lose","go","1"
"pit-trial","156","1097296","0.0-33.0","battery-v0.2","","""event"",""trial"",""time""
""fullscreenenter"",""1"",""3278""
","
","
","""event"",""trial"",""time""
""fullscreenenter"",""1"",""3278""
","
","","","151.4000000001397","","","10","5328","3251","d","elianto","#3366ff99","-1"," ","0","0","[108.80000000004657,351.5,458.10000000009313,637.8000000000466,827.5,1004.2000000001863,1193.9000000001397,1455.7000000001863,1614.1000000000931,1806.1000000000931,2035,2231.2000000001863,2437.2000000001863,2828]","14","2","","","5328","29","1","2","win","no-go","0"
"pit-trial","157","1100224","0.0-34.0","battery-v0.2","","""event"",""trial"",""time""
""fullscreenenter"",""1"",""3278""
","
","
","""event"",""trial"",""time""
""fullscreenenter"",""1"",""3278""
","
","","","69","","","10","5328","3251","e","elianto","#f73b6a7A"," "," ","1","0","[8.300000000046566,199.80000000004657,684.1999999999534,921.8999999999069,1100.3000000000466,1302.0999999998603,1478.1999999999534,1885.0999999998603,2065.0999999998603,2297.3000000000466,2722.0999999998603]","11","2","","","5328","30","2","3","lose","go","0"
"pit-trial","158","1103200","0.0-35.0","battery-v0.2","","""event"",""trial"",""time""
""fullscreenenter"",""1"",""3278""
","
","
","""event"",""trial"",""time""
""fullscreenenter"",""1"",""3278""
","
","","","121.30000000004657","","","10","5328","3251","w","elianto","#f73b6a7A","-1"," ","0","-10","[330.5999999998603,732,971.2999999998137,1167.5999999998603,1549.1999999999534,1748.6999999999534,1949.7999999998137,2217.5,2574.899999999907]","9","2","","","5328","31","3","4","lose","no-go","0"
"pit-trial","159","1106232","0.0-36.0","battery-v0.2","","""event"",""trial"",""time""
""fullscreenenter"",""1"",""3278""
","
","
","""event"",""trial"",""time""
""fullscreenenter"",""1"",""3278""
","
","","","172.89999999990687","","","10","5328","3251","j","elianto","#f73b6a7A"," "," ","1","-10","[6,409.80000000004657,622.6000000000931,835.6999999999534,1025.8000000000466,1241.4000000001397,1451.6000000000931,1593.3000000000466,1884.1000000000931,2458,2655.1999999999534]","11","2","","","5328","32","0","3","lose","go","1"
"pit-trial","160","1109104","0.0-37.0","battery-v0.2","","""event"",""trial"",""time""
""fullscreenenter"",""1"",""3278""
","
","
","""event"",""trial"",""time""
""fullscreenenter"",""1"",""3278""
","
","","","13.600000000093132","","","10","5328","3251","e","elianto","#f73b6a7A"," "," ","1","0","[58.800000000046566,261.10000000009313,431.80000000004657,684,865.1000000000931,1133.8000000000466,1348.8000000000466,1768.5,2025.6000000000931,2538.7000000001863,2799.9000000001397]","11","2","","","5328","33","2","3","lose","go","0"
"pit-trial","161","1111991","0.0-38.0","battery-v0.2","","""event"",""trial"",""time""
""fullscreenenter"",""1"",""3278""
","
","
","""event"",""trial"",""time""
""fullscreenenter"",""1"",""3278""
","
","","","29.399999999906868","","","10","5328","3251","d","elianto","#3366ff99","-1"," ","0","0","[132,590.3000000000466,882.3999999999069,1165,1333.3000000000466,1579.8999999999069,1791.3999999999069,2404.0999999998603,2632.899999999907,2849.1999999999534]","10","2","","","5328","34","1","2","win","no-go","0"
"pit-trial","162","1115120","0.0-39.0","battery-v0.2","","""event"",""trial"",""time""
""fullscreenenter"",""1"",""3278""
","
","
","""event"",""trial"",""time""
""fullscreenenter"",""1"",""3278""
","
","","","264","","","10","5328","3251","j","elianto","#f73b6a7A"," "," ","1","0","[167.5,444.80000000004657,698.8000000000466,1118.6000000000931,1510.9000000001397,1918.6000000000931,2212.100000000093,2369.5,2578.4000000001397,2794.3000000000466,3014.600000000093]","11","2","","","5328","35","0","3","lose","go","0"
"pit-trial","163","1118008","0.0-40.0","battery-v0.2","","""event"",""trial"",""time""
""fullscreenenter"",""1"",""3278""
","
","
","""event"",""trial"",""time""
""fullscreenenter"",""1"",""3278""
","
","","","24.5","","","10","5328","3251","w","elianto","#f73b6a7A","-1"," ","0","-10","[40.89999999990687,240.19999999995343,470.69999999995343,877.6999999999534,1080.1000000000931,1364.5,1639.3999999999069,1908.3000000000466,2078.399999999907,2328.6999999999534,2524.1999999999534,2776.600000000093]","12","2","","","5328","36","3","4","lose","no-go","0"
"pit-trial","164","1120896","0.0-41.0","battery-v0.2","","""event"",""trial"",""time""
""fullscreenenter"",""1"",""3278""
","
","
","""event"",""trial"",""time""
""fullscreenenter"",""1"",""3278""
","
","","","31","","","10","5328","3251","w","elianto","#f73b6a7A","-1"," ","0","-10","[309.0999999998603,604.3999999999069,883.6999999999534,1405.6999999999534,2035.3999999999069,2306,2516.0999999998603,2726.8000000000466]","8","2","","","5328","37","3","4","lose","no-go","0"
"pit-trial","165","1124322","0.0-42.0","battery-v0.2","","""event"",""trial"",""time""
""fullscreenenter"",""1"",""3278""
","
","
","""event"",""trial"",""time""
""fullscreenenter"",""1"",""3278""
","
","","","569.5999999998603","","","10","5328","3251","d","elianto","#3366ff99","-1"," ","0","0","[84.29999999981374,545.7999999998137,818.5999999998603,1422.1999999999534,1760,2210.7999999998137,2536.1999999999534,2972.0999999998603,3243.399999999907]","9","2","","","5328","38","1","2","win","no-go","0"
"pit-trial","166","1127376","0.0-43.0","battery-v0.2","","""event"",""trial"",""time""
""fullscreenenter"",""1"",""3278""
","
","
","""event"",""trial"",""time""
""fullscreenenter"",""1"",""3278""
","
","","","195.4000000001397","","","10","5328","3251","e","elianto","#f73b6a7A"," "," ","1","0","[200.70000000018626,626.3000000000466,1045.6000000000931,1362.6000000000931,1848.9000000001397,2549,2873.100000000093]","7","2","","","5328","39","2","3","lose","go","0"
"pit-trial","167","1130407","0.0-44.0","battery-v0.2","","""event"",""trial"",""time""
""fullscreenenter"",""1"",""3278""
","
","
","""event"",""trial"",""time""
""fullscreenenter"",""1"",""3278""
","
","","","174","","","10","5328","3251","j","elianto","#f73b6a7A"," "," ","1","0","[637.1999999999534,1026.6999999999534,1556]","3","2","","","5328","40","0","3","lose","go","0"
"pit-trial","168","1135272","0.0-45.0","battery-v0.2","","""event"",""trial"",""time""
""fullscreenenter"",""1"",""3278""
","
","
","""event"",""trial"",""time""
""fullscreenenter"",""1"",""3278""
","
","","","-1","","","10","5328","3251","j","elianto","#f73b6a7A"," ","-1","0","-10","[3956.5999999998603,4158.299999999814,4410.899999999907,4629.799999999814,4843.299999999814]","5","2","","","5328","41","0","3","lose","go","0"
"pit-trial","169","1138207","0.0-46.0","battery-v0.2","","""event"",""trial"",""time""
""fullscreenenter"",""1"",""3278""
","
","
","""event"",""trial"",""time""
""fullscreenenter"",""1"",""3278""
","
","","","72.10000000009313","","","10","5328","3251","e","elianto","#f73b6a7A"," "," ","1","0","[241.0999999998603,436.89999999990687,688.5,928.5,1171.0999999998603,1738.2999999998137,1981.3999999999069,2228.6999999999534,2460.6999999999534,2782]","10","2","","","5328","42","2","3","lose","go","0"
"pit-trial","170","1141319","0.0-47.0","battery-v0.2","","""event"",""trial"",""time""
""fullscreenenter"",""1"",""3278""
","
","
","""event"",""trial"",""time""
""fullscreenenter"",""1"",""3278""
","
","","","251.89999999990687","","","10","5328","3251","w","elianto","#f73b6a7A","-1"," ","0","-10","[54.800000000046566,682.5,1103.8999999999069,1403.6000000000931]","4","2","","","5328","43","3","4","lose","no-go","0"
"pit-trial","171","1146183","0.0-48.0","battery-v0.2","","""event"",""trial"",""time""
""fullscreenenter"",""1"",""3278""
","
","
","""event"",""trial"",""time""
""fullscreenenter"",""1"",""3278""
","
","","","-1","","","10","5328","3251","d","elianto","#3366ff99","-1","-1","1","0","[376.80000000004657]","1","2","","","5328","44","1","2","win","no-go","1"
"pit-trial","172","1151047","0.0-49.0","battery-v0.2","","""event"",""trial"",""time""
""fullscreenenter"",""1"",""3278""
","
","
","""event"",""trial"",""time""
""fullscreenenter"",""1"",""3278""
","
","","","-1","","","10","5328","3251","e","elianto","#f73b6a7A"," ","-1","0","0","[]","0","2","","","5328","45","2","3","lose","go","1"
"pit-trial","173","1155912","0.0-50.0","battery-v0.2","","""event"",""trial"",""time""
""fullscreenenter"",""1"",""3278""
","
","
","""event"",""trial"",""time""
""fullscreenenter"",""1"",""3278""
","
","","","-1","","","10","5328","3251","d","elianto","#3366ff99","-1","-1","1","+10","[]","0","2","","","5328","46","1","2","win","no-go","0"
"pit-trial","174","1160775","0.0-51.0","battery-v0.2","","""event"",""trial"",""time""
""fullscreenenter"",""1"",""3278""
","
","
","""event"",""trial"",""time""
""fullscreenenter"",""1"",""3278""
","
","","","-1","","","10","5328","3251","j","elianto","#f73b6a7A"," ","-1","0","-10","[]","0","2","","","5328","47","0","3","lose","go","0"
"pit-trial","175","1165640","0.0-52.0","battery-v0.2","","""event"",""trial"",""time""
""fullscreenenter"",""1"",""3278""
","
","
","""event"",""trial"",""time""
""fullscreenenter"",""1"",""3278""
","
","","","-1","","","10","5328","3251","w","elianto","#f73b6a7A","-1","-1","1","0","[]","0","2","","","5328","48","3","4","lose","no-go","0"
"pit-trial","176","1170503","0.0-53.0","battery-v0.2","","""event"",""trial"",""time""
""fullscreenenter"",""1"",""3278""
","
","
","""event"",""trial"",""time""
""fullscreenenter"",""1"",""3278""
","
","","","-1","","","10","5328","3251","e","elianto","#f73b6a7A"," ","-1","0","0","[]","0","2","","","5328","49","2","3","lose","go","1"
"pit-trial","177","1175367","0.0-54.0","battery-v0.2","","""event"",""trial"",""time""
""fullscreenenter"",""1"",""3278""
","
","
","""event"",""trial"",""time""
""fullscreenenter"",""1"",""3278""
","
","","","-1","","","10","5328","3251","d","elianto","#3366ff99","-1","-1","1","+10","[]","0","2","","","5328","50","1","2","win","no-go","0"
"pit-trial","178","1180232","0.0-55.0","battery-v0.2","","""event"",""trial"",""time""
""fullscreenenter"",""1"",""3278""
","
","
","""event"",""trial"",""time""
""fullscreenenter"",""1"",""3278""
","
","","","-1","","","10","5328","3251","j","elianto","#f73b6a7A"," ","-1","0","-10","[]","0","2","","","5328","51","0","3","lose","go","0"
"pit-trial","179","1185096","0.0-56.0","battery-v0.2","","""event"",""trial"",""time""
""fullscreenenter"",""1"",""3278""
","
","
","""event"",""trial"",""time""
""fullscreenenter"",""1"",""3278""
","
","","","-1","","","10","5328","3251","w","elianto","#f73b6a7A","-1","-1","1","0","[]","0","2","","","5328","52","3","4","lose","no-go","0"
"pit-trial","180","1189960","0.0-57.0","battery-v0.2","","""event"",""trial"",""time""
""fullscreenenter"",""1"",""3278""
","
","
","""event"",""trial"",""time""
""fullscreenenter"",""1"",""3278""
","
","","","-1","","","10","5328","3251","d","elianto","#3366ff99","-1","-1","1","+10","[]","0","2","","","5328","53","1","2","win","no-go","0"
"pit-trial","181","1194823","0.0-58.0","battery-v0.2","","""event"",""trial"",""time""
""fullscreenenter"",""1"",""3278""
","
","
","""event"",""trial"",""time""
""fullscreenenter"",""1"",""3278""
","
","","","-1","","","10","5328","3251","j","elianto","#f73b6a7A"," ","-1","0","0","[]","0","2","","","5328","54","0","3","lose","go","1"
"pit-trial","182","1199688","0.0-59.0","battery-v0.2","","""event"",""trial"",""time""
""fullscreenenter"",""1"",""3278""
","
","
","""event"",""trial"",""time""
""fullscreenenter"",""1"",""3278""
","
","","","-1","","","10","5328","3251","e","elianto","#f73b6a7A"," ","-1","0","-10","[]","0","2","","","5328","55","2","3","lose","go","0"
"pit-trial","183","1204551","0.0-60.0","battery-v0.2","","""event"",""trial"",""time""
""fullscreenenter"",""1"",""3278""
","
","
","""event"",""trial"",""time""
""fullscreenenter"",""1"",""3278""
","
","","","-1","","","10","5328","3251","w","elianto","#f73b6a7A","-1","-1","1","-10","[]","0","2","","","5328","56","3","4","lose","no-go","1"
"pit-trial","184","1209415","0.0-61.0","battery-v0.2","","""event"",""trial"",""time""
""fullscreenenter"",""1"",""3278""
","
","
","""event"",""trial"",""time""
""fullscreenenter"",""1"",""3278""
","
","","","-1","","","10","5328","3251","j","elianto","#f73b6a7A"," ","-1","0","-10","[]","0","2","","","5328","57","0","3","lose","go","0"
"pit-trial","185","1214280","0.0-62.0","battery-v0.2","","""event"",""trial"",""time""
""fullscreenenter"",""1"",""3278""
","
","
","""event"",""trial"",""time""
""fullscreenenter"",""1"",""3278""
","
","","","-1","","","10","5328","3251","s","elianto","#3366ff99"," ","-1","0","0","[]","0","2","","","5328","58","4","1","win","go","0"
"pit-trial","186","1219144","0.0-63.0","battery-v0.2","","""event"",""trial"",""time""
""fullscreenenter"",""1"",""3278""
","
","
","""event"",""trial"",""time""
""fullscreenenter"",""1"",""3278""
","
","","","-1","","","10","5328","3251","e","elianto","#f73b6a7A"," ","-1","0","-10","[]","0","2","","","5328","59","2","3","lose","go","0"
"pit-trial","187","1224008","0.0-64.0","battery-v0.2","","""event"",""trial"",""time""
""fullscreenenter"",""1"",""3278""
","
","
","""event"",""trial"",""time""
""fullscreenenter"",""1"",""3278""
","
","","","-1","","","10","5328","3251","w","elianto","#f73b6a7A","-1","-1","1","0","[]","0","2","","","5328","60","3","4","lose","no-go","0"
"pit-trial","188","1228872","0.0-65.0","battery-v0.2","","""event"",""trial"",""time""
""fullscreenenter"",""1"",""3278""
","
","
","""event"",""trial"",""time""
""fullscreenenter"",""1"",""3278""
","
","","","-1","","","10","5328","3251","w","elianto","#f73b6a7A","-1","-1","1","0","[]","0","2","","","5328","61","3","4","lose","no-go","0"
"pit-trial","189","1233736","0.0-66.0","battery-v0.2","","""event"",""trial"",""time""
""fullscreenenter"",""1"",""3278""
","
","
","""event"",""trial"",""time""
""fullscreenenter"",""1"",""3278""
","
","","","-1","","","10","5328","3251","s","elianto","#3366ff99"," ","-1","0","0","[]","0","2","","","5328","62","4","1","win","go","0"
"pit-trial","190","1238600","0.0-67.0","battery-v0.2","","""event"",""trial"",""time""
""fullscreenenter"",""1"",""3278""
","
","
","""event"",""trial"",""time""
""fullscreenenter"",""1"",""3278""
","
","","","-1","","","10","5328","3251","d","elianto","#3366ff99","-1","-1","1","0","[]","0","2","","","5328","63","1","2","win","no-go","1"
"pit-trial","191","1243464","0.0-68.0","battery-v0.2","","""event"",""trial"",""time""
""fullscreenenter"",""1"",""3278""
","
","
","""event"",""trial"",""time""
""fullscreenenter"",""1"",""3278""
","
","","","-1","","","10","5328","3251","e","elianto","#f73b6a7A"," ","-1","0","-10","[]","0","2","","","5328","64","2","3","lose","go","0"
"pit-trial","192","1248328","0.0-69.0","battery-v0.2","","""event"",""trial"",""time""
""fullscreenenter"",""1"",""3278""
","
","
","""event"",""trial"",""time""
""fullscreenenter"",""1"",""3278""
","
","","","-1","","","10","5328","3251","s","elianto","#3366ff99"," ","-1","0","0","[]","0","2","","","5328","65","4","1","win","go","0"
"pit-trial","193","1253191","0.0-70.0","battery-v0.2","","""event"",""trial"",""time""
""fullscreenenter"",""1"",""3278""
","
","
","""event"",""trial"",""time""
""fullscreenenter"",""1"",""3278""
","
","","","-1","","","10","5328","3251","d","elianto","#3366ff99","-1","-1","1","+10","[]","0","2","","","5328","66","1","2","win","no-go","0"
"pit-trial","194","1258055","0.0-71.0","battery-v0.2","","""event"",""trial"",""time""
""fullscreenenter"",""1"",""3278""
","
","
","""event"",""trial"",""time""
""fullscreenenter"",""1"",""3278""
","
","","","-1","","","10","5328","3251","w","elianto","#f73b6a7A","-1","-1","1","0","[]","0","2","","","5328","67","3","4","lose","no-go","0"
"pit-trial","195","1262919","0.0-72.0","battery-v0.2","","""event"",""trial"",""time""
""fullscreenenter"",""1"",""3278""
","
","
","""event"",""trial"",""time""
""fullscreenenter"",""1"",""3278""
","
","","","-1","","","10","5328","3251","p","elianto","#3366ff99","-1","-1","1","+10","[]","0","2","","","5328","68","5","2","win","no-go","0"
"pit-trial","196","1267783","0.0-73.0","battery-v0.2","","""event"",""trial"",""time""
""fullscreenenter"",""1"",""3278""
","
","
","""event"",""trial"",""time""
""fullscreenenter"",""1"",""3278""
","
","","","-1","","","10","5328","3251","d","elianto","#3366ff99","-1","-1","1","0","[]","0","2","","","5328","69","1","2","win","no-go","1"
"pit-trial","197","1272647","0.0-74.0","battery-v0.2","","""event"",""trial"",""time""
""fullscreenenter"",""1"",""3278""
","
","
","""event"",""trial"",""time""
""fullscreenenter"",""1"",""3278""
","
","","","-1","","","10","5328","3251","p","elianto","#3366ff99","-1","-1","1","+10","[]","0","2","","","5328","70","5","2","win","no-go","0"
"pit-trial","198","1277511","0.0-75.0","battery-v0.2","","""event"",""trial"",""time""
""fullscreenenter"",""1"",""3278""
","
","
","""event"",""trial"",""time""
""fullscreenenter"",""1"",""3278""
","
","","","-1","","","10","5328","3251","e","elianto","#f73b6a7A"," ","-1","0","-10","[]","0","2","","","5328","71","2","3","lose","go","0"
"pit-trial","199","1282375","0.0-76.0","battery-v0.2","","""event"",""trial"",""time""
""fullscreenenter"",""1"",""3278""
","
","
","""event"",""trial"",""time""
""fullscreenenter"",""1"",""3278""
","
","","","-1","","","10","5328","3251","s","elianto","#3366ff99"," ","-1","0","+10","[]","0","2","","","5328","72","4","1","win","go","1"
"pit-trial","200","1287240","0.0-77.0","battery-v0.2","","""event"",""trial"",""time""
""fullscreenenter"",""1"",""3278""
","
","
","""event"",""trial"",""time""
""fullscreenenter"",""1"",""3278""
","
","","","-1","","","10","5328","3251","s","elianto","#3366ff99"," ","-1","0","0","[]","0","2","","","5328","73","4","1","win","go","0"
"pit-trial","201","1292104","0.0-78.0","battery-v0.2","","""event"",""trial"",""time""
""fullscreenenter"",""1"",""3278""
","
","
","""event"",""trial"",""time""
""fullscreenenter"",""1"",""3278""
","
","","","-1","","","10","5328","3251","w","elianto","#f73b6a7A","-1","-1","1","-10","[]","0","2","","","5328","74","3","4","lose","no-go","1"
"pit-trial","202","1296967","0.0-79.0","battery-v0.2","","""event"",""trial"",""time""
""fullscreenenter"",""1"",""3278""
","
","
","""event"",""trial"",""time""
""fullscreenenter"",""1"",""3278""
","
","","","-1","","","10","5328","3251","d","elianto","#3366ff99","-1","-1","1","+10","[]","0","2","","","5328","75","1","2","win","no-go","0"
"pit-trial","203","1301832","0.0-80.0","battery-v0.2","","""event"",""trial"",""time""
""fullscreenenter"",""1"",""3278""
","
","
","""event"",""trial"",""time""
""fullscreenenter"",""1"",""3278""
","
","","","-1","","","10","5328","3251","p","elianto","#3366ff99","-1","-1","1","+10","[]","0","2","","","5328","76","5","2","win","no-go","0"
"pit-trial","204","1306695","0.0-81.0","battery-v0.2","","""event"",""trial"",""time""
""fullscreenenter"",""1"",""3278""
","
","
","""event"",""trial"",""time""
""fullscreenenter"",""1"",""3278""
","
","","","-1","","","10","5328","3251","s","elianto","#3366ff99"," ","-1","0","0","[]","0","2","","","5328","77","4","1","win","go","0"
"pit-trial","205","1311559","0.0-82.0","battery-v0.2","","""event"",""trial"",""time""
""fullscreenenter"",""1"",""3278""
","
","
","""event"",""trial"",""time""
""fullscreenenter"",""1"",""3278""
","
","","","-1","","","10","5328","3251","s","elianto","#3366ff99"," ","-1","0","+10","[]","0","2","","","5328","78","4","1","win","go","1"
"pit-trial","206","1316424","0.0-83.0","battery-v0.2","","""event"",""trial"",""time""
""fullscreenenter"",""1"",""3278""
","
","
","""event"",""trial"",""time""
""fullscreenenter"",""1"",""3278""
","
","","","-1","","","10","5328","3251","p","elianto","#3366ff99","-1","-1","1","+10","[]","0","2","","","5328","79","5","2","win","no-go","0"
"pit-trial","207","1321288","0.0-84.0","battery-v0.2","","""event"",""trial"",""time""
""fullscreenenter"",""1"",""3278""
","
","
","""event"",""trial"",""time""
""fullscreenenter"",""1"",""3278""
","
","","","-1","","","10","5328","3251","w","elianto","#f73b6a7A","-1","-1","1","0","[]","0","2","","","5328","80","3","4","lose","no-go","0"
"pit-trial","208","1326152","0.0-85.0","battery-v0.2","","""event"",""trial"",""time""
""fullscreenenter"",""1"",""3278""
","
","
","""event"",""trial"",""time""
""fullscreenenter"",""1"",""3278""
","
","","","-1","","","10","5328","3251","w","elianto","#f73b6a7A","-1","-1","1","0","[]","0","2","","","5328","81","3","4","lose","no-go","0"
"pit-trial","209","1331016","0.0-86.0","battery-v0.2","","""event"",""trial"",""time""
""fullscreenenter"",""1"",""3278""
","
","
","""event"",""trial"",""time""
""fullscreenenter"",""1"",""3278""
","
","","","-1","","","10","5328","3251","p","elianto","#3366ff99","-1","-1","1","+10","[]","0","2","","","5328","82","5","2","win","no-go","0"
"pit-trial","210","1335880","0.0-87.0","battery-v0.2","","""event"",""trial"",""time""
""fullscreenenter"",""1"",""3278""
","
","
","""event"",""trial"",""time""
""fullscreenenter"",""1"",""3278""
","
","","","-1","","","10","5328","3251","a","elianto","#f73b6a7A","-1","-1","1","0","[]","0","2","","","5328","83","7","4","lose","no-go","0"
"pit-trial","211","1340744","0.0-88.0","battery-v0.2","","""event"",""trial"",""time""
""fullscreenenter"",""1"",""3278""
","
","
","""event"",""trial"",""time""
""fullscreenenter"",""1"",""3278""
","
","","","-1","","","10","5328","3251","s","elianto","#3366ff99"," ","-1","0","0","[]","0","2","","","5328","84","4","1","win","go","0"
"pit-trial","212","1345608","0.0-89.0","battery-v0.2","","""event"",""trial"",""time""
""fullscreenenter"",""1"",""3278""
","
","
","""event"",""trial"",""time""
""fullscreenenter"",""1"",""3278""
","
","","","-1","","","10","5328","3251","s","elianto","#3366ff99"," ","-1","0","0","[]","0","2","","","5328","85","4","1","win","go","0"
"pit-trial","213","1350472","0.0-90.0","battery-v0.2","","""event"",""trial"",""time""
""fullscreenenter"",""1"",""3278""
","
","
","""event"",""trial"",""time""
""fullscreenenter"",""1"",""3278""
","
","","","-1","","","10","5328","3251","g","elianto","#f73b6a7A"," ","-1","0","0","[]","0","2","","","5328","86","6","3","lose","go","1"
"pit-trial","214","1355336","0.0-91.0","battery-v0.2","","""event"",""trial"",""time""
""fullscreenenter"",""1"",""3278""
","
","
","""event"",""trial"",""time""
""fullscreenenter"",""1"",""3278""
","
","","","-1","","","10","5328","3251","p","elianto","#3366ff99","-1","-1","1","0","[]","0","2","","","5328","87","5","2","win","no-go","1"
"pit-trial","215","1360200","0.0-92.0","battery-v0.2","","""event"",""trial"",""time""
""fullscreenenter"",""1"",""3278""
","
","
","""event"",""trial"",""time""
""fullscreenenter"",""1"",""3278""
","
","","","-1","","","10","5328","3251","a","elianto","#f73b6a7A","-1","-1","1","-10","[]","0","2","","","5328","88","7","4","lose","no-go","1"
