"trial_type","trial_index","time_elapsed","internal_node_id","task_version","subject_id","interactions","blur_events","focus_events","fullscreenenter_events","fullscreenexit_events","success","view_history","rt","responses","num_errors","age","subject","participantId","rune","rune_set","hex","correct","choice","accuracy","outcome","keys","total_keys","block","practice","value","sub","trial","stimulus","robot","valence","action","sham"
"pavlovia","0","17","0.0-0.0","battery-v0.2","","""event"",""trial"",""time""
""fullscreenenter"",""1"",""1602""
","
","
","""event"",""trial"",""time""
""fullscreenenter"",""1"",""1602""
","
","","","","","","","","","","","","","","","","","","","","","","","","","","",""
"fullscreen","1","2593","0.0-1.0","battery-v0.2","","""event"",""trial"",""time""
""fullscreenenter"",""1"",""1602""
","
","
","""event"",""trial"",""time""
""fullscreenenter"",""1"",""1602""
","
","true","","","","","","","","","","","","","","","","","","","","","","","","","",""
"pit-instructions","2","6466","0.0-2.0-0.0","battery-v0.2","","""event"",""trial"",""time""
""fullscreenenter"",""1"",""1602""
","
","
","""event"",""trial"",""time""
""fullscreenenter"",""1"",""1602""
","
","","[{""page_index"":0,""viewing_time"":3869.600000023842}]","3870.199999988079","","","","","","","","","","","","","","","","","","","","","","","",""
"pit-comprehension","3","12175","0.0-2.0-1.0-0.0","battery-v0.2","","""event"",""trial"",""time""
""fullscreenenter"",""1"",""1602""
","
","
","""event"",""trial"",""time""
""fullscreenenter"",""1"",""1602""
","
","","","5704.599999964237","[""shark""]","0","21","8486","3803","","","","","","","","","","","","","","","","","","",""
"pit-instructions","4","16946","0.0-2.0-1.0-1.0","battery-v0.2","","""event"",""trial"",""time""
""fullscreenenter"",""1"",""1602""
","
","
","""event"",""trial"",""time""
""fullscreenenter"",""1"",""1602""
","
","","[{""page_index"":0,""viewing_time"":4762.600000023842}]","4762.899999976158","","","","","","","","","","","","","","","","","","","","","","","",""
"pit-comprehension","5","20039","0.0-2.0-2.0-0.0","battery-v0.2","","""event"",""trial"",""time""
""fullscreenenter"",""1"",""1602""
","
","
","""event"",""trial"",""time""
""fullscreenenter"",""1"",""1602""
","
","","","3089.599999964237","[""tiger""]","0","21","8486","3803","","","","","","","","","","","","","","","","","","",""
"pit-instructions","6","21072","0.0-2.0-2.0-1.0","battery-v0.2","","""event"",""trial"",""time""
""fullscreenenter"",""1"",""1602""
","
","
","""event"",""trial"",""time""
""fullscreenenter"",""1"",""1602""
","
","","[{""page_index"":0,""viewing_time"":1028.5}]","1028.9000000357628","","","","","","","","","","","","","","","","","","","","","","","",""
"pit-instructions","7","127100","0.0-2.0-3.0","battery-v0.2","","""event"",""trial"",""time""
""fullscreenenter"",""1"",""1602""
","
","
","""event"",""trial"",""time""
""fullscreenenter"",""1"",""1602""
","
","","[{""page_index"":0,""viewing_time"":8288},{""page_index"":1,""viewing_time"":6167.199999988079},{""page_index"":2,""viewing_time"":6395.5},{""page_index"":3,""viewing_time"":5978.900000035763},{""page_index"":4,""viewing_time"":6383.299999952316},{""page_index"":5,""viewing_time"":6001.900000035763},{""page_index"":6,""viewing_time"":7516.399999976158},{""page_index"":7,""viewing_time"":8847.400000035763},{""page_index"":8,""viewing_time"":6178.799999952316},{""page_index"":9,""viewing_time"":10908.5},{""page_index"":10,""viewing_time"":8150.900000035763},{""page_index"":11,""viewing_time"":8658.5},{""page_index"":12,""viewing_time"":9781.399999976158},{""page_index"":13,""viewing_time"":6768.400000035763}]","106025.39999997616","","","","","","","","","","","","","","","","","","","","","","","",""
"pit-trial","8","130506","0.0-2.0-4.0-0.0","battery-v0.2","","""event"",""trial"",""time""
""fullscreenenter"",""1"",""1602""
","
","
","""event"",""trial"",""time""
""fullscreenenter"",""1"",""1602""
","
","","","539.0999999642372","","","21","8486","3803","&#9784;","elianto","#FFFFF080"," "," ","1","&#10004","[1396]","1","0","0","","","","","","","",""
"pit-trial","9","133923","0.0-2.0-4.1-0.1","battery-v0.2","","""event"",""trial"",""time""
""fullscreenenter"",""1"",""1602""
","
","
","""event"",""trial"",""time""
""fullscreenenter"",""1"",""1602""
","
","","","549.2999999523163","","","21","8486","3803","&#9784;","elianto","#FFFFF080"," "," ","1","&#10004","[1406.699999988079]","1","0","0","","","","","","","",""
"pit-trial","10","137351","0.0-2.0-4.2-0.2","battery-v0.2","","""event"",""trial"",""time""
""fullscreenenter"",""1"",""1602""
","
","
","""event"",""trial"",""time""
""fullscreenenter"",""1"",""1602""
","
","","","557.6999999880791","","","21","8486","3803","&#9784;","elianto","#FFFFF080"," "," ","1","&#10004","[1418]","1","0","0","","","","","","","",""
"pit-trial","11","140816","0.0-2.0-4.3-0.3","battery-v0.2","","""event"",""trial"",""time""
""fullscreenenter"",""1"",""1602""
","
","
","""event"",""trial"",""time""
""fullscreenenter"",""1"",""1602""
","
","","","600.1999999880791","","","21","8486","3803","&#9784;","elianto","#FFFFF080"," "," ","1","&#10004","[1455.4000000357628]","1","0","0","","","","","","","",""
"pit-trial","12","144250","0.0-2.0-4.4-0.4","battery-v0.2","","""event"",""trial"",""time""
""fullscreenenter"",""1"",""1602""
","
","
","""event"",""trial"",""time""
""fullscreenenter"",""1"",""1602""
","
","","","568.8000000119209","","","21","8486","3803","&#9784;","elianto","#FFFFF080"," "," ","1","&#10004","[1422.699999988079]","1","0","0","","","","","","","",""
"pit-instructions","13","166110","0.0-2.0-5.0","battery-v0.2","","""event"",""trial"",""time""
""fullscreenenter"",""1"",""1602""
","
","
","""event"",""trial"",""time""
""fullscreenenter"",""1"",""1602""
","
","","[{""page_index"":0,""viewing_time"":5360.099999964237},{""page_index"":1,""viewing_time"":6010.699999988079},{""page_index"":2,""viewing_time"":5391.900000035763},{""page_index"":3,""viewing_time"":5093.300000011921}]","21856.5","","","","","","","","","","","","","","","","","","","","","","","",""
"pit-trial","14","170979","0.0-2.0-6.0-0.0","battery-v0.2","","""event"",""trial"",""time""
""fullscreenenter"",""1"",""1602""
","
","
","""event"",""trial"",""time""
""fullscreenenter"",""1"",""1602""
","
","","","-1","","","21","8486","3803","&#9854;","elianto","#FFFFF080","-1","-1","1","&#10004","[]","0","0","1","","","","","","","",""
"pit-trial","15","175849","0.0-2.0-6.1-0.1","battery-v0.2","","""event"",""trial"",""time""
""fullscreenenter"",""1"",""1602""
","
","
","""event"",""trial"",""time""
""fullscreenenter"",""1"",""1602""
","
","","","-1","","","21","8486","3803","&#9854;","elianto","#FFFFF080","-1","-1","1","&#10004","[]","0","0","1","","","","","","","",""
"pit-trial","16","180721","0.0-2.0-6.2-0.2","battery-v0.2","","""event"",""trial"",""time""
""fullscreenenter"",""1"",""1602""
","
","
","""event"",""trial"",""time""
""fullscreenenter"",""1"",""1602""
","
","","","-1","","","21","8486","3803","&#9854;","elianto","#FFFFF080","-1","-1","1","&#10004","[]","0","0","1","","","","","","","",""
"pit-trial","17","185582","0.0-2.0-6.3-0.3","battery-v0.2","","""event"",""trial"",""time""
""fullscreenenter"",""1"",""1602""
","
","
","""event"",""trial"",""time""
""fullscreenenter"",""1"",""1602""
","
","","","-1","","","21","8486","3803","&#9854;","elianto","#FFFFF080","-1","-1","1","&#10004","[]","0","0","1","","","","","","","",""
"pit-trial","18","190449","0.0-2.0-6.4-0.4","battery-v0.2","","""event"",""trial"",""time""
""fullscreenenter"",""1"",""1602""
","
","
","""event"",""trial"",""time""
""fullscreenenter"",""1"",""1602""
","
","","","-1","","","21","8486","3803","&#9854;","elianto","#FFFFF080","-1","-1","1","&#10004","[]","0","0","1","","","","","","","",""
"pit-instructions","19","344781","0.0-2.0-7.0","battery-v0.2","","""event"",""trial"",""time""
""fullscreenenter"",""1"",""1602""
","
","
","""event"",""trial"",""time""
""fullscreenenter"",""1"",""1602""
","
","","[{""page_index"":0,""viewing_time"":5472.600000023842},{""page_index"":1,""viewing_time"":6517.300000011921},{""page_index"":2,""viewing_time"":6542.399999976158},{""page_index"":3,""viewing_time"":32127.100000023842},{""page_index"":4,""viewing_time"":10297.300000011921},{""page_index"":5,""viewing_time"":8471.799999952316},{""page_index"":6,""viewing_time"":5006.100000023842},{""page_index"":7,""viewing_time"":7712.199999988079},{""page_index"":8,""viewing_time"":6398.100000023842},{""page_index"":9,""viewing_time"":5664},{""page_index"":10,""viewing_time"":6406.899999976158},{""page_index"":11,""viewing_time"":5866},{""page_index"":12,""viewing_time"":7315.800000011921},{""page_index"":13,""viewing_time"":6774.699999988079},{""page_index"":14,""viewing_time"":6884.400000035763},{""page_index"":15,""viewing_time"":9581.699999988079},{""page_index"":16,""viewing_time"":9601.199999988079},{""page_index"":17,""viewing_time"":7689.600000023842}]","154329.80000001192","","","","","","","","","","","","","","","","","","","","","","","",""
"pit-trial","20","349225","0.0-2.0-8.0-0.0","battery-v0.2","","""event"",""trial"",""time""
""fullscreenenter"",""1"",""1602""
","
","
","""event"",""trial"",""time""
""fullscreenenter"",""1"",""1602""
","
","","","1581","","","21","8486","3803","&#9776;","elianto","#3366ff99"," "," ","1","+10","[2435.800000011921]","1","0","1","","","","","","","",""
"pit-trial","21","352912","0.0-2.0-8.0-1.0","battery-v0.2","","""event"",""trial"",""time""
""fullscreenenter"",""1"",""1602""
","
","
","""event"",""trial"",""time""
""fullscreenenter"",""1"",""1602""
","
","","","823","","","21","8486","3803","&#9776;","elianto","#3366ff99"," "," ","1","+10","[1677]","1","0","1","","","","","","","",""
"pit-trial","22","356429","0.0-2.0-8.0-2.0","battery-v0.2","","""event"",""trial"",""time""
""fullscreenenter"",""1"",""1602""
","
","
","""event"",""trial"",""time""
""fullscreenenter"",""1"",""1602""
","
","","","658.8000000119209","","","21","8486","3803","&#9776;","elianto","#3366ff99"," "," ","1","+10","[1513.6000000238419]","1","0","1","","","","","","","",""
"pit-trial","23","359913","0.0-2.0-8.0-3.0","battery-v0.2","","""event"",""trial"",""time""
""fullscreenenter"",""1"",""1602""
","
","
","""event"",""trial"",""time""
""fullscreenenter"",""1"",""1602""
","
","","","619.5","","","21","8486","3803","&#9776;","elianto","#3366ff99"," "," ","1","0","[1474.300000011921]","1","0","1","","","","","","","",""
"pit-trial","24","363673","0.0-2.0-8.0-4.0","battery-v0.2","","""event"",""trial"",""time""
""fullscreenenter"",""1"",""1602""
","
","
","""event"",""trial"",""time""
""fullscreenenter"",""1"",""1602""
","
","","","890.6000000238419","","","21","8486","3803","&#9776;","elianto","#3366ff99"," "," ","1","+10","[1753.199999988079]","1","0","1","","","","","","","",""
"pit-trial","25","367712","0.0-2.0-8.1-0.1","battery-v0.2","","""event"",""trial"",""time""
""fullscreenenter"",""1"",""1602""
","
","
","""event"",""trial"",""time""
""fullscreenenter"",""1"",""1602""
","
","","","1179.5","","","21","8486","3803","&#9776;","elianto","#3366ff99"," "," ","1","+10","[2034.5]","1","0","1","","","","","","","",""
"pit-trial","26","371034","0.0-2.0-8.1-1.1","battery-v0.2","","""event"",""trial"",""time""
""fullscreenenter"",""1"",""1602""
","
","
","""event"",""trial"",""time""
""fullscreenenter"",""1"",""1602""
","
","","","460.69999998807907","","","21","8486","3803","&#9776;","elianto","#3366ff99"," "," ","1","+10","[1313.199999988079]","1","0","1","","","","","","","",""
"pit-trial","27","374608","0.0-2.0-8.1-2.1","battery-v0.2","","""event"",""trial"",""time""
""fullscreenenter"",""1"",""1602""
","
","
","""event"",""trial"",""time""
""fullscreenenter"",""1"",""1602""
","
","","","709.1000000238419","","","21","8486","3803","&#9776;","elianto","#3366ff99"," "," ","1","+10","[1568.699999988079]","1","0","1","","","","","","","",""
"pit-trial","28","379048","0.0-2.0-8.1-3.1","battery-v0.2","","""event"",""trial"",""time""
""fullscreenenter"",""1"",""1602""
","
","
","""event"",""trial"",""time""
""fullscreenenter"",""1"",""1602""
","
","","","1575.300000011921","","","21","8486","3803","&#9776;","elianto","#3366ff99"," "," ","1","0","[2430.800000011921]","1","0","1","","","","","","","",""
"pit-trial","29","383279","0.0-2.0-8.1-4.1","battery-v0.2","","""event"",""trial"",""time""
""fullscreenenter"",""1"",""1602""
","
","
","""event"",""trial"",""time""
""fullscreenenter"",""1"",""1602""
","
","","","1369.0999999642372","","","21","8486","3803","&#9776;","elianto","#3366ff99"," "," ","1","+10","[2220.699999988079]","1","0","1","","","","","","","",""
"pit-trial","30","386669","0.0-2.0-8.2-0.2","battery-v0.2","","""event"",""trial"",""time""
""fullscreenenter"",""1"",""1602""
","
","
","""event"",""trial"",""time""
""fullscreenenter"",""1"",""1602""
","
","","","526.4000000357628","","","21","8486","3803","&#9776;","elianto","#3366ff99"," "," ","1","+10","[1381.199999988079]","1","0","1","","","","","","","",""
"pit-trial","31","390056","0.0-2.0-8.2-1.2","battery-v0.2","","""event"",""trial"",""time""
""fullscreenenter"",""1"",""1602""
","
","
","""event"",""trial"",""time""
""fullscreenenter"",""1"",""1602""
","
","","","521","","","21","8486","3803","&#9776;","elianto","#3366ff99"," "," ","1","+10","[1378.3999999761581]","1","0","1","","","","","","","",""
"pit-trial","32","393623","0.0-2.0-8.2-2.2","battery-v0.2","","""event"",""trial"",""time""
""fullscreenenter"",""1"",""1602""
","
","
","""event"",""trial"",""time""
""fullscreenenter"",""1"",""1602""
","
","","","708.8999999761581","","","21","8486","3803","&#9776;","elianto","#3366ff99"," "," ","1","+10","[1562.699999988079]","1","0","1","","","","","","","",""
"pit-trial","33","397069","0.0-2.0-8.2-3.2","battery-v0.2","","""event"",""trial"",""time""
""fullscreenenter"",""1"",""1602""
","
","
","""event"",""trial"",""time""
""fullscreenenter"",""1"",""1602""
","
","","","587.8999999761581","","","21","8486","3803","&#9776;","elianto","#3366ff99"," "," ","1","0","[1441.0999999642372]","1","0","1","","","","","","","",""
"pit-trial","34","400495","0.0-2.0-8.2-4.2","battery-v0.2","","""event"",""trial"",""time""
""fullscreenenter"",""1"",""1602""
","
","
","""event"",""trial"",""time""
""fullscreenenter"",""1"",""1602""
","
","","","563.5","","","21","8486","3803","&#9776;","elianto","#3366ff99"," "," ","1","+10","[1420.4000000357628]","1","0","1","","","","","","","",""
"call-function","35","400497","0.0-2.0-9.0","battery-v0.2","","""event"",""trial"",""time""
""fullscreenenter"",""1"",""1602""
","
","
","""event"",""trial"",""time""
""fullscreenenter"",""1"",""1602""
","
","","","","","","","","","","","","","","","","","","","","","","","","","","",""
"pit-instructions","36","439447","0.0-2.0-10.0","battery-v0.2","","""event"",""trial"",""time""
""fullscreenenter"",""1"",""1602""
","
","
","""event"",""trial"",""time""
""fullscreenenter"",""1"",""1602""
","
","","[{""page_index"":0,""viewing_time"":5810.200000047684},{""page_index"":1,""viewing_time"":7071.899999976158},{""page_index"":2,""viewing_time"":9348.600000023842},{""page_index"":3,""viewing_time"":8763.699999988079},{""page_index"":4,""viewing_time"":7954.199999988079}]","38948.90000003576","","","","","","","","","","","","","","","","","","","","","","","",""
"pit-trial","37","444311","0.0-2.0-11.0-0.0","battery-v0.2","","""event"",""trial"",""time""
""fullscreenenter"",""1"",""1602""
","
","
","""event"",""trial"",""time""
""fullscreenenter"",""1"",""1602""
","
","","","-1","","","21","8486","3803","&#9761;","elianto","#3366ff99","-1","-1","1","+10","[]","0","0","2","","","","","","","",""
"pit-trial","38","449177","0.0-2.0-11.0-1.0","battery-v0.2","","""event"",""trial"",""time""
""fullscreenenter"",""1"",""1602""
","
","
","""event"",""trial"",""time""
""fullscreenenter"",""1"",""1602""
","
","","","-1","","","21","8486","3803","&#9761;","elianto","#3366ff99","-1","-1","1","+10","[]","0","0","2","","","","","","","",""
"pit-trial","39","454050","0.0-2.0-11.0-2.0","battery-v0.2","","""event"",""trial"",""time""
""fullscreenenter"",""1"",""1602""
","
","
","""event"",""trial"",""time""
""fullscreenenter"",""1"",""1602""
","
","","","-1","","","21","8486","3803","&#9761;","elianto","#3366ff99","-1","-1","1","+10","[]","0","0","2","","","","","","","",""
"pit-trial","40","458918","0.0-2.0-11.0-3.0","battery-v0.2","","""event"",""trial"",""time""
""fullscreenenter"",""1"",""1602""
","
","
","""event"",""trial"",""time""
""fullscreenenter"",""1"",""1602""
","
","","","-1","","","21","8486","3803","&#9761;","elianto","#3366ff99","-1","-1","1","0","[]","0","0","2","","","","","","","",""
"pit-trial","41","463781","0.0-2.0-11.0-4.0","battery-v0.2","","""event"",""trial"",""time""
""fullscreenenter"",""1"",""1602""
","
","
","""event"",""trial"",""time""
""fullscreenenter"",""1"",""1602""
","
","","","-1","","","21","8486","3803","&#9761;","elianto","#3366ff99","-1","-1","1","+10","[]","0","0","2","","","","","","","",""
"pit-trial","42","468647","0.0-2.0-11.1-0.1","battery-v0.2","","""event"",""trial"",""time""
""fullscreenenter"",""1"",""1602""
","
","
","""event"",""trial"",""time""
""fullscreenenter"",""1"",""1602""
","
","","","-1","","","21","8486","3803","&#9761;","elianto","#3366ff99","-1","-1","1","+10","[]","0","0","2","","","","","","","",""
"pit-trial","43","473512","0.0-2.0-11.1-1.1","battery-v0.2","","""event"",""trial"",""time""
""fullscreenenter"",""1"",""1602""
","
","
","""event"",""trial"",""time""
""fullscreenenter"",""1"",""1602""
","
","","","-1","","","21","8486","3803","&#9761;","elianto","#3366ff99","-1","-1","1","+10","[]","0","0","2","","","","","","","",""
"pit-trial","44","478377","0.0-2.0-11.1-2.1","battery-v0.2","","""event"",""trial"",""time""
""fullscreenenter"",""1"",""1602""
","
","
","""event"",""trial"",""time""
""fullscreenenter"",""1"",""1602""
","
","","","-1","","","21","8486","3803","&#9761;","elianto","#3366ff99","-1","-1","1","+10","[]","0","0","2","","","","","","","",""
"pit-trial","45","483245","0.0-2.0-11.1-3.1","battery-v0.2","","""event"",""trial"",""time""
""fullscreenenter"",""1"",""1602""
","
","
","""event"",""trial"",""time""
""fullscreenenter"",""1"",""1602""
","
","","","-1","","","21","8486","3803","&#9761;","elianto","#3366ff99","-1","-1","1","0","[]","0","0","2","","","","","","","",""
"pit-trial","46","488110","0.0-2.0-11.1-4.1","battery-v0.2","","""event"",""trial"",""time""
""fullscreenenter"",""1"",""1602""
","
","
","""event"",""trial"",""time""
""fullscreenenter"",""1"",""1602""
","
","","","-1","","","21","8486","3803","&#9761;","elianto","#3366ff99","-1","-1","1","+10","[]","0","0","2","","","","","","","",""
"pit-trial","47","492977","0.0-2.0-11.2-0.2","battery-v0.2","","""event"",""trial"",""time""
""fullscreenenter"",""1"",""1602""
","
","
","""event"",""trial"",""time""
""fullscreenenter"",""1"",""1602""
","
","","","-1","","","21","8486","3803","&#9761;","elianto","#3366ff99","-1","-1","1","+10","[]","0","0","2","","","","","","","",""
"pit-trial","48","497848","0.0-2.0-11.2-1.2","battery-v0.2","","""event"",""trial"",""time""
""fullscreenenter"",""1"",""1602""
","
","
","""event"",""trial"",""time""
""fullscreenenter"",""1"",""1602""
","
","","","-1","","","21","8486","3803","&#9761;","elianto","#3366ff99","-1","-1","1","+10","[]","0","0","2","","","","","","","",""
"pit-trial","49","502712","0.0-2.0-11.2-2.2","battery-v0.2","","""event"",""trial"",""time""
""fullscreenenter"",""1"",""1602""
","
","
","""event"",""trial"",""time""
""fullscreenenter"",""1"",""1602""
","
","","","-1","","","21","8486","3803","&#9761;","elianto","#3366ff99","-1","-1","1","+10","[]","0","0","2","","","","","","","",""
"pit-trial","50","507576","0.0-2.0-11.2-3.2","battery-v0.2","","""event"",""trial"",""time""
""fullscreenenter"",""1"",""1602""
","
","
","""event"",""trial"",""time""
""fullscreenenter"",""1"",""1602""
","
","","","-1","","","21","8486","3803","&#9761;","elianto","#3366ff99","-1","-1","1","0","[]","0","0","2","","","","","","","",""
"pit-trial","51","512440","0.0-2.0-11.2-4.2","battery-v0.2","","""event"",""trial"",""time""
""fullscreenenter"",""1"",""1602""
","
","
","""event"",""trial"",""time""
""fullscreenenter"",""1"",""1602""
","
","","","-1","","","21","8486","3803","&#9761;","elianto","#3366ff99","-1","-1","1","+10","[]","0","0","2","","","","","","","",""
"pit-trial","52","517304","0.0-2.0-11.3-0.3","battery-v0.2","","""event"",""trial"",""time""
""fullscreenenter"",""1"",""1602""
","
","
","""event"",""trial"",""time""
""fullscreenenter"",""1"",""1602""
","
","","","-1","","","21","8486","3803","&#9761;","elianto","#3366ff99","-1","-1","1","+10","[]","0","0","2","","","","","","","",""
"pit-trial","53","522168","0.0-2.0-11.3-1.3","battery-v0.2","","""event"",""trial"",""time""
""fullscreenenter"",""1"",""1602""
","
","
","""event"",""trial"",""time""
""fullscreenenter"",""1"",""1602""
","
","","","-1","","","21","8486","3803","&#9761;","elianto","#3366ff99","-1","-1","1","+10","[]","0","0","2","","","","","","","",""
"pit-trial","54","527032","0.0-2.0-11.3-2.3","battery-v0.2","","""event"",""trial"",""time""
""fullscreenenter"",""1"",""1602""
","
","
","""event"",""trial"",""time""
""fullscreenenter"",""1"",""1602""
","
","","","-1","","","21","8486","3803","&#9761;","elianto","#3366ff99","-1","-1","1","+10","[]","0","0","2","","","","","","","",""
"pit-trial","55","531896","0.0-2.0-11.3-3.3","battery-v0.2","","""event"",""trial"",""time""
""fullscreenenter"",""1"",""1602""
","
","
","""event"",""trial"",""time""
""fullscreenenter"",""1"",""1602""
","
","","","-1","","","21","8486","3803","&#9761;","elianto","#3366ff99","-1","-1","1","0","[]","0","0","2","","","","","","","",""
"pit-trial","56","536759","0.0-2.0-11.3-4.3","battery-v0.2","","""event"",""trial"",""time""
""fullscreenenter"",""1"",""1602""
","
","
","""event"",""trial"",""time""
""fullscreenenter"",""1"",""1602""
","
","","","-1","","","21","8486","3803","&#9761;","elianto","#3366ff99","-1","-1","1","+10","[]","0","0","2","","","","","","","",""
"call-function","57","536761","0.0-2.0-12.0","battery-v0.2","","""event"",""trial"",""time""
""fullscreenenter"",""1"",""1602""
","
","
","""event"",""trial"",""time""
""fullscreenenter"",""1"",""1602""
","
","","","","","","","","","","","","","","","","","","","","","","","","","","",""
"pit-instructions","58","572595","0.0-2.0-13.0","battery-v0.2","","""event"",""trial"",""time""
""fullscreenenter"",""1"",""1602""
","
","
","""event"",""trial"",""time""
""fullscreenenter"",""1"",""1602""
","
","","[{""page_index"":0,""viewing_time"":6006},{""page_index"":1,""viewing_time"":7717.600000023842},{""page_index"":2,""viewing_time"":5094.199999988079},{""page_index"":3,""viewing_time"":12055.199999988079},{""page_index"":4,""viewing_time"":4960.100000023842}]","35833.40000003576","","","","","","","","","","","","","","","","","","","","","","","",""
"pit-trial","59","576175","0.0-2.0-14.0-0.0","battery-v0.2","","""event"",""trial"",""time""
""fullscreenenter"",""1"",""1602""
","
","
","""event"",""trial"",""time""
""fullscreenenter"",""1"",""1602""
","
","","","709.3999999761581","","","21","8486","3803","&#9826;","elianto","#f73b6a7A","-1"," ","0","-10","[1568.8999999761581]","1","0","3","","","","","","","",""
"pit-trial","60","579669","0.0-2.0-14.0-1.0","battery-v0.2","","""event"",""trial"",""time""
""fullscreenenter"",""1"",""1602""
","
","
","""event"",""trial"",""time""
""fullscreenenter"",""1"",""1602""
","
","","","631.4000000357628","","","21","8486","3803","&#9826;","elianto","#f73b6a7A","-1"," ","0","-10","[1486.5]","1","0","3","","","","","","","",""
"pit-trial","61","582750","0.0-2.0-14.0-2.0","battery-v0.2","","""event"",""trial"",""time""
""fullscreenenter"",""1"",""1602""
","
","
","""event"",""trial"",""time""
""fullscreenenter"",""1"",""1602""
","
","","","213.70000004768372","","","21","8486","3803","&#9826;","elianto","#f73b6a7A","-1"," ","0","-10","[1069.5]","1","0","3","","","","","","","",""
"pit-trial","62","587612","0.0-2.0-14.0-3.0","battery-v0.2","","""event"",""trial"",""time""
""fullscreenenter"",""1"",""1602""
","
","
","""event"",""trial"",""time""
""fullscreenenter"",""1"",""1602""
","
","","","-1","","","21","8486","3803","&#9826;","elianto","#f73b6a7A","-1","-1","1","-10","[]","0","0","3","","","","","","","",""
"pit-trial","63","592481","0.0-2.0-14.0-4.0","battery-v0.2","","""event"",""trial"",""time""
""fullscreenenter"",""1"",""1602""
","
","
","""event"",""trial"",""time""
""fullscreenenter"",""1"",""1602""
","
","","","-1","","","21","8486","3803","&#9826;","elianto","#f73b6a7A","-1","-1","1","0","[]","0","0","3","","","","","","","",""
"pit-trial","64","597353","0.0-2.0-14.1-0.1","battery-v0.2","","""event"",""trial"",""time""
""fullscreenenter"",""1"",""1602""
","
","
","""event"",""trial"",""time""
""fullscreenenter"",""1"",""1602""
","
","","","-1","","","21","8486","3803","&#9826;","elianto","#f73b6a7A","-1","-1","1","0","[]","0","0","3","","","","","","","",""
"pit-trial","65","602225","0.0-2.0-14.1-1.1","battery-v0.2","","""event"",""trial"",""time""
""fullscreenenter"",""1"",""1602""
","
","
","""event"",""trial"",""time""
""fullscreenenter"",""1"",""1602""
","
","","","-1","","","21","8486","3803","&#9826;","elianto","#f73b6a7A","-1","-1","1","0","[]","0","0","3","","","","","","","",""
"pit-trial","66","607096","0.0-2.0-14.1-2.1","battery-v0.2","","""event"",""trial"",""time""
""fullscreenenter"",""1"",""1602""
","
","
","""event"",""trial"",""time""
""fullscreenenter"",""1"",""1602""
","
","","","-1","","","21","8486","3803","&#9826;","elianto","#f73b6a7A","-1","-1","1","0","[]","0","0","3","","","","","","","",""
"pit-trial","67","611960","0.0-2.0-14.1-3.1","battery-v0.2","","""event"",""trial"",""time""
""fullscreenenter"",""1"",""1602""
","
","
","""event"",""trial"",""time""
""fullscreenenter"",""1"",""1602""
","
","","","-1","","","21","8486","3803","&#9826;","elianto","#f73b6a7A","-1","-1","1","-10","[]","0","0","3","","","","","","","",""
"pit-trial","68","616824","0.0-2.0-14.1-4.1","battery-v0.2","","""event"",""trial"",""time""
""fullscreenenter"",""1"",""1602""
","
","
","""event"",""trial"",""time""
""fullscreenenter"",""1"",""1602""
","
","","","-1","","","21","8486","3803","&#9826;","elianto","#f73b6a7A","-1","-1","1","0","[]","0","0","3","","","","","","","",""
"pit-trial","69","621688","0.0-2.0-14.2-0.2","battery-v0.2","","""event"",""trial"",""time""
""fullscreenenter"",""1"",""1602""
","
","
","""event"",""trial"",""time""
""fullscreenenter"",""1"",""1602""
","
","","","-1","","","21","8486","3803","&#9826;","elianto","#f73b6a7A","-1","-1","1","0","[]","0","0","3","","","","","","","",""
"pit-trial","70","626552","0.0-2.0-14.2-1.2","battery-v0.2","","""event"",""trial"",""time""
""fullscreenenter"",""1"",""1602""
","
","
","""event"",""trial"",""time""
""fullscreenenter"",""1"",""1602""
","
","","","-1","","","21","8486","3803","&#9826;","elianto","#f73b6a7A","-1","-1","1","0","[]","0","0","3","","","","","","","",""
"pit-trial","71","631416","0.0-2.0-14.2-2.2","battery-v0.2","","""event"",""trial"",""time""
""fullscreenenter"",""1"",""1602""
","
","
","""event"",""trial"",""time""
""fullscreenenter"",""1"",""1602""
","
","","","-1","","","21","8486","3803","&#9826;","elianto","#f73b6a7A","-1","-1","1","0","[]","0","0","3","","","","","","","",""
"pit-trial","72","636280","0.0-2.0-14.2-3.2","battery-v0.2","","""event"",""trial"",""time""
""fullscreenenter"",""1"",""1602""
","
","
","""event"",""trial"",""time""
""fullscreenenter"",""1"",""1602""
","
","","","-1","","","21","8486","3803","&#9826;","elianto","#f73b6a7A","-1","-1","1","-10","[]","0","0","3","","","","","","","",""
"pit-trial","73","641143","0.0-2.0-14.2-4.2","battery-v0.2","","""event"",""trial"",""time""
""fullscreenenter"",""1"",""1602""
","
","
","""event"",""trial"",""time""
""fullscreenenter"",""1"",""1602""
","
","","","-1","","","21","8486","3803","&#9826;","elianto","#f73b6a7A","-1","-1","1","0","[]","0","0","3","","","","","","","",""
"pit-trial","74","646007","0.0-2.0-14.3-0.3","battery-v0.2","","""event"",""trial"",""time""
""fullscreenenter"",""1"",""1602""
","
","
","""event"",""trial"",""time""
""fullscreenenter"",""1"",""1602""
","
","","","-1","","","21","8486","3803","&#9826;","elianto","#f73b6a7A","-1","-1","1","0","[]","0","0","3","","","","","","","",""
"pit-trial","75","650872","0.0-2.0-14.3-1.3","battery-v0.2","","""event"",""trial"",""time""
""fullscreenenter"",""1"",""1602""
","
","
","""event"",""trial"",""time""
""fullscreenenter"",""1"",""1602""
","
","","","-1","","","21","8486","3803","&#9826;","elianto","#f73b6a7A","-1","-1","1","0","[]","0","0","3","","","","","","","",""
"pit-trial","76","655735","0.0-2.0-14.3-2.3","battery-v0.2","","""event"",""trial"",""time""
""fullscreenenter"",""1"",""1602""
","
","
","""event"",""trial"",""time""
""fullscreenenter"",""1"",""1602""
","
","","","-1","","","21","8486","3803","&#9826;","elianto","#f73b6a7A","-1","-1","1","0","[]","0","0","3","","","","","","","",""
"pit-trial","77","660600","0.0-2.0-14.3-3.3","battery-v0.2","","""event"",""trial"",""time""
""fullscreenenter"",""1"",""1602""
","
","
","""event"",""trial"",""time""
""fullscreenenter"",""1"",""1602""
","
","","","-1","","","21","8486","3803","&#9826;","elianto","#f73b6a7A","-1","-1","1","-10","[]","0","0","3","","","","","","","",""
"pit-trial","78","665464","0.0-2.0-14.3-4.3","battery-v0.2","","""event"",""trial"",""time""
""fullscreenenter"",""1"",""1602""
","
","
","""event"",""trial"",""time""
""fullscreenenter"",""1"",""1602""
","
","","","-1","","","21","8486","3803","&#9826;","elianto","#f73b6a7A","-1","-1","1","0","[]","0","0","3","","","","","","","",""
"call-function","79","665466","0.0-2.0-15.0","battery-v0.2","","""event"",""trial"",""time""
""fullscreenenter"",""1"",""1602""
","
","
","""event"",""trial"",""time""
""fullscreenenter"",""1"",""1602""
","
","","","","","","","","","","","","","","","","","","","","","","","","","","",""
"pit-instructions","80","719496","0.0-2.0-16.0","battery-v0.2","","""event"",""trial"",""time""
""fullscreenenter"",""1"",""1602""
","
","
","""event"",""trial"",""time""
""fullscreenenter"",""1"",""1602""
","
","","[{""page_index"":0,""viewing_time"":9127.300000011921},{""page_index"":1,""viewing_time"":18459.69999998808},{""page_index"":2,""viewing_time"":10902.199999988079},{""page_index"":3,""viewing_time"":15541}]","54030.39999997616","","","","","","","","","","","","","","","","","","","","","","","",""
"pit-trial","81","723028","0.0-2.0-17.0-0.0","battery-v0.2","","""event"",""trial"",""time""
""fullscreenenter"",""1"",""1602""
","
","
","""event"",""trial"",""time""
""fullscreenenter"",""1"",""1602""
","
","","","664.6000000238419","","","21","8486","3803","&#9789;","elianto","#f73b6a7A"," "," ","1","0","[1522.699999988079]","1","0","4","","","","","","","",""
"pit-trial","82","727230","0.0-2.0-17.0-1.0","battery-v0.2","","""event"",""trial"",""time""
""fullscreenenter"",""1"",""1602""
","
","
","""event"",""trial"",""time""
""fullscreenenter"",""1"",""1602""
","
","","","1333.2000000476837","","","21","8486","3803","&#9789;","elianto","#f73b6a7A"," "," ","1","0","[2189.7000000476837]","1","0","4","","","","","","","",""
"pit-trial","83","730881","0.0-2.0-17.0-2.0","battery-v0.2","","""event"",""trial"",""time""
""fullscreenenter"",""1"",""1602""
","
","
","""event"",""trial"",""time""
""fullscreenenter"",""1"",""1602""
","
","","","785.4000000357628","","","21","8486","3803","&#9789;","elianto","#f73b6a7A"," "," ","1","0","[1636.800000011921]","1","0","4","","","","","","","",""
"pit-trial","84","735429","0.0-2.0-17.0-3.0","battery-v0.2","","""event"",""trial"",""time""
""fullscreenenter"",""1"",""1602""
","
","
","""event"",""trial"",""time""
""fullscreenenter"",""1"",""1602""
","
","","","1684.5","","","21","8486","3803","&#9789;","elianto","#f73b6a7A"," "," ","1","-10","[2540.100000023842]","1","0","4","","","","","","","",""
"pit-trial","85","740293","0.0-2.0-17.0-4.0","battery-v0.2","","""event"",""trial"",""time""
""fullscreenenter"",""1"",""1602""
","
","
","""event"",""trial"",""time""
""fullscreenenter"",""1"",""1602""
","
","","","-1","","","21","8486","3803","&#9789;","elianto","#f73b6a7A"," ","-1","0","-10","[3098.899999976158]","1","0","4","","","","","","","",""
"pit-trial","86","743584","0.0-2.0-17.1-0.1","battery-v0.2","","""event"",""trial"",""time""
""fullscreenenter"",""1"",""1602""
","
","
","""event"",""trial"",""time""
""fullscreenenter"",""1"",""1602""
","
","","","419.9000000357628","","","21","8486","3803","&#9789;","elianto","#f73b6a7A"," "," ","1","0","[1275.300000011921]","1","0","4","","","","","","","",""
"pit-trial","87","748448","0.0-2.0-17.1-1.1","battery-v0.2","","""event"",""trial"",""time""
""fullscreenenter"",""1"",""1602""
","
","
","""event"",""trial"",""time""
""fullscreenenter"",""1"",""1602""
","
","","","-1","","","21","8486","3803","&#9789;","elianto","#f73b6a7A"," ","-1","0","-10","[]","0","0","4","","","","","","","",""
"pit-trial","88","751829","0.0-2.0-17.1-2.1","battery-v0.2","","""event"",""trial"",""time""
""fullscreenenter"",""1"",""1602""
","
","
","""event"",""trial"",""time""
""fullscreenenter"",""1"",""1602""
","
","","","520.5999999642372","","","21","8486","3803","&#9789;","elianto","#f73b6a7A"," "," ","1","0","[1372.1000000238419]","1","0","4","","","","","","","",""
"pit-trial","89","755205","0.0-2.0-17.1-3.1","battery-v0.2","","""event"",""trial"",""time""
""fullscreenenter"",""1"",""1602""
","
","
","""event"",""trial"",""time""
""fullscreenenter"",""1"",""1602""
","
","","","512.6000000238419","","","21","8486","3803","&#9789;","elianto","#f73b6a7A"," "," ","1","-10","[1368.800000011921]","1","0","4","","","","","","","",""
"pit-trial","90","758565","0.0-2.0-17.1-4.1","battery-v0.2","","""event"",""trial"",""time""
""fullscreenenter"",""1"",""1602""
","
","
","""event"",""trial"",""time""
""fullscreenenter"",""1"",""1602""
","
","","","492.19999998807907","","","21","8486","3803","&#9789;","elianto","#f73b6a7A"," "," ","1","0","[1348.3999999761581]","1","0","4","","","","","","","",""
"pit-trial","91","763429","0.0-2.0-17.2-0.2","battery-v0.2","","""event"",""trial"",""time""
""fullscreenenter"",""1"",""1602""
","
","
","""event"",""trial"",""time""
""fullscreenenter"",""1"",""1602""
","
","","","-1","","","21","8486","3803","&#9789;","elianto","#f73b6a7A"," ","-1","0","-10","[3607.2000000476837]","1","0","4","","","","","","","",""
"pit-trial","92","766736","0.0-2.0-17.2-1.2","battery-v0.2","","""event"",""trial"",""time""
""fullscreenenter"",""1"",""1602""
","
","
","""event"",""trial"",""time""
""fullscreenenter"",""1"",""1602""
","
","","","437.30000001192093","","","21","8486","3803","&#9789;","elianto","#f73b6a7A"," "," ","1","0","[1296.300000011921]","1","0","4","","","","","","","",""
"pit-trial","93","771605","0.0-2.0-17.2-2.2","battery-v0.2","","""event"",""trial"",""time""
""fullscreenenter"",""1"",""1602""
","
","
","""event"",""trial"",""time""
""fullscreenenter"",""1"",""1602""
","
","","","-1","","","21","8486","3803","&#9789;","elianto","#f73b6a7A"," ","-1","0","-10","[]","0","0","4","","","","","","","",""
"pit-trial","94","774901","0.0-2.0-17.2-3.2","battery-v0.2","","""event"",""trial"",""time""
""fullscreenenter"",""1"",""1602""
","
","
","""event"",""trial"",""time""
""fullscreenenter"",""1"",""1602""
","
","","","435.5","","","21","8486","3803","&#9789;","elianto","#f73b6a7A"," "," ","1","-10","[1291.3999999761581]","1","0","4","","","","","","","",""
"pit-trial","95","778038","0.0-2.0-17.2-4.2","battery-v0.2","","""event"",""trial"",""time""
""fullscreenenter"",""1"",""1602""
","
","
","""event"",""trial"",""time""
""fullscreenenter"",""1"",""1602""
","
","","","271.80000001192093","","","21","8486","3803","&#9789;","elianto","#f73b6a7A"," "," ","1","0","[1127.5999999642372]","1","0","4","","","","","","","",""
"pit-trial","96","781296","0.0-2.0-17.3-0.3","battery-v0.2","","""event"",""trial"",""time""
""fullscreenenter"",""1"",""1602""
","
","
","""event"",""trial"",""time""
""fullscreenenter"",""1"",""1602""
","
","","","387.7999999523163","","","21","8486","3803","&#9789;","elianto","#f73b6a7A"," "," ","1","0","[1242.9000000357628]","1","0","4","","","","","","","",""
"pit-trial","97","784399","0.0-2.0-17.3-1.3","battery-v0.2","","""event"",""trial"",""time""
""fullscreenenter"",""1"",""1602""
","
","
","""event"",""trial"",""time""
""fullscreenenter"",""1"",""1602""
","
","","","231.80000001192093","","","21","8486","3803","&#9789;","elianto","#f73b6a7A"," "," ","1","0","[1091.5999999642372]","1","0","4","","","","","","","",""
"pit-trial","98","787806","0.0-2.0-17.3-2.3","battery-v0.2","","""event"",""trial"",""time""
""fullscreenenter"",""1"",""1602""
","
","
","""event"",""trial"",""time""
""fullscreenenter"",""1"",""1602""
","
","","","537.1000000238419","","","21","8486","3803","&#9789;","elianto","#f73b6a7A"," "," ","1","0","[1394.699999988079]","1","0","4","","","","","","","",""
"pit-trial","99","791039","0.0-2.0-17.3-3.3","battery-v0.2","","""event"",""trial"",""time""
""fullscreenenter"",""1"",""1602""
","
","
","""event"",""trial"",""time""
""fullscreenenter"",""1"",""1602""
","
","","","368.4000000357628","","","21","8486","3803","&#9789;","elianto","#f73b6a7A"," "," ","1","-10","[1219.699999988079]","1","0","4","","","","","","","",""
"pit-trial","100","794935","0.0-2.0-17.3-4.3","battery-v0.2","","""event"",""trial"",""time""
""fullscreenenter"",""1"",""1602""
","
","
","""event"",""trial"",""time""
""fullscreenenter"",""1"",""1602""
","
","","","1033","","","21","8486","3803","&#9789;","elianto","#f73b6a7A"," "," ","1","0","[1884.1000000238419]","1","0","4","","","","","","","",""
"call-function","101","794937","0.0-2.0-18.0","battery-v0.2","","""event"",""trial"",""time""
""fullscreenenter"",""1"",""1602""
","
","
","""event"",""trial"",""time""
""fullscreenenter"",""1"",""1602""
","
","","","","","","","","","","","","","","","","","","","","","","","","","","",""
"pit-instructions","102","881859","0.0-2.0-19.0","battery-v0.2","","""event"",""trial"",""time""
""fullscreenenter"",""1"",""1602""
","
","
","""event"",""trial"",""time""
""fullscreenenter"",""1"",""1602""
","
","","[{""page_index"":0,""viewing_time"":7792.300000011921},{""page_index"":1,""viewing_time"":7771.5},{""page_index"":2,""viewing_time"":16557.80000001192},{""page_index"":3,""viewing_time"":6246.899999976158},{""page_index"":4,""viewing_time"":8300.899999976158},{""page_index"":5,""viewing_time"":9814},{""page_index"":6,""viewing_time"":10662.200000047684},{""page_index"":7,""viewing_time"":14293.699999988079},{""page_index"":8,""viewing_time"":5481.399999976158}]","86921.10000002384","","","","","","","","","","","","","","","","","","","","","","","",""
"pit-comprehension","103","887101","0.0-2.0-20.0-0.0","battery-v0.2","","""event"",""trial"",""time""
""fullscreenenter"",""1"",""1602""
","
","
","""event"",""trial"",""time""
""fullscreenenter"",""1"",""1602""
","
","","","5239.199999988079","[""SPACE""]","0","21","8486","3803","","","","","","","","","","","","","","","","","","",""
"pit-instructions","104","890358","0.0-2.0-20.0-1.0","battery-v0.2","","""event"",""trial"",""time""
""fullscreenenter"",""1"",""1602""
","
","
","""event"",""trial"",""time""
""fullscreenenter"",""1"",""1602""
","
","","[{""page_index"":0,""viewing_time"":3221.899999976158}]","3222.300000011921","","","","","","","","","","","","","","","","","","","","","","","",""
"pit-comprehension","105","895363","0.0-2.0-21.0-0.0","battery-v0.2","","""event"",""trial"",""time""
""fullscreenenter"",""1"",""1602""
","
","
","""event"",""trial"",""time""
""fullscreenenter"",""1"",""1602""
","
","","","5002.199999988079","[""10""]","0","21","8486","3803","","","","","","","","","","","","","","","","","","",""
"pit-instructions","106","897160","0.0-2.0-21.0-1.0","battery-v0.2","","""event"",""trial"",""time""
""fullscreenenter"",""1"",""1602""
","
","
","""event"",""trial"",""time""
""fullscreenenter"",""1"",""1602""
","
","","[{""page_index"":0,""viewing_time"":1757.8999999761581}]","1758.199999988079","","","","","","","","","","","","","","","","","","","","","","","",""
"pit-comprehension","107","903866","0.0-2.0-22.0-0.0","battery-v0.2","","""event"",""trial"",""time""
""fullscreenenter"",""1"",""1602""
","
","
","""event"",""trial"",""time""
""fullscreenenter"",""1"",""1602""
","
","","","6702.700000047684","[""0""]","0","21","8486","3803","","","","","","","","","","","","","","","","","","",""
"pit-instructions","108","905445","0.0-2.0-22.0-1.0","battery-v0.2","","""event"",""trial"",""time""
""fullscreenenter"",""1"",""1602""
","
","
","""event"",""trial"",""time""
""fullscreenenter"",""1"",""1602""
","
","","[{""page_index"":0,""viewing_time"":1543.0999999642372}]","1543.5999999642372","","","","","","","","","","","","","","","","","","","","","","","",""
"pit-comprehension","109","914161","0.0-2.0-23.0-0.0","battery-v0.2","","""event"",""trial"",""time""
""fullscreenenter"",""1"",""1602""
","
","
","""event"",""trial"",""time""
""fullscreenenter"",""1"",""1602""
","
","","","8712.199999988079","[""True""]","0","21","8486","3803","","","","","","","","","","","","","","","","","","",""
"pit-instructions","110","917554","0.0-2.0-23.0-1.0","battery-v0.2","","""event"",""trial"",""time""
""fullscreenenter"",""1"",""1602""
","
","
","""event"",""trial"",""time""
""fullscreenenter"",""1"",""1602""
","
","","[{""page_index"":0,""viewing_time"":3354}]","3354.399999976158","","","","","","","","","","","","","","","","","","","","","","","",""
"pit-comprehension","111","925080","0.0-2.0-24.0-0.0","battery-v0.2","","""event"",""trial"",""time""
""fullscreenenter"",""1"",""1602""
","
","
","""event"",""trial"",""time""
""fullscreenenter"",""1"",""1602""
","
","","","7522.600000023842","[""True""]","0","21","8486","3803","","","","","","","","","","","","","","","","","","",""
"pit-instructions","112","926627","0.0-2.0-24.0-1.0","battery-v0.2","","""event"",""trial"",""time""
""fullscreenenter"",""1"",""1602""
","
","
","""event"",""trial"",""time""
""fullscreenenter"",""1"",""1602""
","
","","[{""page_index"":0,""viewing_time"":1508.5999999642372}]","1509","","","","","","","","","","","","","","","","","","","","","","","",""
"pit-comprehension","113","933060","0.0-2.0-25.0-0.0","battery-v0.2","","""event"",""trial"",""time""
""fullscreenenter"",""1"",""1602""
","
","
","""event"",""trial"",""time""
""fullscreenenter"",""1"",""1602""
","
","","","6428.900000035763","[""True""]","0","21","8486","3803","","","","","","","","","","","","","","","","","","",""
"pit-instructions","114","934671","0.0-2.0-25.0-1.0","battery-v0.2","","""event"",""trial"",""time""
""fullscreenenter"",""1"",""1602""
","
","
","""event"",""trial"",""time""
""fullscreenenter"",""1"",""1602""
","
","","[{""page_index"":0,""viewing_time"":1570.199999988079}]","1570.5999999642372","","","","","","","","","","","","","","","","","","","","","","","",""
"pit-comprehension","115","939809","0.0-2.0-26.0-0.0","battery-v0.2","","""event"",""trial"",""time""
""fullscreenenter"",""1"",""1602""
","
","
","""event"",""trial"",""time""
""fullscreenenter"",""1"",""1602""
","
","","","5134.899999976158","[""False""]","0","21","8486","3803","","","","","","","","","","","","","","","","","","",""
"pit-instructions","116","941462","0.0-2.0-26.0-1.0","battery-v0.2","","""event"",""trial"",""time""
""fullscreenenter"",""1"",""1602""
","
","
","""event"",""trial"",""time""
""fullscreenenter"",""1"",""1602""
","
","","[{""page_index"":0,""viewing_time"":1613.2999999523163}]","1613.5999999642372","","","","","","","","","","","","","","","","","","","","","","","",""
"pit-instructions","117","957977","0.0-3.0","battery-v0.2","","""event"",""trial"",""time""
""fullscreenenter"",""1"",""1602""
","
","
","""event"",""trial"",""time""
""fullscreenenter"",""1"",""1602""
","
","","[{""page_index"":0,""viewing_time"":3880.399999976158},{""page_index"":1,""viewing_time"":5033.800000011921},{""page_index"":2,""viewing_time"":7599}]","16513.69999998808","","","","","","","","","","","","","","","","","","","","","","","",""
"pit-trial","118","962580","0.0-4.0","battery-v0.2","","""event"",""trial"",""time""
""fullscreenenter"",""1"",""1602""
","
","
","""event"",""trial"",""time""
""fullscreenenter"",""1"",""1602""
","
","","","1742","","","21","8486","3803","&#9728;","elianto","#f73b6a7A","-1"," ","0","-10","[2597.199999988079]","1","1","","","8486","1","0","4","lose","no-go","0"
"pit-trial","119","966523","0.0-5.0","battery-v0.2","","""event"",""trial"",""time""
""fullscreenenter"",""1"",""1602""
","
","
","""event"",""trial"",""time""
""fullscreenenter"",""1"",""1602""
","
","","","1083.5999999642372","","","21","8486","3803","&#9730;","elianto","#3366ff99"," "," ","1","+10","[1936.3999999761581]","1","1","","","8486","2","1","1","win","go","0"
"pit-trial","120","970356","0.0-6.0","battery-v0.2","","""event"",""trial"",""time""
""fullscreenenter"",""1"",""1602""
","
","
","""event"",""trial"",""time""
""fullscreenenter"",""1"",""1602""
","
","","","967.8999999761581","","","21","8486","3803","&#9752;","elianto","#f73b6a7A"," "," ","1","0","[1826.6000000238419]","1","1","","","8486","3","3","3","lose","go","0"
"pit-trial","121","974301","0.0-7.0","battery-v0.2","","""event"",""trial"",""time""
""fullscreenenter"",""1"",""1602""
","
","
","""event"",""trial"",""time""
""fullscreenenter"",""1"",""1602""
","
","","","1081.6000000238419","","","21","8486","3803","&#9733;","elianto","#3366ff99","-1"," ","0","0","[1938.0999999642372]","1","1","","","8486","4","2","2","win","no-go","0"
"pit-trial","122","978046","0.0-8.0","battery-v0.2","","""event"",""trial"",""time""
""fullscreenenter"",""1"",""1602""
","
","
","""event"",""trial"",""time""
""fullscreenenter"",""1"",""1602""
","
","","","880.1000000238419","","","21","8486","3803","&#9730;","elianto","#3366ff99"," "," ","1","+10","[1732.699999988079,1814.199999988079]","2","1","","","8486","5","1","1","win","go","0"
"pit-trial","123","982910","0.0-9.0","battery-v0.2","","""event"",""trial"",""time""
""fullscreenenter"",""1"",""1602""
","
","
","""event"",""trial"",""time""
""fullscreenenter"",""1"",""1602""
","
","","","-1","","","21","8486","3803","&#9728;","elianto","#f73b6a7A","-1","-1","1","0","[]","0","1","","","8486","6","0","4","lose","no-go","0"
"pit-trial","124","987251","0.0-10.0","battery-v0.2","","""event"",""trial"",""time""
""fullscreenenter"",""1"",""1602""
","
","
","""event"",""trial"",""time""
""fullscreenenter"",""1"",""1602""
","
","","","1472.6000000238419","","","21","8486","3803","&#9752;","elianto","#f73b6a7A"," "," ","1","0","[2331.199999988079]","1","1","","","8486","7","3","3","lose","go","0"
"pit-trial","125","992118","0.0-11.0","battery-v0.2","","""event"",""trial"",""time""
""fullscreenenter"",""1"",""1602""
","
","
","""event"",""trial"",""time""
""fullscreenenter"",""1"",""1602""
","
","","","-1","","","21","8486","3803","&#9733;","elianto","#3366ff99","-1","-1","1","+10","[]","0","1","","","8486","8","2","2","win","no-go","0"
"pit-trial","126","996980","0.0-12.0","battery-v0.2","","""event"",""trial"",""time""
""fullscreenenter"",""1"",""1602""
","
","
","""event"",""trial"",""time""
""fullscreenenter"",""1"",""1602""
","
","","","-1","","","21","8486","3803","&#9752;","elianto","#f73b6a7A"," ","-1","0","-10","[2947.399999976158]","1","1","","","8486","9","3","3","lose","go","0"
"pit-trial","127","1001855","0.0-13.0","battery-v0.2","","""event"",""trial"",""time""
""fullscreenenter"",""1"",""1602""
","
","
","""event"",""trial"",""time""
""fullscreenenter"",""1"",""1602""
","
","","","-1","","","21","8486","3803","&#9728;","elianto","#f73b6a7A","-1","-1","1","0","[]","0","1","","","8486","10","0","4","lose","no-go","0"
"pit-trial","128","1006729","0.0-14.0","battery-v0.2","","""event"",""trial"",""time""
""fullscreenenter"",""1"",""1602""
","
","
","""event"",""trial"",""time""
""fullscreenenter"",""1"",""1602""
","
","","","-1","","","21","8486","3803","&#9733;","elianto","#3366ff99","-1","-1","1","0","[]","0","1","","","8486","11","2","2","win","no-go","1"
"pit-trial","129","1010143","0.0-15.0","battery-v0.2","","""event"",""trial"",""time""
""fullscreenenter"",""1"",""1602""
","
","
","""event"",""trial"",""time""
""fullscreenenter"",""1"",""1602""
","
","","","543.0999999642372","","","21","8486","3803","&#9730;","elianto","#3366ff99"," "," ","1","+10","[1400.300000011921]","1","1","","","8486","12","1","1","win","go","0"
"pit-trial","130","1015011","0.0-16.0","battery-v0.2","","""event"",""trial"",""time""
""fullscreenenter"",""1"",""1602""
","
","
","""event"",""trial"",""time""
""fullscreenenter"",""1"",""1602""
","
","","","-1","","","21","8486","3803","&#9728;","elianto","#f73b6a7A","-1","-1","1","0","[]","0","1","","","8486","13","0","4","lose","no-go","0"
"pit-trial","131","1019880","0.0-17.0","battery-v0.2","","""event"",""trial"",""time""
""fullscreenenter"",""1"",""1602""
","
","
","""event"",""trial"",""time""
""fullscreenenter"",""1"",""1602""
","
","","","-1","","","21","8486","3803","&#9733;","elianto","#3366ff99","-1","-1","1","+10","[]","0","1","","","8486","14","2","2","win","no-go","0"
"pit-trial","132","1023701","0.0-18.0","battery-v0.2","","""event"",""trial"",""time""
""fullscreenenter"",""1"",""1602""
","
","
","""event"",""trial"",""time""
""fullscreenenter"",""1"",""1602""
","
","","","954.6999999880791","","","21","8486","3803","&#9752;","elianto","#f73b6a7A"," "," ","1","-10","[1811.3999999761581]","1","1","","","8486","15","3","3","lose","go","1"
"pit-trial","133","1027324","0.0-19.0","battery-v0.2","","""event"",""trial"",""time""
""fullscreenenter"",""1"",""1602""
","
","
","""event"",""trial"",""time""
""fullscreenenter"",""1"",""1602""
","
","","","762.3000000119209","","","21","8486","3803","&#9730;","elianto","#3366ff99"," "," ","1","+10","[1615.300000011921]","1","1","","","8486","16","1","1","win","go","0"
"pit-trial","134","1032193","0.0-20.0","battery-v0.2","","""event"",""trial"",""time""
""fullscreenenter"",""1"",""1602""
","
","
","""event"",""trial"",""time""
""fullscreenenter"",""1"",""1602""
","
","","","-1","","","21","8486","3803","&#9728;","elianto","#f73b6a7A","-1","-1","1","-10","[]","0","1","","","8486","17","0","4","lose","no-go","1"
"pit-trial","135","1035935","0.0-21.0","battery-v0.2","","""event"",""trial"",""time""
""fullscreenenter"",""1"",""1602""
","
","
","""event"",""trial"",""time""
""fullscreenenter"",""1"",""1602""
","
","","","875.5","","","21","8486","3803","&#9730;","elianto","#3366ff99"," "," ","1","+10","[1734.5]","1","1","","","8486","18","1","1","win","go","0"
"pit-trial","136","1040801","0.0-22.0","battery-v0.2","","""event"",""trial"",""time""
""fullscreenenter"",""1"",""1602""
","
","
","""event"",""trial"",""time""
""fullscreenenter"",""1"",""1602""
","
","","","-1","","","21","8486","3803","&#9733;","elianto","#3366ff99","-1","-1","1","+10","[]","0","1","","","8486","19","2","2","win","no-go","0"
"pit-trial","137","1045665","0.0-23.0","battery-v0.2","","""event"",""trial"",""time""
""fullscreenenter"",""1"",""1602""
","
","
","""event"",""trial"",""time""
""fullscreenenter"",""1"",""1602""
","
","","","-1","","","21","8486","3803","&#9752;","elianto","#f73b6a7A"," ","-1","0","-10","[]","0","1","","","8486","20","3","3","lose","go","0"
"pit-instructions","138","1058573","0.0-24.0","battery-v0.2","","""event"",""trial"",""time""
""fullscreenenter"",""1"",""1602""
","
","
","""event"",""trial"",""time""
""fullscreenenter"",""1"",""1602""
","
","","[{""page_index"":0,""viewing_time"":6019.800000011921},{""page_index"":1,""viewing_time"":6884.899999976158}]","12905","","","","","","","","","","","","","","","","","","","","","","","",""
"pit-trial","139","1062556","0.0-25.0","battery-v0.2","","""event"",""trial"",""time""
""fullscreenenter"",""1"",""1602""
","
","
","""event"",""trial"",""time""
""fullscreenenter"",""1"",""1602""
","
","","","1117.4000000357628","","","21","8486","3803","d","elianto","#3366ff99","-1"," ","0","0","[1974.7000000476837]","1","2","","","8486","21","1","2","win","no-go","0"
"pit-trial","140","1067420","0.0-26.0","battery-v0.2","","""event"",""trial"",""time""
""fullscreenenter"",""1"",""1602""
","
","
","""event"",""trial"",""time""
""fullscreenenter"",""1"",""1602""
","
","","","-1","","","21","8486","3803","j","elianto","#f73b6a7A"," ","-1","0","-10","[]","0","2","","","8486","22","0","3","lose","go","0"
"pit-trial","141","1071429","0.0-27.0","battery-v0.2","","""event"",""trial"",""time""
""fullscreenenter"",""1"",""1602""
","
","
","""event"",""trial"",""time""
""fullscreenenter"",""1"",""1602""
","
","","","1136.300000011921","","","21","8486","3803","e","elianto","#f73b6a7A"," "," ","1","0","[1988.0999999642372]","1","2","","","8486","23","2","3","lose","go","0"
"pit-trial","142","1075276","0.0-28.0","battery-v0.2","","""event"",""trial"",""time""
""fullscreenenter"",""1"",""1602""
","
","
","""event"",""trial"",""time""
""fullscreenenter"",""1"",""1602""
","
","","","979.6000000238419","","","21","8486","3803","w","elianto","#f73b6a7A","-1"," ","0","-10","[1840.5]","1","2","","","8486","24","3","4","lose","no-go","0"
"pit-trial","143","1079906","0.0-29.0","battery-v0.2","","""event"",""trial"",""time""
""fullscreenenter"",""1"",""1602""
","
","
","""event"",""trial"",""time""
""fullscreenenter"",""1"",""1602""
","
","","","1767.800000011921","","","21","8486","3803","e","elianto","#f73b6a7A"," "," ","1","0","[2620.300000011921]","1","2","","","8486","25","2","3","lose","go","0"
"pit-trial","144","1084774","0.0-30.0","battery-v0.2","","""event"",""trial"",""time""
""fullscreenenter"",""1"",""1602""
","
","
","""event"",""trial"",""time""
""fullscreenenter"",""1"",""1602""
","
","","","-1","","","21","8486","3803","j","elianto","#f73b6a7A"," ","-1","0","-10","[]","0","2","","","8486","26","0","3","lose","go","0"
"pit-trial","145","1088589","0.0-31.0","battery-v0.2","","""event"",""trial"",""time""
""fullscreenenter"",""1"",""1602""
","
","
","""event"",""trial"",""time""
""fullscreenenter"",""1"",""1602""
","
","","","947","","","21","8486","3803","d","elianto","#3366ff99","-1"," ","0","0","[1802.2000000476837]","1","2","","","8486","27","1","2","win","no-go","0"
"pit-trial","146","1093452","0.0-32.0","battery-v0.2","","""event"",""trial"",""time""
""fullscreenenter"",""1"",""1602""
","
","
","""event"",""trial"",""time""
""fullscreenenter"",""1"",""1602""
","
","","","-1","","","21","8486","3803","w","elianto","#f73b6a7A","-1","-1","1","0","[]","0","2","","","8486","28","3","4","lose","no-go","0"
"pit-trial","147","1098317","0.0-33.0","battery-v0.2","","""event"",""trial"",""time""
""fullscreenenter"",""1"",""1602""
","
","
","""event"",""trial"",""time""
""fullscreenenter"",""1"",""1602""
","
","","","-1","","","21","8486","3803","w","elianto","#f73b6a7A","-1","-1","1","-10","[]","0","2","","","8486","29","3","4","lose","no-go","1"
"pit-trial","148","1103186","0.0-34.0","battery-v0.2","","""event"",""trial"",""time""
""fullscreenenter"",""1"",""1602""
","
","
","""event"",""trial"",""time""
""fullscreenenter"",""1"",""1602""
","
","","","-1","","","21","8486","3803","e","elianto","#f73b6a7A"," ","-1","0","-10","[]","0","2","","","8486","30","2","3","lose","go","0"
"pit-trial","149","1107298","0.0-35.0","battery-v0.2","","""event"",""trial"",""time""
""fullscreenenter"",""1"",""1602""
","
","
","""event"",""trial"",""time""
""fullscreenenter"",""1"",""1602""
","
","","","1249.3999999761581","","","21","8486","3803","j","elianto","#f73b6a7A"," "," ","1","0","[2108.699999988079]","1","2","","","8486","31","0","3","lose","go","0"
"pit-trial","150","1112163","0.0-36.0","battery-v0.2","","""event"",""trial"",""time""
""fullscreenenter"",""1"",""1602""
","
","
","""event"",""trial"",""time""
""fullscreenenter"",""1"",""1602""
","
","","","-1","","","21","8486","3803","d","elianto","#3366ff99","-1","-1","1","0","[]","0","2","","","8486","32","1","2","win","no-go","1"
"pit-trial","151","1117029","0.0-37.0","battery-v0.2","","""event"",""trial"",""time""
""fullscreenenter"",""1"",""1602""
","
","
","""event"",""trial"",""time""
""fullscreenenter"",""1"",""1602""
","
","","","-1","","","21","8486","3803","e","elianto","#f73b6a7A"," ","-1","0","-10","[]","0","2","","","8486","33","2","3","lose","go","0"
"pit-trial","152","1121890","0.0-38.0","battery-v0.2","","""event"",""trial"",""time""
""fullscreenenter"",""1"",""1602""
","
","
","""event"",""trial"",""time""
""fullscreenenter"",""1"",""1602""
","
","","","-1","","","21","8486","3803","d","elianto","#3366ff99","-1","-1","1","0","[]","0","2","","","8486","34","1","2","win","no-go","1"
"pit-trial","153","1126755","0.0-39.0","battery-v0.2","","""event"",""trial"",""time""
""fullscreenenter"",""1"",""1602""
","
","
","""event"",""trial"",""time""
""fullscreenenter"",""1"",""1602""
","
","","","-1","","","21","8486","3803","w","elianto","#f73b6a7A","-1","-1","1","-10","[]","0","2","","","8486","35","3","4","lose","no-go","1"
"pit-trial","154","1130339","0.0-40.0","battery-v0.2","","""event"",""trial"",""time""
""fullscreenenter"",""1"",""1602""
","
","
","""event"",""trial"",""time""
""fullscreenenter"",""1"",""1602""
","
","","","720.5999999642372","","","21","8486","3803","j","elianto","#f73b6a7A"," "," ","1","0","[1576]","1","2","","","8486","36","0","3","lose","go","0"
"pit-trial","155","1134012","0.0-41.0","battery-v0.2","","""event"",""trial"",""time""
""fullscreenenter"",""1"",""1602""
","
","
","""event"",""trial"",""time""
""fullscreenenter"",""1"",""1602""
","
","","","809.9000000357628","","","21","8486","3803","e","elianto","#f73b6a7A"," "," ","1","0","[1666.2000000476837]","1","2","","","8486","37","2","3","lose","go","0"
"pit-trial","156","1138093","0.0-42.0","battery-v0.2","","""event"",""trial"",""time""
""fullscreenenter"",""1"",""1602""
","
","
","""event"",""trial"",""time""
""fullscreenenter"",""1"",""1602""
","
","","","1215.3999999761581","","","21","8486","3803","d","elianto","#3366ff99","-1"," ","0","0","[2067.599999964237]","1","2","","","8486","38","1","2","win","no-go","0"
"pit-trial","157","1142962","0.0-43.0","battery-v0.2","","""event"",""trial"",""time""
""fullscreenenter"",""1"",""1602""
","
","
","""event"",""trial"",""time""
""fullscreenenter"",""1"",""1602""
","
","","","-1","","","21","8486","3803","w","elianto","#f73b6a7A","-1","-1","1","0","[3493.300000011921]","1","2","","","8486","39","3","4","lose","no-go","0"
"pit-trial","158","1146381","0.0-44.0","battery-v0.2","","""event"",""trial"",""time""
""fullscreenenter"",""1"",""1602""
","
","
","""event"",""trial"",""time""
""fullscreenenter"",""1"",""1602""
","
","","","553.8000000119209","","","21","8486","3803","j","elianto","#f73b6a7A"," "," ","1","-10","[1411.199999988079]","1","2","","","8486","40","0","3","lose","go","1"
"pit-trial","159","1149933","0.0-45.0","battery-v0.2","","""event"",""trial"",""time""
""fullscreenenter"",""1"",""1602""
","
","
","""event"",""trial"",""time""
""fullscreenenter"",""1"",""1602""
","
","","","675.7000000476837","","","21","8486","3803","w","elianto","#f73b6a7A","-1"," ","0","-10","[1537.9000000357628]","1","2","","","8486","41","3","4","lose","no-go","0"
"pit-trial","160","1154802","0.0-46.0","battery-v0.2","","""event"",""trial"",""time""
""fullscreenenter"",""1"",""1602""
","
","
","""event"",""trial"",""time""
""fullscreenenter"",""1"",""1602""
","
","","","-1","","","21","8486","3803","d","elianto","#3366ff99","-1","-1","1","+10","[]","0","2","","","8486","42","1","2","win","no-go","0"
"pit-trial","161","1158477","0.0-47.0","battery-v0.2","","""event"",""trial"",""time""
""fullscreenenter"",""1"",""1602""
","
","
","""event"",""trial"",""time""
""fullscreenenter"",""1"",""1602""
","
","","","812.2000000476837","","","21","8486","3803","e","elianto","#f73b6a7A"," "," ","1","-10","[1666.3999999761581]","1","2","","","8486","43","2","3","lose","go","1"
"pit-trial","162","1162898","0.0-48.0","battery-v0.2","","""event"",""trial"",""time""
""fullscreenenter"",""1"",""1602""
","
","
","""event"",""trial"",""time""
""fullscreenenter"",""1"",""1602""
","
","","","1561.5999999642372","","","21","8486","3803","j","elianto","#f73b6a7A"," "," ","1","-10","[2413.599999964237]","1","2","","","8486","44","0","3","lose","go","1"
"pit-trial","163","1167341","0.0-49.0","battery-v0.2","","""event"",""trial"",""time""
""fullscreenenter"",""1"",""1602""
","
","
","""event"",""trial"",""time""
""fullscreenenter"",""1"",""1602""
","
","","","1572.699999988079","","","21","8486","3803","w","elianto","#f73b6a7A","-1"," ","0","0","[2428.599999964237]","1","2","","","8486","45","3","4","lose","no-go","1"
"pit-trial","164","1171101","0.0-50.0","battery-v0.2","","""event"",""trial"",""time""
""fullscreenenter"",""1"",""1602""
","
","
","""event"",""trial"",""time""
""fullscreenenter"",""1"",""1602""
","
","","","899.3000000119209","","","21","8486","3803","e","elianto","#f73b6a7A"," "," ","1","0","[1750.5]","1","2","","","8486","46","2","3","lose","go","0"
"pit-trial","165","1174573","0.0-51.0","battery-v0.2","","""event"",""trial"",""time""
""fullscreenenter"",""1"",""1602""
","
","
","""event"",""trial"",""time""
""fullscreenenter"",""1"",""1602""
","
","","","599.7999999523163","","","21","8486","3803","j","elianto","#f73b6a7A"," "," ","1","-10","[1460.3999999761581]","1","2","","","8486","47","0","3","lose","go","1"
"pit-trial","166","1178245","0.0-52.0","battery-v0.2","","""event"",""trial"",""time""
""fullscreenenter"",""1"",""1602""
","
","
","""event"",""trial"",""time""
""fullscreenenter"",""1"",""1602""
","
","","","804","","","21","8486","3803","d","elianto","#3366ff99","-1"," ","0","0","[1659.8999999761581]","1","2","","","8486","48","1","2","win","no-go","0"
"pit-trial","167","1182141","0.0-53.0","battery-v0.2","","""event"",""trial"",""time""
""fullscreenenter"",""1"",""1602""
","
","
","""event"",""trial"",""time""
""fullscreenenter"",""1"",""1602""
","
","","","1024.199999988079","","","21","8486","3803","w","elianto","#f73b6a7A","-1"," ","0","-10","[1883.1000000238419]","1","2","","","8486","49","3","4","lose","no-go","0"
"pit-trial","168","1187011","0.0-54.0","battery-v0.2","","""event"",""trial"",""time""
""fullscreenenter"",""1"",""1602""
","
","
","""event"",""trial"",""time""
""fullscreenenter"",""1"",""1602""
","
","","","-1","","","21","8486","3803","d","elianto","#3366ff99","-1","-1","1","+10","[]","0","2","","","8486","50","1","2","win","no-go","0"
"pit-trial","169","1190898","0.0-55.0","battery-v0.2","","""event"",""trial"",""time""
""fullscreenenter"",""1"",""1602""
","
","
","""event"",""trial"",""time""
""fullscreenenter"",""1"",""1602""
","
","","","1020.3999999761581","","","21","8486","3803","e","elianto","#f73b6a7A"," "," ","1","0","[1875.5]","1","2","","","8486","51","2","3","lose","go","0"
"pit-trial","170","1194988","0.0-56.0","battery-v0.2","","""event"",""trial"",""time""
""fullscreenenter"",""1"",""1602""
","
","
","""event"",""trial"",""time""
""fullscreenenter"",""1"",""1602""
","
","","","1226.5","","","21","8486","3803","j","elianto","#f73b6a7A"," "," ","1","0","[2082.800000011921]","1","2","","","8486","52","0","3","lose","go","0"
"pit-trial","171","1198690","0.0-57.0","battery-v0.2","","""event"",""trial"",""time""
""fullscreenenter"",""1"",""1602""
","
","
","""event"",""trial"",""time""
""fullscreenenter"",""1"",""1602""
","
","","","840.8999999761581","","","21","8486","3803","j","elianto","#f73b6a7A"," "," ","1","-10","[1695.5]","1","2","","","8486","53","0","3","lose","go","1"
"pit-trial","172","1203122","0.0-58.0","battery-v0.2","","""event"",""trial"",""time""
""fullscreenenter"",""1"",""1602""
","
","
","""event"",""trial"",""time""
""fullscreenenter"",""1"",""1602""
","
","","","1564.9000000357628","","","21","8486","3803","e","elianto","#f73b6a7A"," "," ","1","-10","[2420.800000011921]","1","2","","","8486","54","2","3","lose","go","1"
"pit-trial","173","1206844","0.0-59.0","battery-v0.2","","""event"",""trial"",""time""
""fullscreenenter"",""1"",""1602""
","
","
","""event"",""trial"",""time""
""fullscreenenter"",""1"",""1602""
","
","","","856.2000000476837","","","21","8486","3803","w","elianto","#f73b6a7A","-1"," ","0","-10","[1712.1000000238419]","1","2","","","8486","55","3","4","lose","no-go","0"
"pit-trial","174","1211709","0.0-60.0","battery-v0.2","","""event"",""trial"",""time""
""fullscreenenter"",""1"",""1602""
","
","
","""event"",""trial"",""time""
""fullscreenenter"",""1"",""1602""
","
","","","-1","","","21","8486","3803","d","elianto","#3366ff99","-1","-1","1","+10","[]","0","2","","","8486","56","1","2","win","no-go","0"
"pit-trial","175","1216577","0.0-61.0","battery-v0.2","","""event"",""trial"",""time""
""fullscreenenter"",""1"",""1602""
","
","
","""event"",""trial"",""time""
""fullscreenenter"",""1"",""1602""
","
","","","-1","","","21","8486","3803","s","elianto","#3366ff99"," ","-1","0","+10","[]","0","2","","","8486","57","4","1","win","go","1"
"pit-trial","176","1220677","0.0-62.0","battery-v0.2","","""event"",""trial"",""time""
""fullscreenenter"",""1"",""1602""
","
","
","""event"",""trial"",""time""
""fullscreenenter"",""1"",""1602""
","
","","","1230.7999999523163","","","21","8486","3803","w","elianto","#f73b6a7A","-1"," ","0","-10","[2088.099999964237]","1","2","","","8486","58","3","4","lose","no-go","0"
"pit-trial","177","1224780","0.0-63.0","battery-v0.2","","""event"",""trial"",""time""
""fullscreenenter"",""1"",""1602""
","
","
","""event"",""trial"",""time""
""fullscreenenter"",""1"",""1602""
","
","","","1233.699999988079","","","21","8486","3803","j","elianto","#f73b6a7A"," "," ","1","-10","[2091.699999988079]","1","2","","","8486","59","0","3","lose","go","1"
"pit-trial","178","1228722","0.0-64.0","battery-v0.2","","""event"",""trial"",""time""
""fullscreenenter"",""1"",""1602""
","
","
","""event"",""trial"",""time""
""fullscreenenter"",""1"",""1602""
","
","","","1080.8999999761581","","","21","8486","3803","e","elianto","#f73b6a7A"," "," ","1","0","[1932.8999999761581]","1","2","","","8486","60","2","3","lose","go","0"
"pit-trial","179","1233586","0.0-65.0","battery-v0.2","","""event"",""trial"",""time""
""fullscreenenter"",""1"",""1602""
","
","
","""event"",""trial"",""time""
""fullscreenenter"",""1"",""1602""
","
","","","-1","","","21","8486","3803","s","elianto","#3366ff99"," ","-1","0","0","[]","0","2","","","8486","61","4","1","win","go","0"
"pit-trial","180","1237741","0.0-66.0","battery-v0.2","","""event"",""trial"",""time""
""fullscreenenter"",""1"",""1602""
","
","
","""event"",""trial"",""time""
""fullscreenenter"",""1"",""1602""
","
","","","1286.800000011921","","","21","8486","3803","w","elianto","#f73b6a7A","-1"," ","0","-10","[2140.899999976158]","1","2","","","8486","62","3","4","lose","no-go","0"
"pit-trial","181","1241250","0.0-67.0","battery-v0.2","","""event"",""trial"",""time""
""fullscreenenter"",""1"",""1602""
","
","
","""event"",""trial"",""time""
""fullscreenenter"",""1"",""1602""
","
","","","644.3999999761581","","","21","8486","3803","e","elianto","#f73b6a7A"," "," ","1","0","[1499.699999988079]","1","2","","","8486","63","2","3","lose","go","0"
"pit-trial","182","1246114","0.0-68.0","battery-v0.2","","""event"",""trial"",""time""
""fullscreenenter"",""1"",""1602""
","
","
","""event"",""trial"",""time""
""fullscreenenter"",""1"",""1602""
","
","","","-1","","","21","8486","3803","d","elianto","#3366ff99","-1","-1","1","+10","[]","0","2","","","8486","64","1","2","win","no-go","0"
"pit-trial","183","1250721","0.0-69.0","battery-v0.2","","""event"",""trial"",""time""
""fullscreenenter"",""1"",""1602""
","
","
","""event"",""trial"",""time""
""fullscreenenter"",""1"",""1602""
","
","","","1746.699999988079","","","21","8486","3803","p","elianto","#3366ff99","-1"," ","0","+10","[2603.2999999523163]","1","2","","","8486","65","5","2","win","no-go","1"
"pit-trial","184","1255586","0.0-70.0","battery-v0.2","","""event"",""trial"",""time""
""fullscreenenter"",""1"",""1602""
","
","
","""event"",""trial"",""time""
""fullscreenenter"",""1"",""1602""
","
","","","-1","","","21","8486","3803","d","elianto","#3366ff99","-1","-1","1","+10","[]","0","2","","","8486","66","1","2","win","no-go","0"
"pit-trial","185","1259298","0.0-71.0","battery-v0.2","","""event"",""trial"",""time""
""fullscreenenter"",""1"",""1602""
","
","
","""event"",""trial"",""time""
""fullscreenenter"",""1"",""1602""
","
","","","849.3999999761581","","","21","8486","3803","w","elianto","#f73b6a7A","-1"," ","0","-10","[1706.8999999761581]","1","2","","","8486","67","3","4","lose","no-go","0"
"pit-trial","186","1263772","0.0-72.0","battery-v0.2","","""event"",""trial"",""time""
""fullscreenenter"",""1"",""1602""
","
","
","""event"",""trial"",""time""
""fullscreenenter"",""1"",""1602""
","
","","","1604","","","21","8486","3803","s","elianto","#3366ff99"," "," ","1","+10","[2460.100000023842]","1","2","","","8486","68","4","1","win","go","0"
"pit-trial","187","1268643","0.0-73.0","battery-v0.2","","""event"",""trial"",""time""
""fullscreenenter"",""1"",""1602""
","
","
","""event"",""trial"",""time""
""fullscreenenter"",""1"",""1602""
","
","","","-1","","","21","8486","3803","d","elianto","#3366ff99","-1","-1","1","+10","[]","0","2","","","8486","69","1","2","win","no-go","0"
"pit-trial","188","1273506","0.0-74.0","battery-v0.2","","""event"",""trial"",""time""
""fullscreenenter"",""1"",""1602""
","
","
","""event"",""trial"",""time""
""fullscreenenter"",""1"",""1602""
","
","","","-1","","","21","8486","3803","p","elianto","#3366ff99","-1","-1","1","+10","[]","0","2","","","8486","70","5","2","win","no-go","0"
"pit-trial","189","1277185","0.0-75.0","battery-v0.2","","""event"",""trial"",""time""
""fullscreenenter"",""1"",""1602""
","
","
","""event"",""trial"",""time""
""fullscreenenter"",""1"",""1602""
","
","","","819.1999999880791","","","21","8486","3803","s","elianto","#3366ff99"," "," ","1","0","[1673.0999999642372]","1","2","","","8486","71","4","1","win","go","1"
"pit-trial","190","1280962","0.0-76.0","battery-v0.2","","""event"",""trial"",""time""
""fullscreenenter"",""1"",""1602""
","
","
","""event"",""trial"",""time""
""fullscreenenter"",""1"",""1602""
","
","","","913.3999999761581","","","21","8486","3803","e","elianto","#f73b6a7A"," "," ","1","0","[1771.800000011921]","1","2","","","8486","72","2","3","lose","go","0"
"pit-trial","191","1284556","0.0-77.0","battery-v0.2","","""event"",""trial"",""time""
""fullscreenenter"",""1"",""1602""
","
","
","""event"",""trial"",""time""
""fullscreenenter"",""1"",""1602""
","
","","","724.3000000119209","","","21","8486","3803","s","elianto","#3366ff99"," "," ","1","+10","[1580.300000011921]","1","2","","","8486","73","4","1","win","go","0"
"pit-trial","192","1288600","0.0-78.0","battery-v0.2","","""event"",""trial"",""time""
""fullscreenenter"",""1"",""1602""
","
","
","""event"",""trial"",""time""
""fullscreenenter"",""1"",""1602""
","
","","","1182.6000000238419","","","21","8486","3803","d","elianto","#3366ff99","-1"," ","0","0","[2035.199999988079]","1","2","","","8486","74","1","2","win","no-go","0"
"pit-trial","193","1293468","0.0-79.0","battery-v0.2","","""event"",""trial"",""time""
""fullscreenenter"",""1"",""1602""
","
","
","""event"",""trial"",""time""
""fullscreenenter"",""1"",""1602""
","
","","","-1","","","21","8486","3803","p","elianto","#3366ff99","-1","-1","1","+10","[]","0","2","","","8486","75","5","2","win","no-go","0"
"pit-trial","194","1297084","0.0-80.0","battery-v0.2","","""event"",""trial"",""time""
""fullscreenenter"",""1"",""1602""
","
","
","""event"",""trial"",""time""
""fullscreenenter"",""1"",""1602""
","
","","","744","","","21","8486","3803","w","elianto","#f73b6a7A","-1"," ","0","-10","[1604]","1","2","","","8486","76","3","4","lose","no-go","0"
"pit-trial","195","1300780","0.0-81.0","battery-v0.2","","""event"",""trial"",""time""
""fullscreenenter"",""1"",""1602""
","
","
","""event"",""trial"",""time""
""fullscreenenter"",""1"",""1602""
","
","","","823.6000000238419","","","21","8486","3803","w","elianto","#f73b6a7A","-1"," ","0","-10","[1682.1000000238419]","1","2","","","8486","77","3","4","lose","no-go","0"
"pit-trial","196","1304236","0.0-82.0","battery-v0.2","","""event"",""trial"",""time""
""fullscreenenter"",""1"",""1602""
","
","
","""event"",""trial"",""time""
""fullscreenenter"",""1"",""1602""
","
","","","587.1999999880791","","","21","8486","3803","s","elianto","#3366ff99"," "," ","1","0","[1449.0999999642372]","1","2","","","8486","78","4","1","win","go","1"
"pit-trial","197","1307979","0.0-83.0","battery-v0.2","","""event"",""trial"",""time""
""fullscreenenter"",""1"",""1602""
","
","
","""event"",""trial"",""time""
""fullscreenenter"",""1"",""1602""
","
","","","876.4000000357628","","","21","8486","3803","s","elianto","#3366ff99"," "," ","1","+10","[1730.5]","1","2","","","8486","79","4","1","win","go","0"
"pit-trial","198","1312844","0.0-84.0","battery-v0.2","","""event"",""trial"",""time""
""fullscreenenter"",""1"",""1602""
","
","
","""event"",""trial"",""time""
""fullscreenenter"",""1"",""1602""
","
","","","-1","","","21","8486","3803","p","elianto","#3366ff99","-1","-1","1","0","[]","0","2","","","8486","80","5","2","win","no-go","1"
"pit-trial","199","1316309","0.0-85.0","battery-v0.2","","""event"",""trial"",""time""
""fullscreenenter"",""1"",""1602""
","
","
","""event"",""trial"",""time""
""fullscreenenter"",""1"",""1602""
","
","","","594.7000000476837","","","21","8486","3803","s","elianto","#3366ff99"," "," ","1","+10","[1457.2000000476837]","1","2","","","8486","81","4","1","win","go","0"
"pit-trial","200","1321180","0.0-86.0","battery-v0.2","","""event"",""trial"",""time""
""fullscreenenter"",""1"",""1602""
","
","
","""event"",""trial"",""time""
""fullscreenenter"",""1"",""1602""
","
","","","-1","","","21","8486","3803","a","elianto","#f73b6a7A","-1","-1","1","0","[]","0","2","","","8486","82","7","4","lose","no-go","0"
"pit-trial","201","1326049","0.0-87.0","battery-v0.2","","""event"",""trial"",""time""
""fullscreenenter"",""1"",""1602""
","
","
","""event"",""trial"",""time""
""fullscreenenter"",""1"",""1602""
","
","","","-1","","","21","8486","3803","p","elianto","#3366ff99","-1","-1","1","+10","[]","0","2","","","8486","83","5","2","win","no-go","0"
"pit-trial","202","1329650","0.0-88.0","battery-v0.2","","""event"",""trial"",""time""
""fullscreenenter"",""1"",""1602""
","
","
","""event"",""trial"",""time""
""fullscreenenter"",""1"",""1602""
","
","","","739.0999999642372","","","21","8486","3803","w","elianto","#f73b6a7A","-1"," ","0","-10","[1595.800000011921]","1","2","","","8486","84","3","4","lose","no-go","0"
"pit-trial","203","1334513","0.0-89.0","battery-v0.2","","""event"",""trial"",""time""
""fullscreenenter"",""1"",""1602""
","
","
","""event"",""trial"",""time""
""fullscreenenter"",""1"",""1602""
","
","","","-1","","","21","8486","3803","g","elianto","#f73b6a7A"," ","-1","0","-10","[]","0","2","","","8486","85","6","3","lose","go","0"
"pit-trial","204","1339376","0.0-90.0","battery-v0.2","","""event"",""trial"",""time""
""fullscreenenter"",""1"",""1602""
","
","
","""event"",""trial"",""time""
""fullscreenenter"",""1"",""1602""
","
","","","-1","","","21","8486","3803","p","elianto","#3366ff99","-1","-1","1","+10","[]","0","2","","","8486","86","5","2","win","no-go","0"
"pit-trial","205","1344241","0.0-91.0","battery-v0.2","","""event"",""trial"",""time""
""fullscreenenter"",""1"",""1602""
","
","
","""event"",""trial"",""time""
""fullscreenenter"",""1"",""1602""
","
","","","-1","","","21","8486","3803","a","elianto","#f73b6a7A","-1","-1","1","0","[]","0","2","","","8486","87","7","4","lose","no-go","0"
"pit-trial","206","1348635","0.0-92.0","battery-v0.2","","""event"",""trial"",""time""
""fullscreenenter"",""1"",""1602""
","
","
","""event"",""trial"",""time""
""fullscreenenter"",""1"",""1602""
","
","","","1524.8999999761581","","","21","8486","3803","s","elianto","#3366ff99"," "," ","1","+10","[2381.300000011921]","1","2","","","8486","88","4","1","win","go","0"
"pit-trial","207","1353500","0.0-93.0","battery-v0.2","","""event"",""trial"",""time""
""fullscreenenter"",""1"",""1602""
","
","
","""event"",""trial"",""time""
""fullscreenenter"",""1"",""1602""
","
","","","-1","","","21","8486","3803","a","elianto","#f73b6a7A","-1","-1","1","0","[]","0","2","","","8486","89","7","4","lose","no-go","0"
"pit-trial","208","1358371","0.0-94.0","battery-v0.2","","""event"",""trial"",""time""
""fullscreenenter"",""1"",""1602""
","
","
","""event"",""trial"",""time""
""fullscreenenter"",""1"",""1602""
","
","","","-1","","","21","8486","3803","p","elianto","#3366ff99","-1","-1","1","+10","[]","0","2","","","8486","90","5","2","win","no-go","0"
"pit-trial","209","1362049","0.0-95.0","battery-v0.2","","""event"",""trial"",""time""
""fullscreenenter"",""1"",""1602""
","
","
","""event"",""trial"",""time""
""fullscreenenter"",""1"",""1602""
","
","","","814.5","","","21","8486","3803","s","elianto","#3366ff99"," "," ","1","+10","[1669.2000000476837]","1","2","","","8486","91","4","1","win","go","0"
"pit-trial","210","1366913","0.0-96.0","battery-v0.2","","""event"",""trial"",""time""
""fullscreenenter"",""1"",""1602""
","
","
","""event"",""trial"",""time""
""fullscreenenter"",""1"",""1602""
","
","","","-1","","","21","8486","3803","g","elianto","#f73b6a7A"," ","-1","0","0","[]","0","2","","","8486","92","6","3","lose","go","1"
"pit-trial","211","1371777","0.0-97.0","battery-v0.2","","""event"",""trial"",""time""
""fullscreenenter"",""1"",""1602""
","
","
","""event"",""trial"",""time""
""fullscreenenter"",""1"",""1602""
","
","","","-1","","","21","8486","3803","g","elianto","#f73b6a7A"," ","-1","0","-10","[]","0","2","","","8486","93","6","3","lose","go","0"
"pit-trial","212","1376641","0.0-98.0","battery-v0.2","","""event"",""trial"",""time""
""fullscreenenter"",""1"",""1602""
","
","
","""event"",""trial"",""time""
""fullscreenenter"",""1"",""1602""
","
","","","-1","","","21","8486","3803","p","elianto","#3366ff99","-1","-1","1","+10","[]","0","2","","","8486","94","5","2","win","no-go","0"
"pit-trial","213","1381507","0.0-99.0","battery-v0.2","","""event"",""trial"",""time""
""fullscreenenter"",""1"",""1602""
","
","
","""event"",""trial"",""time""
""fullscreenenter"",""1"",""1602""
","
","","","-1","","","21","8486","3803","l","elianto","#3366ff99"," ","-1","0","0","[]","0","2","","","8486","95","8","1","win","go","0"
"pit-trial","214","1386380","0.0-100.0","battery-v0.2","","""event"",""trial"",""time""
""fullscreenenter"",""1"",""1602""
","
","
","""event"",""trial"",""time""
""fullscreenenter"",""1"",""1602""
","
","","","-1","","","21","8486","3803","a","elianto","#f73b6a7A","-1","-1","1","0","[]","0","2","","","8486","96","7","4","lose","no-go","0"
"pit-trial","215","1391248","0.0-101.0","battery-v0.2","","""event"",""trial"",""time""
""fullscreenenter"",""1"",""1602""
","
","
","""event"",""trial"",""time""
""fullscreenenter"",""1"",""1602""
","
","","","-1","","","21","8486","3803","a","elianto","#f73b6a7A","-1","-1","1","0","[]","0","2","","","8486","97","7","4","lose","no-go","0"
"pit-trial","216","1395371","0.0-102.0","battery-v0.2","","""event"",""trial"",""time""
""fullscreenenter"",""1"",""1602""
","
","
","""event"",""trial"",""time""
""fullscreenenter"",""1"",""1602""
","
","","","1256.699999988079","","","21","8486","3803","p","elianto","#3366ff99","-1"," ","0","0","[2113.600000023842]","1","2","","","8486","98","5","2","win","no-go","0"
"pit-trial","217","1400244","0.0-103.0","battery-v0.2","","""event"",""trial"",""time""
""fullscreenenter"",""1"",""1602""
","
","
","""event"",""trial"",""time""
""fullscreenenter"",""1"",""1602""
","
","","","-1","","","21","8486","3803","g","elianto","#f73b6a7A"," ","-1","0","-10","[]","0","2","","","8486","99","6","3","lose","go","0"
"pit-trial","218","1405116","0.0-104.0","battery-v0.2","","""event"",""trial"",""time""
""fullscreenenter"",""1"",""1602""
","
","
","""event"",""trial"",""time""
""fullscreenenter"",""1"",""1602""
","
","","","-1","","","21","8486","3803","l","elianto","#3366ff99"," ","-1","0","+10","[2975]","1","2","","","8486","100","8","1","win","go","1"
"pit-trial","219","1408620","0.0-105.0","battery-v0.2","","""event"",""trial"",""time""
""fullscreenenter"",""1"",""1602""
","
","
","""event"",""trial"",""time""
""fullscreenenter"",""1"",""1602""
","
","","","639.0999999642372","","","21","8486","3803","l","elianto","#3366ff99"," "," ","1","+10","[1497.300000011921]","1","2","","","8486","101","8","1","win","go","0"
"pit-trial","220","1412283","0.0-106.0","battery-v0.2","","""event"",""trial"",""time""
""fullscreenenter"",""1"",""1602""
","
","
","""event"",""trial"",""time""
""fullscreenenter"",""1"",""1602""
","
","","","798.2000000476837","","","21","8486","3803","p","elianto","#3366ff99","-1"," ","0","0","[1654.1000000238419]","1","2","","","8486","102","5","2","win","no-go","0"
"pit-trial","221","1417147","0.0-107.0","battery-v0.2","","""event"",""trial"",""time""
""fullscreenenter"",""1"",""1602""
","
","
","""event"",""trial"",""time""
""fullscreenenter"",""1"",""1602""
","
","","","-1","","","21","8486","3803","a","elianto","#f73b6a7A","-1","-1","1","0","[]","0","2","","","8486","103","7","4","lose","no-go","0"
"pit-trial","222","1420769","0.0-108.0","battery-v0.2","","""event"",""trial"",""time""
""fullscreenenter"",""1"",""1602""
","
","
","""event"",""trial"",""time""
""fullscreenenter"",""1"",""1602""
","
","","","760.1999999880791","","","21","8486","3803","u","elianto","#3366ff99"," "," ","1","+10","[1617.5999999642372]","1","2","","","8486","104","9","1","win","go","0"
"pit-trial","223","1425361","0.0-109.0","battery-v0.2","","""event"",""trial"",""time""
""fullscreenenter"",""1"",""1602""
","
","
","""event"",""trial"",""time""
""fullscreenenter"",""1"",""1602""
","
","","","1734.2000000476837","","","21","8486","3803","s","elianto","#3366ff99"," "," ","1","+10","[2587.400000035763]","1","2","","","8486","105","4","1","win","go","0"
"pit-trial","224","1428864","0.0-110.0","battery-v0.2","","""event"",""trial"",""time""
""fullscreenenter"",""1"",""1602""
","
","
","""event"",""trial"",""time""
""fullscreenenter"",""1"",""1602""
","
","","","641.9000000357628","","","21","8486","3803","u","elianto","#3366ff99"," "," ","1","+10","[1498.3999999761581]","1","2","","","8486","106","9","1","win","go","0"
"pit-trial","225","1433729","0.0-111.0","battery-v0.2","","""event"",""trial"",""time""
""fullscreenenter"",""1"",""1602""
","
","
","""event"",""trial"",""time""
""fullscreenenter"",""1"",""1602""
","
","","","-1","","","21","8486","3803","g","elianto","#f73b6a7A"," ","-1","0","-10","[]","0","2","","","8486","107","6","3","lose","go","0"
"pit-trial","226","1437217","0.0-112.0","battery-v0.2","","""event"",""trial"",""time""
""fullscreenenter"",""1"",""1602""
","
","
","""event"",""trial"",""time""
""fullscreenenter"",""1"",""1602""
","
","","","625.5","","","21","8486","3803","l","elianto","#3366ff99"," "," ","1","+10","[1481.199999988079]","1","2","","","8486","108","8","1","win","go","0"
"pit-trial","227","1441099","0.0-113.0","battery-v0.2","","""event"",""trial"",""time""
""fullscreenenter"",""1"",""1602""
","
","
","""event"",""trial"",""time""
""fullscreenenter"",""1"",""1602""
","
","","","1019","","","21","8486","3803","p","elianto","#3366ff99","-1"," ","0","0","[1873.1000000238419]","1","2","","","8486","109","5","2","win","no-go","0"
"pit-trial","228","1444683","0.0-114.0","battery-v0.2","","""event"",""trial"",""time""
""fullscreenenter"",""1"",""1602""
","
","
","""event"",""trial"",""time""
""fullscreenenter"",""1"",""1602""
","
","","","711.6000000238419","","","21","8486","3803","l","elianto","#3366ff99"," "," ","1","+10","[1570.3999999761581]","1","2","","","8486","110","8","1","win","go","0"
"pit-trial","229","1449556","0.0-115.0","battery-v0.2","","""event"",""trial"",""time""
""fullscreenenter"",""1"",""1602""
","
","
","""event"",""trial"",""time""
""fullscreenenter"",""1"",""1602""
","
","","","-1","","","21","8486","3803","g","elianto","#f73b6a7A"," ","-1","0","-10","[]","0","2","","","8486","111","6","3","lose","go","0"
"pit-trial","230","1453539","0.0-116.0","battery-v0.2","","""event"",""trial"",""time""
""fullscreenenter"",""1"",""1602""
","
","
","""event"",""trial"",""time""
""fullscreenenter"",""1"",""1602""
","
","","","1112.300000011921","","","21","8486","3803","u","elianto","#3366ff99"," "," ","1","+10","[1970.5999999642372]","1","2","","","8486","112","9","1","win","go","0"
"pit-trial","231","1458411","0.0-117.0","battery-v0.2","","""event"",""trial"",""time""
""fullscreenenter"",""1"",""1602""
","
","
","""event"",""trial"",""time""
""fullscreenenter"",""1"",""1602""
","
","","","-1","","","21","8486","3803","g","elianto","#f73b6a7A"," ","-1","0","-10","[]","0","2","","","8486","113","6","3","lose","go","0"
"pit-trial","232","1463279","0.0-118.0","battery-v0.2","","""event"",""trial"",""time""
""fullscreenenter"",""1"",""1602""
","
","
","""event"",""trial"",""time""
""fullscreenenter"",""1"",""1602""
","
","","","-1","","","21","8486","3803","p","elianto","#3366ff99","-1","-1","1","+10","[]","0","2","","","8486","114","5","2","win","no-go","0"
"pit-trial","233","1466992","0.0-119.0","battery-v0.2","","""event"",""trial"",""time""
""fullscreenenter"",""1"",""1602""
","
","
","""event"",""trial"",""time""
""fullscreenenter"",""1"",""1602""
","
","","","845.6999999880791","","","21","8486","3803","l","elianto","#3366ff99"," "," ","1","+10","[1703.800000011921]","1","2","","","8486","115","8","1","win","go","0"
"pit-trial","234","1470722","0.0-120.0","battery-v0.2","","""event"",""trial"",""time""
""fullscreenenter"",""1"",""1602""
","
","
","""event"",""trial"",""time""
""fullscreenenter"",""1"",""1602""
","
","","","864.8000000119209","","","21","8486","3803","u","elianto","#3366ff99"," "," ","1","+10","[1721.2000000476837]","1","2","","","8486","116","9","1","win","go","0"
"pit-trial","235","1474315","0.0-121.0","battery-v0.2","","""event"",""trial"",""time""
""fullscreenenter"",""1"",""1602""
","
","
","""event"",""trial"",""time""
""fullscreenenter"",""1"",""1602""
","
","","","725.3999999761581","","","21","8486","3803","u","elianto","#3366ff99"," "," ","1","+10","[1580.0999999642372]","1","2","","","8486","117","9","1","win","go","0"
"pit-trial","236","1477722","0.0-122.0","battery-v0.2","","""event"",""trial"",""time""
""fullscreenenter"",""1"",""1602""
","
","
","""event"",""trial"",""time""
""fullscreenenter"",""1"",""1602""
","
","","","543.1000000238419","","","21","8486","3803","l","elianto","#3366ff99"," "," ","1","+10","[1400.699999988079]","1","2","","","8486","118","8","1","win","go","0"
"pit-trial","237","1482586","0.0-123.0","battery-v0.2","","""event"",""trial"",""time""
""fullscreenenter"",""1"",""1602""
","
","
","""event"",""trial"",""time""
""fullscreenenter"",""1"",""1602""
","
","","","-1","","","21","8486","3803","g","elianto","#f73b6a7A"," ","-1","0","-10","[]","0","2","","","8486","119","6","3","lose","go","0"
"pit-trial","238","1487451","0.0-124.0","battery-v0.2","","""event"",""trial"",""time""
""fullscreenenter"",""1"",""1602""
","
","
","""event"",""trial"",""time""
""fullscreenenter"",""1"",""1602""
","
","","","-1","","","21","8486","3803","p","elianto","#3366ff99","-1","-1","1","+10","[]","0","2","","","8486","120","5","2","win","no-go","0"
"pit-trial","239","1492322","0.0-125.0","battery-v0.2","","""event"",""trial"",""time""
""fullscreenenter"",""1"",""1602""
","
","
","""event"",""trial"",""time""
""fullscreenenter"",""1"",""1602""
","
","","","-1","","","21","8486","3803","a","elianto","#f73b6a7A","-1","-1","1","-10","[]","0","2","","","8486","121","7","4","lose","no-go","1"
"pit-trial","240","1495824","0.0-126.0","battery-v0.2","","""event"",""trial"",""time""
""fullscreenenter"",""1"",""1602""
","
","
","""event"",""trial"",""time""
""fullscreenenter"",""1"",""1602""
","
","","","641.1000000238419","","","21","8486","3803","u","elianto","#3366ff99"," "," ","1","+10","[1495.9000000357628]","1","2","","","8486","122","9","1","win","go","0"
"pit-trial","241","1499291","0.0-127.0","battery-v0.2","","""event"",""trial"",""time""
""fullscreenenter"",""1"",""1602""
","
","
","""event"",""trial"",""time""
""fullscreenenter"",""1"",""1602""
","
","","","600.8999999761581","","","21","8486","3803","l","elianto","#3366ff99"," "," ","1","+10","[1454.1000000238419]","1","2","","","8486","123","8","1","win","go","0"
"pit-trial","242","1503183","0.0-128.0","battery-v0.2","","""event"",""trial"",""time""
""fullscreenenter"",""1"",""1602""
","
","
","""event"",""trial"",""time""
""fullscreenenter"",""1"",""1602""
","
","","","1021.4000000357628","","","21","8486","3803","g","elianto","#f73b6a7A"," "," ","1","0","[1883.300000011921]","1","2","","","8486","124","6","3","lose","go","0"
"pit-trial","243","1506656","0.0-129.0","battery-v0.2","","""event"",""trial"",""time""
""fullscreenenter"",""1"",""1602""
","
","
","""event"",""trial"",""time""
""fullscreenenter"",""1"",""1602""
","
","","","615.1000000238419","","","21","8486","3803","l","elianto","#3366ff99"," "," ","1","+10","[1466.2999999523163]","1","2","","","8486","125","8","1","win","go","0"
"pit-trial","244","1510128","0.0-130.0","battery-v0.2","","""event"",""trial"",""time""
""fullscreenenter"",""1"",""1602""
","
","
","""event"",""trial"",""time""
""fullscreenenter"",""1"",""1602""
","
","","","605.1000000238419","","","21","8486","3803","g","elianto","#f73b6a7A"," "," ","1","0","[1461.5]","1","2","","","8486","126","6","3","lose","go","0"
"pit-trial","245","1514992","0.0-131.0","battery-v0.2","","""event"",""trial"",""time""
""fullscreenenter"",""1"",""1602""
","
","
","""event"",""trial"",""time""
""fullscreenenter"",""1"",""1602""
","
","","","-1","","","21","8486","3803","a","elianto","#f73b6a7A","-1","-1","1","-10","[]","0","2","","","8486","127","7","4","lose","no-go","1"
"pit-trial","246","1518443","0.0-132.0","battery-v0.2","","""event"",""trial"",""time""
""fullscreenenter"",""1"",""1602""
","
","
","""event"",""trial"",""time""
""fullscreenenter"",""1"",""1602""
","
","","","582.3999999761581","","","21","8486","3803","u","elianto","#3366ff99"," "," ","1","0","[1438.800000011921]","1","2","","","8486","128","9","1","win","go","1"
"pit-trial","247","1523306","0.0-133.0","battery-v0.2","","""event"",""trial"",""time""
""fullscreenenter"",""1"",""1602""
","
","
","""event"",""trial"",""time""
""fullscreenenter"",""1"",""1602""
","
","","","-1","","","21","8486","3803","a","elianto","#f73b6a7A","-1","-1","1","0","[]","0","2","","","8486","129","7","4","lose","no-go","0"
"pit-trial","248","1526848","0.0-134.0","battery-v0.2","","""event"",""trial"",""time""
""fullscreenenter"",""1"",""1602""
","
","
","""event"",""trial"",""time""
""fullscreenenter"",""1"",""1602""
","
","","","678.3999999761581","","","21","8486","3803","l","elianto","#3366ff99"," "," ","1","+10","[1530.1000000238419]","1","2","","","8486","130","8","1","win","go","0"
"pit-trial","249","1531712","0.0-135.0","battery-v0.2","","""event"",""trial"",""time""
""fullscreenenter"",""1"",""1602""
","
","
","""event"",""trial"",""time""
""fullscreenenter"",""1"",""1602""
","
","","","-1","","","21","8486","3803","u","elianto","#3366ff99"," ","-1","0","0","[3012.099999964237]","1","2","","","8486","131","9","1","win","go","0"
"pit-trial","250","1536575","0.0-136.0","battery-v0.2","","""event"",""trial"",""time""
""fullscreenenter"",""1"",""1602""
","
","
","""event"",""trial"",""time""
""fullscreenenter"",""1"",""1602""
","
","","","-1","","","21","8486","3803","g","elianto","#f73b6a7A"," ","-1","0","0","[]","0","2","","","8486","132","6","3","lose","go","1"
"pit-trial","251","1540048","0.0-137.0","battery-v0.2","","""event"",""trial"",""time""
""fullscreenenter"",""1"",""1602""
","
","
","""event"",""trial"",""time""
""fullscreenenter"",""1"",""1602""
","
","","","605.6999999880791","","","21","8486","3803","u","elianto","#3366ff99"," "," ","1","+10","[1462.699999988079]","1","2","","","8486","133","9","1","win","go","0"
"pit-trial","252","1544912","0.0-138.0","battery-v0.2","","""event"",""trial"",""time""
""fullscreenenter"",""1"",""1602""
","
","
","""event"",""trial"",""time""
""fullscreenenter"",""1"",""1602""
","
","","","-1","","","21","8486","3803","a","elianto","#f73b6a7A","-1","-1","1","0","[]","0","2","","","8486","134","7","4","lose","no-go","0"
"pit-trial","253","1548387","0.0-139.0","battery-v0.2","","""event"",""trial"",""time""
""fullscreenenter"",""1"",""1602""
","
","
","""event"",""trial"",""time""
""fullscreenenter"",""1"",""1602""
","
","","","605.5999999642372","","","21","8486","3803","l","elianto","#3366ff99"," "," ","1","+10","[1461.9000000357628]","1","2","","","8486","135","8","1","win","go","0"
"pit-trial","254","1552815","0.0-140.0","battery-v0.2","","""event"",""trial"",""time""
""fullscreenenter"",""1"",""1602""
","
","
","""event"",""trial"",""time""
""fullscreenenter"",""1"",""1602""
","
","","","1560.800000011921","","","21","8486","3803","g","elianto","#f73b6a7A"," "," ","1","-10","[2418.5]","1","2","","","8486","136","6","3","lose","go","1"
"pit-trial","255","1557679","0.0-141.0","battery-v0.2","","""event"",""trial"",""time""
""fullscreenenter"",""1"",""1602""
","
","
","""event"",""trial"",""time""
""fullscreenenter"",""1"",""1602""
","
","","","-1","","","21","8486","3803","u","elianto","#3366ff99"," ","-1","0","+10","[4616]","1","2","","","8486","137","9","1","win","go","1"
"pit-trial","256","1562543","0.0-142.0","battery-v0.2","","""event"",""trial"",""time""
""fullscreenenter"",""1"",""1602""
","
","
","""event"",""trial"",""time""
""fullscreenenter"",""1"",""1602""
","
","","","-1","","","21","8486","3803","a","elianto","#f73b6a7A","-1","-1","1","0","[]","0","2","","","8486","138","7","4","lose","no-go","0"
"pit-trial","257","1566320","0.0-143.0","battery-v0.2","","""event"",""trial"",""time""
""fullscreenenter"",""1"",""1602""
","
","
","""event"",""trial"",""time""
""fullscreenenter"",""1"",""1602""
","
","","","913","","","21","8486","3803","g","elianto","#f73b6a7A"," "," ","1","0","[1770.6000000238419]","1","2","","","8486","139","6","3","lose","go","0"
"pit-trial","258","1570281","0.0-144.0","battery-v0.2","","""event"",""trial"",""time""
""fullscreenenter"",""1"",""1602""
""blur"",""259"",""1722277""
""focus"",""259"",""1757766""
""blur"",""259"",""1760380""
""focus"",""259"",""1801052""
","""event"",""trial"",""time""
""blur"",""259"",""1722277""
""blur"",""259"",""1760380""
","""event"",""trial"",""time""
""focus"",""259"",""1757766""
""focus"",""259"",""1801052""
","""event"",""trial"",""time""
""fullscreenenter"",""1"",""1602""
","
","","","1100","","","21","8486","3803","l","elianto","#3366ff99"," "," ","1","+10","[1955]","1","2","","","8486","140","8","1","win","go","0"
"pit-instructions","259","1811768","0.0-145.0","battery-v0.2","","""event"",""trial"",""time""
""fullscreenenter"",""1"",""1602""
""blur"",""259"",""1722277""
""focus"",""259"",""1757766""
""blur"",""259"",""1760380""
""focus"",""259"",""1801052""
","""event"",""trial"",""time""
""blur"",""259"",""1722277""
""blur"",""259"",""1760380""
","""event"",""trial"",""time""
""focus"",""259"",""1757766""
""focus"",""259"",""1801052""
","""event"",""trial"",""time""
""fullscreenenter"",""1"",""1602""
","
","","[{""page_index"":0,""viewing_time"":232322.69999998808},{""page_index"":1,""viewing_time"":9163.5}]","241486.39999997616","","","","","","","","","","","","","","","","","","","","","","","",""
"pit-trial","260","1816637","0.0-146.0","battery-v0.2","","""event"",""trial"",""time""
""fullscreenenter"",""1"",""1602""
""blur"",""259"",""1722277""
""focus"",""259"",""1757766""
""blur"",""259"",""1760380""
""focus"",""259"",""1801052""
","""event"",""trial"",""time""
""blur"",""259"",""1722277""
""blur"",""259"",""1760380""
","""event"",""trial"",""time""
""focus"",""259"",""1757766""
""focus"",""259"",""1801052""
","""event"",""trial"",""time""
""fullscreenenter"",""1"",""1602""
","
","","","-1","","","21","8486","3803","t","elianto","#f73b6a7A","-1","-1","1","-10","[2961.099999964237]","1","3","","","8486","141","2","4","lose","no-go","1"
"pit-trial","261","1820305","0.0-147.0","battery-v0.2","","""event"",""trial"",""time""
""fullscreenenter"",""1"",""1602""
""blur"",""259"",""1722277""
""focus"",""259"",""1757766""
""blur"",""259"",""1760380""
""focus"",""259"",""1801052""
","""event"",""trial"",""time""
""blur"",""259"",""1722277""
""blur"",""259"",""1760380""
","""event"",""trial"",""time""
""focus"",""259"",""1757766""
""focus"",""259"",""1801052""
","""event"",""trial"",""time""
""fullscreenenter"",""1"",""1602""
","
","","","796.0999999642372","","","21","8486","3803","f","elianto","#3366ff99"," "," ","1","+10","[1653.0999999642372]","1","3","","","8486","142","1","1","win","go","0"
"pit-trial","262","1823448","0.0-148.0","battery-v0.2","","""event"",""trial"",""time""
""fullscreenenter"",""1"",""1602""
""blur"",""259"",""1722277""
""focus"",""259"",""1757766""
""blur"",""259"",""1760380""
""focus"",""259"",""1801052""
","""event"",""trial"",""time""
""blur"",""259"",""1722277""
""blur"",""259"",""1760380""
","""event"",""trial"",""time""
""focus"",""259"",""1757766""
""focus"",""259"",""1801052""
","""event"",""trial"",""time""
""fullscreenenter"",""1"",""1602""
","
","","","277.39999997615814","","","21","8486","3803","b","elianto","#f73b6a7A"," "," ","1","-10","[1136]","1","3","","","8486","143","3","3","lose","go","1"
"pit-trial","263","1826848","0.0-149.0","battery-v0.2","","""event"",""trial"",""time""
""fullscreenenter"",""1"",""1602""
""blur"",""259"",""1722277""
""focus"",""259"",""1757766""
