"trial_type","trial_index","time_elapsed","internal_node_id","task_version","subject_id","interactions","blur_events","focus_events","fullscreenenter_events","fullscreenexit_events","success","view_history","rt","responses","num_errors","age","subject","participantId","rune","rune_set","hex","correct","choice","accuracy","outcome","keys","total_keys","block","practice","value","sub","trial","stimulus","robot","valence","action","sham"
"pavlovia","0","30","0.0-0.0","battery-v0.2","","""event"",""trial"",""time""
""fullscreenenter"",""1"",""6346""
","
","
","""event"",""trial"",""time""
""fullscreenenter"",""1"",""6346""
","
","","","","","","","","","","","","","","","","","","","","","","","","","","",""
"fullscreen","1","7320","0.0-1.0","battery-v0.2","","""event"",""trial"",""time""
""fullscreenenter"",""1"",""6346""
","
","
","""event"",""trial"",""time""
""fullscreenenter"",""1"",""6346""
","
","true","","","","","","","","","","","","","","","","","","","","","","","","","",""
"pit-instructions","2","40248","0.0-2.0-0.0","battery-v0.2","","""event"",""trial"",""time""
""fullscreenenter"",""1"",""6346""
","
","
","""event"",""trial"",""time""
""fullscreenenter"",""1"",""6346""
","
","","[{""page_index"":0,""viewing_time"":32915.199999809265}]","32917.10000038147","","","","","","","","","","","","","","","","","","","","","","","",""
"pit-comprehension","3","68882","0.0-2.0-1.0-0.0","battery-v0.2","","""event"",""trial"",""time""
""fullscreenenter"",""1"",""6346""
","
","
","""event"",""trial"",""time""
""fullscreenenter"",""1"",""6346""
","
","","","28620.5","[""tiger""]","1","17","4152","937","","","","","","","","","","","","","","","","","","",""
"pit-instructions","4","74001","0.0-2.0-1.0-1.0","battery-v0.2","","""event"",""trial"",""time""
""fullscreenenter"",""1"",""6346""
","
","
","""event"",""trial"",""time""
""fullscreenenter"",""1"",""6346""
","
","","[{""page_index"":0,""viewing_time"":5087.599999427795}]","5088.199999809265","","","","","","","","","","","","","","","","","","","","","","","",""
"pit-instructions","5","77289","0.0-2.0-1.0-2.0-0.0","battery-v0.2","","""event"",""trial"",""time""
""fullscreenenter"",""1"",""6346""
","
","
","""event"",""trial"",""time""
""fullscreenenter"",""1"",""6346""
","
","","[{""page_index"":0,""viewing_time"":3283.800000190735}]","3284.300000190735","","","","","","","","","","","","","","","","","","","","","","","",""
"pit-comprehension","6","94832","0.0-2.0-1.1-0.1","battery-v0.2","","""event"",""trial"",""time""
""fullscreenenter"",""1"",""6346""
","
","
","""event"",""trial"",""time""
""fullscreenenter"",""1"",""6346""
","
","","","17537.5","[""shark""]","0","17","4152","937","","","","","","","","","","","","","","","","","","",""
"pit-instructions","7","99468","0.0-2.0-1.1-1.1","battery-v0.2","","""event"",""trial"",""time""
""fullscreenenter"",""1"",""6346""
","
","
","""event"",""trial"",""time""
""fullscreenenter"",""1"",""6346""
","
","","[{""page_index"":0,""viewing_time"":4627.5}]","4628.299999237061","","","","","","","","","","","","","","","","","","","","","","","",""
"pit-comprehension","8","122555","0.0-2.0-2.0-0.0","battery-v0.2","","""event"",""trial"",""time""
""fullscreenenter"",""1"",""6346""
","
","
","""event"",""trial"",""time""
""fullscreenenter"",""1"",""6346""
","
","","","23074.800000190735","[""tiger""]","0","17","4152","937","","","","","","","","","","","","","","","","","","",""
"pit-instructions","9","124360","0.0-2.0-2.0-1.0","battery-v0.2","","""event"",""trial"",""time""
""fullscreenenter"",""1"",""6346""
","
","
","""event"",""trial"",""time""
""fullscreenenter"",""1"",""6346""
","
","","[{""page_index"":0,""viewing_time"":1795.5}]","1796.1999998092651","","","","","","","","","","","","","","","","","","","","","","","",""
"pit-instructions","10","247539","0.0-2.0-3.0","battery-v0.2","","""event"",""trial"",""time""
""fullscreenenter"",""1"",""6346""
","
","
","""event"",""trial"",""time""
""fullscreenenter"",""1"",""6346""
","
","","[{""page_index"":0,""viewing_time"":11613.699999809265},{""page_index"":1,""viewing_time"":8806},{""page_index"":2,""viewing_time"":7268.400000572205},{""page_index"":3,""viewing_time"":7677.699999809265},{""page_index"":4,""viewing_time"":8221.199999809265},{""page_index"":5,""viewing_time"":8608.900000572205},{""page_index"":6,""viewing_time"":9727.29999923706},{""page_index"":7,""viewing_time"":9634.900000572205},{""page_index"":8,""viewing_time"":9787.599999427795},{""page_index"":9,""viewing_time"":11306.20000076294},{""page_index"":10,""viewing_time"":7972.699999809265},{""page_index"":11,""viewing_time"":9272.39999961853},{""page_index"":12,""viewing_time"":7113},{""page_index"":13,""viewing_time"":6161.5}]","123172.19999980927","","","","","","","","","","","","","","","","","","","","","","","",""
"pit-trial","11","251376","0.0-2.0-4.0-0.0","battery-v0.2","","""event"",""trial"",""time""
""fullscreenenter"",""1"",""6346""
","
","
","""event"",""trial"",""time""
""fullscreenenter"",""1"",""6346""
","
","","","964.8000001907349","","","17","4152","937","&#9784;","elianto","#FFFFF080"," "," ","1","&#10004","[1826.1000003814697,3808.6000003814697]","2","0","0","","","","","","","",""
"pit-trial","12","255890","0.0-2.0-4.1-0.1","battery-v0.2","","""event"",""trial"",""time""
""fullscreenenter"",""1"",""6346""
","
","
","""event"",""trial"",""time""
""fullscreenenter"",""1"",""6346""
","
","","","1648.7000007629395","","","17","4152","937","&#9784;","elianto","#FFFFF080"," "," ","1","&#10004","[2498.699999809265]","1","0","0","","","","","","","",""
"pit-trial","13","259490","0.0-2.0-4.2-0.2","battery-v0.2","","""event"",""trial"",""time""
""fullscreenenter"",""1"",""6346""
","
","
","""event"",""trial"",""time""
""fullscreenenter"",""1"",""6346""
","
","","","724.3000001907349","","","17","4152","937","&#9784;","elianto","#FFFFF080"," "," ","1","&#10004","[1581.4000005722046]","1","0","0","","","","","","","",""
"pit-trial","14","262955","0.0-2.0-4.3-0.3","battery-v0.2","","""event"",""trial"",""time""
""fullscreenenter"",""1"",""6346""
","
","
","""event"",""trial"",""time""
""fullscreenenter"",""1"",""6346""
","
","","","596.6000003814697","","","17","4152","937","&#9784;","elianto","#FFFFF080"," "," ","1","&#10004","[1453.7000007629395]","1","0","0","","","","","","","",""
"pit-trial","15","267058","0.0-2.0-4.4-0.4","battery-v0.2","","""event"",""trial"",""time""
""fullscreenenter"",""1"",""6346""
","
","
","""event"",""trial"",""time""
""fullscreenenter"",""1"",""6346""
","
","","","1218.6999998092651","","","17","4152","937","&#9784;","elianto","#FFFFF080"," "," ","1","&#10004","[2074]","1","0","0","","","","","","","",""
"pit-instructions","16","296175","0.0-2.0-5.0","battery-v0.2","","""event"",""trial"",""time""
""fullscreenenter"",""1"",""6346""
","
","
","""event"",""trial"",""time""
""fullscreenenter"",""1"",""6346""
","
","","[{""page_index"":0,""viewing_time"":5668.800000190735},{""page_index"":1,""viewing_time"":10310.60000038147},{""page_index"":2,""viewing_time"":6895.099999427795},{""page_index"":3,""viewing_time"":6237.699999809265}]","29113","","","","","","","","","","","","","","","","","","","","","","","",""
"pit-trial","17","301048","0.0-2.0-6.0-0.0","battery-v0.2","","""event"",""trial"",""time""
""fullscreenenter"",""1"",""6346""
","
","
","""event"",""trial"",""time""
""fullscreenenter"",""1"",""6346""
","
","","","-1","","","17","4152","937","&#9854;","elianto","#FFFFF080","-1","-1","1","&#10004","[]","0","0","1","","","","","","","",""
"pit-trial","18","305934","0.0-2.0-6.1-0.1","battery-v0.2","","""event"",""trial"",""time""
""fullscreenenter"",""1"",""6346""
","
","
","""event"",""trial"",""time""
""fullscreenenter"",""1"",""6346""
","
","","","-1","","","17","4152","937","&#9854;","elianto","#FFFFF080","-1","-1","1","&#10004","[]","0","0","1","","","","","","","",""
"pit-trial","19","310806","0.0-2.0-6.2-0.2","battery-v0.2","","""event"",""trial"",""time""
""fullscreenenter"",""1"",""6346""
","
","
","""event"",""trial"",""time""
""fullscreenenter"",""1"",""6346""
","
","","","-1","","","17","4152","937","&#9854;","elianto","#FFFFF080","-1","-1","1","&#10004","[]","0","0","1","","","","","","","",""
"pit-trial","20","315688","0.0-2.0-6.3-0.3","battery-v0.2","","""event"",""trial"",""time""
""fullscreenenter"",""1"",""6346""
","
","
","""event"",""trial"",""time""
""fullscreenenter"",""1"",""6346""
","
","","","-1","","","17","4152","937","&#9854;","elianto","#FFFFF080","-1","-1","1","&#10004","[]","0","0","1","","","","","","","",""
"pit-trial","21","320569","0.0-2.0-6.4-0.4","battery-v0.2","","""event"",""trial"",""time""
""fullscreenenter"",""1"",""6346""
","
","
","""event"",""trial"",""time""
""fullscreenenter"",""1"",""6346""
","
","","","-1","","","17","4152","937","&#9854;","elianto","#FFFFF080","-1","-1","1","&#10004","[]","0","0","1","","","","","","","",""
"pit-instructions","22","485509","0.0-2.0-7.0","battery-v0.2","","""event"",""trial"",""time""
""fullscreenenter"",""1"",""6346""
","
","
","""event"",""trial"",""time""
""fullscreenenter"",""1"",""6346""
","
","","[{""page_index"":0,""viewing_time"":6337.10000038147},{""page_index"":1,""viewing_time"":8857},{""page_index"":2,""viewing_time"":10071.599999427795},{""page_index"":3,""viewing_time"":7988.900000572205},{""page_index"":4,""viewing_time"":6994.199999809265},{""page_index"":5,""viewing_time"":7283.699999809265},{""page_index"":6,""viewing_time"":7121.5},{""page_index"":7,""viewing_time"":10742.60000038147},{""page_index"":8,""viewing_time"":11158.099999427795},{""page_index"":9,""viewing_time"":9979.699999809265},{""page_index"":10,""viewing_time"":8468.900000572205},{""page_index"":11,""viewing_time"":6486.300000190735},{""page_index"":12,""viewing_time"":9408.39999961853},{""page_index"":13,""viewing_time"":12302},{""page_index"":14,""viewing_time"":13404},{""page_index"":15,""viewing_time"":9230.39999961853},{""page_index"":16,""viewing_time"":9372.900000572205},{""page_index"":17,""viewing_time"":9726.89999961853}]","164935.60000038147","","","","","","","","","","","","","","","","","","","","","","","",""
"pit-trial","23","489488","0.0-2.0-8.0-0.0","battery-v0.2","","""event"",""trial"",""time""
""fullscreenenter"",""1"",""6346""
","
","
","""event"",""trial"",""time""
""fullscreenenter"",""1"",""6346""
","
","","","1104.7999992370605","","","17","4152","937","&#9776;","elianto","#3366ff99"," "," ","1","+10","[1958.1999998092651]","1","0","1","","","","","","","",""
"pit-trial","24","493286","0.0-2.0-8.0-1.0","battery-v0.2","","""event"",""trial"",""time""
""fullscreenenter"",""1"",""6346""
","
","
","""event"",""trial"",""time""
""fullscreenenter"",""1"",""6346""
","
","","","933.1999998092651","","","17","4152","937","&#9776;","elianto","#3366ff99"," "," ","1","+10","[1785.2000007629395]","1","0","1","","","","","","","",""
"pit-trial","25","497147","0.0-2.0-8.0-2.0","battery-v0.2","","""event"",""trial"",""time""
""fullscreenenter"",""1"",""6346""
","
","
","""event"",""trial"",""time""
""fullscreenenter"",""1"",""6346""
","
","","","987.3000001907349","","","17","4152","937","&#9776;","elianto","#3366ff99"," "," ","1","+10","[1840.8000001907349]","1","0","1","","","","","","","",""
"pit-trial","26","500905","0.0-2.0-8.0-3.0","battery-v0.2","","""event"",""trial"",""time""
""fullscreenenter"",""1"",""6346""
","
","
","""event"",""trial"",""time""
""fullscreenenter"",""1"",""6346""
","
","","","892.4000005722046","","","17","4152","937","&#9776;","elianto","#3366ff99"," "," ","1","0","[1744.6999998092651]","1","0","1","","","","","","","",""
"pit-trial","27","504561","0.0-2.0-8.0-4.0","battery-v0.2","","""event"",""trial"",""time""
""fullscreenenter"",""1"",""6346""
","
","
","""event"",""trial"",""time""
""fullscreenenter"",""1"",""6346""
","
","","","792.3999996185303","","","17","4152","937","&#9776;","elianto","#3366ff99"," "," ","1","+10","[1646.1999998092651]","1","0","1","","","","","","","",""
"pit-trial","28","508115","0.0-2.0-8.1-0.1","battery-v0.2","","""event"",""trial"",""time""
""fullscreenenter"",""1"",""6346""
","
","
","""event"",""trial"",""time""
""fullscreenenter"",""1"",""6346""
","
","","","673.8999996185303","","","17","4152","937","&#9776;","elianto","#3366ff99"," "," ","1","+10","[1530.3999996185303]","1","0","1","","","","","","","",""
"pit-trial","29","511529","0.0-2.0-8.1-1.1","battery-v0.2","","""event"",""trial"",""time""
""fullscreenenter"",""1"",""6346""
","
","
","""event"",""trial"",""time""
""fullscreenenter"",""1"",""6346""
","
","","","544.8000001907349","","","17","4152","937","&#9776;","elianto","#3366ff99"," "," ","1","+10","[1398.8000001907349]","1","0","1","","","","","","","",""
"pit-trial","30","515185","0.0-2.0-8.1-2.1","battery-v0.2","","""event"",""trial"",""time""
""fullscreenenter"",""1"",""6346""
","
","
","""event"",""trial"",""time""
""fullscreenenter"",""1"",""6346""
","
","","","793.2999992370605","","","17","4152","937","&#9776;","elianto","#3366ff99"," "," ","1","+10","[1646.1999998092651]","1","0","1","","","","","","","",""
"pit-trial","31","518747","0.0-2.0-8.1-3.1","battery-v0.2","","""event"",""trial"",""time""
""fullscreenenter"",""1"",""6346""
","
","
","""event"",""trial"",""time""
""fullscreenenter"",""1"",""6346""
","
","","","685.8999996185303","","","17","4152","937","&#9776;","elianto","#3366ff99"," "," ","1","0","[1546.1999998092651]","1","0","1","","","","","","","",""
"pit-trial","32","522871","0.0-2.0-8.1-4.1","battery-v0.2","","""event"",""trial"",""time""
""fullscreenenter"",""1"",""6346""
","
","
","""event"",""trial"",""time""
""fullscreenenter"",""1"",""6346""
","
","","","1251.1000003814697","","","17","4152","937","&#9776;","elianto","#3366ff99"," "," ","1","+10","[2112]","1","0","1","","","","","","","",""
"pit-trial","33","526262","0.0-2.0-8.2-0.2","battery-v0.2","","""event"",""trial"",""time""
""fullscreenenter"",""1"",""6346""
","
","
","""event"",""trial"",""time""
""fullscreenenter"",""1"",""6346""
","
","","","525.1000003814697","","","17","4152","937","&#9776;","elianto","#3366ff99"," "," ","1","+10","[1378.5,3221.199999809265]","2","0","1","","","","","","","",""
"pit-trial","34","529548","0.0-2.0-8.2-1.2","battery-v0.2","","""event"",""trial"",""time""
""fullscreenenter"",""1"",""6346""
","
","
","""event"",""trial"",""time""
""fullscreenenter"",""1"",""6346""
","
","","","419.8999996185303","","","17","4152","937","&#9776;","elianto","#3366ff99"," "," ","1","+10","[1273.6000003814697,3140]","2","0","1","","","","","","","",""
"pit-trial","35","532854","0.0-2.0-8.2-2.2","battery-v0.2","","""event"",""trial"",""time""
""fullscreenenter"",""1"",""6346""
","
","
","""event"",""trial"",""time""
""fullscreenenter"",""1"",""6346""
","
","","","443.1000003814697","","","17","4152","937","&#9776;","elianto","#3366ff99"," "," ","1","+10","[1297.3000001907349,1928.0999994277954,2173.3999996185303]","3","0","1","","","","","","","",""
"pit-trial","36","537273","0.0-2.0-8.2-3.2","battery-v0.2","","""event"",""trial"",""time""
""fullscreenenter"",""1"",""6346""
","
","
","""event"",""trial"",""time""
""fullscreenenter"",""1"",""6346""
","
","","","1555.6999998092651","","","17","4152","937","&#9776;","elianto","#3366ff99"," "," ","1","0","[3.8000001907348633,2408.699999809265,3779]","3","0","1","","","","","","","",""
"pit-trial","37","540851","0.0-2.0-8.2-4.2","battery-v0.2","","""event"",""trial"",""time""
""fullscreenenter"",""1"",""6346""
","
","
","""event"",""trial"",""time""
""fullscreenenter"",""1"",""6346""
","
","","","714.6999998092651","","","17","4152","937","&#9776;","elianto","#3366ff99"," "," ","1","+10","[461.8999996185303,1565.8999996185303]","2","0","1","","","","","","","",""
"call-function","38","540855","0.0-2.0-9.0","battery-v0.2","","""event"",""trial"",""time""
""fullscreenenter"",""1"",""6346""
","
","
","""event"",""trial"",""time""
""fullscreenenter"",""1"",""6346""
","
","","","","","","","","","","","","","","","","","","","","","","","","","","",""
"pit-instructions","39","598783","0.0-2.0-10.0","battery-v0.2","","""event"",""trial"",""time""
""fullscreenenter"",""1"",""6346""
","
","
","""event"",""trial"",""time""
""fullscreenenter"",""1"",""6346""
","
","","[{""page_index"":0,""viewing_time"":6759.60000038147},{""page_index"":1,""viewing_time"":11731.199999809265},{""page_index"":2,""viewing_time"":15881.5},{""page_index"":3,""viewing_time"":12978.699999809265},{""page_index"":4,""viewing_time"":10571.5}]","57923.10000038147","","","","","","","","","","","","","","","","","","","","","","","",""
"pit-trial","40","602917","0.0-2.0-11.0-0.0","battery-v0.2","","""event"",""trial"",""time""
""fullscreenenter"",""1"",""6346""
","
","
","""event"",""trial"",""time""
""fullscreenenter"",""1"",""6346""
","
","","","1272.5","","","17","4152","937","&#9761;","elianto","#3366ff99","-1"," ","0","0","[2127.9000005722046]","1","0","2","","","","","","","",""
"pit-trial","41","606526","0.0-2.0-11.0-1.0","battery-v0.2","","""event"",""trial"",""time""
""fullscreenenter"",""1"",""6346""
","
","
","""event"",""trial"",""time""
""fullscreenenter"",""1"",""6346""
","
","","","734.5999994277954","","","17","4152","937","&#9761;","elianto","#3366ff99","-1"," ","0","0","[1585.4000005722046]","1","0","2","","","","","","","",""
"pit-trial","42","611408","0.0-2.0-11.0-2.0","battery-v0.2","","""event"",""trial"",""time""
""fullscreenenter"",""1"",""6346""
","
","
","""event"",""trial"",""time""
""fullscreenenter"",""1"",""6346""
","
","","","-1","","","17","4152","937","&#9761;","elianto","#3366ff99","-1","-1","1","+10","[]","0","0","2","","","","","","","",""
"pit-trial","43","616296","0.0-2.0-11.0-3.0","battery-v0.2","","""event"",""trial"",""time""
""fullscreenenter"",""1"",""6346""
","
","
","""event"",""trial"",""time""
""fullscreenenter"",""1"",""6346""
","
","","","-1","","","17","4152","937","&#9761;","elianto","#3366ff99","-1","-1","1","0","[]","0","0","2","","","","","","","",""
"pit-trial","44","621166","0.0-2.0-11.0-4.0","battery-v0.2","","""event"",""trial"",""time""
""fullscreenenter"",""1"",""6346""
","
","
","""event"",""trial"",""time""
""fullscreenenter"",""1"",""6346""
","
","","","-1","","","17","4152","937","&#9761;","elianto","#3366ff99","-1","-1","1","+10","[]","0","0","2","","","","","","","",""
"pit-trial","45","626046","0.0-2.0-11.1-0.1","battery-v0.2","","""event"",""trial"",""time""
""fullscreenenter"",""1"",""6346""
","
","
","""event"",""trial"",""time""
""fullscreenenter"",""1"",""6346""
","
","","","-1","","","17","4152","937","&#9761;","elianto","#3366ff99","-1","-1","1","+10","[]","0","0","2","","","","","","","",""
"pit-trial","46","630930","0.0-2.0-11.1-1.1","battery-v0.2","","""event"",""trial"",""time""
""fullscreenenter"",""1"",""6346""
","
","
","""event"",""trial"",""time""
""fullscreenenter"",""1"",""6346""
","
","","","-1","","","17","4152","937","&#9761;","elianto","#3366ff99","-1","-1","1","+10","[]","0","0","2","","","","","","","",""
"pit-trial","47","635796","0.0-2.0-11.1-2.1","battery-v0.2","","""event"",""trial"",""time""
""fullscreenenter"",""1"",""6346""
","
","
","""event"",""trial"",""time""
""fullscreenenter"",""1"",""6346""
","
","","","-1","","","17","4152","937","&#9761;","elianto","#3366ff99","-1","-1","1","+10","[]","0","0","2","","","","","","","",""
"pit-trial","48","640672","0.0-2.0-11.1-3.1","battery-v0.2","","""event"",""trial"",""time""
""fullscreenenter"",""1"",""6346""
","
","
","""event"",""trial"",""time""
""fullscreenenter"",""1"",""6346""
","
","","","-1","","","17","4152","937","&#9761;","elianto","#3366ff99","-1","-1","1","0","[]","0","0","2","","","","","","","",""
"pit-trial","49","645542","0.0-2.0-11.1-4.1","battery-v0.2","","""event"",""trial"",""time""
""fullscreenenter"",""1"",""6346""
","
","
","""event"",""trial"",""time""
""fullscreenenter"",""1"",""6346""
","
","","","-1","","","17","4152","937","&#9761;","elianto","#3366ff99","-1","-1","1","+10","[]","0","0","2","","","","","","","",""
"pit-trial","50","650409","0.0-2.0-11.2-0.2","battery-v0.2","","""event"",""trial"",""time""
""fullscreenenter"",""1"",""6346""
","
","
","""event"",""trial"",""time""
""fullscreenenter"",""1"",""6346""
","
","","","-1","","","17","4152","937","&#9761;","elianto","#3366ff99","-1","-1","1","+10","[]","0","0","2","","","","","","","",""
"pit-trial","51","655279","0.0-2.0-11.2-1.2","battery-v0.2","","""event"",""trial"",""time""
""fullscreenenter"",""1"",""6346""
","
","
","""event"",""trial"",""time""
""fullscreenenter"",""1"",""6346""
","
","","","-1","","","17","4152","937","&#9761;","elianto","#3366ff99","-1","-1","1","+10","[]","0","0","2","","","","","","","",""
"pit-trial","52","660147","0.0-2.0-11.2-2.2","battery-v0.2","","""event"",""trial"",""time""
""fullscreenenter"",""1"",""6346""
","
","
","""event"",""trial"",""time""
""fullscreenenter"",""1"",""6346""
","
","","","-1","","","17","4152","937","&#9761;","elianto","#3366ff99","-1","-1","1","+10","[]","0","0","2","","","","","","","",""
"pit-trial","53","663440","0.0-2.0-11.2-3.2","battery-v0.2","","""event"",""trial"",""time""
""fullscreenenter"",""1"",""6346""
","
","
","""event"",""trial"",""time""
""fullscreenenter"",""1"",""6346""
","
","","","428.19999980926514","","","17","4152","937","&#9761;","elianto","#3366ff99","-1"," ","0","+10","[1287.5]","1","0","2","","","","","","","",""
"pit-trial","54","668310","0.0-2.0-11.2-4.2","battery-v0.2","","""event"",""trial"",""time""
""fullscreenenter"",""1"",""6346""
","
","
","""event"",""trial"",""time""
""fullscreenenter"",""1"",""6346""
","
","","","-1","","","17","4152","937","&#9761;","elianto","#3366ff99","-1","-1","1","+10","[]","0","0","2","","","","","","","",""
"pit-trial","55","672296","0.0-2.0-11.3-0.3","battery-v0.2","","""event"",""trial"",""time""
""fullscreenenter"",""1"",""6346""
","
","
","""event"",""trial"",""time""
""fullscreenenter"",""1"",""6346""
","
","","","1122.3000001907349","","","17","4152","937","&#9761;","elianto","#3366ff99","-1"," ","0","0","[1975.5]","1","0","2","","","","","","","",""
"pit-trial","56","677163","0.0-2.0-11.3-1.3","battery-v0.2","","""event"",""trial"",""time""
""fullscreenenter"",""1"",""6346""
","
","
","""event"",""trial"",""time""
""fullscreenenter"",""1"",""6346""
","
","","","-1","","","17","4152","937","&#9761;","elianto","#3366ff99","-1","-1","1","+10","[]","0","0","2","","","","","","","",""
"pit-trial","57","681330","0.0-2.0-11.3-2.3","battery-v0.2","","""event"",""trial"",""time""
""fullscreenenter"",""1"",""6346""
","
","
","""event"",""trial"",""time""
""fullscreenenter"",""1"",""6346""
","
","","","1295.1000003814697","","","17","4152","937","&#9761;","elianto","#3366ff99","-1"," ","0","0","[2156.300000190735]","1","0","2","","","","","","","",""
"pit-trial","58","686200","0.0-2.0-11.3-3.3","battery-v0.2","","""event"",""trial"",""time""
""fullscreenenter"",""1"",""6346""
","
","
","""event"",""trial"",""time""
""fullscreenenter"",""1"",""6346""
","
","","","-1","","","17","4152","937","&#9761;","elianto","#3366ff99","-1","-1","1","0","[4494]","1","0","2","","","","","","","",""
"pit-trial","59","691067","0.0-2.0-11.3-4.3","battery-v0.2","","""event"",""trial"",""time""
""fullscreenenter"",""1"",""6346""
","
","
","""event"",""trial"",""time""
""fullscreenenter"",""1"",""6346""
","
","","","-1","","","17","4152","937","&#9761;","elianto","#3366ff99","-1","-1","1","+10","[]","0","0","2","","","","","","","",""
"call-function","60","691069","0.0-2.0-12.0","battery-v0.2","","""event"",""trial"",""time""
""fullscreenenter"",""1"",""6346""
","
","
","""event"",""trial"",""time""
""fullscreenenter"",""1"",""6346""
","
","","","","","","","","","","","","","","","","","","","","","","","","","","",""
"pit-instructions","61","730247","0.0-2.0-13.0","battery-v0.2","","""event"",""trial"",""time""
""fullscreenenter"",""1"",""6346""
","
","
","""event"",""trial"",""time""
""fullscreenenter"",""1"",""6346""
","
","","[{""page_index"":0,""viewing_time"":6905.300000190735},{""page_index"":1,""viewing_time"":9259.5},{""page_index"":2,""viewing_time"":4009.300000190735},{""page_index"":3,""viewing_time"":12445},{""page_index"":4,""viewing_time"":6558.199999809265}]","39178","","","","","","","","","","","","","","","","","","","","","","","",""
"pit-trial","62","733685","0.0-2.0-14.0-0.0","battery-v0.2","","""event"",""trial"",""time""
""fullscreenenter"",""1"",""6346""
","
","
","""event"",""trial"",""time""
""fullscreenenter"",""1"",""6346""
","
","","","558.4000005722046","","","17","4152","937","&#9826;","elianto","#f73b6a7A","-1"," ","0","-10","[1415.1000003814697]","1","0","3","","","","","","","",""
"pit-trial","63","738572","0.0-2.0-14.0-1.0","battery-v0.2","","""event"",""trial"",""time""
""fullscreenenter"",""1"",""6346""
","
","
","""event"",""trial"",""time""
""fullscreenenter"",""1"",""6346""
","
","","","-1","","","17","4152","937","&#9826;","elianto","#f73b6a7A","-1","-1","1","0","[]","0","0","3","","","","","","","",""
"pit-trial","64","742016","0.0-2.0-14.0-2.0","battery-v0.2","","""event"",""trial"",""time""
""fullscreenenter"",""1"",""6346""
","
","
","""event"",""trial"",""time""
""fullscreenenter"",""1"",""6346""
","
","","","579.0999994277954","","","17","4152","937","&#9826;","elianto","#f73b6a7A","-1"," ","0","-10","[1436.6000003814697]","1","0","3","","","","","","","",""
"pit-trial","65","746885","0.0-2.0-14.0-3.0","battery-v0.2","","""event"",""trial"",""time""
""fullscreenenter"",""1"",""6346""
","
","
","""event"",""trial"",""time""
""fullscreenenter"",""1"",""6346""
","
","","","-1","","","17","4152","937","&#9826;","elianto","#f73b6a7A","-1","-1","1","-10","[]","0","0","3","","","","","","","",""
"pit-trial","66","751775","0.0-2.0-14.0-4.0","battery-v0.2","","""event"",""trial"",""time""
""fullscreenenter"",""1"",""6346""
","
","
","""event"",""trial"",""time""
""fullscreenenter"",""1"",""6346""
","
","","","-1","","","17","4152","937","&#9826;","elianto","#f73b6a7A","-1","-1","1","0","[]","0","0","3","","","","","","","",""
"pit-trial","67","756675","0.0-2.0-14.1-0.1","battery-v0.2","","""event"",""trial"",""time""
""fullscreenenter"",""1"",""6346""
","
","
","""event"",""trial"",""time""
""fullscreenenter"",""1"",""6346""
","
","","","-1","","","17","4152","937","&#9826;","elianto","#f73b6a7A","-1","-1","1","0","[]","0","0","3","","","","","","","",""
"pit-trial","68","761549","0.0-2.0-14.1-1.1","battery-v0.2","","""event"",""trial"",""time""
""fullscreenenter"",""1"",""6346""
","
","
","""event"",""trial"",""time""
""fullscreenenter"",""1"",""6346""
","
","","","-1","","","17","4152","937","&#9826;","elianto","#f73b6a7A","-1","-1","1","0","[]","0","0","3","","","","","","","",""
"pit-trial","69","766421","0.0-2.0-14.1-2.1","battery-v0.2","","""event"",""trial"",""time""
""fullscreenenter"",""1"",""6346""
","
","
","""event"",""trial"",""time""
""fullscreenenter"",""1"",""6346""
","
","","","-1","","","17","4152","937","&#9826;","elianto","#f73b6a7A","-1","-1","1","0","[]","0","0","3","","","","","","","",""
"pit-trial","70","771287","0.0-2.0-14.1-3.1","battery-v0.2","","""event"",""trial"",""time""
""fullscreenenter"",""1"",""6346""
","
","
","""event"",""trial"",""time""
""fullscreenenter"",""1"",""6346""
","
","","","-1","","","17","4152","937","&#9826;","elianto","#f73b6a7A","-1","-1","1","-10","[]","0","0","3","","","","","","","",""
"pit-trial","71","776156","0.0-2.0-14.1-4.1","battery-v0.2","","""event"",""trial"",""time""
""fullscreenenter"",""1"",""6346""
","
","
","""event"",""trial"",""time""
""fullscreenenter"",""1"",""6346""
","
","","","-1","","","17","4152","937","&#9826;","elianto","#f73b6a7A","-1","-1","1","0","[]","0","0","3","","","","","","","",""
"pit-trial","72","781039","0.0-2.0-14.2-0.2","battery-v0.2","","""event"",""trial"",""time""
""fullscreenenter"",""1"",""6346""
","
","
","""event"",""trial"",""time""
""fullscreenenter"",""1"",""6346""
","
","","","-1","","","17","4152","937","&#9826;","elianto","#f73b6a7A","-1","-1","1","0","[]","0","0","3","","","","","","","",""
"pit-trial","73","785907","0.0-2.0-14.2-1.2","battery-v0.2","","""event"",""trial"",""time""
""fullscreenenter"",""1"",""6346""
","
","
","""event"",""trial"",""time""
""fullscreenenter"",""1"",""6346""
","
","","","-1","","","17","4152","937","&#9826;","elianto","#f73b6a7A","-1","-1","1","0","[]","0","0","3","","","","","","","",""
"pit-trial","74","790790","0.0-2.0-14.2-2.2","battery-v0.2","","""event"",""trial"",""time""
""fullscreenenter"",""1"",""6346""
","
","
","""event"",""trial"",""time""
""fullscreenenter"",""1"",""6346""
","
","","","-1","","","17","4152","937","&#9826;","elianto","#f73b6a7A","-1","-1","1","0","[]","0","0","3","","","","","","","",""
"pit-trial","75","795663","0.0-2.0-14.2-3.2","battery-v0.2","","""event"",""trial"",""time""
""fullscreenenter"",""1"",""6346""
","
","
","""event"",""trial"",""time""
""fullscreenenter"",""1"",""6346""
","
","","","-1","","","17","4152","937","&#9826;","elianto","#f73b6a7A","-1","-1","1","-10","[]","0","0","3","","","","","","","",""
"pit-trial","76","800536","0.0-2.0-14.2-4.2","battery-v0.2","","""event"",""trial"",""time""
""fullscreenenter"",""1"",""6346""
","
","
","""event"",""trial"",""time""
""fullscreenenter"",""1"",""6346""
","
","","","-1","","","17","4152","937","&#9826;","elianto","#f73b6a7A","-1","-1","1","0","[]","0","0","3","","","","","","","",""
"pit-trial","77","805408","0.0-2.0-14.3-0.3","battery-v0.2","","""event"",""trial"",""time""
""fullscreenenter"",""1"",""6346""
","
","
","""event"",""trial"",""time""
""fullscreenenter"",""1"",""6346""
","
","","","-1","","","17","4152","937","&#9826;","elianto","#f73b6a7A","-1","-1","1","0","[]","0","0","3","","","","","","","",""
"pit-trial","78","810278","0.0-2.0-14.3-1.3","battery-v0.2","","""event"",""trial"",""time""
""fullscreenenter"",""1"",""6346""
","
","
","""event"",""trial"",""time""
""fullscreenenter"",""1"",""6346""
","
","","","-1","","","17","4152","937","&#9826;","elianto","#f73b6a7A","-1","-1","1","0","[]","0","0","3","","","","","","","",""
"pit-trial","79","815144","0.0-2.0-14.3-2.3","battery-v0.2","","""event"",""trial"",""time""
""fullscreenenter"",""1"",""6346""
","
","
","""event"",""trial"",""time""
""fullscreenenter"",""1"",""6346""
","
","","","-1","","","17","4152","937","&#9826;","elianto","#f73b6a7A","-1","-1","1","0","[]","0","0","3","","","","","","","",""
"pit-trial","80","820023","0.0-2.0-14.3-3.3","battery-v0.2","","""event"",""trial"",""time""
""fullscreenenter"",""1"",""6346""
","
","
","""event"",""trial"",""time""
""fullscreenenter"",""1"",""6346""
","
","","","-1","","","17","4152","937","&#9826;","elianto","#f73b6a7A","-1","-1","1","-10","[]","0","0","3","","","","","","","",""
"pit-trial","81","824891","0.0-2.0-14.3-4.3","battery-v0.2","","""event"",""trial"",""time""
""fullscreenenter"",""1"",""6346""
","
","
","""event"",""trial"",""time""
""fullscreenenter"",""1"",""6346""
","
","","","-1","","","17","4152","937","&#9826;","elianto","#f73b6a7A","-1","-1","1","0","[]","0","0","3","","","","","","","",""
"call-function","82","824896","0.0-2.0-15.0","battery-v0.2","","""event"",""trial"",""time""
""fullscreenenter"",""1"",""6346""
","
","
","""event"",""trial"",""time""
""fullscreenenter"",""1"",""6346""
","
","","","","","","","","","","","","","","","","","","","","","","","","","","",""
"pit-instructions","83","853309","0.0-2.0-16.0","battery-v0.2","","""event"",""trial"",""time""
""fullscreenenter"",""1"",""6346""
","
","
","""event"",""trial"",""time""
""fullscreenenter"",""1"",""6346""
","
","","[{""page_index"":0,""viewing_time"":7604.5},{""page_index"":1,""viewing_time"":9879.800000190735},{""page_index"":2,""viewing_time"":4877.5},{""page_index"":3,""viewing_time"":6049.300000190735}]","28411.800000190735","","","","","","","","","","","","","","","","","","","","","","","",""
"pit-trial","84","856895","0.0-2.0-17.0-0.0","battery-v0.2","","""event"",""trial"",""time""
""fullscreenenter"",""1"",""6346""
","
","
","""event"",""trial"",""time""
""fullscreenenter"",""1"",""6346""
","
","","","712.8000001907349","","","17","4152","937","&#9789;","elianto","#f73b6a7A"," "," ","1","0","[1570.7000007629395]","1","0","4","","","","","","","",""
"pit-trial","85","860264","0.0-2.0-17.0-1.0","battery-v0.2","","""event"",""trial"",""time""
""fullscreenenter"",""1"",""6346""
","
","
","""event"",""trial"",""time""
""fullscreenenter"",""1"",""6346""
","
","","","501.5999994277954","","","17","4152","937","&#9789;","elianto","#f73b6a7A"," "," ","1","0","[1353.8000001907349,3103.3999996185303]","2","0","4","","","","","","","",""
"pit-trial","86","863495","0.0-2.0-17.0-2.0","battery-v0.2","","""event"",""trial"",""time""
""fullscreenenter"",""1"",""6346""
","
","
","""event"",""trial"",""time""
""fullscreenenter"",""1"",""6346""
","
","","","363.30000019073486","","","17","4152","937","&#9789;","elianto","#f73b6a7A"," "," ","1","0","[1213.7999992370605,2830.699999809265]","2","0","4","","","","","","","",""
"pit-trial","87","866787","0.0-2.0-17.0-3.0","battery-v0.2","","""event"",""trial"",""time""
""fullscreenenter"",""1"",""6346""
","
","
","""event"",""trial"",""time""
""fullscreenenter"",""1"",""6346""
","
","","","426.5999994277954","","","17","4152","937","&#9789;","elianto","#f73b6a7A"," "," ","1","-10","[1284.0999994277954]","1","0","4","","","","","","","",""
"pit-trial","88","870875","0.0-2.0-17.0-4.0","battery-v0.2","","""event"",""trial"",""time""
""fullscreenenter"",""1"",""6346""
","
","
","""event"",""trial"",""time""
""fullscreenenter"",""1"",""6346""
","
","","","1224.1999998092651","","","17","4152","937","&#9789;","elianto","#f73b6a7A"," "," ","1","0","[2074.5]","1","0","4","","","","","","","",""
"pit-trial","89","874645","0.0-2.0-17.1-0.1","battery-v0.2","","""event"",""trial"",""time""
""fullscreenenter"",""1"",""6346""
","
","
","""event"",""trial"",""time""
""fullscreenenter"",""1"",""6346""
","
","","","901.8000001907349","","","17","4152","937","&#9789;","elianto","#f73b6a7A"," "," ","1","0","[1758.8000001907349]","1","0","4","","","","","","","",""
"pit-trial","90","878475","0.0-2.0-17.1-1.1","battery-v0.2","","""event"",""trial"",""time""
""fullscreenenter"",""1"",""6346""
","
","
","""event"",""trial"",""time""
""fullscreenenter"",""1"",""6346""
","
","","","971.3000001907349","","","17","4152","937","&#9789;","elianto","#f73b6a7A"," "," ","1","0","[1821.6999998092651]","1","0","4","","","","","","","",""
"pit-trial","91","883223","0.0-2.0-17.1-2.1","battery-v0.2","","""event"",""trial"",""time""
""fullscreenenter"",""1"",""6346""
","
","
","""event"",""trial"",""time""
""fullscreenenter"",""1"",""6346""
","
","","","1892.3999996185303","","","17","4152","937","&#9789;","elianto","#f73b6a7A"," "," ","1","0","[2743.2000007629395]","1","0","4","","","","","","","",""
"pit-trial","92","887319","0.0-2.0-17.1-3.1","battery-v0.2","","""event"",""trial"",""time""
""fullscreenenter"",""1"",""6346""
","
","
","""event"",""trial"",""time""
""fullscreenenter"",""1"",""6346""
","
","","","1234.9000005722046","","","17","4152","937","&#9789;","elianto","#f73b6a7A"," "," ","1","-10","[2086.1000003814697]","1","0","4","","","","","","","",""
"pit-trial","93","890253","0.0-2.0-17.1-4.1","battery-v0.2","","""event"",""trial"",""time""
""fullscreenenter"",""1"",""6346""
","
","
","""event"",""trial"",""time""
""fullscreenenter"",""1"",""6346""
","
","","","70.30000019073486","","","17","4152","937","&#9789;","elianto","#f73b6a7A"," "," ","1","0","[921.5]","1","0","4","","","","","","","",""
"pit-trial","94","893427","0.0-2.0-17.2-0.2","battery-v0.2","","""event"",""trial"",""time""
""fullscreenenter"",""1"",""6346""
","
","
","""event"",""trial"",""time""
""fullscreenenter"",""1"",""6346""
","
","","","300.5","","","17","4152","937","&#9789;","elianto","#f73b6a7A"," "," ","1","0","[242.80000019073486,1160.8000001907349]","2","0","4","","","","","","","",""
"pit-trial","95","896815","0.0-2.0-17.2-1.2","battery-v0.2","","""event"",""trial"",""time""
""fullscreenenter"",""1"",""6346""
","
","
","""event"",""trial"",""time""
""fullscreenenter"",""1"",""6346""
","
","","","522.5999994277954","","","17","4152","937","&#9789;","elianto","#f73b6a7A"," "," ","1","0","[1373.6999998092651]","1","0","4","","","","","","","",""
"pit-trial","96","900271","0.0-2.0-17.2-2.2","battery-v0.2","","""event"",""trial"",""time""
""fullscreenenter"",""1"",""6346""
","
","
","""event"",""trial"",""time""
""fullscreenenter"",""1"",""6346""
","
","","","591.4000005722046","","","17","4152","937","&#9789;","elianto","#f73b6a7A"," "," ","1","0","[1445.1000003814697,3198.5]","2","0","4","","","","","","","",""
"pit-trial","97","903288","0.0-2.0-17.2-3.2","battery-v0.2","","""event"",""trial"",""time""
""fullscreenenter"",""1"",""6346""
","
","
","""event"",""trial"",""time""
""fullscreenenter"",""1"",""6346""
","
","","","155.30000019073486","","","17","4152","937","&#9789;","elianto","#f73b6a7A"," "," ","1","-10","[1008.3999996185303,1491.2999992370605]","2","0","4","","","","","","","",""
"pit-trial","98","906664","0.0-2.0-17.2-4.2","battery-v0.2","","""event"",""trial"",""time""
""fullscreenenter"",""1"",""6346""
","
","
","""event"",""trial"",""time""
""fullscreenenter"",""1"",""6346""
","
","","","514.6000003814697","","","17","4152","937","&#9789;","elianto","#f73b6a7A"," "," ","1","0","[1364.8999996185303]","1","0","4","","","","","","","",""
"pit-trial","99","910198","0.0-2.0-17.3-0.3","battery-v0.2","","""event"",""trial"",""time""
""fullscreenenter"",""1"",""6346""
","
","
","""event"",""trial"",""time""
""fullscreenenter"",""1"",""6346""
","
","","","663","","","17","4152","937","&#9789;","elianto","#f73b6a7A"," "," ","1","0","[1516.1000003814697]","1","0","4","","","","","","","",""
"pit-trial","100","914119","0.0-2.0-17.3-1.3","battery-v0.2","","""event"",""trial"",""time""
""fullscreenenter"",""1"",""6346""
","
","
","""event"",""trial"",""time""
""fullscreenenter"",""1"",""6346""
","
","","","1058.9000005722046","","","17","4152","937","&#9789;","elianto","#f73b6a7A"," "," ","1","0","[1909]","1","0","4","","","","","","","",""
"pit-trial","101","917463","0.0-2.0-17.3-2.3","battery-v0.2","","""event"",""trial"",""time""
""fullscreenenter"",""1"",""6346""
","
","
","""event"",""trial"",""time""
""fullscreenenter"",""1"",""6346""
","
","","","484.1000003814697","","","17","4152","937","&#9789;","elianto","#f73b6a7A"," "," ","1","0","[1337.7999992370605]","1","0","4","","","","","","","",""
"pit-trial","102","921050","0.0-2.0-17.3-3.3","battery-v0.2","","""event"",""trial"",""time""
""fullscreenenter"",""1"",""6346""
","
","
","""event"",""trial"",""time""
""fullscreenenter"",""1"",""6346""
","
","","","721.3999996185303","","","17","4152","937","&#9789;","elianto","#f73b6a7A"," "," ","1","-10","[1579.3000001907349]","1","0","4","","","","","","","",""
"pit-trial","103","924463","0.0-2.0-17.3-4.3","battery-v0.2","","""event"",""trial"",""time""
""fullscreenenter"",""1"",""6346""
","
","
","""event"",""trial"",""time""
""fullscreenenter"",""1"",""6346""
","
","","","554.2000007629395","","","17","4152","937","&#9789;","elianto","#f73b6a7A"," "," ","1","0","[1405.2000007629395]","1","0","4","","","","","","","",""
"call-function","104","924466","0.0-2.0-18.0","battery-v0.2","","""event"",""trial"",""time""
""fullscreenenter"",""1"",""6346""
","
","
","""event"",""trial"",""time""
""fullscreenenter"",""1"",""6346""
","
","","","","","","","","","","","","","","","","","","","","","","","","","","",""
"pit-instructions","105","1011437","0.0-2.0-19.0","battery-v0.2","","""event"",""trial"",""time""
""fullscreenenter"",""1"",""6346""
","
","
","""event"",""trial"",""time""
""fullscreenenter"",""1"",""6346""
","
","","[{""page_index"":0,""viewing_time"":9526.5},{""page_index"":1,""viewing_time"":9269.400000572205},{""page_index"":2,""viewing_time"":24093.5},{""page_index"":3,""viewing_time"":5689.799999237061},{""page_index"":4,""viewing_time"":11874.20000076294},{""page_index"":5,""viewing_time"":10257.5},{""page_index"":6,""viewing_time"":5174.5},{""page_index"":7,""viewing_time"":6331.799999237061},{""page_index"":8,""viewing_time"":4751.400000572205}]","86970.10000038147","","","","","","","","","","","","","","","","","","","","","","","",""
"pit-comprehension","106","1016654","0.0-2.0-20.0-0.0","battery-v0.2","","""event"",""trial"",""time""
""fullscreenenter"",""1"",""6346""
","
","
","""event"",""trial"",""time""
""fullscreenenter"",""1"",""6346""
","
","","","5210.60000038147","[""SPACE""]","0","17","4152","937","","","","","","","","","","","","","","","","","","",""
"pit-instructions","107","1020945","0.0-2.0-20.0-1.0","battery-v0.2","","""event"",""trial"",""time""
""fullscreenenter"",""1"",""6346""
","
","
","""event"",""trial"",""time""
""fullscreenenter"",""1"",""6346""
","
","","[{""page_index"":0,""viewing_time"":4188.800000190735}]","4189.300000190735","","","","","","","","","","","","","","","","","","","","","","","",""
"pit-comprehension","108","1029354","0.0-2.0-21.0-0.0","battery-v0.2","","""event"",""trial"",""time""
""fullscreenenter"",""1"",""6346""
","
","
","""event"",""trial"",""time""
""fullscreenenter"",""1"",""6346""
","
","","","8403.599999427795","[""10""]","0","17","4152","937","","","","","","","","","","","","","","","","","","",""
"pit-instructions","109","1033349","0.0-2.0-21.0-1.0","battery-v0.2","","""event"",""trial"",""time""
""fullscreenenter"",""1"",""6346""
","
","
","""event"",""trial"",""time""
""fullscreenenter"",""1"",""6346""
","
","","[{""page_index"":0,""viewing_time"":3885.7999992370605}]","3886.3999996185303","","","","","","","","","","","","","","","","","","","","","","","",""
"pit-comprehension","110","1040304","0.0-2.0-22.0-0.0","battery-v0.2","","""event"",""trial"",""time""
""fullscreenenter"",""1"",""6346""
","
","
","""event"",""trial"",""time""
""fullscreenenter"",""1"",""6346""
","
","","","6948.699999809265","[""-10""]","1","17","4152","937","","","","","","","","","","","","","","","","","","",""
"pit-instructions","111","1047589","0.0-2.0-22.0-1.0","battery-v0.2","","""event"",""trial"",""time""
""fullscreenenter"",""1"",""6346""
","
","
","""event"",""trial"",""time""
""fullscreenenter"",""1"",""6346""
","
","","[{""page_index"":0,""viewing_time"":7154.300000190735}]","7155.5","","","","","","","","","","","","","","","","","","","","","","","",""
"pit-instructions","112","1050942","0.0-2.0-22.0-2.0-0.0","battery-v0.2","","""event"",""trial"",""time""
""fullscreenenter"",""1"",""6346""
","
","
","""event"",""trial"",""time""
""fullscreenenter"",""1"",""6346""
","
","","[{""page_index"":0,""viewing_time"":3347.9000005722046}]","3348.5","","","","","","","","","","","","","","","","","","","","","","","",""
"pit-comprehension","113","1057487","0.0-2.0-22.1-0.1","battery-v0.2","","""event"",""trial"",""time""
""fullscreenenter"",""1"",""6346""
","
","
","""event"",""trial"",""time""
""fullscreenenter"",""1"",""6346""
","
","","","6540.199999809265","[""0""]","0","17","4152","937","","","","","","","","","","","","","","","","","","",""
"pit-instructions","114","1061877","0.0-2.0-22.1-1.1","battery-v0.2","","""event"",""trial"",""time""
""fullscreenenter"",""1"",""6346""
","
","
","""event"",""trial"",""time""
""fullscreenenter"",""1"",""6346""
","
","","[{""page_index"":0,""viewing_time"":4271.800000190735}]","4272.300000190735","","","","","","","","","","","","","","","","","","","","","","","",""
"pit-comprehension","115","1080883","0.0-2.0-23.0-0.0","battery-v0.2","","""event"",""trial"",""time""
""fullscreenenter"",""1"",""6346""
","
","
","""event"",""trial"",""time""
""fullscreenenter"",""1"",""6346""
","
","","","19000.599999427795","[""True""]","0","17","4152","937","","","","","","","","","","","","","","","","","","",""
"pit-instructions","116","1084913","0.0-2.0-23.0-1.0","battery-v0.2","","""event"",""trial"",""time""
""fullscreenenter"",""1"",""6346""
","
","
","""event"",""trial"",""time""
""fullscreenenter"",""1"",""6346""
","
","","[{""page_index"":0,""viewing_time"":3933.4000005722046}]","3934","","","","","","","","","","","","","","","","","","","","","","","",""
"pit-comprehension","117","1094246","0.0-2.0-24.0-0.0","battery-v0.2","","""event"",""trial"",""time""
""fullscreenenter"",""1"",""6346""
","
","
","""event"",""trial"",""time""
""fullscreenenter"",""1"",""6346""
","
","","","9329.39999961853","[""True""]","0","17","4152","937","","","","","","","","","","","","","","","","","","",""
"pit-instructions","118","1098503","0.0-2.0-24.0-1.0","battery-v0.2","","""event"",""trial"",""time""
""fullscreenenter"",""1"",""6346""
","
","
","""event"",""trial"",""time""
""fullscreenenter"",""1"",""6346""
","
","","[{""page_index"":0,""viewing_time"":4173.599999427795}]","4174.099999427795","","","","","","","","","","","","","","","","","","","","","","","",""
"pit-comprehension","119","1114988","0.0-2.0-25.0-0.0","battery-v0.2","","""event"",""trial"",""time""
""fullscreenenter"",""1"",""6346""
","
","
","""event"",""trial"",""time""
""fullscreenenter"",""1"",""6346""
","
","","","16479.699999809265","[""True""]","0","17","4152","937","","","","","","","","","","","","","","","","","","",""
"pit-instructions","120","1118814","0.0-2.0-25.0-1.0","battery-v0.2","","""event"",""trial"",""time""
""fullscreenenter"",""1"",""6346""
","
","
","""event"",""trial"",""time""
""fullscreenenter"",""1"",""6346""
","
","","[{""page_index"":0,""viewing_time"":3706.1000003814697}]","3706.800000190735","","","","","","","","","","","","","","","","","","","","","","","",""
"pit-comprehension","121","1129786","0.0-2.0-26.0-0.0","battery-v0.2","","""event"",""trial"",""time""
""fullscreenenter"",""1"",""6346""
","
","
","""event"",""trial"",""time""
""fullscreenenter"",""1"",""6346""
","
","","","10967.300000190735","[""False""]","0","17","4152","937","","","","","","","","","","","","","","","","","","",""
"pit-instructions","122","1132270","0.0-2.0-26.0-1.0","battery-v0.2","","""event"",""trial"",""time""
""fullscreenenter"",""1"",""6346""
","
","
","""event"",""trial"",""time""
""fullscreenenter"",""1"",""6346""
","
","","[{""page_index"":0,""viewing_time"":2364.7000007629395}]","2365.2000007629395","","","","","","","","","","","","","","","","","","","","","","","",""
"pit-instructions","123","1156136","0.0-3.0","battery-v0.2","","""event"",""trial"",""time""
""fullscreenenter"",""1"",""6346""
","
","
","""event"",""trial"",""time""
""fullscreenenter"",""1"",""6346""
","
","","[{""page_index"":0,""viewing_time"":4310.60000038147},{""page_index"":1,""viewing_time"":6451.89999961853},{""page_index"":2,""viewing_time"":13099}]","23862.5","","","","","","","","","","","","","","","","","","","","","","","",""
"pit-trial","124","1161042","0.0-4.0","battery-v0.2","","""event"",""trial"",""time""
""fullscreenenter"",""1"",""6346""
","
","
","""event"",""trial"",""time""
""fullscreenenter"",""1"",""6346""
","
","","","-1","","","17","4152","937","&#9730;","elianto","#3366ff99"," ","-1","0","0","[]","0","1","","","4152","1","1","1","win","go","0"
"pit-trial","125","1164572","0.0-5.0","battery-v0.2","","""event"",""trial"",""time""
""fullscreenenter"",""1"",""6346""
","
","
","""event"",""trial"",""time""
""fullscreenenter"",""1"",""6346""
","
","","","662.3000001907349","","","17","4152","937","&#9728;","elianto","#f73b6a7A","-1"," ","0","-10","[1518.8000001907349]","1","1","","","4152","2","0","4","lose","no-go","0"
"pit-trial","126","1168012","0.0-6.0","battery-v0.2","","""event"",""trial"",""time""
""fullscreenenter"",""1"",""6346""
","
","
","""event"",""trial"",""time""
""fullscreenenter"",""1"",""6346""
","
","","","564.3000001907349","","","17","4152","937","&#9733;","elianto","#3366ff99","-1"," ","0","0","[1420.5]","1","1","","","4152","3","2","2","win","no-go","0"
"pit-trial","127","1171833","0.0-7.0","battery-v0.2","","""event"",""trial"",""time""
""fullscreenenter"",""1"",""6346""
","
","
","""event"",""trial"",""time""
""fullscreenenter"",""1"",""6346""
","
","","","943.0999994277954","","","17","4152","937","&#9752;","elianto","#f73b6a7A"," "," ","1","0","[1793.7999992370605]","1","1","","","4152","4","3","3","lose","go","0"
"pit-trial","128","1175432","0.0-8.0","battery-v0.2","","""event"",""trial"",""time""
""fullscreenenter"",""1"",""6346""
","
","
","""event"",""trial"",""time""
""fullscreenenter"",""1"",""6346""
","
","","","723.8999996185303","","","17","4152","937","&#9730;","elianto","#3366ff99"," "," ","1","+10","[1578.7000007629395]","1","1","","","4152","5","1","1","win","go","0"
"pit-trial","129","1180302","0.0-9.0","battery-v0.2","","""event"",""trial"",""time""
""fullscreenenter"",""1"",""6346""
","
","
","""event"",""trial"",""time""
""fullscreenenter"",""1"",""6346""
","
","","","-1","","","17","4152","937","&#9752;","elianto","#f73b6a7A"," ","-1","0","-10","[3765.199999809265]","1","1","","","4152","6","3","3","lose","go","0"
"pit-trial","130","1184166","0.0-10.0","battery-v0.2","","""event"",""trial"",""time""
""fullscreenenter"",""1"",""6346""
","
","
","""event"",""trial"",""time""
""fullscreenenter"",""1"",""6346""
","
","","","998.1999998092651","","","17","4152","937","&#9728;","elianto","#f73b6a7A","-1"," ","0","-10","[1855.3999996185303]","1","1","","","4152","7","0","4","lose","no-go","0"
"pit-trial","131","1188159","0.0-11.0","battery-v0.2","","""event"",""trial"",""time""
""fullscreenenter"",""1"",""6346""
","
","
","""event"",""trial"",""time""
""fullscreenenter"",""1"",""6346""
","
","","","1117.3000001907349","","","17","4152","937","&#9733;","elianto","#3366ff99","-1"," ","0","0","[1976.5999994277954,3326.5]","2","1","","","4152","8","2","2","win","no-go","0"
"pit-trial","132","1192143","0.0-12.0","battery-v0.2","","""event"",""trial"",""time""
""fullscreenenter"",""1"",""6346""
","
","
","""event"",""trial"",""time""
""fullscreenenter"",""1"",""6346""
","
","","","1128.3999996185303","","","17","4152","937","&#9733;","elianto","#3366ff99","-1"," ","0","0","[482.80000019073486,1979.6999998092651]","2","1","","","4152","9","2","2","win","no-go","0"
"pit-trial","133","1196591","0.0-13.0","battery-v0.2","","""event"",""trial"",""time""
""fullscreenenter"",""1"",""6346""
","
","
","""event"",""trial"",""time""
""fullscreenenter"",""1"",""6346""
","
","","","1589.5999994277954","","","17","4152","937","&#9728;","elianto","#f73b6a7A","-1"," ","0","-10","[2441.9000005722046]","1","1","","","4152","10","0","4","lose","no-go","0"
"pit-trial","134","1201351","0.0-14.0","battery-v0.2","","""event"",""trial"",""time""
""fullscreenenter"",""1"",""6346""
","
","
","""event"",""trial"",""time""
""fullscreenenter"",""1"",""6346""
","
","","","1899","","","17","4152","937","&#9730;","elianto","#3366ff99"," "," ","1","+10","[2752]","1","1","","","4152","11","1","1","win","go","0"
"pit-trial","135","1205098","0.0-15.0","battery-v0.2","","""event"",""trial"",""time""
""fullscreenenter"",""1"",""6346""
","
","
","""event"",""trial"",""time""
""fullscreenenter"",""1"",""6346""
","
","","","875.4000005722046","","","17","4152","937","&#9752;","elianto","#f73b6a7A"," "," ","1","0","[1732]","1","1","","","4152","12","3","3","lose","go","0"
"pit-trial","136","1209974","0.0-16.0","battery-v0.2","","""event"",""trial"",""time""
""fullscreenenter"",""1"",""6346""
","
","
","""event"",""trial"",""time""
""fullscreenenter"",""1"",""6346""
","
","","","-1","","","17","4152","937","&#9733;","elianto","#3366ff99","-1","-1","1","+10","[]","0","1","","","4152","13","2","2","win","no-go","0"
"pit-trial","137","1212989","0.0-17.0","battery-v0.2","","""event"",""trial"",""time""
""fullscreenenter"",""1"",""6346""
","
","
","""event"",""trial"",""time""
""fullscreenenter"",""1"",""6346""
","
","","","142.4000005722046","","","17","4152","937","&#9752;","elianto","#f73b6a7A"," "," ","1","-10","[1001.6000003814697]","1","1","","","4152","14","3","3","lose","go","1"
"pit-trial","138","1217030","0.0-18.0","battery-v0.2","","""event"",""trial"",""time""
""fullscreenenter"",""1"",""6346""
","
","
","""event"",""trial"",""time""
""fullscreenenter"",""1"",""6346""
","
","","","1164.5999994277954","","","17","4152","937","&#9730;","elianto","#3366ff99"," "," ","1","+10","[2022.3000001907349]","1","1","","","4152","15","1","1","win","go","0"
"pit-trial","139","1221902","0.0-19.0","battery-v0.2","","""event"",""trial"",""time""
""fullscreenenter"",""1"",""6346""
","
","
","""event"",""trial"",""time""
""fullscreenenter"",""1"",""6346""
","
","","","-1","","","17","4152","937","&#9728;","elianto","#f73b6a7A","-1","-1","1","0","[]","0","1","","","4152","16","0","4","lose","no-go","0"
"pit-trial","140","1226771","0.0-20.0","battery-v0.2","","""event"",""trial"",""time""
""fullscreenenter"",""1"",""6346""
","
","
","""event"",""trial"",""time""
""fullscreenenter"",""1"",""6346""
","
","","","-1","","","17","4152","937","&#9752;","elianto","#f73b6a7A"," ","-1","0","-10","[]","0","1","","","4152","17","3","3","lose","go","0"
"pit-trial","141","1230092","0.0-21.0","battery-v0.2","","""event"",""trial"",""time""
""fullscreenenter"",""1"",""6346""
","
","
","""event"",""trial"",""time""
""fullscreenenter"",""1"",""6346""
","
","","","459.8999996185303","","","17","4152","937","&#9733;","elianto","#3366ff99","-1"," ","0","0","[1310.5]","1","1","","","4152","18","2","2","win","no-go","0"
"pit-trial","142","1234962","0.0-22.0","battery-v0.2","","""event"",""trial"",""time""
""fullscreenenter"",""1"",""6346""
","
","
","""event"",""trial"",""time""
""fullscreenenter"",""1"",""6346""
","
","","","-1","","","17","4152","937","&#9728;","elianto","#f73b6a7A","-1","-1","1","0","[]","0","1","","","4152","19","0","4","lose","no-go","0"
"pit-trial","143","1239416","0.0-23.0","battery-v0.2","","""event"",""trial"",""time""
""fullscreenenter"",""1"",""6346""
","
","
","""event"",""trial"",""time""
""fullscreenenter"",""1"",""6346""
","
","","","1595.1000003814697","","","17","4152","937","&#9730;","elianto","#3366ff99"," "," ","1","+10","[2447]","1","1","","","4152","20","1","1","win","go","0"
"pit-instructions","144","1257779","0.0-24.0","battery-v0.2","","""event"",""trial"",""time""
""fullscreenenter"",""1"",""6346""
","
","
","""event"",""trial"",""time""
""fullscreenenter"",""1"",""6346""
","
","","[{""page_index"":0,""viewing_time"":8978.39999961853},{""page_index"":1,""viewing_time"":9382.5}]","18361.5","","","","","","","","","","","","","","","","","","","","","","","",""
"pit-trial","145","1261288","0.0-25.0","battery-v0.2","","""event"",""trial"",""time""
""fullscreenenter"",""1"",""6346""
","
","
","""event"",""trial"",""time""
""fullscreenenter"",""1"",""6346""
","
","","","646.5","","","17","4152","937","y","elianto","#f73b6a7A","-1"," ","0","-10","[1503]","1","2","","","4152","21","2","4","lose","no-go","0"
"pit-trial","146","1265858","0.0-26.0","battery-v0.2","","""event"",""trial"",""time""
""fullscreenenter"",""1"",""6346""
","
","
","""event"",""trial"",""time""
""fullscreenenter"",""1"",""6346""
","
","","","1705.1000003814697","","","17","4152","937","h","elianto","#f73b6a7A"," "," ","1","0","[2555.2000007629395]","1","2","","","4152","22","3","3","lose","go","0"
"pit-trial","147","1269838","0.0-27.0","battery-v0.2","","""event"",""trial"",""time""
""fullscreenenter"",""1"",""6346""
","
","
","""event"",""trial"",""time""
""fullscreenenter"",""1"",""6346""
","
","","","1103.5","","","17","4152","937","m","elianto","#f73b6a7A","-1"," ","0","0","[1958.4000005722046]","1","2","","","4152","23","0","4","lose","no-go","1"
"pit-trial","148","1272848","0.0-28.0","battery-v0.2","","""event"",""trial"",""time""
""fullscreenenter"",""1"",""6346""
","
","
","""event"",""trial"",""time""
""fullscreenenter"",""1"",""6346""
","
","","","148.39999961853027","","","17","4152","937","r","elianto","#3366ff99"," "," ","1","+10","[1002.6999998092651]","1","2","","","4152","24","1","1","win","go","0"
"pit-trial","149","1277079","0.0-29.0","battery-v0.2","","""event"",""trial"",""time""
""fullscreenenter"",""1"",""6346""
","
","
","""event"",""trial"",""time""
""fullscreenenter"",""1"",""6346""
","
","","","1367.6999998092651","","","17","4152","937","m","elianto","#f73b6a7A","-1"," ","0","-10","[2225.199999809265]","1","2","","","4152","25","0","4","lose","no-go","0"
"pit-trial","150","1281417","0.0-30.0","battery-v0.2","","""event"",""trial"",""time""
""fullscreenenter"",""1"",""6346""
","
","
","""event"",""trial"",""time""
""fullscreenenter"",""1"",""6346""
","
","","","1465","","","17","4152","937","h","elianto","#f73b6a7A"," "," ","1","0","[2320.3999996185303,3927.1000003814697]","2","2","","","4152","26","3","3","lose","go","0"
"pit-trial","151","1285184","0.0-31.0","battery-v0.2","","""event"",""trial"",""time""
""fullscreenenter"",""1"",""6346""
","
","
","""event"",""trial"",""time""
""fullscreenenter"",""1"",""6346""
","
","","","897.3000001907349","","","17","4152","937","r","elianto","#3366ff99"," "," ","1","0","[1748.2000007629395,2766.1000003814697]","2","2","","","4152","27","1","1","win","go","1"
"pit-trial","152","1290058","0.0-32.0","battery-v0.2","","""event"",""trial"",""time""
""fullscreenenter"",""1"",""6346""
","
","
","""event"",""trial"",""time""
""fullscreenenter"",""1"",""6346""
","
","","","-1","","","17","4152","937","y","elianto","#f73b6a7A","-1","-1","1","0","[3736]","1","2","","","4152","28","2","4","lose","no-go","0"
"pit-trial","153","1294920","0.0-33.0","battery-v0.2","","""event"",""trial"",""time""
""fullscreenenter"",""1"",""6346""
","
","
","""event"",""trial"",""time""
""fullscreenenter"",""1"",""6346""
","
","","","-1","","","17","4152","937","h","elianto","#f73b6a7A"," ","-1","0","-10","[]","0","2","","","4152","29","3","3","lose","go","0"
"pit-trial","154","1298664","0.0-34.0","battery-v0.2","","""event"",""trial"",""time""
""fullscreenenter"",""1"",""6346""
","
","
","""event"",""trial"",""time""
""fullscreenenter"",""1"",""6346""
","
","","","875.5","","","17","4152","937","r","elianto","#3366ff99"," "," ","1","+10","[1726.3000001907349,3024.6000003814697]","2","2","","","4152","30","1","1","win","go","0"
"pit-trial","155","1303533","0.0-35.0","battery-v0.2","","""event"",""trial"",""time""
""fullscreenenter"",""1"",""6346""
","
","
","""event"",""trial"",""time""
""fullscreenenter"",""1"",""6346""
","
","","","-1","","","17","4152","937","y","elianto","#f73b6a7A","-1","-1","1","-10","[3952.6000003814697]","1","2","","","4152","31","2","4","lose","no-go","1"
"pit-trial","156","1307336","0.0-36.0","battery-v0.2","","""event"",""trial"",""time""
""fullscreenenter"",""1"",""6346""
","
","
","""event"",""trial"",""time""
""fullscreenenter"",""1"",""6346""
","
","","","940.6999998092651","","","17","4152","937","m","elianto","#f73b6a7A","-1"," ","0","-10","[1792,3397.300000190735]","2","2","","","4152","32","0","4","lose","no-go","0"
"pit-trial","157","1311754","0.0-37.0","battery-v0.2","","""event"",""trial"",""time""
""fullscreenenter"",""1"",""6346""
","
","
","""event"",""trial"",""time""
""fullscreenenter"",""1"",""6346""
","
","","","1558.5","","","17","4152","937","m","elianto","#f73b6a7A","-1"," ","0","0","[2410.5,3148.0999994277954]","2","2","","","4152","33","0","4","lose","no-go","1"
"pit-trial","158","1316631","0.0-38.0","battery-v0.2","","""event"",""trial"",""time""
""fullscreenenter"",""1"",""6346""
","
","
","""event"",""trial"",""time""
""fullscreenenter"",""1"",""6346""
","
","","","-1","","","17","4152","937","h","elianto","#f73b6a7A"," ","-1","0","-10","[2937.800000190735]","1","2","","","4152","34","3","3","lose","go","0"
"pit-trial","159","1321502","0.0-39.0","battery-v0.2","","""event"",""trial"",""time""
""fullscreenenter"",""1"",""6346""
","
","
","""event"",""trial"",""time""
""fullscreenenter"",""1"",""6346""
","
","","","-1","","","17","4152","937","r","elianto","#3366ff99"," ","-1","0","0","[]","0","2","","","4152","35","1","1","win","go","0"
"pit-trial","160","1324807","0.0-40.0","battery-v0.2","","""event"",""trial"",""time""
""fullscreenenter"",""1"",""6346""
","
","
","""event"",""trial"",""time""
""fullscreenenter"",""1"",""6346""
","
","","","439.1000003814697","","","17","4152","937","y","elianto","#f73b6a7A","-1"," ","0","-10","[1295.3000001907349,2409.300000190735]","2","2","","","4152","36","2","4","lose","no-go","0"
"pit-trial","161","1329079","0.0-41.0","battery-v0.2","","""event"",""trial"",""time""
""fullscreenenter"",""1"",""6346""
","
","
","""event"",""trial"",""time""
""fullscreenenter"",""1"",""6346""
","
","","","1415.6999998092651","","","17","4152","937","y","elianto","#f73b6a7A","-1"," ","0","-10","[2266.3999996185303,3182.0999994277954]","2","2","","","4152","37","2","4","lose","no-go","0"
"pit-trial","162","1333525","0.0-42.0","battery-v0.2","","""event"",""trial"",""time""
""fullscreenenter"",""1"",""6346""
","
","
","""event"",""trial"",""time""
""fullscreenenter"",""1"",""6346""
","
","","","1576.7999992370605","","","17","4152","937","r","elianto","#3366ff99"," "," ","1","+10","[2433.199999809265,3273]","2","2","","","4152","38","1","1","win","go","0"
"pit-trial","163","1338399","0.0-43.0","battery-v0.2","","""event"",""trial"",""time""
""fullscreenenter"",""1"",""6346""
","
","
","""event"",""trial"",""time""
""fullscreenenter"",""1"",""6346""
","
","","","-1","","","17","4152","937","h","elianto","#f73b6a7A"," ","-1","0","-10","[118.5]","1","2","","","4152","39","3","3","lose","go","0"
"pit-trial","164","1343234","0.0-44.0","battery-v0.2","","""event"",""trial"",""time""
""fullscreenenter"",""1"",""6346""
","
","
","""event"",""trial"",""time""
""fullscreenenter"",""1"",""6346""
","
","","","1965","","","17","4152","937","m","elianto","#f73b6a7A","-1"," ","0","-10","[2825]","1","2","","","4152","40","0","4","lose","no-go","0"
"pit-trial","165","1346509","0.0-45.0","battery-v0.2","","""event"",""trial"",""time""
""fullscreenenter"",""1"",""6346""
","
","
","""event"",""trial"",""time""
""fullscreenenter"",""1"",""6346""
","
","","","408.6000003814697","","","17","4152","937","m","elianto","#f73b6a7A","-1"," ","0","-10","[1261.6999998092651]","1","2","","","4152","41","0","4","lose","no-go","0"
"pit-trial","166","1349978","0.0-46.0","battery-v0.2","","""event"",""trial"",""time""
""fullscreenenter"",""1"",""6346""
","
","
","""event"",""trial"",""time""
""fullscreenenter"",""1"",""6346""
","
","","","602.4000005722046","","","17","4152","937","h","elianto","#f73b6a7A"," "," ","1","0","[1458.8000001907349]","1","2","","","4152","42","3","3","lose","go","0"
"pit-trial","167","1354762","0.0-47.0","battery-v0.2","","""event"",""trial"",""time""
""fullscreenenter"",""1"",""6346""
","
","
","""event"",""trial"",""time""
""fullscreenenter"",""1"",""6346""
","
","","","1919.1999998092651","","","17","4152","937","y","elianto","#f73b6a7A","-1"," ","0","-10","[2770.800000190735]","1","2","","","4152","43","2","4","lose","no-go","0"
"pit-trial","168","1359647","0.0-48.0","battery-v0.2","","""event"",""trial"",""time""
""fullscreenenter"",""1"",""6346""
","
","
","""event"",""trial"",""time""
""fullscreenenter"",""1"",""6346""
","
","","","-1","","","17","4152","937","r","elianto","#3366ff99"," ","-1","0","0","[3320.199999809265]","1","2","","","4152","44","1","1","win","go","0"
"pit-trial","169","1363242","0.0-49.0","battery-v0.2","","""event"",""trial"",""time""
""fullscreenenter"",""1"",""6346""
","
","
","""event"",""trial"",""time""
""fullscreenenter"",""1"",""6346""
","
","","","732.1999998092651","","","17","4152","937","m","elianto","#f73b6a7A","-1"," ","0","-10","[413.5,1585.5999994277954,2446.3999996185303]","3","2","","","4152","45","0","4","lose","no-go","0"
"pit-trial","170","1366454","0.0-50.0","battery-v0.2","","""event"",""trial"",""time""
""fullscreenenter"",""1"",""6346""
","
","
","""event"",""trial"",""time""
""fullscreenenter"",""1"",""6346""
","
","","","340.9000005722046","","","17","4152","937","h","elianto","#f73b6a7A"," "," ","1","0","[1197,1921.3999996185303,2733.7999992370605]","3","2","","","4152","46","3","3","lose","go","0"
"pit-trial","171","1369526","0.0-51.0","battery-v0.2","","""event"",""trial"",""time""
""fullscreenenter"",""1"",""6346""
","
","
","""event"",""trial"",""time""
""fullscreenenter"",""1"",""6346""
","
","","","210.5","","","17","4152","937","y","elianto","#f73b6a7A","-1"," ","0","-10","[350.4000005722046,1060.9000005722046,1672.1000003814697,1946.4000005722046,2324.800000190735,2754.800000190735]","6","2","","","4152","47","2","4","lose","no-go","0"
"pit-trial","172","1372413","0.0-52.0","battery-v0.2","","""event"",""trial"",""time""
""fullscreenenter"",""1"",""6346""
","
","
","""event"",""trial"",""time""
""fullscreenenter"",""1"",""6346""
","
","","","23.199999809265137","","","17","4152","937","z","elianto","#3366ff99","-1"," ","0","0","[316.80000019073486,875.6000003814697,1047.4000005722046,1339.1000003814697,1933.1999998092651,2315.300000190735]","6","2","","","4152","48","4","2","win","no-go","0"
"pit-trial","173","1375445","0.0-53.0","battery-v0.2","","""event"",""trial"",""time""
""fullscreenenter"",""1"",""6346""
","
","
","""event"",""trial"",""time""
""fullscreenenter"",""1"",""6346""
","
","","","160.69999980926514","","","17","4152","937","m","elianto","#f73b6a7A","-1"," ","0","-10","[351.4000005722046,657,1021.9000005722046,1669.7000007629395,2030.2000007629395,2504.800000190735,2948.7000007629395]","7","2","","","4152","49","0","4","lose","no-go","0"
"pit-trial","174","1380317","0.0-54.0","battery-v0.2","","""event"",""trial"",""time""
""fullscreenenter"",""1"",""6346""
","
","
","""event"",""trial"",""time""
""fullscreenenter"",""1"",""6346""
","
","","","-1","","","17","4152","937","z","elianto","#3366ff99","-1","-1","1","0","[2901.3999996185303]","1","2","","","4152","50","4","2","win","no-go","1"
"pit-trial","175","1383377","0.0-55.0","battery-v0.2","","""event"",""trial"",""time""
""fullscreenenter"",""1"",""6346""
","
","
","""event"",""trial"",""time""
""fullscreenenter"",""1"",""6346""
","
","","","197.70000076293945","","","17","4152","937","r","elianto","#3366ff99"," "," ","1","0","[1052.3000001907349]","1","2","","","4152","51","1","1","win","go","1"
"pit-trial","176","1388246","0.0-56.0","battery-v0.2","","""event"",""trial"",""time""
""fullscreenenter"",""1"",""6346""
","
","
","""event"",""trial"",""time""
""fullscreenenter"",""1"",""6346""
","
","","","-1","","","17","4152","937","h","elianto","#f73b6a7A"," ","-1","0","-10","[]","0","2","","","4152","52","3","3","lose","go","0"
"pit-trial","177","1391729","0.0-57.0","battery-v0.2","","""event"",""trial"",""time""
""fullscreenenter"",""1"",""6346""
","
","
","""event"",""trial"",""time""
""fullscreenenter"",""1"",""6346""
","
","","","624.4000005722046","","","17","4152","937","m","elianto","#f73b6a7A","-1"," ","0","-10","[1474.7000007629395]","1","2","","","4152","53","0","4","lose","no-go","0"
"pit-trial","178","1396601","0.0-58.0","battery-v0.2","","""event"",""trial"",""time""
""fullscreenenter"",""1"",""6346""
","
","
","""event"",""trial"",""time""
""fullscreenenter"",""1"",""6346""
","
","","","-1","","","17","4152","937","r","elianto","#3366ff99"," ","-1","0","0","[3022.2000007629395,3864.7000007629395,4591.900000572205]","3","2","","","4152","54","1","1","win","go","0"
"pit-trial","179","1401467","0.0-59.0","battery-v0.2","","""event"",""trial"",""time""
""fullscreenenter"",""1"",""6346""
","
","
","""event"",""trial"",""time""
""fullscreenenter"",""1"",""6346""
","
","","","-1","","","17","4152","937","z","elianto","#3366ff99","-1","-1","1","+10","[3611.3999996185303]","1","2","","","4152","55","4","2","win","no-go","0"
"pit-trial","180","1406348","0.0-60.0","battery-v0.2","","""event"",""trial"",""time""
""fullscreenenter"",""1"",""6346""
","
","
","""event"",""trial"",""time""
""fullscreenenter"",""1"",""6346""
","
","","","-1","","","17","4152","937","y","elianto","#f73b6a7A","-1","-1","1","-10","[2908.4000005722046,3987]","2","2","","","4152","56","2","4","lose","no-go","1"
"pit-trial","181","1411211","0.0-61.0","battery-v0.2","","""event"",""trial"",""time""
""fullscreenenter"",""1"",""6346""
","
","
","""event"",""trial"",""time""
""fullscreenenter"",""1"",""6346""
","
","","","2002.8999996185303","","","17","4152","937","h","elianto","#f73b6a7A"," "," ","1","0","[2853.300000190735]","1","2","","","4152","57","3","3","lose","go","0"
"pit-trial","182","1415031","0.0-62.0","battery-v0.2","","""event"",""trial"",""time""
""fullscreenenter"",""1"",""6346""
","
","
","""event"",""trial"",""time""
""fullscreenenter"",""1"",""6346""
","
","","","942.3000001907349","","","17","4152","937","r","elianto","#3366ff99"," "," ","1","0","[434.29999923706055,1802.5]","2","2","","","4152","58","1","1","win","go","1"
"pit-trial","183","1418652","0.0-63.0","battery-v0.2","","""event"",""trial"",""time""
""fullscreenenter"",""1"",""6346""
","
","
","""event"",""trial"",""time""
""fullscreenenter"",""1"",""6346""
","
","","","747.1999998092651","","","17","4152","937","m","elianto","#f73b6a7A","-1"," ","0","-10","[723.8000001907349,1599.8000001907349]","2","2","","","4152","59","0","4","lose","no-go","0"
"pit-trial","184","1422394","0.0-64.0","battery-v0.2","","""event"",""trial"",""time""
""fullscreenenter"",""1"",""6346""
","
","
","""event"",""trial"",""time""
""fullscreenenter"",""1"",""6346""
","
","","","871.5","","","17","4152","937","z","elianto","#3366ff99","-1"," ","0","0","[1732.5]","1","2","","","4152","60","4","2","win","no-go","0"
"pit-trial","185","1426782","0.0-65.0","battery-v0.2","","""event"",""trial"",""time""
""fullscreenenter"",""1"",""6346""
","
","
","""event"",""trial"",""time""
""fullscreenenter"",""1"",""6346""
","
","","","1520.3999996185303","","","17","4152","937","z","elianto","#3366ff99","-1"," ","0","+10","[2372.199999809265]","1","2","","","4152","61","4","2","win","no-go","1"
"pit-trial","186","1430441","0.0-66.0","battery-v0.2","","""event"",""trial"",""time""
""fullscreenenter"",""1"",""6346""
","
","
","""event"",""trial"",""time""
""fullscreenenter"",""1"",""6346""
","
","","","792.5","","","17","4152","937","y","elianto","#f73b6a7A","-1"," ","0","0","[629.6999998092651,1646.8000001907349]","2","2","","","4152","62","2","4","lose","no-go","1"
"pit-trial","187","1435306","0.0-67.0","battery-v0.2","","""event"",""trial"",""time""
""fullscreenenter"",""1"",""6346""
","
","
","""event"",""trial"",""time""
""fullscreenenter"",""1"",""6346""
","
","","","-1","","","17","4152","937","h","elianto","#f73b6a7A"," ","-1","0","-10","[]","0","2","","","4152","63","3","3","lose","go","0"
"pit-trial","188","1438643","0.0-68.0","battery-v0.2","","""event"",""trial"",""time""
""fullscreenenter"",""1"",""6346""
","
","
","""event"",""trial"",""time""
""fullscreenenter"",""1"",""6346""
","
","","","469.19999980926514","","","17","4152","937","r","elianto","#3366ff99"," "," ","1","+10","[1324.8999996185303]","1","2","","","4152","64","1","1","win","go","0"
"pit-trial","189","1443527","0.0-69.0","battery-v0.2","","""event"",""trial"",""time""
""fullscreenenter"",""1"",""6346""
","
","
","""event"",""trial"",""time""
""fullscreenenter"",""1"",""6346""
","
","","","-1","","","17","4152","937","z","elianto","#3366ff99","-1","-1","1","0","[]","0","2","","","4152","65","4","2","win","no-go","1"
"pit-trial","190","1446762","0.0-70.0","battery-v0.2","","""event"",""trial"",""time""
""fullscreenenter"",""1"",""6346""
","
","
","""event"",""trial"",""time""
""fullscreenenter"",""1"",""6346""
","
","","","377","","","17","4152","937","r","elianto","#3366ff99"," "," ","1","+10","[1227.5,1746,2449]","3","2","","","4152","66","1","1","win","go","0"
"pit-trial","191","1449648","0.0-71.0","battery-v0.2","","""event"",""trial"",""time""
""fullscreenenter"",""1"",""6346""
","
","
","""event"",""trial"",""time""
""fullscreenenter"",""1"",""6346""
","
","","","11.800000190734863","","","17","4152","937","y","elianto","#f73b6a7A","-1"," ","0","-10","[866.0999994277954,1988.7999992370605,2791.2999992370605]","3","2","","","4152","67","2","4","lose","no-go","0"
"pit-trial","192","1452561","0.0-72.0","battery-v0.2","","""event"",""trial"",""time""
""fullscreenenter"",""1"",""6346""
","
","
","""event"",""trial"",""time""
""fullscreenenter"",""1"",""6346""
","
","","","52.19999980926514","","","17","4152","937","h","elianto","#f73b6a7A"," "," ","1","0","[157.60000038146973,902.8000001907349]","2","2","","","4152","68","3","3","lose","go","0"
"pit-trial","193","1456297","0.0-73.0","battery-v0.2","","""event"",""trial"",""time""
""fullscreenenter"",""1"",""6346""
","
","
","""event"",""trial"",""time""
""fullscreenenter"",""1"",""6346""
","
","","","873.5999994277954","","","17","4152","937","h","elianto","#f73b6a7A"," "," ","1","0","[384.5999994277954,1726.0999994277954,2471.5999994277954,2876.699999809265]","4","2","","","4152","69","3","3","lose","go","0"
"pit-trial","194","1459883","0.0-74.0","battery-v0.2","","""event"",""trial"",""time""
""fullscreenenter"",""1"",""6346""
","
","
","""event"",""trial"",""time""
""fullscreenenter"",""1"",""6346""
","
","","","723.7999992370605","","","17","4152","937","c","elianto","#3366ff99"," "," ","1","+10","[733.1999998092651,1573.8000001907349,2390.6000003814697,2724.699999809265,2992.6000003814697]","5","2","","","4152","70","5","1","win","go","0"
"pit-trial","195","1463036","0.0-75.0","battery-v0.2","","""event"",""trial"",""time""
""fullscreenenter"",""1"",""6346""
","
","
","""event"",""trial"",""time""
""fullscreenenter"",""1"",""6346""
","
","","","288.9000005722046","","","17","4152","937","r","elianto","#3366ff99"," "," ","1","+10","[1146,2443.199999809265]","2","2","","","4152","71","1","1","win","go","0"
"pit-trial","196","1466111","0.0-76.0","battery-v0.2","","""event"",""trial"",""time""
""fullscreenenter"",""1"",""6346""
","
","
","""event"",""trial"",""time""
""fullscreenenter"",""1"",""6346""
","
","","","210.70000076293945","","","17","4152","937","z","elianto","#3366ff99","-1"," ","0","0","[1061.9000005722046,2483.5]","2","2","","","4152","72","4","2","win","no-go","0"
"pit-trial","197","1470979","0.0-77.0","battery-v0.2","","""event"",""trial"",""time""
""fullscreenenter"",""1"",""6346""
","
","
","""event"",""trial"",""time""
""fullscreenenter"",""1"",""6346""
","
","","","-1","","","17","4152","937","c","elianto","#3366ff99"," ","-1","0","0","[]","0","2","","","4152","73","5","1","win","go","0"
"pit-trial","198","1475286","0.0-78.0","battery-v0.2","","""event"",""trial"",""time""
""fullscreenenter"",""1"",""6346""
","
","
","""event"",""trial"",""time""
""fullscreenenter"",""1"",""6346""
","
","","","1436.8000001907349","","","17","4152","937","z","elianto","#3366ff99","-1"," ","0","0","[2289.5,2459,2656.6000003814697]","3","2","","","4152","74","4","2","win","no-go","0"
"pit-trial","199","1479556","0.0-79.0","battery-v0.2","","""event"",""trial"",""time""
""fullscreenenter"",""1"",""6346""
","
","
","""event"",""trial"",""time""
""fullscreenenter"",""1"",""6346""
","
","","","1406.8999996185303","","","17","4152","937","r","elianto","#3366ff99"," "," ","1","+10","[2257.1000003814697,3463.300000190735]","2","2","","","4152","75","1","1","win","go","0"
"pit-trial","200","1482635","0.0-80.0","battery-v0.2","","""event"",""trial"",""time""
""fullscreenenter"",""1"",""6346""
","
","
","""event"",""trial"",""time""
""fullscreenenter"",""1"",""6346""
","
","","","219.79999923706055","","","17","4152","937","h","elianto","#f73b6a7A"," "," ","1","0","[842.8000001907349,1070.0999994277954,1341.8000001907349,1772.6999998092651,2043.3000001907349,2323.8999996185303,2505.699999809265,2812,2993.300000190735]","9","2","","","4152","76","3","3","lose","go","0"
"pit-trial","201","1487514","0.0-81.0","battery-v0.2","","""event"",""trial"",""time""
""fullscreenenter"",""1"",""6346""
","
","
","""event"",""trial"",""time""
""fullscreenenter"",""1"",""6346""
","
","","","-1","","","17","4152","937","h","elianto","#f73b6a7A"," ","-1","0","-10","[]","0","2","","","4152","77","3","3","lose","go","0"
"pit-trial","202","1490685","0.0-82.0","battery-v0.2","","""event"",""trial"",""time""
""fullscreenenter"",""1"",""6346""
","
","
","""event"",""trial"",""time""
""fullscreenenter"",""1"",""6346""
","
","","","304.3999996185303","","","17","4152","937","c","elianto","#3366ff99"," "," ","1","0","[849,1156.1999998092651,1446.1999998092651,1692.1999998092651,1983.1999998092651,2166.3999996185303,2716.5,2904.1000003814697]","8","2","","","4152","78","5","1","win","go","1"
"pit-trial","203","1495556","0.0-83.0","battery-v0.2","","""event"",""trial"",""time""
""fullscreenenter"",""1"",""6346""
","
","
","""event"",""trial"",""time""
""fullscreenenter"",""1"",""6346""
","
","","","-1","","","17","4152","937","z","elianto","#3366ff99","-1","-1","1","+10","[17.799999237060547,234.89999961853027]","2","2","","","4152","79","4","2","win","no-go","0"
"pit-trial","204","1498639","0.0-84.0","battery-v0.2","","""event"",""trial"",""time""
""fullscreenenter"",""1"",""6346""
","
","
","""event"",""trial"",""time""
""fullscreenenter"",""1"",""6346""
","
","","","214.29999923706055","","","17","4152","937","b","elianto","#f73b6a7A","-1"," ","0","0","[834.2000007629395,1066.9000005722046,1301.5,1561.5,1771.3000001907349,2135,2328.5,2568.300000190735,2869.6000003814697]","9","2","","","4152","80","6","4","lose","no-go","1"
"pit-trial","205","1503506","0.0-85.0","battery-v0.2","","""event"",""trial"",""time""
""fullscreenenter"",""1"",""6346""
","
","
","""event"",""trial"",""time""
""fullscreenenter"",""1"",""6346""
","
","","","-1","","","17","4152","937","t","elianto","#f73b6a7A"," ","-1","0","-10","[119.19999980926514,407,655]","3","2","","","4152","81","7","3","lose","go","0"
"pit-trial","206","1506964","0.0-86.0","battery-v0.2","","""event"",""trial"",""time""
""fullscreenenter"",""1"",""6346""
","
","
","""event"",""trial"",""time""
""fullscreenenter"",""1"",""6346""
","
","","","588.6999998092651","","","17","4152","937","z","elianto","#3366ff99","-1"," ","0","0","[794.5,1442.0999994277954,1742.7999992370605,2060.5,2340.0999994277954,2652.199999809265,2925.699999809265,3177.699999809265]","8","2","","","4152","82","4","2","win","no-go","0"
"pit-trial","207","1510178","0.0-87.0","battery-v0.2","","""event"",""trial"",""time""
""fullscreenenter"",""1"",""6346""
","
","
","""event"",""trial"",""time""
""fullscreenenter"",""1"",""6346""
","
","","","356.19999980926514","","","17","4152","937","b","elianto","#f73b6a7A","-1"," ","0","0","[578.7000007629395,1206.1000003814697,1845.2000007629395,2619.2000007629395]","4","2","","","4152","83","6","4","lose","no-go","1"
"pit-trial","208","1513383","0.0-88.0","battery-v0.2","","""event"",""trial"",""time""
""fullscreenenter"",""1"",""6346""
","
","
","""event"",""trial"",""time""
""fullscreenenter"",""1"",""6346""
","
","","","335","","","17","4152","937","c","elianto","#3366ff99"," "," ","1","+10","[293.30000019073486,1186.6999998092651,2043,2277]","4","2","","","4152","84","5","1","win","go","0"
"pit-trial","209","1517225","0.0-89.0","battery-v0.2","","""event"",""trial"",""time""
""fullscreenenter"",""1"",""6346""
","
","
","""event"",""trial"",""time""
""fullscreenenter"",""1"",""6346""
","
","","","980.5","","","17","4152","937","z","elianto","#3366ff99","-1"," ","0","0","[1834.4000005722046,2661.300000190735,3107]","3","2","","","4152","85","4","2","win","no-go","0"
"pit-trial","210","1521080","0.0-90.0","battery-v0.2","","""event"",""trial"",""time""
""fullscreenenter"",""1"",""6346""
","
","
","""event"",""trial"",""time""
""fullscreenenter"",""1"",""6346""
","
","","","990.6000003814697","","","17","4152","937","c","elianto","#3366ff99"," "," ","1","+10","[346,1846.3999996185303]","2","2","","","4152","86","5","1","win","go","0"
"pit-trial","211","1525404","0.0-91.0","battery-v0.2","","""event"",""trial"",""time""
""fullscreenenter"",""1"",""6346""
","
","
","""event"",""trial"",""time""
""fullscreenenter"",""1"",""6346""
","
","","","1456.6999998092651","","","17","4152","937","t","elianto","#f73b6a7A"," "," ","1","0","[815,2309.5,3378.800000190735]","3","2","","","4152","87","7","3","lose","go","0"
"pit-trial","212","1529838","0.0-92.0","battery-v0.2","","""event"",""trial"",""time""
""fullscreenenter"",""1"",""6346""
","
","
","""event"",""trial"",""time""
""fullscreenenter"",""1"",""6346""
","
","","","1561.0999994277954","","","17","4152","937","b","elianto","#f73b6a7A","-1"," ","0","-10","[765.5,2416.699999809265,3408.199999809265,3615.199999809265,4308]","5","2","","","4152","88","6","4","lose","no-go","0"
"pit-trial","213","1534704","0.0-93.0","battery-v0.2","","""event"",""trial"",""time""
""fullscreenenter"",""1"",""6346""
","
","
","""event"",""trial"",""time""
""fullscreenenter"",""1"",""6346""
","
","","","-1","","","17","4152","937","c","elianto","#3366ff99"," ","-1","0","0","[149]","1","2","","","4152","89","5","1","win","go","0"
"pit-trial","214","1538378","0.0-94.0","battery-v0.2","","""event"",""trial"",""time""
""fullscreenenter"",""1"",""6346""
","
","
","""event"",""trial"",""time""
""fullscreenenter"",""1"",""6346""
","
","","","813","","","17","4152","937","b","elianto","#f73b6a7A","-1"," ","0","-10","[766.6000003814697,1663]","2","2","","","4152","90","6","4","lose","no-go","0"
"pit-trial","215","1543258","0.0-95.0","battery-v0.2","","""event"",""trial"",""time""
""fullscreenenter"",""1"",""6346""
","
","
","""event"",""trial"",""time""
""fullscreenenter"",""1"",""6346""
","
","","","-1","","","17","4152","937","t","elianto","#f73b6a7A"," ","-1","0","-10","[]","0","2","","","4152","91","7","3","lose","go","0"
"pit-trial","216","1546658","0.0-96.0","battery-v0.2","","""event"",""trial"",""time""
""fullscreenenter"",""1"",""6346""
","
","
","""event"",""trial"",""time""
""fullscreenenter"",""1"",""6346""
","
","","","543.1999998092651","","","17","4152","937","z","elianto","#3366ff99","-1"," ","0","0","[773.5,1394.1999998092651]","2","2","","","4152","92","4","2","win","no-go","0"
"pit-trial","217","1549919","0.0-97.0","battery-v0.2","","""event"",""trial"",""time""
""fullscreenenter"",""1"",""6346""
","
","
","""event"",""trial"",""time""
""fullscreenenter"",""1"",""6346""
","
","","","384.9000005722046","","","17","4152","937","b","elianto","#f73b6a7A","-1"," ","0","-10","[1243.8999996185303]","1","2","","","4152","93","6","4","lose","no-go","0"
"pit-trial","218","1553663","0.0-98.0","battery-v0.2","","""event"",""trial"",""time""
""fullscreenenter"",""1"",""6346""
","
","
","""event"",""trial"",""time""
""fullscreenenter"",""1"",""6346""
","
","","","873.5","","","17","4152","937","t","elianto","#f73b6a7A"," "," ","1","0","[1727.1999998092651]","1","2","","","4152","94","7","3","lose","go","0"
"pit-trial","219","1557131","0.0-99.0","battery-v0.2","","""event"",""trial"",""time""
""fullscreenenter"",""1"",""6346""
","
","
","""event"",""trial"",""time""
""fullscreenenter"",""1"",""6346""
","
","","","607.8000001907349","","","17","4152","937","c","elianto","#3366ff99"," "," ","1","+10","[1459.2000007629395,2623.300000190735]","2","2","","","4152","95","5","1","win","go","0"
"pit-trial","220","1562003","0.0-100.0","battery-v0.2","","""event"",""trial"",""time""
""fullscreenenter"",""1"",""6346""
","
","
","""event"",""trial"",""time""
""fullscreenenter"",""1"",""6346""
","
","","","-1","","","17","4152","937","f","elianto","#3366ff99","-1","-1","1","+10","[3827.2999992370605]","1","2","","","4152","96","8","2","win","no-go","0"
"pit-trial","221","1565591","0.0-101.0","battery-v0.2","","""event"",""trial"",""time""
""fullscreenenter"",""1"",""6346""
","
","
","""event"",""trial"",""time""
""fullscreenenter"",""1"",""6346""
","
","","","720","","","17","4152","937","f","elianto","#3366ff99","-1"," ","0","+10","[1573.5999994277954]","1","2","","","4152","97","8","2","win","no-go","1"
"pit-trial","222","1568560","0.0-102.0","battery-v0.2","","""event"",""trial"",""time""
""fullscreenenter"",""1"",""6346""
","
","
","""event"",""trial"",""time""
""fullscreenenter"",""1"",""6346""
","
","","","114.19999980926514","","","17","4152","937","t","elianto","#f73b6a7A"," "," ","1","-10","[424.79999923706055,964.5999994277954,1555.1999998092651,1784.0999994277954,2092.699999809265,2385.2999992370605]","6","2","","","4152","98","7","3","lose","go","1"
"pit-trial","223","1571904","0.0-103.0","battery-v0.2","","""event"",""trial"",""time""
""fullscreenenter"",""1"",""6346""
","
","
","""event"",""trial"",""time""
""fullscreenenter"",""1"",""6346""
","
","","","484.8999996185303","","","17","4152","937","b","elianto","#f73b6a7A","-1"," ","0","0","[46.10000038146973,796.3000001907349,1338.5,1855.3000001907349,2377.699999809265,2953.9000005722046]","6","2","","","4152","99","6","4","lose","no-go","1"
"pit-trial","224","1575087","0.0-104.0","battery-v0.2","","""event"",""trial"",""time""
""fullscreenenter"",""1"",""6346""
","
","
","""event"",""trial"",""time""
""fullscreenenter"",""1"",""6346""
","
","","","304.5999994277954","","","17","4152","937","c","elianto","#3366ff99"," "," ","1","0","[147.19999980926514,689.3999996185303,1157.8999996185303,1688.6999998092651,2198.1000003814697]","5","2","","","4152","100","5","1","win","go","1"
"pit-trial","225","1579309","0.0-105.0","battery-v0.2","","""event"",""trial"",""time""
""fullscreenenter"",""1"",""6346""
","
","
","""event"",""trial"",""time""
""fullscreenenter"",""1"",""6346""
","
","","","1355.7000007629395","","","17","4152","937","b","elianto","#f73b6a7A","-1"," ","0","0","[2212.5]","1","2","","","4152","101","6","4","lose","no-go","1"
"pit-trial","226","1583440","0.0-106.0","battery-v0.2","","""event"",""trial"",""time""
""fullscreenenter"",""1"",""6346""
","
","
","""event"",""trial"",""time""
""fullscreenenter"",""1"",""6346""
","
","","","1268.3999996185303","","","17","4152","937","f","elianto","#3366ff99","-1"," ","0","0","[2120.800000190735]","1","2","","","4152","102","8","2","win","no-go","0"
"pit-trial","227","1588310","0.0-107.0","battery-v0.2","","""event"",""trial"",""time""
""fullscreenenter"",""1"",""6346""
","
","
","""event"",""trial"",""time""
""fullscreenenter"",""1"",""6346""
","
","","","-1","","","17","4152","937","c","elianto","#3366ff99"," ","-1","0","0","[783.1999998092651,3189.300000190735]","2","2","","","4152","103","5","1","win","go","0"
"pit-trial","228","1593179","0.0-108.0","battery-v0.2","","""event"",""trial"",""time""
""fullscreenenter"",""1"",""6346""
","
","
","""event"",""trial"",""time""
""fullscreenenter"",""1"",""6346""
","
","","","-1","","","17","4152","937","n","elianto","#3366ff99","-1","-1","1","+10","[727.6000003814697,3750.6000003814697]","2","2","","","4152","104","9","2","win","no-go","0"
"pit-trial","229","1596503","0.0-109.0","battery-v0.2","","""event"",""trial"",""time""
""fullscreenenter"",""1"",""6346""
","
","
","""event"",""trial"",""time""
""fullscreenenter"",""1"",""6346""
","
","","","459.5999994277954","","","17","4152","937","f","elianto","#3366ff99","-1"," ","0","0","[700.1000003814697,1310.1000003814697,2829]","3","2","","","4152","105","8","2","win","no-go","0"
"pit-trial","230","1599609","0.0-110.0","battery-v0.2","","""event"",""trial"",""time""
""fullscreenenter"",""1"",""6346""
","
","
","""event"",""trial"",""time""
""fullscreenenter"",""1"",""6346""
","
","","","235.5999994277954","","","17","4152","937","n","elianto","#3366ff99","-1"," ","0","+10","[62.89999961853027,1088.3999996185303]","2","2","","","4152","106","9","2","win","no-go","1"
"pit-trial","231","1602795","0.0-111.0","battery-v0.2","","""event"",""trial"",""time""
""fullscreenenter"",""1"",""6346""
","
","
","""event"",""trial"",""time""
""fullscreenenter"",""1"",""6346""
","
","","","321.3999996185303","","","17","4152","937","b","elianto","#f73b6a7A","-1"," ","0","0","[1173.7999992370605]","1","2","","","4152","107","6","4","lose","no-go","1"
"pit-trial","232","1605748","0.0-112.0","battery-v0.2","","""event"",""trial"",""time""
""fullscreenenter"",""1"",""6346""
","
","
","""event"",""trial"",""time""
""fullscreenenter"",""1"",""6346""
","
","","","89","","","17","4152","937","c","elianto","#3366ff99"," "," ","1","+10","[944.4000005722046,2611.9000005722046]","2","2","","","4152","108","5","1","win","go","0"
"pit-trial","233","1610617","0.0-113.0","battery-v0.2","","""event"",""trial"",""time""
""fullscreenenter"",""1"",""6346""
","
","
","""event"",""trial"",""time""
""fullscreenenter"",""1"",""6346""
","
","","","-1","","","17","4152","937","b","elianto","#f73b6a7A","-1","-1","1","0","[3192.3999996185303]","1","2","","","4152","109","6","4","lose","no-go","0"
"pit-trial","234","1613746","0.0-114.0","battery-v0.2","","""event"",""trial"",""time""
""fullscreenenter"",""1"",""6346""
","
","
","""event"",""trial"",""time""
""fullscreenenter"",""1"",""6346""
","
","","","261.29999923706055","","","17","4152","937","n","elianto","#3366ff99","-1"," ","0","+10","[1118.1999998092651,1961.4000005722046]","2","2","","","4152","110","9","2","win","no-go","1"
"pit-trial","235","1617870","0.0-115.0","battery-v0.2","","""event"",""trial"",""time""
""fullscreenenter"",""1"",""6346""
","
","
","""event"",""trial"",""time""
""fullscreenenter"",""1"",""6346""
","
","","","1257.6999998092651","","","17","4152","937","f","elianto","#3366ff99","-1"," ","0","0","[2116.300000190735]","1","2","","","4152","111","8","2","win","no-go","0"
"pit-trial","236","1621056","0.0-116.0","battery-v0.2","","""event"",""trial"",""time""
""fullscreenenter"",""1"",""6346""
","
","
","""event"",""trial"",""time""
""fullscreenenter"",""1"",""6346""
","
","","","321.5","","","17","4152","937","c","elianto","#3366ff99"," "," ","1","+10","[1173.4000005722046]","1","2","","","4152","112","5","1","win","go","0"
"pit-trial","237","1625342","0.0-117.0","battery-v0.2","","""event"",""trial"",""time""
""fullscreenenter"",""1"",""6346""
","
","
","""event"",""trial"",""time""
""fullscreenenter"",""1"",""6346""
","
","","","1427.5","","","17","4152","937","f","elianto","#3366ff99","-1"," ","0","0","[2281.5]","1","2","","","4152","113","8","2","win","no-go","0"
"pit-trial","238","1629201","0.0-118.0","battery-v0.2","","""event"",""trial"",""time""
""fullscreenenter"",""1"",""6346""
","
","
","""event"",""trial"",""time""
""fullscreenenter"",""1"",""6346""
","
","","","999.8000001907349","","","17","4152","937","n","elianto","#3366ff99","-1"," ","0","0","[1852.3999996185303,2388.8999996185303]","2","2","","","4152","114","9","2","win","no-go","0"
"pit-trial","239","1634066","0.0-119.0","battery-v0.2","","""event"",""trial"",""time""
""fullscreenenter"",""1"",""6346""
","
","
","""event"",""trial"",""time""
""fullscreenenter"",""1"",""6346""
","
","","","-1","","","17","4152","937","c","elianto","#3366ff99"," ","-1","0","0","[]","0","2","","","4152","115","5","1","win","go","0"
"pit-trial","240","1637647","0.0-120.0","battery-v0.2","","""event"",""trial"",""time""
""fullscreenenter"",""1"",""6346""
","
","
","""event"",""trial"",""time""
""fullscreenenter"",""1"",""6346""
","
","","","712.0999994277954","","","17","4152","937","t","elianto","#f73b6a7A"," "," ","1","0","[1564.9000005722046]","1","2","","","4152","116","7","3","lose","go","0"
"pit-trial","241","1642110","0.0-121.0","battery-v0.2","","""event"",""trial"",""time""
""fullscreenenter"",""1"",""6346""
","
","
","""event"",""trial"",""time""
""fullscreenenter"",""1"",""6346""
","
","","","1593.3999996185303","","","17","4152","937","c","elianto","#3366ff99"," "," ","1","0","[2445.7999992370605]","1","2","","","4152","117","5","1","win","go","1"
"pit-trial","242","1646030","0.0-122.0","battery-v0.2","","""event"",""trial"",""time""
""fullscreenenter"",""1"",""6346""
","
","
","""event"",""trial"",""time""
""fullscreenenter"",""1"",""6346""
","
","","","1051.6999998092651","","","17","4152","937","f","elianto","#3366ff99","-1"," ","0","+10","[1903.1999998092651]","1","2","","","4152","118","8","2","win","no-go","1"
"pit-trial","243","1650900","0.0-123.0","battery-v0.2","","""event"",""trial"",""time""
""fullscreenenter"",""1"",""6346""
","
","
","""event"",""trial"",""time""
""fullscreenenter"",""1"",""6346""
","
","","","-1","","","17","4152","937","b","elianto","#f73b6a7A","-1","-1","1","0","[]","0","2","","","4152","119","6","4","lose","no-go","0"
"pit-trial","244","1654846","0.0-124.0","battery-v0.2","","""event"",""trial"",""time""
""fullscreenenter"",""1"",""6346""
","
","
","""event"",""trial"",""time""
""fullscreenenter"",""1"",""6346""
","
","","","1082.0999994277954","","","17","4152","937","n","elianto","#3366ff99","-1"," ","0","0","[1935.1999998092651]","1","2","","","4152","120","9","2","win","no-go","0"
"pit-trial","245","1658371","0.0-125.0","battery-v0.2","","""event"",""trial"",""time""
""fullscreenenter"",""1"",""6346""
","
","
","""event"",""trial"",""time""
""fullscreenenter"",""1"",""6346""
","
","","","657.0999994277954","","","17","4152","937","n","elianto","#3366ff99","-1"," ","0","0","[8.5,1509.9000005722046]","2","2","","","4152","121","9","2","win","no-go","0"
"pit-trial","246","1663247","0.0-126.0","battery-v0.2","","""event"",""trial"",""time""
""fullscreenenter"",""1"",""6346""
","
","
","""event"",""trial"",""time""
""fullscreenenter"",""1"",""6346""
","
","","","-1","","","17","4152","937","f","elianto","#3366ff99","-1","-1","1","+10","[]","0","2","","","4152","122","8","2","win","no-go","0"
"pit-trial","247","1666866","0.0-127.0","battery-v0.2","","""event"",""trial"",""time""
""fullscreenenter"",""1"",""6346""
","
","
","""event"",""trial"",""time""
""fullscreenenter"",""1"",""6346""
","
","","","752.6999998092651","","","17","4152","937","c","elianto","#3366ff99"," "," ","1","+10","[1613]","1","2","","","4152","123","5","1","win","go","0"
"pit-trial","248","1670918","0.0-128.0","battery-v0.2","","""event"",""trial"",""time""
""fullscreenenter"",""1"",""6346""
","
","
","""event"",""trial"",""time""
""fullscreenenter"",""1"",""6346""
","
","","","1179.6000003814697","","","17","4152","937","t","elianto","#f73b6a7A"," "," ","1","0","[2034.0999994277954]","1","2","","","4152","124","7","3","lose","go","0"
"pit-trial","249","1674504","0.0-129.0","battery-v0.2","","""event"",""trial"",""time""
""fullscreenenter"",""1"",""6346""
","
","
","""event"",""trial"",""time""
""fullscreenenter"",""1"",""6346""
","
","","","726.1000003814697","","","17","4152","937","n","elianto","#3366ff99","-1"," ","0","0","[1576.6000003814697,2373.9000005722046,2912.800000190735,3279.7000007629395]","4","2","","","4152","125","9","2","win","no-go","0"
"pit-trial","250","1677877","0.0-130.0","battery-v0.2","","""event"",""trial"",""time""
""fullscreenenter"",""1"",""6346""
","
","
","""event"",""trial"",""time""
""fullscreenenter"",""1"",""6346""
","
","","","505.19999980926514","","","17","4152","937","f","elianto","#3366ff99","-1"," ","0","0","[630,1358.1999998092651,1955.8999996185303,2231.699999809265,2510.300000190735,3189.300000190735]","6","2","","","4152","126","8","2","win","no-go","0"
"pit-trial","251","1680741","0.0-131.0","battery-v0.2","","""event"",""trial"",""time""
""fullscreenenter"",""1"",""6346""
","
","
","""event"",""trial"",""time""
""fullscreenenter"",""1"",""6346""
","
","","","2.90000057220459","","","17","4152","937","b","elianto","#f73b6a7A","-1"," ","0","-10","[220.5,856.5999994277954,1287.3999996185303,1957.1999998092651,2499.199999809265]","5","2","","","4152","127","6","4","lose","no-go","0"
"pit-trial","252","1683878","0.0-132.0","battery-v0.2","","""event"",""trial"",""time""
""fullscreenenter"",""1"",""6346""
","
","
","""event"",""trial"",""time""
""fullscreenenter"",""1"",""6346""
","
","","","274.5","","","17","4152","937","t","elianto","#f73b6a7A"," "," ","1","0","[234.5,1127.1999998092651]","2","2","","","4152","128","7","3","lose","go","0"
"pit-trial","253","1687800","0.0-133.0","battery-v0.2","","""event"",""trial"",""time""
""fullscreenenter"",""1"",""6346""
","
","
","""event"",""trial"",""time""
""fullscreenenter"",""1"",""6346""
","
","","","1060.8000001907349","","","17","4152","937","t","elianto","#f73b6a7A"," "," ","1","0","[1913.7000007629395,2563.4000005722046]","2","2","","","4152","129","7","3","lose","go","0"
"pit-trial","254","1692247","0.0-134.0","battery-v0.2","","""event"",""trial"",""time""
""fullscreenenter"",""1"",""6346""
","
","
","""event"",""trial"",""time""
""fullscreenenter"",""1"",""6346""
","
","","","1592.0999994277954","","","17","4152","937","b","elianto","#f73b6a7A","-1"," ","0","-10","[2442.3999996185303]","1","2","","","4152","130","6","4","lose","no-go","0"
"pit-trial","255","1695214","0.0-135.0","battery-v0.2","","""event"",""trial"",""time""
""fullscreenenter"",""1"",""6346""
","
","
","""event"",""trial"",""time""
""fullscreenenter"",""1"",""6346""
","
","","","104.59999942779541","","","17","4152","937","f","elianto","#3366ff99","-1"," ","0","0","[956.6999998092651]","1","2","","","4152","131","8","2","win","no-go","0"
"pit-trial","256","1699959","0.0-136.0","battery-v0.2","","""event"",""trial"",""time""
""fullscreenenter"",""1"",""6346""
","
","
","""event"",""trial"",""time""
""fullscreenenter"",""1"",""6346""
","
","","","1862.8999996185303","","","17","4152","937","n","elianto","#3366ff99","-1"," ","0","+10","[259.69999980926514,2724.5]","2","2","","","4152","132","9","2","win","no-go","1"
"pit-trial","257","1702986","0.0-137.0","battery-v0.2","","""event"",""trial"",""time""
""fullscreenenter"",""1"",""6346""
","
","
","""event"",""trial"",""time""
""fullscreenenter"",""1"",""6346""
","
","","","168.4000005722046","","","17","4152","937","t","elianto","#f73b6a7A"," "," ","1","-10","[1018.6999998092651,1814.3999996185303]","2","2","","","4152","133","7","3","lose","go","1"
"pit-trial","258","1707859","0.0-138.0","battery-v0.2","","""event"",""trial"",""time""
""fullscreenenter"",""1"",""6346""
","
","
","""event"",""trial"",""time""
""fullscreenenter"",""1"",""6346""
","
","","","-1","","","17","4152","937","f","elianto","#3366ff99","-1","-1","1","+10","[]","0","2","","","4152","134","8","2","win","no-go","0"
"pit-trial","259","1712741","0.0-139.0","battery-v0.2","","""event"",""trial"",""time""
