"trial_type","trial_index","time_elapsed","internal_node_id","task_version","subject_id","interactions","blur_events","focus_events","fullscreenenter_events","fullscreenexit_events","success","view_history","rt","responses","num_errors","age","subject","participantId","rune","rune_set","hex","correct","choice","accuracy","outcome","keys","total_keys","block","practice","value","sub","trial","stimulus","robot","valence","action","sham"
"pavlovia","0","25","0.0-0.0","battery-v0.2","","""event"",""trial"",""time""
""fullscreenenter"",""1"",""2182""
","
","
","""event"",""trial"",""time""
""fullscreenenter"",""1"",""2182""
","
","","","","","","","","","","","","","","","","","","","","","","","","","","",""
"fullscreen","1","3120","0.0-1.0","battery-v0.2","","""event"",""trial"",""time""
""fullscreenenter"",""1"",""2182""
""fullscreenexit"",""2"",""4209""
""blur"",""2"",""7250""
""focus"",""2"",""12940""
","""event"",""trial"",""time""
""blur"",""2"",""7250""
","""event"",""trial"",""time""
""focus"",""2"",""12940""
","""event"",""trial"",""time""
""fullscreenenter"",""1"",""2182""
","""event"",""trial"",""time""
""fullscreenexit"",""2"",""4209""
","true","","","","","","","","","","","","","","","","","","","","","","","","","",""
"pit-instructions","2","12999","0.0-2.0-0.0","battery-v0.2","","""event"",""trial"",""time""
""fullscreenenter"",""1"",""2182""
""fullscreenexit"",""2"",""4209""
""blur"",""2"",""7250""
""focus"",""2"",""12940""
","""event"",""trial"",""time""
""blur"",""2"",""7250""
","""event"",""trial"",""time""
""focus"",""2"",""12940""
","""event"",""trial"",""time""
""fullscreenenter"",""1"",""2182""
","""event"",""trial"",""time""
""fullscreenexit"",""2"",""4209""
","","[{""page_index"":0,""viewing_time"":9870.5}]","9871.199999928474","","","","","","","","","","","","","","","","","","","","","","","",""
"pit-comprehension","3","18066","0.0-2.0-1.0-0.0","battery-v0.2","","""event"",""trial"",""time""
""fullscreenenter"",""1"",""2182""
""fullscreenexit"",""2"",""4209""
""blur"",""2"",""7250""
""focus"",""2"",""12940""
","""event"",""trial"",""time""
""blur"",""2"",""7250""
","""event"",""trial"",""time""
""focus"",""2"",""12940""
","""event"",""trial"",""time""
""fullscreenenter"",""1"",""2182""
","""event"",""trial"",""time""
""fullscreenexit"",""2"",""4209""
","","","5060.600000023842","[""shark""]","0","11","17871","5831","","","","","","","","","","","","","","","","","","",""
"pit-instructions","4","19464","0.0-2.0-1.0-1.0","battery-v0.2","","""event"",""trial"",""time""
""fullscreenenter"",""1"",""2182""
""fullscreenexit"",""2"",""4209""
""blur"",""2"",""7250""
""focus"",""2"",""12940""
","""event"",""trial"",""time""
""blur"",""2"",""7250""
","""event"",""trial"",""time""
""focus"",""2"",""12940""
","""event"",""trial"",""time""
""fullscreenenter"",""1"",""2182""
","""event"",""trial"",""time""
""fullscreenexit"",""2"",""4209""
","","[{""page_index"":0,""viewing_time"":1379.6000000238419}]","1380.2000000476837","","","","","","","","","","","","","","","","","","","","","","","",""
"pit-comprehension","5","23737","0.0-2.0-2.0-0.0","battery-v0.2","","""event"",""trial"",""time""
""fullscreenenter"",""1"",""2182""
""fullscreenexit"",""2"",""4209""
""blur"",""2"",""7250""
""focus"",""2"",""12940""
","""event"",""trial"",""time""
""blur"",""2"",""7250""
","""event"",""trial"",""time""
""focus"",""2"",""12940""
","""event"",""trial"",""time""
""fullscreenenter"",""1"",""2182""
","""event"",""trial"",""time""
""fullscreenexit"",""2"",""4209""
","","","4267.600000023842","[""tiger""]","0","11","17871","5831","","","","","","","","","","","","","","","","","","",""
"pit-instructions","6","25630","0.0-2.0-2.0-1.0","battery-v0.2","","""event"",""trial"",""time""
""fullscreenenter"",""1"",""2182""
""fullscreenexit"",""2"",""4209""
""blur"",""2"",""7250""
""focus"",""2"",""12940""
","""event"",""trial"",""time""
""blur"",""2"",""7250""
","""event"",""trial"",""time""
""focus"",""2"",""12940""
","""event"",""trial"",""time""
""fullscreenenter"",""1"",""2182""
","""event"",""trial"",""time""
""fullscreenexit"",""2"",""4209""
","","[{""page_index"":0,""viewing_time"":1889.0999999046326}]","1889.5","","","","","","","","","","","","","","","","","","","","","","","",""
"pit-instructions","7","121250","0.0-2.0-3.0","battery-v0.2","","""event"",""trial"",""time""
""fullscreenenter"",""1"",""2182""
""fullscreenexit"",""2"",""4209""
""blur"",""2"",""7250""
""focus"",""2"",""12940""
","""event"",""trial"",""time""
""blur"",""2"",""7250""
","""event"",""trial"",""time""
""focus"",""2"",""12940""
","""event"",""trial"",""time""
""fullscreenenter"",""1"",""2182""
","""event"",""trial"",""time""
""fullscreenexit"",""2"",""4209""
","","[{""page_index"":0,""viewing_time"":8728},{""page_index"":1,""viewing_time"":6216.200000047684},{""page_index"":2,""viewing_time"":6752.699999928474},{""page_index"":3,""viewing_time"":6422.200000047684},{""page_index"":4,""viewing_time"":5042.699999928474},{""page_index"":5,""viewing_time"":5412.200000047684},{""page_index"":6,""viewing_time"":7828.899999976158},{""page_index"":7,""viewing_time"":7716.399999976158},{""page_index"":8,""viewing_time"":6591.5},{""page_index"":9,""viewing_time"":5829.400000095367},{""page_index"":10,""viewing_time"":8066.899999976158},{""page_index"":11,""viewing_time"":8291.5},{""page_index"":12,""viewing_time"":7625.199999928474},{""page_index"":13,""viewing_time"":5082.200000047684}]","95607","","","","","","","","","","","","","","","","","","","","","","","",""
"pit-trial","8","124748","0.0-2.0-4.0-0.0","battery-v0.2","","""event"",""trial"",""time""
""fullscreenenter"",""1"",""2182""
""fullscreenexit"",""2"",""4209""
""blur"",""2"",""7250""
""focus"",""2"",""12940""
","""event"",""trial"",""time""
""blur"",""2"",""7250""
","""event"",""trial"",""time""
""focus"",""2"",""12940""
","""event"",""trial"",""time""
""fullscreenenter"",""1"",""2182""
","""event"",""trial"",""time""
""fullscreenexit"",""2"",""4209""
","","","640.7999999523163","","","11","17871","5831","&#9784;","elianto","#FFFFF080"," "," ","1","&#10004","[1491]","1","0","0","","","","","","","",""
"pit-trial","9","128225","0.0-2.0-4.1-0.1","battery-v0.2","","""event"",""trial"",""time""
""fullscreenenter"",""1"",""2182""
""fullscreenexit"",""2"",""4209""
""blur"",""2"",""7250""
""focus"",""2"",""12940""
","""event"",""trial"",""time""
""blur"",""2"",""7250""
","""event"",""trial"",""time""
""focus"",""2"",""12940""
","""event"",""trial"",""time""
""fullscreenenter"",""1"",""2182""
","""event"",""trial"",""time""
""fullscreenexit"",""2"",""4209""
","","","603.3000000715256","","","11","17871","5831","&#9784;","elianto","#FFFFF080"," "," ","1","&#10004","[1458.3999999761581]","1","0","0","","","","","","","",""
"pit-trial","10","131641","0.0-2.0-4.2-0.2","battery-v0.2","","""event"",""trial"",""time""
""fullscreenenter"",""1"",""2182""
""fullscreenexit"",""2"",""4209""
""blur"",""2"",""7250""
""focus"",""2"",""12940""
","""event"",""trial"",""time""
""blur"",""2"",""7250""
","""event"",""trial"",""time""
""focus"",""2"",""12940""
","""event"",""trial"",""time""
""fullscreenenter"",""1"",""2182""
","""event"",""trial"",""time""
""fullscreenexit"",""2"",""4209""
","","","556.6000000238419","","","11","17871","5831","&#9784;","elianto","#FFFFF080"," "," ","1","&#10004","[1407.1000000238419]","1","0","0","","","","","","","",""
"pit-trial","11","135101","0.0-2.0-4.3-0.3","battery-v0.2","","""event"",""trial"",""time""
""fullscreenenter"",""1"",""2182""
""fullscreenexit"",""2"",""4209""
""blur"",""2"",""7250""
""focus"",""2"",""12940""
","""event"",""trial"",""time""
""blur"",""2"",""7250""
","""event"",""trial"",""time""
""focus"",""2"",""12940""
","""event"",""trial"",""time""
""fullscreenenter"",""1"",""2182""
","""event"",""trial"",""time""
""fullscreenexit"",""2"",""4209""
","","","583.2000000476837","","","11","17871","5831","&#9784;","elianto","#FFFFF080"," "," ","1","&#10004","[1443.3000000715256]","1","0","0","","","","","","","",""
"pit-trial","12","138520","0.0-2.0-4.4-0.4","battery-v0.2","","""event"",""trial"",""time""
""fullscreenenter"",""1"",""2182""
""fullscreenexit"",""2"",""4209""
""blur"",""2"",""7250""
""focus"",""2"",""12940""
","""event"",""trial"",""time""
""blur"",""2"",""7250""
","""event"",""trial"",""time""
""focus"",""2"",""12940""
","""event"",""trial"",""time""
""fullscreenenter"",""1"",""2182""
","""event"",""trial"",""time""
""fullscreenexit"",""2"",""4209""
","","","556.9000000953674","","","11","17871","5831","&#9784;","elianto","#FFFFF080"," "," ","1","&#10004","[1408]","1","0","0","","","","","","","",""
"pit-instructions","13","161097","0.0-2.0-5.0","battery-v0.2","","""event"",""trial"",""time""
""fullscreenenter"",""1"",""2182""
""fullscreenexit"",""2"",""4209""
""blur"",""2"",""7250""
""focus"",""2"",""12940""
","""event"",""trial"",""time""
""blur"",""2"",""7250""
","""event"",""trial"",""time""
""focus"",""2"",""12940""
","""event"",""trial"",""time""
""fullscreenenter"",""1"",""2182""
","""event"",""trial"",""time""
""fullscreenexit"",""2"",""4209""
","","[{""page_index"":0,""viewing_time"":4464.5},{""page_index"":1,""viewing_time"":6088.100000023842},{""page_index"":2,""viewing_time"":6217.199999928474},{""page_index"":3,""viewing_time"":5802.600000023842}]","22572.899999976158","","","","","","","","","","","","","","","","","","","","","","","",""
"pit-trial","14","165971","0.0-2.0-6.0-0.0","battery-v0.2","","""event"",""trial"",""time""
""fullscreenenter"",""1"",""2182""
""fullscreenexit"",""2"",""4209""
""blur"",""2"",""7250""
""focus"",""2"",""12940""
","""event"",""trial"",""time""
""blur"",""2"",""7250""
","""event"",""trial"",""time""
""focus"",""2"",""12940""
","""event"",""trial"",""time""
""fullscreenenter"",""1"",""2182""
","""event"",""trial"",""time""
""fullscreenexit"",""2"",""4209""
","","","-1","","","11","17871","5831","&#9854;","elianto","#FFFFF080","-1","-1","1","&#10004","[]","0","0","1","","","","","","","",""
"pit-trial","15","170831","0.0-2.0-6.1-0.1","battery-v0.2","","""event"",""trial"",""time""
""fullscreenenter"",""1"",""2182""
""fullscreenexit"",""2"",""4209""
""blur"",""2"",""7250""
""focus"",""2"",""12940""
","""event"",""trial"",""time""
""blur"",""2"",""7250""
","""event"",""trial"",""time""
""focus"",""2"",""12940""
","""event"",""trial"",""time""
""fullscreenenter"",""1"",""2182""
","""event"",""trial"",""time""
""fullscreenexit"",""2"",""4209""
","","","-1","","","11","17871","5831","&#9854;","elianto","#FFFFF080","-1","-1","1","&#10004","[]","0","0","1","","","","","","","",""
"pit-trial","16","175712","0.0-2.0-6.2-0.2","battery-v0.2","","""event"",""trial"",""time""
""fullscreenenter"",""1"",""2182""
""fullscreenexit"",""2"",""4209""
""blur"",""2"",""7250""
""focus"",""2"",""12940""
","""event"",""trial"",""time""
""blur"",""2"",""7250""
","""event"",""trial"",""time""
""focus"",""2"",""12940""
","""event"",""trial"",""time""
""fullscreenenter"",""1"",""2182""
","""event"",""trial"",""time""
""fullscreenexit"",""2"",""4209""
","","","-1","","","11","17871","5831","&#9854;","elianto","#FFFFF080","-1","-1","1","&#10004","[]","0","0","1","","","","","","","",""
"pit-trial","17","180579","0.0-2.0-6.3-0.3","battery-v0.2","","""event"",""trial"",""time""
""fullscreenenter"",""1"",""2182""
""fullscreenexit"",""2"",""4209""
""blur"",""2"",""7250""
""focus"",""2"",""12940""
","""event"",""trial"",""time""
""blur"",""2"",""7250""
","""event"",""trial"",""time""
""focus"",""2"",""12940""
","""event"",""trial"",""time""
""fullscreenenter"",""1"",""2182""
","""event"",""trial"",""time""
""fullscreenexit"",""2"",""4209""
","","","-1","","","11","17871","5831","&#9854;","elianto","#FFFFF080","-1","-1","1","&#10004","[]","0","0","1","","","","","","","",""
"pit-trial","18","185452","0.0-2.0-6.4-0.4","battery-v0.2","","""event"",""trial"",""time""
""fullscreenenter"",""1"",""2182""
""fullscreenexit"",""2"",""4209""
""blur"",""2"",""7250""
""focus"",""2"",""12940""
","""event"",""trial"",""time""
""blur"",""2"",""7250""
","""event"",""trial"",""time""
""focus"",""2"",""12940""
","""event"",""trial"",""time""
""fullscreenenter"",""1"",""2182""
","""event"",""trial"",""time""
""fullscreenexit"",""2"",""4209""
","","","-1","","","11","17871","5831","&#9854;","elianto","#FFFFF080","-1","-1","1","&#10004","[]","0","0","1","","","","","","","",""
"pit-instructions","19","312872","0.0-2.0-7.0","battery-v0.2","","""event"",""trial"",""time""
""fullscreenenter"",""1"",""2182""
""fullscreenexit"",""2"",""4209""
""blur"",""2"",""7250""
""focus"",""2"",""12940""
","""event"",""trial"",""time""
""blur"",""2"",""7250""
","""event"",""trial"",""time""
""focus"",""2"",""12940""
","""event"",""trial"",""time""
""fullscreenenter"",""1"",""2182""
","""event"",""trial"",""time""
""fullscreenexit"",""2"",""4209""
","","[{""page_index"":0,""viewing_time"":5904},{""page_index"":1,""viewing_time"":9704.899999976158},{""page_index"":2,""viewing_time"":7197.399999976158},{""page_index"":3,""viewing_time"":5547.600000023842},{""page_index"":4,""viewing_time"":5121.5},{""page_index"":5,""viewing_time"":6332.700000047684},{""page_index"":6,""viewing_time"":5764.299999952316},{""page_index"":7,""viewing_time"":9647.700000047684},{""page_index"":8,""viewing_time"":7554.600000023842},{""page_index"":9,""viewing_time"":6610.5},{""page_index"":10,""viewing_time"":7545.799999952316},{""page_index"":11,""viewing_time"":6223.799999952316},{""page_index"":12,""viewing_time"":8492.400000095367},{""page_index"":13,""viewing_time"":6245.399999976158},{""page_index"":14,""viewing_time"":7565.899999976158},{""page_index"":15,""viewing_time"":6253.799999952316},{""page_index"":16,""viewing_time"":7269.400000095367},{""page_index"":17,""viewing_time"":8434.799999952316}]","127416.89999997616","","","","","","","","","","","","","","","","","","","","","","","",""
"pit-trial","20","316173","0.0-2.0-8.0-0.0","battery-v0.2","","""event"",""trial"",""time""
""fullscreenenter"",""1"",""2182""
""fullscreenexit"",""2"",""4209""
""blur"",""2"",""7250""
""focus"",""2"",""12940""
","""event"",""trial"",""time""
""blur"",""2"",""7250""
","""event"",""trial"",""time""
""focus"",""2"",""12940""
","""event"",""trial"",""time""
""fullscreenenter"",""1"",""2182""
","""event"",""trial"",""time""
""fullscreenexit"",""2"",""4209""
","","","444.89999997615814","","","11","17871","5831","&#9776;","elianto","#3366ff99"," "," ","1","+10","[1296.2999999523163]","1","0","1","","","","","","","",""
"pit-trial","21","319485","0.0-2.0-8.0-1.0","battery-v0.2","","""event"",""trial"",""time""
""fullscreenenter"",""1"",""2182""
""fullscreenexit"",""2"",""4209""
""blur"",""2"",""7250""
""focus"",""2"",""12940""
","""event"",""trial"",""time""
""blur"",""2"",""7250""
","""event"",""trial"",""time""
""focus"",""2"",""12940""
","""event"",""trial"",""time""
""fullscreenenter"",""1"",""2182""
","""event"",""trial"",""time""
""fullscreenexit"",""2"",""4209""
","","","441.10000002384186","","","11","17871","5831","&#9776;","elianto","#3366ff99"," "," ","1","+10","[1291.9000000953674]","1","0","1","","","","","","","",""
"pit-trial","22","322867","0.0-2.0-8.0-2.0","battery-v0.2","","""event"",""trial"",""time""
""fullscreenenter"",""1"",""2182""
""fullscreenexit"",""2"",""4209""
""blur"",""2"",""7250""
""focus"",""2"",""12940""
","""event"",""trial"",""time""
""blur"",""2"",""7250""
","""event"",""trial"",""time""
""focus"",""2"",""12940""
","""event"",""trial"",""time""
""fullscreenenter"",""1"",""2182""
","""event"",""trial"",""time""
""fullscreenexit"",""2"",""4209""
","","","517.8999999761581","","","11","17871","5831","&#9776;","elianto","#3366ff99"," "," ","1","+10","[1371.3999999761581]","1","0","1","","","","","","","",""
"pit-trial","23","326264","0.0-2.0-8.0-3.0","battery-v0.2","","""event"",""trial"",""time""
""fullscreenenter"",""1"",""2182""
""fullscreenexit"",""2"",""4209""
""blur"",""2"",""7250""
""focus"",""2"",""12940""
","""event"",""trial"",""time""
""blur"",""2"",""7250""
","""event"",""trial"",""time""
""focus"",""2"",""12940""
","""event"",""trial"",""time""
""fullscreenenter"",""1"",""2182""
","""event"",""trial"",""time""
""fullscreenexit"",""2"",""4209""
","","","529","","","11","17871","5831","&#9776;","elianto","#3366ff99"," "," ","1","0","[1383.7000000476837]","1","0","1","","","","","","","",""
"pit-trial","24","329623","0.0-2.0-8.0-4.0","battery-v0.2","","""event"",""trial"",""time""
""fullscreenenter"",""1"",""2182""
""fullscreenexit"",""2"",""4209""
""blur"",""2"",""7250""
""focus"",""2"",""12940""
","""event"",""trial"",""time""
""blur"",""2"",""7250""
","""event"",""trial"",""time""
""focus"",""2"",""12940""
","""event"",""trial"",""time""
""fullscreenenter"",""1"",""2182""
","""event"",""trial"",""time""
""fullscreenexit"",""2"",""4209""
","","","490.2999999523163","","","11","17871","5831","&#9776;","elianto","#3366ff99"," "," ","1","+10","[1348.6999999284744]","1","0","1","","","","","","","",""
"pit-trial","25","333048","0.0-2.0-8.1-0.1","battery-v0.2","","""event"",""trial"",""time""
""fullscreenenter"",""1"",""2182""
""fullscreenexit"",""2"",""4209""
""blur"",""2"",""7250""
""focus"",""2"",""12940""
","""event"",""trial"",""time""
""blur"",""2"",""7250""
","""event"",""trial"",""time""
""focus"",""2"",""12940""
","""event"",""trial"",""time""
""fullscreenenter"",""1"",""2182""
","""event"",""trial"",""time""
""fullscreenexit"",""2"",""4209""
","","","563.7999999523163","","","11","17871","5831","&#9776;","elianto","#3366ff99"," "," ","1","+10","[1415.6999999284744]","1","0","1","","","","","","","",""
"pit-trial","26","336447","0.0-2.0-8.1-1.1","battery-v0.2","","""event"",""trial"",""time""
""fullscreenenter"",""1"",""2182""
""fullscreenexit"",""2"",""4209""
""blur"",""2"",""7250""
""focus"",""2"",""12940""
","""event"",""trial"",""time""
""blur"",""2"",""7250""
","""event"",""trial"",""time""
""focus"",""2"",""12940""
","""event"",""trial"",""time""
""fullscreenenter"",""1"",""2182""
","""event"",""trial"",""time""
""fullscreenexit"",""2"",""4209""
","","","532","","","11","17871","5831","&#9776;","elianto","#3366ff99"," "," ","1","+10","[1392.7000000476837]","1","0","1","","","","","","","",""
"pit-trial","27","339666","0.0-2.0-8.1-2.1","battery-v0.2","","""event"",""trial"",""time""
""fullscreenenter"",""1"",""2182""
""fullscreenexit"",""2"",""4209""
""blur"",""2"",""7250""
""focus"",""2"",""12940""
","""event"",""trial"",""time""
""blur"",""2"",""7250""
","""event"",""trial"",""time""
""focus"",""2"",""12940""
","""event"",""trial"",""time""
""fullscreenenter"",""1"",""2182""
","""event"",""trial"",""time""
""fullscreenexit"",""2"",""4209""
","","","351.60000002384186","","","11","17871","5831","&#9776;","elianto","#3366ff99"," "," ","1","+10","[1201.8999999761581]","1","0","1","","","","","","","",""
"pit-trial","28","343057","0.0-2.0-8.1-3.1","battery-v0.2","","""event"",""trial"",""time""
""fullscreenenter"",""1"",""2182""
""fullscreenexit"",""2"",""4209""
""blur"",""2"",""7250""
""focus"",""2"",""12940""
","""event"",""trial"",""time""
""blur"",""2"",""7250""
","""event"",""trial"",""time""
""focus"",""2"",""12940""
","""event"",""trial"",""time""
""fullscreenenter"",""1"",""2182""
","""event"",""trial"",""time""
""fullscreenexit"",""2"",""4209""
","","","528.2999999523163","","","11","17871","5831","&#9776;","elianto","#3366ff99"," "," ","1","0","[1385.9000000953674]","1","0","1","","","","","","","",""
"pit-trial","29","346319","0.0-2.0-8.1-4.1","battery-v0.2","","""event"",""trial"",""time""
""fullscreenenter"",""1"",""2182""
""fullscreenexit"",""2"",""4209""
""blur"",""2"",""7250""
""focus"",""2"",""12940""
","""event"",""trial"",""time""
""blur"",""2"",""7250""
","""event"",""trial"",""time""
""focus"",""2"",""12940""
","""event"",""trial"",""time""
""fullscreenenter"",""1"",""2182""
","""event"",""trial"",""time""
""fullscreenexit"",""2"",""4209""
","","","401.59999990463257","","","11","17871","5831","&#9776;","elianto","#3366ff99"," "," ","1","+10","[1254]","1","0","1","","","","","","","",""
"pit-trial","30","349693","0.0-2.0-8.2-0.2","battery-v0.2","","""event"",""trial"",""time""
""fullscreenenter"",""1"",""2182""
""fullscreenexit"",""2"",""4209""
""blur"",""2"",""7250""
""focus"",""2"",""12940""
","""event"",""trial"",""time""
""blur"",""2"",""7250""
","""event"",""trial"",""time""
""focus"",""2"",""12940""
","""event"",""trial"",""time""
""fullscreenenter"",""1"",""2182""
","""event"",""trial"",""time""
""fullscreenexit"",""2"",""4209""
","","","509","","","11","17871","5831","&#9776;","elianto","#3366ff99"," "," ","1","+10","[1360.8000000715256]","1","0","1","","","","","","","",""
"pit-trial","31","353213","0.0-2.0-8.2-1.2","battery-v0.2","","""event"",""trial"",""time""
""fullscreenenter"",""1"",""2182""
""fullscreenexit"",""2"",""4209""
""blur"",""2"",""7250""
""focus"",""2"",""12940""
","""event"",""trial"",""time""
""blur"",""2"",""7250""
","""event"",""trial"",""time""
""focus"",""2"",""12940""
","""event"",""trial"",""time""
""fullscreenenter"",""1"",""2182""
","""event"",""trial"",""time""
""fullscreenexit"",""2"",""4209""
","","","656.6000000238419","","","11","17871","5831","&#9776;","elianto","#3366ff99"," "," ","1","+10","[1508.7999999523163]","1","0","1","","","","","","","",""
"pit-trial","32","356655","0.0-2.0-8.2-2.2","battery-v0.2","","""event"",""trial"",""time""
""fullscreenenter"",""1"",""2182""
""fullscreenexit"",""2"",""4209""
""blur"",""2"",""7250""
""focus"",""2"",""12940""
","""event"",""trial"",""time""
""blur"",""2"",""7250""
","""event"",""trial"",""time""
""focus"",""2"",""12940""
","""event"",""trial"",""time""
""fullscreenenter"",""1"",""2182""
","""event"",""trial"",""time""
""fullscreenexit"",""2"",""4209""
","","","577.8999999761581","","","11","17871","5831","&#9776;","elianto","#3366ff99"," "," ","1","+10","[1428.6000000238419]","1","0","1","","","","","","","",""
"pit-trial","33","360054","0.0-2.0-8.2-3.2","battery-v0.2","","""event"",""trial"",""time""
""fullscreenenter"",""1"",""2182""
""fullscreenexit"",""2"",""4209""
""blur"",""2"",""7250""
""focus"",""2"",""12940""
","""event"",""trial"",""time""
""blur"",""2"",""7250""
","""event"",""trial"",""time""
""focus"",""2"",""12940""
","""event"",""trial"",""time""
""fullscreenenter"",""1"",""2182""
","""event"",""trial"",""time""
""fullscreenexit"",""2"",""4209""
","","","537.6000000238419","","","11","17871","5831","&#9776;","elianto","#3366ff99"," "," ","1","0","[1388.8000000715256]","1","0","1","","","","","","","",""
"pit-trial","34","363371","0.0-2.0-8.2-4.2","battery-v0.2","","""event"",""trial"",""time""
""fullscreenenter"",""1"",""2182""
""fullscreenexit"",""2"",""4209""
""blur"",""2"",""7250""
""focus"",""2"",""12940""
","""event"",""trial"",""time""
""blur"",""2"",""7250""
","""event"",""trial"",""time""
""focus"",""2"",""12940""
","""event"",""trial"",""time""
""fullscreenenter"",""1"",""2182""
","""event"",""trial"",""time""
""fullscreenexit"",""2"",""4209""
","","","457.1999999284744","","","11","17871","5831","&#9776;","elianto","#3366ff99"," "," ","1","+10","[1308.5999999046326]","1","0","1","","","","","","","",""
"call-function","35","363375","0.0-2.0-9.0","battery-v0.2","","""event"",""trial"",""time""
""fullscreenenter"",""1"",""2182""
""fullscreenexit"",""2"",""4209""
""blur"",""2"",""7250""
""focus"",""2"",""12940""
","""event"",""trial"",""time""
""blur"",""2"",""7250""
","""event"",""trial"",""time""
""focus"",""2"",""12940""
","""event"",""trial"",""time""
""fullscreenenter"",""1"",""2182""
","""event"",""trial"",""time""
""fullscreenexit"",""2"",""4209""
","","","","","","","","","","","","","","","","","","","","","","","","","","",""
"pit-instructions","36","402169","0.0-2.0-10.0","battery-v0.2","","""event"",""trial"",""time""
""fullscreenenter"",""1"",""2182""
""fullscreenexit"",""2"",""4209""
""blur"",""2"",""7250""
""focus"",""2"",""12940""
","""event"",""trial"",""time""
""blur"",""2"",""7250""
","""event"",""trial"",""time""
""focus"",""2"",""12940""
","""event"",""trial"",""time""
""fullscreenenter"",""1"",""2182""
","""event"",""trial"",""time""
""fullscreenexit"",""2"",""4209""
","","[{""page_index"":0,""viewing_time"":5933.699999928474},{""page_index"":1,""viewing_time"":7925.800000071526},{""page_index"":2,""viewing_time"":9636.199999928474},{""page_index"":3,""viewing_time"":8281.600000023842},{""page_index"":4,""viewing_time"":7015.800000071526}]","38793.5","","","","","","","","","","","","","","","","","","","","","","","",""
"pit-trial","37","407041","0.0-2.0-11.0-0.0","battery-v0.2","","""event"",""trial"",""time""
""fullscreenenter"",""1"",""2182""
""fullscreenexit"",""2"",""4209""
""blur"",""2"",""7250""
""focus"",""2"",""12940""
","""event"",""trial"",""time""
""blur"",""2"",""7250""
","""event"",""trial"",""time""
""focus"",""2"",""12940""
","""event"",""trial"",""time""
""fullscreenenter"",""1"",""2182""
","""event"",""trial"",""time""
""fullscreenexit"",""2"",""4209""
","","","-1","","","11","17871","5831","&#9761;","elianto","#3366ff99","-1","-1","1","+10","[]","0","0","2","","","","","","","",""
"pit-trial","38","411913","0.0-2.0-11.0-1.0","battery-v0.2","","""event"",""trial"",""time""
""fullscreenenter"",""1"",""2182""
""fullscreenexit"",""2"",""4209""
""blur"",""2"",""7250""
""focus"",""2"",""12940""
","""event"",""trial"",""time""
""blur"",""2"",""7250""
","""event"",""trial"",""time""
""focus"",""2"",""12940""
","""event"",""trial"",""time""
""fullscreenenter"",""1"",""2182""
","""event"",""trial"",""time""
""fullscreenexit"",""2"",""4209""
","","","-1","","","11","17871","5831","&#9761;","elianto","#3366ff99","-1","-1","1","+10","[]","0","0","2","","","","","","","",""
"pit-trial","39","416779","0.0-2.0-11.0-2.0","battery-v0.2","","""event"",""trial"",""time""
""fullscreenenter"",""1"",""2182""
""fullscreenexit"",""2"",""4209""
""blur"",""2"",""7250""
""focus"",""2"",""12940""
","""event"",""trial"",""time""
""blur"",""2"",""7250""
","""event"",""trial"",""time""
""focus"",""2"",""12940""
","""event"",""trial"",""time""
""fullscreenenter"",""1"",""2182""
","""event"",""trial"",""time""
""fullscreenexit"",""2"",""4209""
","","","-1","","","11","17871","5831","&#9761;","elianto","#3366ff99","-1","-1","1","+10","[]","0","0","2","","","","","","","",""
"pit-trial","40","421642","0.0-2.0-11.0-3.0","battery-v0.2","","""event"",""trial"",""time""
""fullscreenenter"",""1"",""2182""
""fullscreenexit"",""2"",""4209""
""blur"",""2"",""7250""
""focus"",""2"",""12940""
","""event"",""trial"",""time""
""blur"",""2"",""7250""
","""event"",""trial"",""time""
""focus"",""2"",""12940""
","""event"",""trial"",""time""
""fullscreenenter"",""1"",""2182""
","""event"",""trial"",""time""
""fullscreenexit"",""2"",""4209""
","","","-1","","","11","17871","5831","&#9761;","elianto","#3366ff99","-1","-1","1","0","[]","0","0","2","","","","","","","",""
"pit-trial","41","426505","0.0-2.0-11.0-4.0","battery-v0.2","","""event"",""trial"",""time""
""fullscreenenter"",""1"",""2182""
""fullscreenexit"",""2"",""4209""
""blur"",""2"",""7250""
""focus"",""2"",""12940""
","""event"",""trial"",""time""
""blur"",""2"",""7250""
","""event"",""trial"",""time""
""focus"",""2"",""12940""
","""event"",""trial"",""time""
""fullscreenenter"",""1"",""2182""
","""event"",""trial"",""time""
""fullscreenexit"",""2"",""4209""
","","","-1","","","11","17871","5831","&#9761;","elianto","#3366ff99","-1","-1","1","+10","[]","0","0","2","","","","","","","",""
"pit-trial","42","431383","0.0-2.0-11.1-0.1","battery-v0.2","","""event"",""trial"",""time""
""fullscreenenter"",""1"",""2182""
""fullscreenexit"",""2"",""4209""
""blur"",""2"",""7250""
""focus"",""2"",""12940""
","""event"",""trial"",""time""
""blur"",""2"",""7250""
","""event"",""trial"",""time""
""focus"",""2"",""12940""
","""event"",""trial"",""time""
""fullscreenenter"",""1"",""2182""
","""event"",""trial"",""time""
""fullscreenexit"",""2"",""4209""
","","","-1","","","11","17871","5831","&#9761;","elianto","#3366ff99","-1","-1","1","+10","[]","0","0","2","","","","","","","",""
"pit-trial","43","436252","0.0-2.0-11.1-1.1","battery-v0.2","","""event"",""trial"",""time""
""fullscreenenter"",""1"",""2182""
""fullscreenexit"",""2"",""4209""
""blur"",""2"",""7250""
""focus"",""2"",""12940""
","""event"",""trial"",""time""
""blur"",""2"",""7250""
","""event"",""trial"",""time""
""focus"",""2"",""12940""
","""event"",""trial"",""time""
""fullscreenenter"",""1"",""2182""
","""event"",""trial"",""time""
""fullscreenexit"",""2"",""4209""
","","","-1","","","11","17871","5831","&#9761;","elianto","#3366ff99","-1","-1","1","+10","[]","0","0","2","","","","","","","",""
"pit-trial","44","441122","0.0-2.0-11.1-2.1","battery-v0.2","","""event"",""trial"",""time""
""fullscreenenter"",""1"",""2182""
""fullscreenexit"",""2"",""4209""
""blur"",""2"",""7250""
""focus"",""2"",""12940""
","""event"",""trial"",""time""
""blur"",""2"",""7250""
","""event"",""trial"",""time""
""focus"",""2"",""12940""
","""event"",""trial"",""time""
""fullscreenenter"",""1"",""2182""
","""event"",""trial"",""time""
""fullscreenexit"",""2"",""4209""
","","","-1","","","11","17871","5831","&#9761;","elianto","#3366ff99","-1","-1","1","+10","[]","0","0","2","","","","","","","",""
"pit-trial","45","445986","0.0-2.0-11.1-3.1","battery-v0.2","","""event"",""trial"",""time""
""fullscreenenter"",""1"",""2182""
""fullscreenexit"",""2"",""4209""
""blur"",""2"",""7250""
""focus"",""2"",""12940""
","""event"",""trial"",""time""
""blur"",""2"",""7250""
","""event"",""trial"",""time""
""focus"",""2"",""12940""
","""event"",""trial"",""time""
""fullscreenenter"",""1"",""2182""
","""event"",""trial"",""time""
""fullscreenexit"",""2"",""4209""
","","","-1","","","11","17871","5831","&#9761;","elianto","#3366ff99","-1","-1","1","0","[]","0","0","2","","","","","","","",""
"pit-trial","46","450854","0.0-2.0-11.1-4.1","battery-v0.2","","""event"",""trial"",""time""
""fullscreenenter"",""1"",""2182""
""fullscreenexit"",""2"",""4209""
""blur"",""2"",""7250""
""focus"",""2"",""12940""
","""event"",""trial"",""time""
""blur"",""2"",""7250""
","""event"",""trial"",""time""
""focus"",""2"",""12940""
","""event"",""trial"",""time""
""fullscreenenter"",""1"",""2182""
","""event"",""trial"",""time""
""fullscreenexit"",""2"",""4209""
","","","-1","","","11","17871","5831","&#9761;","elianto","#3366ff99","-1","-1","1","+10","[]","0","0","2","","","","","","","",""
"pit-trial","47","455717","0.0-2.0-11.2-0.2","battery-v0.2","","""event"",""trial"",""time""
""fullscreenenter"",""1"",""2182""
""fullscreenexit"",""2"",""4209""
""blur"",""2"",""7250""
""focus"",""2"",""12940""
","""event"",""trial"",""time""
""blur"",""2"",""7250""
","""event"",""trial"",""time""
""focus"",""2"",""12940""
","""event"",""trial"",""time""
""fullscreenenter"",""1"",""2182""
","""event"",""trial"",""time""
""fullscreenexit"",""2"",""4209""
","","","-1","","","11","17871","5831","&#9761;","elianto","#3366ff99","-1","-1","1","+10","[]","0","0","2","","","","","","","",""
"pit-trial","48","460582","0.0-2.0-11.2-1.2","battery-v0.2","","""event"",""trial"",""time""
""fullscreenenter"",""1"",""2182""
""fullscreenexit"",""2"",""4209""
""blur"",""2"",""7250""
""focus"",""2"",""12940""
","""event"",""trial"",""time""
""blur"",""2"",""7250""
","""event"",""trial"",""time""
""focus"",""2"",""12940""
","""event"",""trial"",""time""
""fullscreenenter"",""1"",""2182""
","""event"",""trial"",""time""
""fullscreenexit"",""2"",""4209""
","","","-1","","","11","17871","5831","&#9761;","elianto","#3366ff99","-1","-1","1","+10","[]","0","0","2","","","","","","","",""
"pit-trial","49","465445","0.0-2.0-11.2-2.2","battery-v0.2","","""event"",""trial"",""time""
""fullscreenenter"",""1"",""2182""
""fullscreenexit"",""2"",""4209""
""blur"",""2"",""7250""
""focus"",""2"",""12940""
","""event"",""trial"",""time""
""blur"",""2"",""7250""
","""event"",""trial"",""time""
""focus"",""2"",""12940""
","""event"",""trial"",""time""
""fullscreenenter"",""1"",""2182""
","""event"",""trial"",""time""
""fullscreenexit"",""2"",""4209""
","","","-1","","","11","17871","5831","&#9761;","elianto","#3366ff99","-1","-1","1","+10","[]","0","0","2","","","","","","","",""
"pit-trial","50","470304","0.0-2.0-11.2-3.2","battery-v0.2","","""event"",""trial"",""time""
""fullscreenenter"",""1"",""2182""
""fullscreenexit"",""2"",""4209""
""blur"",""2"",""7250""
""focus"",""2"",""12940""
","""event"",""trial"",""time""
""blur"",""2"",""7250""
","""event"",""trial"",""time""
""focus"",""2"",""12940""
","""event"",""trial"",""time""
""fullscreenenter"",""1"",""2182""
","""event"",""trial"",""time""
""fullscreenexit"",""2"",""4209""
","","","-1","","","11","17871","5831","&#9761;","elianto","#3366ff99","-1","-1","1","0","[]","0","0","2","","","","","","","",""
"pit-trial","51","475164","0.0-2.0-11.2-4.2","battery-v0.2","","""event"",""trial"",""time""
""fullscreenenter"",""1"",""2182""
""fullscreenexit"",""2"",""4209""
""blur"",""2"",""7250""
""focus"",""2"",""12940""
","""event"",""trial"",""time""
""blur"",""2"",""7250""
","""event"",""trial"",""time""
""focus"",""2"",""12940""
","""event"",""trial"",""time""
""fullscreenenter"",""1"",""2182""
","""event"",""trial"",""time""
""fullscreenexit"",""2"",""4209""
","","","-1","","","11","17871","5831","&#9761;","elianto","#3366ff99","-1","-1","1","+10","[]","0","0","2","","","","","","","",""
"pit-trial","52","480032","0.0-2.0-11.3-0.3","battery-v0.2","","""event"",""trial"",""time""
""fullscreenenter"",""1"",""2182""
""fullscreenexit"",""2"",""4209""
""blur"",""2"",""7250""
""focus"",""2"",""12940""
","""event"",""trial"",""time""
""blur"",""2"",""7250""
","""event"",""trial"",""time""
""focus"",""2"",""12940""
","""event"",""trial"",""time""
""fullscreenenter"",""1"",""2182""
","""event"",""trial"",""time""
""fullscreenexit"",""2"",""4209""
","","","-1","","","11","17871","5831","&#9761;","elianto","#3366ff99","-1","-1","1","+10","[]","0","0","2","","","","","","","",""
"pit-trial","53","484906","0.0-2.0-11.3-1.3","battery-v0.2","","""event"",""trial"",""time""
""fullscreenenter"",""1"",""2182""
""fullscreenexit"",""2"",""4209""
""blur"",""2"",""7250""
""focus"",""2"",""12940""
","""event"",""trial"",""time""
""blur"",""2"",""7250""
","""event"",""trial"",""time""
""focus"",""2"",""12940""
","""event"",""trial"",""time""
""fullscreenenter"",""1"",""2182""
","""event"",""trial"",""time""
""fullscreenexit"",""2"",""4209""
","","","-1","","","11","17871","5831","&#9761;","elianto","#3366ff99","-1","-1","1","+10","[]","0","0","2","","","","","","","",""
"pit-trial","54","489779","0.0-2.0-11.3-2.3","battery-v0.2","","""event"",""trial"",""time""
""fullscreenenter"",""1"",""2182""
""fullscreenexit"",""2"",""4209""
""blur"",""2"",""7250""
""focus"",""2"",""12940""
","""event"",""trial"",""time""
""blur"",""2"",""7250""
","""event"",""trial"",""time""
""focus"",""2"",""12940""
","""event"",""trial"",""time""
""fullscreenenter"",""1"",""2182""
","""event"",""trial"",""time""
""fullscreenexit"",""2"",""4209""
","","","-1","","","11","17871","5831","&#9761;","elianto","#3366ff99","-1","-1","1","+10","[]","0","0","2","","","","","","","",""
"pit-trial","55","494640","0.0-2.0-11.3-3.3","battery-v0.2","","""event"",""trial"",""time""
""fullscreenenter"",""1"",""2182""
""fullscreenexit"",""2"",""4209""
""blur"",""2"",""7250""
""focus"",""2"",""12940""
","""event"",""trial"",""time""
""blur"",""2"",""7250""
","""event"",""trial"",""time""
""focus"",""2"",""12940""
","""event"",""trial"",""time""
""fullscreenenter"",""1"",""2182""
","""event"",""trial"",""time""
""fullscreenexit"",""2"",""4209""
","","","-1","","","11","17871","5831","&#9761;","elianto","#3366ff99","-1","-1","1","0","[]","0","0","2","","","","","","","",""
"pit-trial","56","499501","0.0-2.0-11.3-4.3","battery-v0.2","","""event"",""trial"",""time""
""fullscreenenter"",""1"",""2182""
""fullscreenexit"",""2"",""4209""
""blur"",""2"",""7250""
""focus"",""2"",""12940""
","""event"",""trial"",""time""
""blur"",""2"",""7250""
","""event"",""trial"",""time""
""focus"",""2"",""12940""
","""event"",""trial"",""time""
""fullscreenenter"",""1"",""2182""
","""event"",""trial"",""time""
""fullscreenexit"",""2"",""4209""
","","","-1","","","11","17871","5831","&#9761;","elianto","#3366ff99","-1","-1","1","+10","[]","0","0","2","","","","","","","",""
"call-function","57","499504","0.0-2.0-12.0","battery-v0.2","","""event"",""trial"",""time""
""fullscreenenter"",""1"",""2182""
""fullscreenexit"",""2"",""4209""
""blur"",""2"",""7250""
""focus"",""2"",""12940""
","""event"",""trial"",""time""
""blur"",""2"",""7250""
","""event"",""trial"",""time""
""focus"",""2"",""12940""
","""event"",""trial"",""time""
""fullscreenenter"",""1"",""2182""
","""event"",""trial"",""time""
""fullscreenexit"",""2"",""4209""
","","","","","","","","","","","","","","","","","","","","","","","","","","",""
"pit-instructions","58","532139","0.0-2.0-13.0","battery-v0.2","","""event"",""trial"",""time""
""fullscreenenter"",""1"",""2182""
""fullscreenexit"",""2"",""4209""
""blur"",""2"",""7250""
""focus"",""2"",""12940""
","""event"",""trial"",""time""
""blur"",""2"",""7250""
","""event"",""trial"",""time""
""focus"",""2"",""12940""
","""event"",""trial"",""time""
""fullscreenenter"",""1"",""2182""
","""event"",""trial"",""time""
""fullscreenexit"",""2"",""4209""
","","[{""page_index"":0,""viewing_time"":6646.299999952316},{""page_index"":1,""viewing_time"":6992.700000047684},{""page_index"":2,""viewing_time"":4167},{""page_index"":3,""viewing_time"":10503},{""page_index"":4,""viewing_time"":4324.899999976158}]","32634.299999952316","","","","","","","","","","","","","","","","","","","","","","","",""
"pit-trial","59","536996","0.0-2.0-14.0-0.0","battery-v0.2","","""event"",""trial"",""time""
""fullscreenenter"",""1"",""2182""
""fullscreenexit"",""2"",""4209""
""blur"",""2"",""7250""
""focus"",""2"",""12940""
","""event"",""trial"",""time""
""blur"",""2"",""7250""
","""event"",""trial"",""time""
""focus"",""2"",""12940""
","""event"",""trial"",""time""
""fullscreenenter"",""1"",""2182""
","""event"",""trial"",""time""
""fullscreenexit"",""2"",""4209""
","","","-1","","","11","17871","5831","&#9826;","elianto","#f73b6a7A","-1","-1","1","0","[]","0","0","3","","","","","","","",""
"pit-trial","60","541873","0.0-2.0-14.0-1.0","battery-v0.2","","""event"",""trial"",""time""
""fullscreenenter"",""1"",""2182""
""fullscreenexit"",""2"",""4209""
""blur"",""2"",""7250""
""focus"",""2"",""12940""
","""event"",""trial"",""time""
""blur"",""2"",""7250""
","""event"",""trial"",""time""
""focus"",""2"",""12940""
","""event"",""trial"",""time""
""fullscreenenter"",""1"",""2182""
","""event"",""trial"",""time""
""fullscreenexit"",""2"",""4209""
","","","-1","","","11","17871","5831","&#9826;","elianto","#f73b6a7A","-1","-1","1","0","[]","0","0","3","","","","","","","",""
"pit-trial","61","546728","0.0-2.0-14.0-2.0","battery-v0.2","","""event"",""trial"",""time""
""fullscreenenter"",""1"",""2182""
""fullscreenexit"",""2"",""4209""
""blur"",""2"",""7250""
""focus"",""2"",""12940""
","""event"",""trial"",""time""
""blur"",""2"",""7250""
","""event"",""trial"",""time""
""focus"",""2"",""12940""
","""event"",""trial"",""time""
""fullscreenenter"",""1"",""2182""
","""event"",""trial"",""time""
""fullscreenexit"",""2"",""4209""
","","","-1","","","11","17871","5831","&#9826;","elianto","#f73b6a7A","-1","-1","1","0","[]","0","0","3","","","","","","","",""
"pit-trial","62","551591","0.0-2.0-14.0-3.0","battery-v0.2","","""event"",""trial"",""time""
""fullscreenenter"",""1"",""2182""
""fullscreenexit"",""2"",""4209""
""blur"",""2"",""7250""
""focus"",""2"",""12940""
","""event"",""trial"",""time""
""blur"",""2"",""7250""
","""event"",""trial"",""time""
""focus"",""2"",""12940""
","""event"",""trial"",""time""
""fullscreenenter"",""1"",""2182""
","""event"",""trial"",""time""
""fullscreenexit"",""2"",""4209""
","","","-1","","","11","17871","5831","&#9826;","elianto","#f73b6a7A","-1","-1","1","-10","[]","0","0","3","","","","","","","",""
"pit-trial","63","556459","0.0-2.0-14.0-4.0","battery-v0.2","","""event"",""trial"",""time""
""fullscreenenter"",""1"",""2182""
""fullscreenexit"",""2"",""4209""
""blur"",""2"",""7250""
""focus"",""2"",""12940""
","""event"",""trial"",""time""
""blur"",""2"",""7250""
","""event"",""trial"",""time""
""focus"",""2"",""12940""
","""event"",""trial"",""time""
""fullscreenenter"",""1"",""2182""
","""event"",""trial"",""time""
""fullscreenexit"",""2"",""4209""
","","","-1","","","11","17871","5831","&#9826;","elianto","#f73b6a7A","-1","-1","1","0","[]","0","0","3","","","","","","","",""
"pit-trial","64","561322","0.0-2.0-14.1-0.1","battery-v0.2","","""event"",""trial"",""time""
""fullscreenenter"",""1"",""2182""
""fullscreenexit"",""2"",""4209""
""blur"",""2"",""7250""
""focus"",""2"",""12940""
","""event"",""trial"",""time""
""blur"",""2"",""7250""
","""event"",""trial"",""time""
""focus"",""2"",""12940""
","""event"",""trial"",""time""
""fullscreenenter"",""1"",""2182""
","""event"",""trial"",""time""
""fullscreenexit"",""2"",""4209""
","","","-1","","","11","17871","5831","&#9826;","elianto","#f73b6a7A","-1","-1","1","0","[]","0","0","3","","","","","","","",""
"pit-trial","65","566187","0.0-2.0-14.1-1.1","battery-v0.2","","""event"",""trial"",""time""
""fullscreenenter"",""1"",""2182""
""fullscreenexit"",""2"",""4209""
""blur"",""2"",""7250""
""focus"",""2"",""12940""
","""event"",""trial"",""time""
""blur"",""2"",""7250""
","""event"",""trial"",""time""
""focus"",""2"",""12940""
","""event"",""trial"",""time""
""fullscreenenter"",""1"",""2182""
","""event"",""trial"",""time""
""fullscreenexit"",""2"",""4209""
","","","-1","","","11","17871","5831","&#9826;","elianto","#f73b6a7A","-1","-1","1","0","[]","0","0","3","","","","","","","",""
"pit-trial","66","571048","0.0-2.0-14.1-2.1","battery-v0.2","","""event"",""trial"",""time""
""fullscreenenter"",""1"",""2182""
""fullscreenexit"",""2"",""4209""
""blur"",""2"",""7250""
""focus"",""2"",""12940""
","""event"",""trial"",""time""
""blur"",""2"",""7250""
","""event"",""trial"",""time""
""focus"",""2"",""12940""
","""event"",""trial"",""time""
""fullscreenenter"",""1"",""2182""
","""event"",""trial"",""time""
""fullscreenexit"",""2"",""4209""
","","","-1","","","11","17871","5831","&#9826;","elianto","#f73b6a7A","-1","-1","1","0","[]","0","0","3","","","","","","","",""
"pit-trial","67","575908","0.0-2.0-14.1-3.1","battery-v0.2","","""event"",""trial"",""time""
""fullscreenenter"",""1"",""2182""
""fullscreenexit"",""2"",""4209""
""blur"",""2"",""7250""
""focus"",""2"",""12940""
","""event"",""trial"",""time""
""blur"",""2"",""7250""
","""event"",""trial"",""time""
""focus"",""2"",""12940""
","""event"",""trial"",""time""
""fullscreenenter"",""1"",""2182""
","""event"",""trial"",""time""
""fullscreenexit"",""2"",""4209""
","","","-1","","","11","17871","5831","&#9826;","elianto","#f73b6a7A","-1","-1","1","-10","[]","0","0","3","","","","","","","",""
"pit-trial","68","580770","0.0-2.0-14.1-4.1","battery-v0.2","","""event"",""trial"",""time""
""fullscreenenter"",""1"",""2182""
""fullscreenexit"",""2"",""4209""
""blur"",""2"",""7250""
""focus"",""2"",""12940""
","""event"",""trial"",""time""
""blur"",""2"",""7250""
","""event"",""trial"",""time""
""focus"",""2"",""12940""
","""event"",""trial"",""time""
""fullscreenenter"",""1"",""2182""
","""event"",""trial"",""time""
""fullscreenexit"",""2"",""4209""
","","","-1","","","11","17871","5831","&#9826;","elianto","#f73b6a7A","-1","-1","1","0","[]","0","0","3","","","","","","","",""
"pit-trial","69","585643","0.0-2.0-14.2-0.2","battery-v0.2","","""event"",""trial"",""time""
""fullscreenenter"",""1"",""2182""
""fullscreenexit"",""2"",""4209""
""blur"",""2"",""7250""
""focus"",""2"",""12940""
","""event"",""trial"",""time""
""blur"",""2"",""7250""
","""event"",""trial"",""time""
""focus"",""2"",""12940""
","""event"",""trial"",""time""
""fullscreenenter"",""1"",""2182""
","""event"",""trial"",""time""
""fullscreenexit"",""2"",""4209""
","","","-1","","","11","17871","5831","&#9826;","elianto","#f73b6a7A","-1","-1","1","0","[]","0","0","3","","","","","","","",""
"pit-trial","70","590508","0.0-2.0-14.2-1.2","battery-v0.2","","""event"",""trial"",""time""
""fullscreenenter"",""1"",""2182""
""fullscreenexit"",""2"",""4209""
""blur"",""2"",""7250""
""focus"",""2"",""12940""
","""event"",""trial"",""time""
""blur"",""2"",""7250""
","""event"",""trial"",""time""
""focus"",""2"",""12940""
","""event"",""trial"",""time""
""fullscreenenter"",""1"",""2182""
","""event"",""trial"",""time""
""fullscreenexit"",""2"",""4209""
","","","-1","","","11","17871","5831","&#9826;","elianto","#f73b6a7A","-1","-1","1","0","[]","0","0","3","","","","","","","",""
"pit-trial","71","595373","0.0-2.0-14.2-2.2","battery-v0.2","","""event"",""trial"",""time""
""fullscreenenter"",""1"",""2182""
""fullscreenexit"",""2"",""4209""
""blur"",""2"",""7250""
""focus"",""2"",""12940""
","""event"",""trial"",""time""
""blur"",""2"",""7250""
","""event"",""trial"",""time""
""focus"",""2"",""12940""
","""event"",""trial"",""time""
""fullscreenenter"",""1"",""2182""
","""event"",""trial"",""time""
""fullscreenexit"",""2"",""4209""
","","","-1","","","11","17871","5831","&#9826;","elianto","#f73b6a7A","-1","-1","1","0","[]","0","0","3","","","","","","","",""
"pit-trial","72","600241","0.0-2.0-14.2-3.2","battery-v0.2","","""event"",""trial"",""time""
""fullscreenenter"",""1"",""2182""
""fullscreenexit"",""2"",""4209""
""blur"",""2"",""7250""
""focus"",""2"",""12940""
","""event"",""trial"",""time""
""blur"",""2"",""7250""
","""event"",""trial"",""time""
""focus"",""2"",""12940""
","""event"",""trial"",""time""
""fullscreenenter"",""1"",""2182""
","""event"",""trial"",""time""
""fullscreenexit"",""2"",""4209""
","","","-1","","","11","17871","5831","&#9826;","elianto","#f73b6a7A","-1","-1","1","-10","[]","0","0","3","","","","","","","",""
"pit-trial","73","605112","0.0-2.0-14.2-4.2","battery-v0.2","","""event"",""trial"",""time""
""fullscreenenter"",""1"",""2182""
""fullscreenexit"",""2"",""4209""
""blur"",""2"",""7250""
""focus"",""2"",""12940""
","""event"",""trial"",""time""
""blur"",""2"",""7250""
","""event"",""trial"",""time""
""focus"",""2"",""12940""
","""event"",""trial"",""time""
""fullscreenenter"",""1"",""2182""
","""event"",""trial"",""time""
""fullscreenexit"",""2"",""4209""
","","","-1","","","11","17871","5831","&#9826;","elianto","#f73b6a7A","-1","-1","1","0","[]","0","0","3","","","","","","","",""
"pit-trial","74","609989","0.0-2.0-14.3-0.3","battery-v0.2","","""event"",""trial"",""time""
""fullscreenenter"",""1"",""2182""
""fullscreenexit"",""2"",""4209""
""blur"",""2"",""7250""
""focus"",""2"",""12940""
","""event"",""trial"",""time""
""blur"",""2"",""7250""
","""event"",""trial"",""time""
""focus"",""2"",""12940""
","""event"",""trial"",""time""
""fullscreenenter"",""1"",""2182""
","""event"",""trial"",""time""
""fullscreenexit"",""2"",""4209""
","","","-1","","","11","17871","5831","&#9826;","elianto","#f73b6a7A","-1","-1","1","0","[]","0","0","3","","","","","","","",""
"pit-trial","75","614850","0.0-2.0-14.3-1.3","battery-v0.2","","""event"",""trial"",""time""
""fullscreenenter"",""1"",""2182""
""fullscreenexit"",""2"",""4209""
""blur"",""2"",""7250""
""focus"",""2"",""12940""
","""event"",""trial"",""time""
""blur"",""2"",""7250""
","""event"",""trial"",""time""
""focus"",""2"",""12940""
","""event"",""trial"",""time""
""fullscreenenter"",""1"",""2182""
","""event"",""trial"",""time""
""fullscreenexit"",""2"",""4209""
","","","-1","","","11","17871","5831","&#9826;","elianto","#f73b6a7A","-1","-1","1","0","[]","0","0","3","","","","","","","",""
"pit-trial","76","619713","0.0-2.0-14.3-2.3","battery-v0.2","","""event"",""trial"",""time""
""fullscreenenter"",""1"",""2182""
""fullscreenexit"",""2"",""4209""
""blur"",""2"",""7250""
""focus"",""2"",""12940""
","""event"",""trial"",""time""
""blur"",""2"",""7250""
","""event"",""trial"",""time""
""focus"",""2"",""12940""
","""event"",""trial"",""time""
""fullscreenenter"",""1"",""2182""
","""event"",""trial"",""time""
""fullscreenexit"",""2"",""4209""
","","","-1","","","11","17871","5831","&#9826;","elianto","#f73b6a7A","-1","-1","1","0","[]","0","0","3","","","","","","","",""
"pit-trial","77","624582","0.0-2.0-14.3-3.3","battery-v0.2","","""event"",""trial"",""time""
""fullscreenenter"",""1"",""2182""
""fullscreenexit"",""2"",""4209""
""blur"",""2"",""7250""
""focus"",""2"",""12940""
","""event"",""trial"",""time""
""blur"",""2"",""7250""
","""event"",""trial"",""time""
""focus"",""2"",""12940""
","""event"",""trial"",""time""
""fullscreenenter"",""1"",""2182""
","""event"",""trial"",""time""
""fullscreenexit"",""2"",""4209""
","","","-1","","","11","17871","5831","&#9826;","elianto","#f73b6a7A","-1","-1","1","-10","[]","0","0","3","","","","","","","",""
"pit-trial","78","629440","0.0-2.0-14.3-4.3","battery-v0.2","","""event"",""trial"",""time""
""fullscreenenter"",""1"",""2182""
""fullscreenexit"",""2"",""4209""
""blur"",""2"",""7250""
""focus"",""2"",""12940""
","""event"",""trial"",""time""
""blur"",""2"",""7250""
","""event"",""trial"",""time""
""focus"",""2"",""12940""
","""event"",""trial"",""time""
""fullscreenenter"",""1"",""2182""
","""event"",""trial"",""time""
""fullscreenexit"",""2"",""4209""
","","","-1","","","11","17871","5831","&#9826;","elianto","#f73b6a7A","-1","-1","1","0","[]","0","0","3","","","","","","","",""
"call-function","79","629442","0.0-2.0-15.0","battery-v0.2","","""event"",""trial"",""time""
""fullscreenenter"",""1"",""2182""
""fullscreenexit"",""2"",""4209""
""blur"",""2"",""7250""
""focus"",""2"",""12940""
","""event"",""trial"",""time""
""blur"",""2"",""7250""
","""event"",""trial"",""time""
""focus"",""2"",""12940""
","""event"",""trial"",""time""
""fullscreenenter"",""1"",""2182""
","""event"",""trial"",""time""
""fullscreenexit"",""2"",""4209""
","","","","","","","","","","","","","","","","","","","","","","","","","","",""
"pit-instructions","80","653192","0.0-2.0-16.0","battery-v0.2","","""event"",""trial"",""time""
""fullscreenenter"",""1"",""2182""
""fullscreenexit"",""2"",""4209""
""blur"",""2"",""7250""
""focus"",""2"",""12940""
","""event"",""trial"",""time""
""blur"",""2"",""7250""
","""event"",""trial"",""time""
""focus"",""2"",""12940""
","""event"",""trial"",""time""
""fullscreenenter"",""1"",""2182""
","""event"",""trial"",""time""
""fullscreenexit"",""2"",""4209""
","","[{""page_index"":0,""viewing_time"":6478.099999904633},{""page_index"":1,""viewing_time"":8219.600000023842},{""page_index"":2,""viewing_time"":4919.700000047684},{""page_index"":3,""viewing_time"":4131.100000023842}]","23749.399999976158","","","","","","","","","","","","","","","","","","","","","","","",""
"pit-trial","81","656476","0.0-2.0-17.0-0.0","battery-v0.2","","""event"",""trial"",""time""
""fullscreenenter"",""1"",""2182""
""fullscreenexit"",""2"",""4209""
""blur"",""2"",""7250""
""focus"",""2"",""12940""
","""event"",""trial"",""time""
""blur"",""2"",""7250""
","""event"",""trial"",""time""
""focus"",""2"",""12940""
","""event"",""trial"",""time""
""fullscreenenter"",""1"",""2182""
","""event"",""trial"",""time""
""fullscreenexit"",""2"",""4209""
","","","420.5","","","11","17871","5831","&#9789;","elianto","#f73b6a7A"," "," ","1","0","[1275.5]","1","0","4","","","","","","","",""
"pit-trial","82","659567","0.0-2.0-17.0-1.0","battery-v0.2","","""event"",""trial"",""time""
""fullscreenenter"",""1"",""2182""
""fullscreenexit"",""2"",""4209""
""blur"",""2"",""7250""
""focus"",""2"",""12940""
","""event"",""trial"",""time""
""blur"",""2"",""7250""
","""event"",""trial"",""time""
""focus"",""2"",""12940""
","""event"",""trial"",""time""
""fullscreenenter"",""1"",""2182""
","""event"",""trial"",""time""
""fullscreenexit"",""2"",""4209""
","","","226.20000004768372","","","11","17871","5831","&#9789;","elianto","#f73b6a7A"," "," ","1","0","[1077.5]","1","0","4","","","","","","","",""
"pit-trial","83","662824","0.0-2.0-17.0-2.0","battery-v0.2","","""event"",""trial"",""time""
""fullscreenenter"",""1"",""2182""
""fullscreenexit"",""2"",""4209""
""blur"",""2"",""7250""
""focus"",""2"",""12940""
","""event"",""trial"",""time""
""blur"",""2"",""7250""
","""event"",""trial"",""time""
""focus"",""2"",""12940""
","""event"",""trial"",""time""
""fullscreenenter"",""1"",""2182""
","""event"",""trial"",""time""
""fullscreenexit"",""2"",""4209""
","","","398.2999999523163","","","11","17871","5831","&#9789;","elianto","#f73b6a7A"," "," ","1","0","[1248.3999999761581]","1","0","4","","","","","","","",""
"pit-trial","84","666127","0.0-2.0-17.0-3.0","battery-v0.2","","""event"",""trial"",""time""
""fullscreenenter"",""1"",""2182""
""fullscreenexit"",""2"",""4209""
""blur"",""2"",""7250""
""focus"",""2"",""12940""
","""event"",""trial"",""time""
""blur"",""2"",""7250""
","""event"",""trial"",""time""
""focus"",""2"",""12940""
","""event"",""trial"",""time""
""fullscreenenter"",""1"",""2182""
","""event"",""trial"",""time""
""fullscreenexit"",""2"",""4209""
","","","433.7000000476837","","","11","17871","5831","&#9789;","elianto","#f73b6a7A"," "," ","1","-10","[1289.5]","1","0","4","","","","","","","",""
"pit-trial","85","670332","0.0-2.0-17.0-4.0","battery-v0.2","","""event"",""trial"",""time""
""fullscreenenter"",""1"",""2182""
""fullscreenexit"",""2"",""4209""
""blur"",""2"",""7250""
""focus"",""2"",""12940""
","""event"",""trial"",""time""
""blur"",""2"",""7250""
","""event"",""trial"",""time""
""focus"",""2"",""12940""
","""event"",""trial"",""time""
""fullscreenenter"",""1"",""2182""
","""event"",""trial"",""time""
""fullscreenexit"",""2"",""4209""
","","","1338.3000000715256","","","11","17871","5831","&#9789;","elianto","#f73b6a7A"," "," ","1","0","[2192.3000000715256]","1","0","4","","","","","","","",""
"pit-trial","86","673721","0.0-2.0-17.1-0.1","battery-v0.2","","""event"",""trial"",""time""
""fullscreenenter"",""1"",""2182""
""fullscreenexit"",""2"",""4209""
""blur"",""2"",""7250""
""focus"",""2"",""12940""
","""event"",""trial"",""time""
""blur"",""2"",""7250""
","""event"",""trial"",""time""
""focus"",""2"",""12940""
","""event"",""trial"",""time""
""fullscreenenter"",""1"",""2182""
","""event"",""trial"",""time""
""fullscreenexit"",""2"",""4209""
","","","514.1000000238419","","","11","17871","5831","&#9789;","elianto","#f73b6a7A"," "," ","1","0","[1373.8999999761581]","1","0","4","","","","","","","",""
"pit-trial","87","676833","0.0-2.0-17.1-1.1","battery-v0.2","","""event"",""trial"",""time""
""fullscreenenter"",""1"",""2182""
""fullscreenexit"",""2"",""4209""
""blur"",""2"",""7250""
""focus"",""2"",""12940""
","""event"",""trial"",""time""
""blur"",""2"",""7250""
","""event"",""trial"",""time""
""focus"",""2"",""12940""
","""event"",""trial"",""time""
""fullscreenenter"",""1"",""2182""
","""event"",""trial"",""time""
""fullscreenexit"",""2"",""4209""
","","","238.89999997615814","","","11","17871","5831","&#9789;","elianto","#f73b6a7A"," "," ","1","0","[1099.1000000238419]","1","0","4","","","","","","","",""
"pit-trial","88","680063","0.0-2.0-17.1-2.1","battery-v0.2","","""event"",""trial"",""time""
""fullscreenenter"",""1"",""2182""
""fullscreenexit"",""2"",""4209""
""blur"",""2"",""7250""
""focus"",""2"",""12940""
","""event"",""trial"",""time""
""blur"",""2"",""7250""
","""event"",""trial"",""time""
""focus"",""2"",""12940""
","""event"",""trial"",""time""
""fullscreenenter"",""1"",""2182""
","""event"",""trial"",""time""
""fullscreenexit"",""2"",""4209""
","","","363.60000002384186","","","11","17871","5831","&#9789;","elianto","#f73b6a7A"," "," ","1","0","[1214.7999999523163]","1","0","4","","","","","","","",""
"pit-trial","89","683185","0.0-2.0-17.1-3.1","battery-v0.2","","""event"",""trial"",""time""
""fullscreenenter"",""1"",""2182""
""fullscreenexit"",""2"",""4209""
""blur"",""2"",""7250""
""focus"",""2"",""12940""
","""event"",""trial"",""time""
""blur"",""2"",""7250""
","""event"",""trial"",""time""
""focus"",""2"",""12940""
","""event"",""trial"",""time""
""fullscreenenter"",""1"",""2182""
","""event"",""trial"",""time""
""fullscreenexit"",""2"",""4209""
","","","256.6999999284744","","","11","17871","5831","&#9789;","elianto","#f73b6a7A"," "," ","1","-10","[1108.7999999523163]","1","0","4","","","","","","","",""
"pit-trial","90","686244","0.0-2.0-17.1-4.1","battery-v0.2","","""event"",""trial"",""time""
""fullscreenenter"",""1"",""2182""
""fullscreenexit"",""2"",""4209""
""blur"",""2"",""7250""
""focus"",""2"",""12940""
","""event"",""trial"",""time""
""blur"",""2"",""7250""
","""event"",""trial"",""time""
""focus"",""2"",""12940""
","""event"",""trial"",""time""
""fullscreenenter"",""1"",""2182""
","""event"",""trial"",""time""
""fullscreenexit"",""2"",""4209""
","","","202.39999997615814","","","11","17871","5831","&#9789;","elianto","#f73b6a7A"," "," ","1","0","[1053.7999999523163]","1","0","4","","","","","","","",""
"pit-trial","91","689644","0.0-2.0-17.2-0.2","battery-v0.2","","""event"",""trial"",""time""
""fullscreenenter"",""1"",""2182""
""fullscreenexit"",""2"",""4209""
""blur"",""2"",""7250""
""focus"",""2"",""12940""
","""event"",""trial"",""time""
""blur"",""2"",""7250""
","""event"",""trial"",""time""
""focus"",""2"",""12940""
","""event"",""trial"",""time""
""fullscreenenter"",""1"",""2182""
","""event"",""trial"",""time""
""fullscreenexit"",""2"",""4209""
","","","540.3999999761581","","","11","17871","5831","&#9789;","elianto","#f73b6a7A"," "," ","1","0","[1396]","1","0","4","","","","","","","",""
"pit-trial","92","692961","0.0-2.0-17.2-1.2","battery-v0.2","","""event"",""trial"",""time""
""fullscreenenter"",""1"",""2182""
""fullscreenexit"",""2"",""4209""
""blur"",""2"",""7250""
""focus"",""2"",""12940""
","""event"",""trial"",""time""
""blur"",""2"",""7250""
","""event"",""trial"",""time""
""focus"",""2"",""12940""
","""event"",""trial"",""time""
""fullscreenenter"",""1"",""2182""
","""event"",""trial"",""time""
""fullscreenexit"",""2"",""4209""
","","","457.39999997615814","","","11","17871","5831","&#9789;","elianto","#f73b6a7A"," "," ","1","0","[1311.1000000238419]","1","0","4","","","","","","","",""
"pit-trial","93","696060","0.0-2.0-17.2-2.2","battery-v0.2","","""event"",""trial"",""time""
""fullscreenenter"",""1"",""2182""
""fullscreenexit"",""2"",""4209""
""blur"",""2"",""7250""
""focus"",""2"",""12940""
","""event"",""trial"",""time""
""blur"",""2"",""7250""
","""event"",""trial"",""time""
""focus"",""2"",""12940""
","""event"",""trial"",""time""
""fullscreenenter"",""1"",""2182""
","""event"",""trial"",""time""
""fullscreenexit"",""2"",""4209""
","","","234.10000002384186","","","11","17871","5831","&#9789;","elianto","#f73b6a7A"," "," ","1","0","[1088.7999999523163]","1","0","4","","","","","","","",""
"pit-trial","94","699475","0.0-2.0-17.2-3.2","battery-v0.2","","""event"",""trial"",""time""
""fullscreenenter"",""1"",""2182""
""fullscreenexit"",""2"",""4209""
""blur"",""2"",""7250""
""focus"",""2"",""12940""
","""event"",""trial"",""time""
""blur"",""2"",""7250""
","""event"",""trial"",""time""
""focus"",""2"",""12940""
","""event"",""trial"",""time""
""fullscreenenter"",""1"",""2182""
","""event"",""trial"",""time""
""fullscreenexit"",""2"",""4209""
","","","554.1000000238419","","","11","17871","5831","&#9789;","elianto","#f73b6a7A"," "," ","1","-10","[1407.6000000238419]","1","0","4","","","","","","","",""
"pit-trial","95","703120","0.0-2.0-17.2-4.2","battery-v0.2","","""event"",""trial"",""time""
""fullscreenenter"",""1"",""2182""
""fullscreenexit"",""2"",""4209""
""blur"",""2"",""7250""
""focus"",""2"",""12940""
","""event"",""trial"",""time""
""blur"",""2"",""7250""
","""event"",""trial"",""time""
""focus"",""2"",""12940""
","""event"",""trial"",""time""
""fullscreenenter"",""1"",""2182""
","""event"",""trial"",""time""
""fullscreenexit"",""2"",""4209""
","","","786.2999999523163","","","11","17871","5831","&#9789;","elianto","#f73b6a7A"," "," ","1","0","[1637.6000000238419]","1","0","4","","","","","","","",""
"pit-trial","96","706578","0.0-2.0-17.3-0.3","battery-v0.2","","""event"",""trial"",""time""
""fullscreenenter"",""1"",""2182""
""fullscreenexit"",""2"",""4209""
""blur"",""2"",""7250""
""focus"",""2"",""12940""
","""event"",""trial"",""time""
""blur"",""2"",""7250""
","""event"",""trial"",""time""
""focus"",""2"",""12940""
","""event"",""trial"",""time""
""fullscreenenter"",""1"",""2182""
","""event"",""trial"",""time""
""fullscreenexit"",""2"",""4209""
","","","592.3000000715256","","","11","17871","5831","&#9789;","elianto","#f73b6a7A"," "," ","1","0","[1445.8000000715256]","1","0","4","","","","","","","",""
"pit-trial","97","711459","0.0-2.0-17.3-1.3","battery-v0.2","","""event"",""trial"",""time""
""fullscreenenter"",""1"",""2182""
""fullscreenexit"",""2"",""4209""
""blur"",""2"",""7250""
""focus"",""2"",""12940""
","""event"",""trial"",""time""
""blur"",""2"",""7250""
","""event"",""trial"",""time""
""focus"",""2"",""12940""
","""event"",""trial"",""time""
""fullscreenenter"",""1"",""2182""
","""event"",""trial"",""time""
""fullscreenexit"",""2"",""4209""
","","","-1","","","11","17871","5831","&#9789;","elianto","#f73b6a7A"," ","-1","0","-10","[2922.6999999284744]","1","0","4","","","","","","","",""
"pit-trial","98","714876","0.0-2.0-17.3-2.3","battery-v0.2","","""event"",""trial"",""time""
""fullscreenenter"",""1"",""2182""
""fullscreenexit"",""2"",""4209""
""blur"",""2"",""7250""
""focus"",""2"",""12940""
","""event"",""trial"",""time""
""blur"",""2"",""7250""
","""event"",""trial"",""time""
""focus"",""2"",""12940""
","""event"",""trial"",""time""
""fullscreenenter"",""1"",""2182""
","""event"",""trial"",""time""
""fullscreenexit"",""2"",""4209""
","","","549.6999999284744","","","11","17871","5831","&#9789;","elianto","#f73b6a7A"," "," ","1","0","[1406.1000000238419]","1","0","4","","","","","","","",""
"pit-trial","99","718003","0.0-2.0-17.3-3.3","battery-v0.2","","""event"",""trial"",""time""
""fullscreenenter"",""1"",""2182""
""fullscreenexit"",""2"",""4209""
""blur"",""2"",""7250""
""focus"",""2"",""12940""
","""event"",""trial"",""time""
""blur"",""2"",""7250""
","""event"",""trial"",""time""
""focus"",""2"",""12940""
","""event"",""trial"",""time""
""fullscreenenter"",""1"",""2182""
","""event"",""trial"",""time""
""fullscreenexit"",""2"",""4209""
","","","267.60000002384186","","","11","17871","5831","&#9789;","elianto","#f73b6a7A"," "," ","1","-10","[1123.3000000715256]","1","0","4","","","","","","","",""
"pit-trial","100","721186","0.0-2.0-17.3-4.3","battery-v0.2","","""event"",""trial"",""time""
""fullscreenenter"",""1"",""2182""
""fullscreenexit"",""2"",""4209""
""blur"",""2"",""7250""
""focus"",""2"",""12940""
","""event"",""trial"",""time""
""blur"",""2"",""7250""
","""event"",""trial"",""time""
""focus"",""2"",""12940""
","""event"",""trial"",""time""
""fullscreenenter"",""1"",""2182""
","""event"",""trial"",""time""
""fullscreenexit"",""2"",""4209""
","","","322.6999999284744","","","11","17871","5831","&#9789;","elianto","#f73b6a7A"," "," ","1","0","[1172.7999999523163]","1","0","4","","","","","","","",""
"call-function","101","721188","0.0-2.0-18.0","battery-v0.2","","""event"",""trial"",""time""
""fullscreenenter"",""1"",""2182""
""fullscreenexit"",""2"",""4209""
""blur"",""2"",""7250""
""focus"",""2"",""12940""
""blur"",""102"",""784974""
""focus"",""102"",""814681""
","""event"",""trial"",""time""
""blur"",""2"",""7250""
""blur"",""102"",""784974""
","""event"",""trial"",""time""
""focus"",""2"",""12940""
""focus"",""102"",""814681""
","""event"",""trial"",""time""
""fullscreenenter"",""1"",""2182""
","""event"",""trial"",""time""
""fullscreenexit"",""2"",""4209""
","","","","","","","","","","","","","","","","","","","","","","","","","","",""
"pit-instructions","102","819966","0.0-2.0-19.0","battery-v0.2","","""event"",""trial"",""time""
""fullscreenenter"",""1"",""2182""
""fullscreenexit"",""2"",""4209""
""blur"",""2"",""7250""
""focus"",""2"",""12940""
""blur"",""102"",""784974""
""focus"",""102"",""814681""
","""event"",""trial"",""time""
""blur"",""2"",""7250""
""blur"",""102"",""784974""
","""event"",""trial"",""time""
""focus"",""2"",""12940""
""focus"",""102"",""814681""
","""event"",""trial"",""time""
""fullscreenenter"",""1"",""2182""
","""event"",""trial"",""time""
""fullscreenexit"",""2"",""4209""
","","[{""page_index"":0,""viewing_time"":6643.5},{""page_index"":1,""viewing_time"":4446.5},{""page_index"":2,""viewing_time"":14451.899999976158},{""page_index"":3,""viewing_time"":8332.899999976158},{""page_index"":4,""viewing_time"":6804.800000071526},{""page_index"":5,""viewing_time"":8338.100000023842},{""page_index"":6,""viewing_time"":8543.5},{""page_index"":7,""viewing_time"":38174.799999952316},{""page_index"":8,""viewing_time"":3039}]","98775.89999997616","","","","","","","","","","","","","","","","","","","","","","","",""
"pit-comprehension","103","825129","0.0-2.0-20.0-0.0","battery-v0.2","","""event"",""trial"",""time""
""fullscreenenter"",""1"",""2182""
""fullscreenexit"",""2"",""4209""
""blur"",""2"",""7250""
""focus"",""2"",""12940""
""blur"",""102"",""784974""
""focus"",""102"",""814681""
","""event"",""trial"",""time""
""blur"",""2"",""7250""
""blur"",""102"",""784974""
","""event"",""trial"",""time""
""focus"",""2"",""12940""
""focus"",""102"",""814681""
","""event"",""trial"",""time""
""fullscreenenter"",""1"",""2182""
","""event"",""trial"",""time""
""fullscreenexit"",""2"",""4209""
","","","5153.200000047684","[""SPACE""]","0","11","17871","5831","","","","","","","","","","","","","","","","","","",""
"pit-instructions","104","828828","0.0-2.0-20.0-1.0","battery-v0.2","","""event"",""trial"",""time""
""fullscreenenter"",""1"",""2182""
""fullscreenexit"",""2"",""4209""
""blur"",""2"",""7250""
""focus"",""2"",""12940""
""blur"",""102"",""784974""
""focus"",""102"",""814681""
","""event"",""trial"",""time""
""blur"",""2"",""7250""
""blur"",""102"",""784974""
","""event"",""trial"",""time""
""focus"",""2"",""12940""
""focus"",""102"",""814681""
","""event"",""trial"",""time""
""fullscreenenter"",""1"",""2182""
","""event"",""trial"",""time""
""fullscreenexit"",""2"",""4209""
","","[{""page_index"":0,""viewing_time"":3643.2000000476837}]","3643.9000000953674","","","","","","","","","","","","","","","","","","","","","","","",""
"pit-comprehension","105","833939","0.0-2.0-21.0-0.0","battery-v0.2","","""event"",""trial"",""time""
""fullscreenenter"",""1"",""2182""
""fullscreenexit"",""2"",""4209""
""blur"",""2"",""7250""
""focus"",""2"",""12940""
""blur"",""102"",""784974""
""focus"",""102"",""814681""
","""event"",""trial"",""time""
""blur"",""2"",""7250""
""blur"",""102"",""784974""
","""event"",""trial"",""time""
""focus"",""2"",""12940""
""focus"",""102"",""814681""
","""event"",""trial"",""time""
""fullscreenenter"",""1"",""2182""
","""event"",""trial"",""time""
""fullscreenexit"",""2"",""4209""
","","","5105.099999904633","[""10""]","0","11","17871","5831","","","","","","","","","","","","","","","","","","",""
"pit-instructions","106","837287","0.0-2.0-21.0-1.0","battery-v0.2","","""event"",""trial"",""time""
""fullscreenenter"",""1"",""2182""
""fullscreenexit"",""2"",""4209""
""blur"",""2"",""7250""
""focus"",""2"",""12940""
""blur"",""102"",""784974""
""focus"",""102"",""814681""
","""event"",""trial"",""time""
""blur"",""2"",""7250""
""blur"",""102"",""784974""
","""event"",""trial"",""time""
""focus"",""2"",""12940""
""focus"",""102"",""814681""
","""event"",""trial"",""time""
""fullscreenenter"",""1"",""2182""
","""event"",""trial"",""time""
""fullscreenexit"",""2"",""4209""
","","[{""page_index"":0,""viewing_time"":3282.8000000715256}]","3283.100000023842","","","","","","","","","","","","","","","","","","","","","","","",""
"pit-comprehension","107","844052","0.0-2.0-22.0-0.0","battery-v0.2","","""event"",""trial"",""time""
""fullscreenenter"",""1"",""2182""
""fullscreenexit"",""2"",""4209""
""blur"",""2"",""7250""
""focus"",""2"",""12940""
""blur"",""102"",""784974""
""focus"",""102"",""814681""
","""event"",""trial"",""time""
""blur"",""2"",""7250""
""blur"",""102"",""784974""
","""event"",""trial"",""time""
""focus"",""2"",""12940""
""focus"",""102"",""814681""
","""event"",""trial"",""time""
""fullscreenenter"",""1"",""2182""
","""event"",""trial"",""time""
""fullscreenexit"",""2"",""4209""
","","","6760.399999976158","[""0""]","0","11","17871","5831","","","","","","","","","","","","","","","","","","",""
"pit-instructions","108","845804","0.0-2.0-22.0-1.0","battery-v0.2","","""event"",""trial"",""time""
""fullscreenenter"",""1"",""2182""
""fullscreenexit"",""2"",""4209""
""blur"",""2"",""7250""
""focus"",""2"",""12940""
""blur"",""102"",""784974""
""focus"",""102"",""814681""
","""event"",""trial"",""time""
""blur"",""2"",""7250""
""blur"",""102"",""784974""
","""event"",""trial"",""time""
""focus"",""2"",""12940""
""focus"",""102"",""814681""
","""event"",""trial"",""time""
""fullscreenenter"",""1"",""2182""
","""event"",""trial"",""time""
""fullscreenexit"",""2"",""4209""
","","[{""page_index"":0,""viewing_time"":1699.5}]","1700","","","","","","","","","","","","","","","","","","","","","","","",""
"pit-comprehension","109","855145","0.0-2.0-23.0-0.0","battery-v0.2","","""event"",""trial"",""time""
""fullscreenenter"",""1"",""2182""
""fullscreenexit"",""2"",""4209""
""blur"",""2"",""7250""
""focus"",""2"",""12940""
""blur"",""102"",""784974""
""focus"",""102"",""814681""
","""event"",""trial"",""time""
""blur"",""2"",""7250""
""blur"",""102"",""784974""
","""event"",""trial"",""time""
""focus"",""2"",""12940""
""focus"",""102"",""814681""
","""event"",""trial"",""time""
""fullscreenenter"",""1"",""2182""
","""event"",""trial"",""time""
""fullscreenexit"",""2"",""4209""
","","","9335.099999904633","[""True""]","0","11","17871","5831","","","","","","","","","","","","","","","","","","",""
"pit-instructions","110","856834","0.0-2.0-23.0-1.0","battery-v0.2","","""event"",""trial"",""time""
""fullscreenenter"",""1"",""2182""
""fullscreenexit"",""2"",""4209""
""blur"",""2"",""7250""
""focus"",""2"",""12940""
""blur"",""102"",""784974""
""focus"",""102"",""814681""
","""event"",""trial"",""time""
""blur"",""2"",""7250""
""blur"",""102"",""784974""
","""event"",""trial"",""time""
""focus"",""2"",""12940""
""focus"",""102"",""814681""
","""event"",""trial"",""time""
""fullscreenenter"",""1"",""2182""
","""event"",""trial"",""time""
""fullscreenexit"",""2"",""4209""
","","[{""page_index"":0,""viewing_time"":1622.1999999284744}]","1622.6999999284744","","","","","","","","","","","","","","","","","","","","","","","",""
"pit-comprehension","111","864807","0.0-2.0-24.0-0.0","battery-v0.2","","""event"",""trial"",""time""
""fullscreenenter"",""1"",""2182""
""fullscreenexit"",""2"",""4209""
""blur"",""2"",""7250""
""focus"",""2"",""12940""
""blur"",""102"",""784974""
""focus"",""102"",""814681""
","""event"",""trial"",""time""
""blur"",""2"",""7250""
""blur"",""102"",""784974""
","""event"",""trial"",""time""
""focus"",""2"",""12940""
""focus"",""102"",""814681""
","""event"",""trial"",""time""
""fullscreenenter"",""1"",""2182""
","""event"",""trial"",""time""
""fullscreenexit"",""2"",""4209""
","","","7969","[""True""]","0","11","17871","5831","","","","","","","","","","","","","","","","","","",""
"pit-instructions","112","866506","0.0-2.0-24.0-1.0","battery-v0.2","","""event"",""trial"",""time""
""fullscreenenter"",""1"",""2182""
""fullscreenexit"",""2"",""4209""
""blur"",""2"",""7250""
""focus"",""2"",""12940""
""blur"",""102"",""784974""
""focus"",""102"",""814681""
","""event"",""trial"",""time""
""blur"",""2"",""7250""
""blur"",""102"",""784974""
","""event"",""trial"",""time""
""focus"",""2"",""12940""
""focus"",""102"",""814681""
","""event"",""trial"",""time""
""fullscreenenter"",""1"",""2182""
","""event"",""trial"",""time""
""fullscreenexit"",""2"",""4209""
","","[{""page_index"":0,""viewing_time"":1645.2000000476837}]","1645.6000000238419","","","","","","","","","","","","","","","","","","","","","","","",""
"pit-comprehension","113","873267","0.0-2.0-25.0-0.0","battery-v0.2","","""event"",""trial"",""time""
""fullscreenenter"",""1"",""2182""
""fullscreenexit"",""2"",""4209""
""blur"",""2"",""7250""
""focus"",""2"",""12940""
""blur"",""102"",""784974""
""focus"",""102"",""814681""
","""event"",""trial"",""time""
""blur"",""2"",""7250""
""blur"",""102"",""784974""
","""event"",""trial"",""time""
""focus"",""2"",""12940""
""focus"",""102"",""814681""
","""event"",""trial"",""time""
""fullscreenenter"",""1"",""2182""
","""event"",""trial"",""time""
""fullscreenexit"",""2"",""4209""
","","","6757.599999904633","[""False""]","1","11","17871","5831","","","","","","","","","","","","","","","","","","",""
"pit-instructions","114","875416","0.0-2.0-25.0-1.0","battery-v0.2","","""event"",""trial"",""time""
""fullscreenenter"",""1"",""2182""
""fullscreenexit"",""2"",""4209""
""blur"",""2"",""7250""
""focus"",""2"",""12940""
""blur"",""102"",""784974""
""focus"",""102"",""814681""
","""event"",""trial"",""time""
""blur"",""2"",""7250""
""blur"",""102"",""784974""
","""event"",""trial"",""time""
""focus"",""2"",""12940""
""focus"",""102"",""814681""
","""event"",""trial"",""time""
""fullscreenenter"",""1"",""2182""
","""event"",""trial"",""time""
""fullscreenexit"",""2"",""4209""
","","[{""page_index"":0,""viewing_time"":2089.1999999284744}]","2089.600000023842","","","","","","","","","","","","","","","","","","","","","","","",""
"pit-instructions","115","876124","0.0-2.0-25.0-2.0-0.0","battery-v0.2","","""event"",""trial"",""time""
""fullscreenenter"",""1"",""2182""
""fullscreenexit"",""2"",""4209""
""blur"",""2"",""7250""
""focus"",""2"",""12940""
""blur"",""102"",""784974""
""focus"",""102"",""814681""
","""event"",""trial"",""time""
""blur"",""2"",""7250""
""blur"",""102"",""784974""
","""event"",""trial"",""time""
""focus"",""2"",""12940""
""focus"",""102"",""814681""
","""event"",""trial"",""time""
""fullscreenenter"",""1"",""2182""
","""event"",""trial"",""time""
""fullscreenexit"",""2"",""4209""
","","[{""page_index"":0,""viewing_time"":705.8999999761581}]","706.3999999761581","","","","","","","","","","","","","","","","","","","","","","","",""
"pit-comprehension","116","882131","0.0-2.0-25.1-0.1","battery-v0.2","","""event"",""trial"",""time""
""fullscreenenter"",""1"",""2182""
""fullscreenexit"",""2"",""4209""
""blur"",""2"",""7250""
""focus"",""2"",""12940""
""blur"",""102"",""784974""
""focus"",""102"",""814681""
","""event"",""trial"",""time""
""blur"",""2"",""7250""
""blur"",""102"",""784974""
","""event"",""trial"",""time""
""focus"",""2"",""12940""
""focus"",""102"",""814681""
","""event"",""trial"",""time""
""fullscreenenter"",""1"",""2182""
","""event"",""trial"",""time""
""fullscreenexit"",""2"",""4209""
","","","6004.100000023842","[""True""]","0","11","17871","5831","","","","","","","","","","","","","","","","","","",""
"pit-instructions","117","883889","0.0-2.0-25.1-1.1","battery-v0.2","","""event"",""trial"",""time""
""fullscreenenter"",""1"",""2182""
""fullscreenexit"",""2"",""4209""
""blur"",""2"",""7250""
""focus"",""2"",""12940""
""blur"",""102"",""784974""
""focus"",""102"",""814681""
","""event"",""trial"",""time""
""blur"",""2"",""7250""
""blur"",""102"",""784974""
","""event"",""trial"",""time""
""focus"",""2"",""12940""
""focus"",""102"",""814681""
","""event"",""trial"",""time""
""fullscreenenter"",""1"",""2182""
","""event"",""trial"",""time""
""fullscreenexit"",""2"",""4209""
","","[{""page_index"":0,""viewing_time"":1710.3999999761581}]","1710.8999999761581","","","","","","","","","","","","","","","","","","","","","","","",""
"pit-comprehension","118","889389","0.0-2.0-26.0-0.0","battery-v0.2","","""event"",""trial"",""time""
""fullscreenenter"",""1"",""2182""
""fullscreenexit"",""2"",""4209""
""blur"",""2"",""7250""
""focus"",""2"",""12940""
""blur"",""102"",""784974""
""focus"",""102"",""814681""
","""event"",""trial"",""time""
""blur"",""2"",""7250""
""blur"",""102"",""784974""
","""event"",""trial"",""time""
""focus"",""2"",""12940""
""focus"",""102"",""814681""
","""event"",""trial"",""time""
""fullscreenenter"",""1"",""2182""
","""event"",""trial"",""time""
""fullscreenexit"",""2"",""4209""
","","","5495.600000023842","[""False""]","0","11","17871","5831","","","","","","","","","","","","","","","","","","",""
"pit-instructions","119","891077","0.0-2.0-26.0-1.0","battery-v0.2","","""event"",""trial"",""time""
""fullscreenenter"",""1"",""2182""
""fullscreenexit"",""2"",""4209""
""blur"",""2"",""7250""
""focus"",""2"",""12940""
""blur"",""102"",""784974""
""focus"",""102"",""814681""
","""event"",""trial"",""time""
""blur"",""2"",""7250""
""blur"",""102"",""784974""
","""event"",""trial"",""time""
""focus"",""2"",""12940""
""focus"",""102"",""814681""
","""event"",""trial"",""time""
""fullscreenenter"",""1"",""2182""
","""event"",""trial"",""time""
""fullscreenexit"",""2"",""4209""
","","[{""page_index"":0,""viewing_time"":1627}]","1627.7000000476837","","","","","","","","","","","","","","","","","","","","","","","",""
"pit-instructions","120","908404","0.0-3.0","battery-v0.2","","""event"",""trial"",""time""
""fullscreenenter"",""1"",""2182""
""fullscreenexit"",""2"",""4209""
""blur"",""2"",""7250""
""focus"",""2"",""12940""
""blur"",""102"",""784974""
""focus"",""102"",""814681""
","""event"",""trial"",""time""
""blur"",""2"",""7250""
""blur"",""102"",""784974""
","""event"",""trial"",""time""
""focus"",""2"",""12940""
""focus"",""102"",""814681""
","""event"",""trial"",""time""
""fullscreenenter"",""1"",""2182""
","""event"",""trial"",""time""
""fullscreenexit"",""2"",""4209""
","","[{""page_index"":0,""viewing_time"":4998.699999928474},{""page_index"":1,""viewing_time"":5652.900000095367},{""page_index"":2,""viewing_time"":6670.899999976158}]","17323","","","","","","","","","","","","","","","","","","","","","","","",""
"pit-trial","121","911914","0.0-4.0","battery-v0.2","","""event"",""trial"",""time""
""fullscreenenter"",""1"",""2182""
""fullscreenexit"",""2"",""4209""
""blur"",""2"",""7250""
""focus"",""2"",""12940""
""blur"",""102"",""784974""
""focus"",""102"",""814681""
","""event"",""trial"",""time""
""blur"",""2"",""7250""
""blur"",""102"",""784974""
","""event"",""trial"",""time""
""focus"",""2"",""12940""
""focus"",""102"",""814681""
","""event"",""trial"",""time""
""fullscreenenter"",""1"",""2182""
","""event"",""trial"",""time""
""fullscreenexit"",""2"",""4209""
","","","643.8999999761581","","","11","17871","5831","&#9752;","elianto","#f73b6a7A"," "," ","1","0","[1495.8000000715256]","1","1","","","17871","1","3","3","lose","go","0"
"pit-trial","122","915639","0.0-5.0","battery-v0.2","","""event"",""trial"",""time""
""fullscreenenter"",""1"",""2182""
""fullscreenexit"",""2"",""4209""
""blur"",""2"",""7250""
""focus"",""2"",""12940""
""blur"",""102"",""784974""
""focus"",""102"",""814681""
","""event"",""trial"",""time""
""blur"",""2"",""7250""
""blur"",""102"",""784974""
","""event"",""trial"",""time""
""focus"",""2"",""12940""
""focus"",""102"",""814681""
","""event"",""trial"",""time""
""fullscreenenter"",""1"",""2182""
","""event"",""trial"",""time""
""fullscreenexit"",""2"",""4209""
","","","862.0999999046326","","","11","17871","5831","&#9730;","elianto","#3366ff99"," "," ","1","+10","[1716.4000000953674]","1","1","","","17871","2","1","1","win","go","0"
"pit-trial","123","919279","0.0-6.0","battery-v0.2","","""event"",""trial"",""time""
""fullscreenenter"",""1"",""2182""
""fullscreenexit"",""2"",""4209""
""blur"",""2"",""7250""
""focus"",""2"",""12940""
""blur"",""102"",""784974""
""focus"",""102"",""814681""
","""event"",""trial"",""time""
""blur"",""2"",""7250""
""blur"",""102"",""784974""
","""event"",""trial"",""time""
""focus"",""2"",""12940""
""focus"",""102"",""814681""
","""event"",""trial"",""time""
""fullscreenenter"",""1"",""2182""
","""event"",""trial"",""time""
""fullscreenexit"",""2"",""4209""
","","","769.3999999761581","","","11","17871","5831","&#9733;","elianto","#3366ff99","-1"," ","0","0","[1621.0999999046326]","1","1","","","17871","3","2","2","win","no-go","0"
"pit-trial","124","923030","0.0-7.0","battery-v0.2","","""event"",""trial"",""time""
""fullscreenenter"",""1"",""2182""
""fullscreenexit"",""2"",""4209""
""blur"",""2"",""7250""
""focus"",""2"",""12940""
""blur"",""102"",""784974""
""focus"",""102"",""814681""
","""event"",""trial"",""time""
""blur"",""2"",""7250""
""blur"",""102"",""784974""
","""event"",""trial"",""time""
""focus"",""2"",""12940""
""focus"",""102"",""814681""
","""event"",""trial"",""time""
""fullscreenenter"",""1"",""2182""
","""event"",""trial"",""time""
""fullscreenexit"",""2"",""4209""
","","","873.3000000715256","","","11","17871","5831","&#9728;","elianto","#f73b6a7A","-1"," ","0","-10","[1733.2999999523163]","1","1","","","17871","4","0","4","lose","no-go","0"
"pit-trial","125","926646","0.0-8.0","battery-v0.2","","""event"",""trial"",""time""
""fullscreenenter"",""1"",""2182""
""fullscreenexit"",""2"",""4209""
""blur"",""2"",""7250""
""focus"",""2"",""12940""
""blur"",""102"",""784974""
""focus"",""102"",""814681""
","""event"",""trial"",""time""
""blur"",""2"",""7250""
""blur"",""102"",""784974""
","""event"",""trial"",""time""
""focus"",""2"",""12940""
""focus"",""102"",""814681""
","""event"",""trial"",""time""
""fullscreenenter"",""1"",""2182""
","""event"",""trial"",""time""
""fullscreenexit"",""2"",""4209""
","","","743.6999999284744","","","11","17871","5831","&#9733;","elianto","#3366ff99","-1"," ","0","+10","[1596.5999999046326]","1","1","","","17871","5","2","2","win","no-go","1"
"pit-trial","126","930843","0.0-9.0","battery-v0.2","","""event"",""trial"",""time""
""fullscreenenter"",""1"",""2182""
""fullscreenexit"",""2"",""4209""
""blur"",""2"",""7250""
""focus"",""2"",""12940""
""blur"",""102"",""784974""
""focus"",""102"",""814681""
","""event"",""trial"",""time""
""blur"",""2"",""7250""
""blur"",""102"",""784974""
","""event"",""trial"",""time""
""focus"",""2"",""12940""
""focus"",""102"",""814681""
","""event"",""trial"",""time""
""fullscreenenter"",""1"",""2182""
","""event"",""trial"",""time""
""fullscreenexit"",""2"",""4209""
","","","1319.5","","","11","17871","5831","&#9752;","elianto","#f73b6a7A"," "," ","1","0","[2180.7000000476837]","1","1","","","17871","6","3","3","lose","go","0"
"pit-trial","127","935718","0.0-10.0","battery-v0.2","","""event"",""trial"",""time""
""fullscreenenter"",""1"",""2182""
""fullscreenexit"",""2"",""4209""
""blur"",""2"",""7250""
""focus"",""2"",""12940""
""blur"",""102"",""784974""
""focus"",""102"",""814681""
","""event"",""trial"",""time""
""blur"",""2"",""7250""
""blur"",""102"",""784974""
","""event"",""trial"",""time""
""focus"",""2"",""12940""
""focus"",""102"",""814681""
","""event"",""trial"",""time""
""fullscreenenter"",""1"",""2182""
","""event"",""trial"",""time""
""fullscreenexit"",""2"",""4209""
","","","-1","","","11","17871","5831","&#9728;","elianto","#f73b6a7A","-1","-1","1","-10","[3418.2999999523163]","1","1","","","17871","7","0","4","lose","no-go","1"
"pit-trial","128","939430","0.0-11.0","battery-v0.2","","""event"",""trial"",""time""
""fullscreenenter"",""1"",""2182""
""fullscreenexit"",""2"",""4209""
""blur"",""2"",""7250""
""focus"",""2"",""12940""
""blur"",""102"",""784974""
""focus"",""102"",""814681""
","""event"",""trial"",""time""
""blur"",""2"",""7250""
""blur"",""102"",""784974""
","""event"",""trial"",""time""
""focus"",""2"",""12940""
""focus"",""102"",""814681""
","""event"",""trial"",""time""
""fullscreenenter"",""1"",""2182""
","""event"",""trial"",""time""
""fullscreenexit"",""2"",""4209""
","","","850.2000000476837","","","11","17871","5831","&#9730;","elianto","#3366ff99"," "," ","1","+10","[1705.6000000238419]","1","1","","","17871","8","1","1","win","go","0"
"pit-trial","129","943030","0.0-12.0","battery-v0.2","","""event"",""trial"",""time""
""fullscreenenter"",""1"",""2182""
""fullscreenexit"",""2"",""4209""
""blur"",""2"",""7250""
""focus"",""2"",""12940""
""blur"",""102"",""784974""
""focus"",""102"",""814681""
","""event"",""trial"",""time""
""blur"",""2"",""7250""
""blur"",""102"",""784974""
","""event"",""trial"",""time""
""focus"",""2"",""12940""
""focus"",""102"",""814681""
","""event"",""trial"",""time""
""fullscreenenter"",""1"",""2182""
","""event"",""trial"",""time""
""fullscreenexit"",""2"",""4209""
","","","745.5","","","11","17871","5831","&#9730;","elianto","#3366ff99"," "," ","1","+10","[1595.7000000476837]","1","1","","","17871","9","1","1","win","go","0"
"pit-trial","130","946573","0.0-13.0","battery-v0.2","","""event"",""trial"",""time""
""fullscreenenter"",""1"",""2182""
""fullscreenexit"",""2"",""4209""
""blur"",""2"",""7250""
""focus"",""2"",""12940""
""blur"",""102"",""784974""
""focus"",""102"",""814681""
","""event"",""trial"",""time""
""blur"",""2"",""7250""
""blur"",""102"",""784974""
","""event"",""trial"",""time""
""focus"",""2"",""12940""
""focus"",""102"",""814681""
","""event"",""trial"",""time""
""fullscreenenter"",""1"",""2182""
","""event"",""trial"",""time""
""fullscreenexit"",""2"",""4209""
","","","684.3000000715256","","","11","17871","5831","&#9728;","elianto","#f73b6a7A","-1"," ","0","-10","[1537.2999999523163]","1","1","","","17871","10","0","4","lose","no-go","0"
"pit-trial","131","949893","0.0-14.0","battery-v0.2","","""event"",""trial"",""time""
""fullscreenenter"",""1"",""2182""
""fullscreenexit"",""2"",""4209""
""blur"",""2"",""7250""
""focus"",""2"",""12940""
""blur"",""102"",""784974""
""focus"",""102"",""814681""
","""event"",""trial"",""time""
""blur"",""2"",""7250""
""blur"",""102"",""784974""
","""event"",""trial"",""time""
""focus"",""2"",""12940""
""focus"",""102"",""814681""
","""event"",""trial"",""time""
""fullscreenenter"",""1"",""2182""
","""event"",""trial"",""time""
""fullscreenexit"",""2"",""4209""
","","","465.60000002384186","","","11","17871","5831","&#9733;","elianto","#3366ff99","-1"," ","0","0","[1316.2000000476837]","1","1","","","17871","11","2","2","win","no-go","0"
"pit-trial","132","954763","0.0-15.0","battery-v0.2","","""event"",""trial"",""time""
""fullscreenenter"",""1"",""2182""
""fullscreenexit"",""2"",""4209""
""blur"",""2"",""7250""
""focus"",""2"",""12940""
""blur"",""102"",""784974""
""focus"",""102"",""814681""
","""event"",""trial"",""time""
""blur"",""2"",""7250""
""blur"",""102"",""784974""
","""event"",""trial"",""time""
""focus"",""2"",""12940""
""focus"",""102"",""814681""
","""event"",""trial"",""time""
""fullscreenenter"",""1"",""2182""
","""event"",""trial"",""time""
""fullscreenexit"",""2"",""4209""
","","","-1","","","11","17871","5831","&#9752;","elianto","#f73b6a7A"," ","-1","0","-10","[]","0","1","","","17871","12","3","3","lose","go","0"
"pit-trial","133","959620","0.0-16.0","battery-v0.2","","""event"",""trial"",""time""
""fullscreenenter"",""1"",""2182""
""fullscreenexit"",""2"",""4209""
""blur"",""2"",""7250""
""focus"",""2"",""12940""
""blur"",""102"",""784974""
""focus"",""102"",""814681""
","""event"",""trial"",""time""
""blur"",""2"",""7250""
""blur"",""102"",""784974""
","""event"",""trial"",""time""
""focus"",""2"",""12940""
""focus"",""102"",""814681""
","""event"",""trial"",""time""
""fullscreenenter"",""1"",""2182""
","""event"",""trial"",""time""
""fullscreenexit"",""2"",""4209""
","","","-1","","","11","17871","5831","&#9752;","elianto","#f73b6a7A"," ","-1","0","-10","[]","0","1","","","17871","13","3","3","lose","go","0"
"pit-trial","134","963395","0.0-17.0","battery-v0.2","","""event"",""trial"",""time""
""fullscreenenter"",""1"",""2182""
""fullscreenexit"",""2"",""4209""
""blur"",""2"",""7250""
""focus"",""2"",""12940""
""blur"",""102"",""784974""
""focus"",""102"",""814681""
","""event"",""trial"",""time""
""blur"",""2"",""7250""
""blur"",""102"",""784974""
","""event"",""trial"",""time""
""focus"",""2"",""12940""
""focus"",""102"",""814681""
","""event"",""trial"",""time""
""fullscreenenter"",""1"",""2182""
","""event"",""trial"",""time""
""fullscreenexit"",""2"",""4209""
","","","916.2999999523163","","","11","17871","5831","&#9730;","elianto","#3366ff99"," "," ","1","+10","[1766.2999999523163]","1","1","","","17871","14","1","1","win","go","0"
"pit-trial","135","966976","0.0-18.0","battery-v0.2","","""event"",""trial"",""time""
""fullscreenenter"",""1"",""2182""
""fullscreenexit"",""2"",""4209""
""blur"",""2"",""7250""
""focus"",""2"",""12940""
""blur"",""102"",""784974""
""focus"",""102"",""814681""
","""event"",""trial"",""time""
""blur"",""2"",""7250""
""blur"",""102"",""784974""
","""event"",""trial"",""time""
""focus"",""2"",""12940""
""focus"",""102"",""814681""
","""event"",""trial"",""time""
""fullscreenenter"",""1"",""2182""
","""event"",""trial"",""time""
""fullscreenexit"",""2"",""4209""
","","","720.1999999284744","","","11","17871","5831","&#9733;","elianto","#3366ff99","-1"," ","0","0","[1571.5]","1","1","","","17871","15","2","2","win","no-go","0"
"pit-trial","136","971844","0.0-19.0","battery-v0.2","","""event"",""trial"",""time""
""fullscreenenter"",""1"",""2182""
""fullscreenexit"",""2"",""4209""
""blur"",""2"",""7250""
""focus"",""2"",""12940""
""blur"",""102"",""784974""
""focus"",""102"",""814681""
","""event"",""trial"",""time""
""blur"",""2"",""7250""
""blur"",""102"",""784974""
","""event"",""trial"",""time""
""focus"",""2"",""12940""
""focus"",""102"",""814681""
","""event"",""trial"",""time""
""fullscreenenter"",""1"",""2182""
","""event"",""trial"",""time""
""fullscreenexit"",""2"",""4209""
","","","-1","","","11","17871","5831","&#9728;","elianto","#f73b6a7A","-1","-1","1","-10","[]","0","1","","","17871","16","0","4","lose","no-go","1"
"pit-trial","137","975704","0.0-20.0","battery-v0.2","","""event"",""trial"",""time""
""fullscreenenter"",""1"",""2182""
""fullscreenexit"",""2"",""4209""
""blur"",""2"",""7250""
""focus"",""2"",""12940""
""blur"",""102"",""784974""
""focus"",""102"",""814681""
","""event"",""trial"",""time""
""blur"",""2"",""7250""
""blur"",""102"",""784974""
","""event"",""trial"",""time""
""focus"",""2"",""12940""
""focus"",""102"",""814681""
","""event"",""trial"",""time""
""fullscreenenter"",""1"",""2182""
","""event"",""trial"",""time""
""fullscreenexit"",""2"",""4209""
","","","990.2000000476837","","","11","17871","5831","&#9730;","elianto","#3366ff99"," "," ","1","+10","[1847.2999999523163]","1","1","","","17871","17","1","1","win","go","0"
"pit-trial","138","979294","0.0-21.0","battery-v0.2","","""event"",""trial"",""time""
""fullscreenenter"",""1"",""2182""
""fullscreenexit"",""2"",""4209""
""blur"",""2"",""7250""
""focus"",""2"",""12940""
""blur"",""102"",""784974""
""focus"",""102"",""814681""
","""event"",""trial"",""time""
""blur"",""2"",""7250""
""blur"",""102"",""784974""
","""event"",""trial"",""time""
""focus"",""2"",""12940""
""focus"",""102"",""814681""
","""event"",""trial"",""time""
""fullscreenenter"",""1"",""2182""
","""event"",""trial"",""time""
""fullscreenexit"",""2"",""4209""
","","","727.7000000476837","","","11","17871","5831","&#9733;","elianto","#3366ff99","-1"," ","0","+10","[1578.1000000238419]","1","1","","","17871","18","2","2","win","no-go","1"
"pit-trial","139","984154","0.0-22.0","battery-v0.2","","""event"",""trial"",""time""
""fullscreenenter"",""1"",""2182""
""fullscreenexit"",""2"",""4209""
""blur"",""2"",""7250""
""focus"",""2"",""12940""
""blur"",""102"",""784974""
""focus"",""102"",""814681""
","""event"",""trial"",""time""
""blur"",""2"",""7250""
""blur"",""102"",""784974""
","""event"",""trial"",""time""
""focus"",""2"",""12940""
""focus"",""102"",""814681""
","""event"",""trial"",""time""
""fullscreenenter"",""1"",""2182""
","""event"",""trial"",""time""
""fullscreenexit"",""2"",""4209""
","","","-1","","","11","17871","5831","&#9752;","elianto","#f73b6a7A"," ","-1","0","-10","[3511.100000023842]","1","1","","","17871","19","3","3","lose","go","0"
"pit-trial","140","989026","0.0-23.0","battery-v0.2","","""event"",""trial"",""time""
""fullscreenenter"",""1"",""2182""
""fullscreenexit"",""2"",""4209""
""blur"",""2"",""7250""
""focus"",""2"",""12940""
""blur"",""102"",""784974""
""focus"",""102"",""814681""
","""event"",""trial"",""time""
""blur"",""2"",""7250""
""blur"",""102"",""784974""
","""event"",""trial"",""time""
""focus"",""2"",""12940""
""focus"",""102"",""814681""
","""event"",""trial"",""time""
""fullscreenenter"",""1"",""2182""
","""event"",""trial"",""time""
""fullscreenexit"",""2"",""4209""
","","","-1","","","11","17871","5831","&#9728;","elianto","#f73b6a7A","-1","-1","1","-10","[]","0","1","","","17871","20","0","4","lose","no-go","1"
"pit-instructions","141","1001843","0.0-24.0","battery-v0.2","","""event"",""trial"",""time""
""fullscreenenter"",""1"",""2182""
""fullscreenexit"",""2"",""4209""
""blur"",""2"",""7250""
""focus"",""2"",""12940""
""blur"",""102"",""784974""
""focus"",""102"",""814681""
","""event"",""trial"",""time""
""blur"",""2"",""7250""
""blur"",""102"",""784974""
","""event"",""trial"",""time""
""focus"",""2"",""12940""
""focus"",""102"",""814681""
","""event"",""trial"",""time""
""fullscreenenter"",""1"",""2182""
","""event"",""trial"",""time""
""fullscreenexit"",""2"",""4209""
","","[{""page_index"":0,""viewing_time"":6093.299999952316},{""page_index"":1,""viewing_time"":6720.400000095367}]","12814.799999952316","","","","","","","","","","","","","","","","","","","","","","","",""
"pit-trial","142","1005181","0.0-25.0","battery-v0.2","","""event"",""trial"",""time""
""fullscreenenter"",""1"",""2182""
""fullscreenexit"",""2"",""4209""
""blur"",""2"",""7250""
""focus"",""2"",""12940""
""blur"",""102"",""784974""
""focus"",""102"",""814681""
","""event"",""trial"",""time""
""blur"",""2"",""7250""
""blur"",""102"",""784974""
","""event"",""trial"",""time""
""focus"",""2"",""12940""
""focus"",""102"",""814681""
","""event"",""trial"",""time""
""fullscreenenter"",""1"",""2182""
","""event"",""trial"",""time""
""fullscreenexit"",""2"",""4209""
","","","459","","","11","17871","5831","t","elianto","#f73b6a7A","-1"," ","0","-10","[1317.7999999523163]","1","2","","","17871","21","2","4","lose","no-go","0"
"pit-trial","143","1009158","0.0-26.0","battery-v0.2","","""event"",""trial"",""time""
""fullscreenenter"",""1"",""2182""
""fullscreenexit"",""2"",""4209""
""blur"",""2"",""7250""
""focus"",""2"",""12940""
""blur"",""102"",""784974""
""focus"",""102"",""814681""
","""event"",""trial"",""time""
""blur"",""2"",""7250""
""blur"",""102"",""784974""
","""event"",""trial"",""time""
""focus"",""2"",""12940""
""focus"",""102"",""814681""
","""event"",""trial"",""time""
""fullscreenenter"",""1"",""2182""
","""event"",""trial"",""time""
""fullscreenexit"",""2"",""4209""
","","","1118.8999999761581","","","11","17871","5831","f","elianto","#3366ff99"," "," ","1","+10","[1969.1000000238419]","1","2","","","17871","22","1","1","win","go","0"
"pit-trial","144","1012944","0.0-27.0","battery-v0.2","","""event"",""trial"",""time""
""fullscreenenter"",""1"",""2182""
""fullscreenexit"",""2"",""4209""
""blur"",""2"",""7250""
""focus"",""2"",""12940""
""blur"",""102"",""784974""
""focus"",""102"",""814681""
","""event"",""trial"",""time""
""blur"",""2"",""7250""
""blur"",""102"",""784974""
","""event"",""trial"",""time""
""focus"",""2"",""12940""
""focus"",""102"",""814681""
","""event"",""trial"",""time""
""fullscreenenter"",""1"",""2182""
","""event"",""trial"",""time""
""fullscreenexit"",""2"",""4209""
","","","923.7999999523163","","","11","17871","5831","b","elianto","#f73b6a7A"," "," ","1","0","[1773.9000000953674]","1","2","","","17871","23","3","3","lose","go","0"
"pit-trial","145","1017023","0.0-28.0","battery-v0.2","","""event"",""trial"",""time""
""fullscreenenter"",""1"",""2182""
""fullscreenexit"",""2"",""4209""
""blur"",""2"",""7250""
""focus"",""2"",""12940""
""blur"",""102"",""784974""
""focus"",""102"",""814681""
","""event"",""trial"",""time""
""blur"",""2"",""7250""
""blur"",""102"",""784974""
","""event"",""trial"",""time""
""focus"",""2"",""12940""
""focus"",""102"",""814681""
","""event"",""trial"",""time""
""fullscreenenter"",""1"",""2182""
","""event"",""trial"",""time""
""fullscreenexit"",""2"",""4209""
","","","1208.7999999523163","","","11","17871","5831","n","elianto","#f73b6a7A","-1"," ","0","-10","[2068.2999999523163]","1","2","","","17871","24","0","4","lose","no-go","0"
"pit-trial","146","1021882","0.0-29.0","battery-v0.2","","""event"",""trial"",""time""
""fullscreenenter"",""1"",""2182""
""fullscreenexit"",""2"",""4209""
""blur"",""2"",""7250""
""focus"",""2"",""12940""
""blur"",""102"",""784974""
""focus"",""102"",""814681""
","""event"",""trial"",""time""
""blur"",""2"",""7250""
""blur"",""102"",""784974""
","""event"",""trial"",""time""
""focus"",""2"",""12940""
""focus"",""102"",""814681""
","""event"",""trial"",""time""
""fullscreenenter"",""1"",""2182""
","""event"",""trial"",""time""
""fullscreenexit"",""2"",""4209""
","","","-1","","","11","17871","5831","t","elianto","#f73b6a7A","-1","-1","1","-10","[]","0","2","","","17871","25","2","4","lose","no-go","1"
"pit-trial","147","1026766","0.0-30.0","battery-v0.2","","""event"",""trial"",""time""
""fullscreenenter"",""1"",""2182""
""fullscreenexit"",""2"",""4209""
""blur"",""2"",""7250""
""focus"",""2"",""12940""
""blur"",""102"",""784974""
""focus"",""102"",""814681""
","""event"",""trial"",""time""
""blur"",""2"",""7250""
""blur"",""102"",""784974""
","""event"",""trial"",""time""
""focus"",""2"",""12940""
""focus"",""102"",""814681""
","""event"",""trial"",""time""
""fullscreenenter"",""1"",""2182""
","""event"",""trial"",""time""
""fullscreenexit"",""2"",""4209""
