"trial_type","trial_index","time_elapsed","internal_node_id","task_version","subject_id","interactions","blur_events","focus_events","fullscreenenter_events","fullscreenexit_events","success","view_history","rt","responses","num_errors","age","subject","participantId","rune","rune_set","hex","correct","choice","accuracy","outcome","keys","total_keys","block","practice","value","sub","trial","stimulus","robot","valence","action","sham"
"pavlovia","0","24","0.0-0.0","battery-v0.2","","""event"",""trial"",""time""
""fullscreenenter"",""1"",""5641""
","
","
","""event"",""trial"",""time""
""fullscreenenter"",""1"",""5641""
","
","","","","","","","","","","","","","","","","","","","","","","","","","","",""
"fullscreen","1","6572","0.0-1.0","battery-v0.2","","""event"",""trial"",""time""
""fullscreenenter"",""1"",""5641""
","
","
","""event"",""trial"",""time""
""fullscreenenter"",""1"",""5641""
","
","true","","","","","","","","","","","","","","","","","","","","","","","","","",""
"pit-instructions","2","22766","0.0-2.0-0.0","battery-v0.2","","""event"",""trial"",""time""
""fullscreenenter"",""1"",""5641""
","
","
","""event"",""trial"",""time""
""fullscreenenter"",""1"",""5641""
","
","","[{""page_index"":0,""viewing_time"":16180}]","16182","","","","","","","","","","","","","","","","","","","","","","","",""
"pit-comprehension","3","29233","0.0-2.0-1.0-0.0","battery-v0.2","","""event"",""trial"",""time""
""fullscreenenter"",""1"",""5641""
","
","
","""event"",""trial"",""time""
""fullscreenenter"",""1"",""5641""
","
","","","6444.89999999851","[""shark""]","0","16","9685","4577","","","","","","","","","","","","","","","","","","",""
"pit-instructions","4","32266","0.0-2.0-1.0-1.0","battery-v0.2","","""event"",""trial"",""time""
""fullscreenenter"",""1"",""5641""
","
","
","""event"",""trial"",""time""
""fullscreenenter"",""1"",""5641""
","
","","[{""page_index"":0,""viewing_time"":2987.1999999955297}]","2989.1999999955297","","","","","","","","","","","","","","","","","","","","","","","",""
"pit-comprehension","5","38206","0.0-2.0-2.0-0.0","battery-v0.2","","""event"",""trial"",""time""
""fullscreenenter"",""1"",""5641""
","
","
","""event"",""trial"",""time""
""fullscreenenter"",""1"",""5641""
","
","","","5922.5","[""tiger""]","0","16","9685","4577","","","","","","","","","","","","","","","","","","",""
"pit-instructions","6","50310","0.0-2.0-2.0-1.0","battery-v0.2","","""event"",""trial"",""time""
""fullscreenenter"",""1"",""5641""
","
","
","""event"",""trial"",""time""
""fullscreenenter"",""1"",""5641""
","
","","[{""page_index"":0,""viewing_time"":12088}]","12089.09999999404","","","","","","","","","","","","","","","","","","","","","","","",""
"pit-instructions","7","220466","0.0-2.0-3.0","battery-v0.2","","""event"",""trial"",""time""
""fullscreenenter"",""1"",""5641""
","
","
","""event"",""trial"",""time""
""fullscreenenter"",""1"",""5641""
","
","","[{""page_index"":0,""viewing_time"":11404.60000000149},{""page_index"":1,""viewing_time"":10701.79999999702},{""page_index"":2,""viewing_time"":8087.60000000149},{""page_index"":3,""viewing_time"":6113.20000000298},{""page_index"":4,""viewing_time"":8045},{""page_index"":5,""viewing_time"":8391.09999999404},{""page_index"":6,""viewing_time"":27586.20000000298},{""page_index"":7,""viewing_time"":46968},{""page_index"":8,""viewing_time"":6254.79999999702},{""page_index"":9,""viewing_time"":8814.30000000447},{""page_index"":10,""viewing_time"":7218},{""page_index"":11,""viewing_time"":9132.89999999851},{""page_index"":12,""viewing_time"":7031.39999999851},{""page_index"":13,""viewing_time"":4390.60000000149}]","170142","","","","","","","","","","","","","","","","","","","","","","","",""
"pit-trial","8","224139","0.0-2.0-4.0-0.0","battery-v0.2","","""event"",""trial"",""time""
""fullscreenenter"",""1"",""5641""
","
","
","""event"",""trial"",""time""
""fullscreenenter"",""1"",""5641""
","
","","","808.6999999955297","","","16","9685","4577","&#9784;","elianto","#FFFFF080"," "," ","1","&#10004","[1660.1000000014901]","1","0","0","","","","","","","",""
"pit-trial","9","227550","0.0-2.0-4.1-0.1","battery-v0.2","","""event"",""trial"",""time""
""fullscreenenter"",""1"",""5641""
","
","
","""event"",""trial"",""time""
""fullscreenenter"",""1"",""5641""
","
","","","543.2999999970198","","","16","9685","4577","&#9784;","elianto","#FFFFF080"," "," ","1","&#10004","[1401.1000000014901]","1","0","0","","","","","","","",""
"pit-trial","10","230924","0.0-2.0-4.2-0.2","battery-v0.2","","""event"",""trial"",""time""
""fullscreenenter"",""1"",""5641""
","
","
","""event"",""trial"",""time""
""fullscreenenter"",""1"",""5641""
","
","","","511.79999999701977","","","16","9685","4577","&#9784;","elianto","#FFFFF080"," "," ","1","&#10004","[1364]","1","0","0","","","","","","","",""
"pit-trial","11","234218","0.0-2.0-4.3-0.3","battery-v0.2","","""event"",""trial"",""time""
""fullscreenenter"",""1"",""5641""
","
","
","""event"",""trial"",""time""
""fullscreenenter"",""1"",""5641""
","
","","","429.3999999985099","","","16","9685","4577","&#9784;","elianto","#FFFFF080"," "," ","1","&#10004","[1285.6000000014901]","1","0","0","","","","","","","",""
"pit-trial","12","237562","0.0-2.0-4.4-0.4","battery-v0.2","","""event"",""trial"",""time""
""fullscreenenter"",""1"",""5641""
","
","
","""event"",""trial"",""time""
""fullscreenenter"",""1"",""5641""
","
","","","477.5","","","16","9685","4577","&#9784;","elianto","#FFFFF080"," "," ","1","&#10004","[1328.1000000014901]","1","0","0","","","","","","","",""
"pit-instructions","13","263759","0.0-2.0-5.0","battery-v0.2","","""event"",""trial"",""time""
""fullscreenenter"",""1"",""5641""
","
","
","""event"",""trial"",""time""
""fullscreenenter"",""1"",""5641""
","
","","[{""page_index"":0,""viewing_time"":7269.5999999940395},{""page_index"":1,""viewing_time"":8282.70000000298},{""page_index"":2,""viewing_time"":4223.89999999851},{""page_index"":3,""viewing_time"":6409.80000000447}]","26187.19999999553","","","","","","","","","","","","","","","","","","","","","","","",""
"pit-trial","14","268623","0.0-2.0-6.0-0.0","battery-v0.2","","""event"",""trial"",""time""
""fullscreenenter"",""1"",""5641""
","
","
","""event"",""trial"",""time""
""fullscreenenter"",""1"",""5641""
","
","","","-1","","","16","9685","4577","&#9854;","elianto","#FFFFF080","-1","-1","1","&#10004","[]","0","0","1","","","","","","","",""
"pit-trial","15","273502","0.0-2.0-6.1-0.1","battery-v0.2","","""event"",""trial"",""time""
""fullscreenenter"",""1"",""5641""
","
","
","""event"",""trial"",""time""
""fullscreenenter"",""1"",""5641""
","
","","","-1","","","16","9685","4577","&#9854;","elianto","#FFFFF080","-1","-1","1","&#10004","[]","0","0","1","","","","","","","",""
"pit-trial","16","278425","0.0-2.0-6.2-0.2","battery-v0.2","","""event"",""trial"",""time""
""fullscreenenter"",""1"",""5641""
","
","
","""event"",""trial"",""time""
""fullscreenenter"",""1"",""5641""
","
","","","-1","","","16","9685","4577","&#9854;","elianto","#FFFFF080","-1","-1","1","&#10004","[]","0","0","1","","","","","","","",""
"pit-trial","17","283289","0.0-2.0-6.3-0.3","battery-v0.2","","""event"",""trial"",""time""
""fullscreenenter"",""1"",""5641""
","
","
","""event"",""trial"",""time""
""fullscreenenter"",""1"",""5641""
","
","","","-1","","","16","9685","4577","&#9854;","elianto","#FFFFF080","-1","-1","1","&#10004","[]","0","0","1","","","","","","","",""
"pit-trial","18","288155","0.0-2.0-6.4-0.4","battery-v0.2","","""event"",""trial"",""time""
""fullscreenenter"",""1"",""5641""
","
","
","""event"",""trial"",""time""
""fullscreenenter"",""1"",""5641""
","
","","","-1","","","16","9685","4577","&#9854;","elianto","#FFFFF080","-1","-1","1","&#10004","[]","0","0","1","","","","","","","",""
"pit-instructions","19","636277","0.0-2.0-7.0","battery-v0.2","","""event"",""trial"",""time""
""fullscreenenter"",""1"",""5641""
","
","
","""event"",""trial"",""time""
""fullscreenenter"",""1"",""5641""
","
","","[{""page_index"":0,""viewing_time"":21679.89999999851},{""page_index"":1,""viewing_time"":9162.39999999851},{""page_index"":2,""viewing_time"":7933.70000000298},{""page_index"":3,""viewing_time"":52935.60000000149},{""page_index"":4,""viewing_time"":39437.19999999553},{""page_index"":5,""viewing_time"":10620},{""page_index"":6,""viewing_time"":28099.5},{""page_index"":7,""viewing_time"":13011.20000000298},{""page_index"":8,""viewing_time"":41876.79999999702},{""page_index"":9,""viewing_time"":6356.5},{""page_index"":10,""viewing_time"":8622.10000000149},{""page_index"":11,""viewing_time"":22153.10000000149},{""page_index"":12,""viewing_time"":8715.19999999553},{""page_index"":13,""viewing_time"":42833.70000000298},{""page_index"":14,""viewing_time"":8382.39999999851},{""page_index"":15,""viewing_time"":8627.30000000447},{""page_index"":16,""viewing_time"":8030.0999999940395},{""page_index"":17,""viewing_time"":9623.5}]","348103.19999999553","","","","","","","","","","","","","","","","","","","","","","","",""
"pit-trial","20","639873","0.0-2.0-8.0-0.0","battery-v0.2","","""event"",""trial"",""time""
""fullscreenenter"",""1"",""5641""
","
","
","""event"",""trial"",""time""
""fullscreenenter"",""1"",""5641""
","
","","","731.7999999970198","","","16","9685","4577","&#9776;","elianto","#3366ff99"," "," ","1","+10","[1586.3999999985099]","1","0","1","","","","","","","",""
"pit-trial","21","643458","0.0-2.0-8.0-1.0","battery-v0.2","","""event"",""trial"",""time""
""fullscreenenter"",""1"",""5641""
","
","
","""event"",""trial"",""time""
""fullscreenenter"",""1"",""5641""
","
","","","715.5","","","16","9685","4577","&#9776;","elianto","#3366ff99"," "," ","1","+10","[1574.7000000029802]","1","0","1","","","","","","","",""
"pit-trial","22","646943","0.0-2.0-8.0-2.0","battery-v0.2","","""event"",""trial"",""time""
""fullscreenenter"",""1"",""5641""
","
","
","""event"",""trial"",""time""
""fullscreenenter"",""1"",""5641""
","
","","","624.5","","","16","9685","4577","&#9776;","elianto","#3366ff99"," "," ","1","+10","[1476.6000000014901]","1","0","1","","","","","","","",""
"pit-trial","23","650151","0.0-2.0-8.0-3.0","battery-v0.2","","""event"",""trial"",""time""
""fullscreenenter"",""1"",""5641""
","
","
","""event"",""trial"",""time""
""fullscreenenter"",""1"",""5641""
","
","","","346","","","16","9685","4577","&#9776;","elianto","#3366ff99"," "," ","1","0","[1196.3999999985099]","1","0","1","","","","","","","",""
"pit-trial","24","653543","0.0-2.0-8.0-4.0","battery-v0.2","","""event"",""trial"",""time""
""fullscreenenter"",""1"",""5641""
","
","
","""event"",""trial"",""time""
""fullscreenenter"",""1"",""5641""
","
","","","531.8999999985099","","","16","9685","4577","&#9776;","elianto","#3366ff99"," "," ","1","+10","[1384.5]","1","0","1","","","","","","","",""
"pit-trial","25","656768","0.0-2.0-8.1-0.1","battery-v0.2","","""event"",""trial"",""time""
""fullscreenenter"",""1"",""5641""
","
","
","""event"",""trial"",""time""
""fullscreenenter"",""1"",""5641""
","
","","","361.6000000014901","","","16","9685","4577","&#9776;","elianto","#3366ff99"," "," ","1","+10","[1213.2999999970198]","1","0","1","","","","","","","",""
"pit-trial","26","660192","0.0-2.0-8.1-1.1","battery-v0.2","","""event"",""trial"",""time""
""fullscreenenter"",""1"",""5641""
","
","
","""event"",""trial"",""time""
""fullscreenenter"",""1"",""5641""
","
","","","557","","","16","9685","4577","&#9776;","elianto","#3366ff99"," "," ","1","+10","[1415.6999999955297]","1","0","1","","","","","","","",""
"pit-trial","27","663305","0.0-2.0-8.1-2.1","battery-v0.2","","""event"",""trial"",""time""
""fullscreenenter"",""1"",""5641""
","
","
","""event"",""trial"",""time""
""fullscreenenter"",""1"",""5641""
","
","","","246.60000000149012","","","16","9685","4577","&#9776;","elianto","#3366ff99"," "," ","1","+10","[1105]","1","0","1","","","","","","","",""
"pit-trial","28","666780","0.0-2.0-8.1-3.1","battery-v0.2","","""event"",""trial"",""time""
""fullscreenenter"",""1"",""5641""
","
","
","""event"",""trial"",""time""
""fullscreenenter"",""1"",""5641""
","
","","","614.6000000014901","","","16","9685","4577","&#9776;","elianto","#3366ff99"," "," ","1","0","[1470.5]","1","0","1","","","","","","","",""
"pit-trial","29","671045","0.0-2.0-8.1-4.1","battery-v0.2","","""event"",""trial"",""time""
""fullscreenenter"",""1"",""5641""
","
","
","""event"",""trial"",""time""
""fullscreenenter"",""1"",""5641""
","
","","","1402.8999999985099","","","16","9685","4577","&#9776;","elianto","#3366ff99"," "," ","1","+10","[2253.3000000044703]","1","0","1","","","","","","","",""
"pit-trial","30","674610","0.0-2.0-8.2-0.2","battery-v0.2","","""event"",""trial"",""time""
""fullscreenenter"",""1"",""5641""
","
","
","""event"",""trial"",""time""
""fullscreenenter"",""1"",""5641""
","
","","","697","","","16","9685","4577","&#9776;","elianto","#3366ff99"," "," ","1","+10","[1550.8999999985099]","1","0","1","","","","","","","",""
"pit-trial","31","677668","0.0-2.0-8.2-1.2","battery-v0.2","","""event"",""trial"",""time""
""fullscreenenter"",""1"",""5641""
","
","
","""event"",""trial"",""time""
""fullscreenenter"",""1"",""5641""
","
","","","197","","","16","9685","4577","&#9776;","elianto","#3366ff99"," "," ","1","+10","[170.89999999850988,1049.3999999985099]","2","0","1","","","","","","","",""
"pit-trial","32","680736","0.0-2.0-8.2-2.2","battery-v0.2","","""event"",""trial"",""time""
""fullscreenenter"",""1"",""5641""
","
","
","""event"",""trial"",""time""
""fullscreenenter"",""1"",""5641""
","
","","","206.89999999850988","","","16","9685","4577","&#9776;","elianto","#3366ff99"," "," ","1","+10","[1057.5]","1","0","1","","","","","","","",""
"pit-trial","33","683844","0.0-2.0-8.2-3.2","battery-v0.2","","""event"",""trial"",""time""
""fullscreenenter"",""1"",""5641""
","
","
","""event"",""trial"",""time""
""fullscreenenter"",""1"",""5641""
","
","","","242.39999999850988","","","16","9685","4577","&#9776;","elianto","#3366ff99"," "," ","1","0","[1095.6999999955297]","1","0","1","","","","","","","",""
"pit-trial","34","688013","0.0-2.0-8.2-4.2","battery-v0.2","","""event"",""trial"",""time""
""fullscreenenter"",""1"",""5641""
","
","
","""event"",""trial"",""time""
""fullscreenenter"",""1"",""5641""
","
","","","1300.5","","","16","9685","4577","&#9776;","elianto","#3366ff99"," "," ","1","+10","[468.30000000447035,2159.2000000029802,3075.10000000149]","3","0","1","","","","","","","",""
"call-function","35","688017","0.0-2.0-9.0","battery-v0.2","","""event"",""trial"",""time""
""fullscreenenter"",""1"",""5641""
","
","
","""event"",""trial"",""time""
""fullscreenenter"",""1"",""5641""
","
","","","","","","","","","","","","","","","","","","","","","","","","","","",""
"pit-instructions","36","768226","0.0-2.0-10.0","battery-v0.2","","""event"",""trial"",""time""
""fullscreenenter"",""1"",""5641""
","
","
","""event"",""trial"",""time""
""fullscreenenter"",""1"",""5641""
","
","","[{""page_index"":0,""viewing_time"":8899.09999999404},{""page_index"":1,""viewing_time"":30896.60000000149},{""page_index"":2,""viewing_time"":11136.30000000447},{""page_index"":3,""viewing_time"":20298.59999999404},{""page_index"":4,""viewing_time"":8973.70000000298}]","80206.79999999702","","","","","","","","","","","","","","","","","","","","","","","",""
"pit-trial","37","772692","0.0-2.0-11.0-0.0","battery-v0.2","","""event"",""trial"",""time""
""fullscreenenter"",""1"",""5641""
","
","
","""event"",""trial"",""time""
""fullscreenenter"",""1"",""5641""
","
","","","1600.7000000029802","","","16","9685","4577","&#9761;","elianto","#3366ff99","-1"," ","0","0","[2455.10000000149]","1","0","2","","","","","","","",""
"pit-trial","38","776344","0.0-2.0-11.0-1.0","battery-v0.2","","""event"",""trial"",""time""
""fullscreenenter"",""1"",""5641""
","
","
","""event"",""trial"",""time""
""fullscreenenter"",""1"",""5641""
","
","","","789","","","16","9685","4577","&#9761;","elianto","#3366ff99","-1"," ","0","0","[1643.3999999985099]","1","0","2","","","","","","","",""
"pit-trial","39","779333","0.0-2.0-11.0-2.0","battery-v0.2","","""event"",""trial"",""time""
""fullscreenenter"",""1"",""5641""
","
","
","""event"",""trial"",""time""
""fullscreenenter"",""1"",""5641""
","
","","","130","","","16","9685","4577","&#9761;","elianto","#3366ff99","-1"," ","0","0","[981.3999999985099]","1","0","2","","","","","","","",""
"pit-trial","40","784193","0.0-2.0-11.0-3.0","battery-v0.2","","""event"",""trial"",""time""
""fullscreenenter"",""1"",""5641""
","
","
","""event"",""trial"",""time""
""fullscreenenter"",""1"",""5641""
","
","","","-1","","","16","9685","4577","&#9761;","elianto","#3366ff99","-1","-1","1","0","[]","0","0","2","","","","","","","",""
"pit-trial","41","789051","0.0-2.0-11.0-4.0","battery-v0.2","","""event"",""trial"",""time""
""fullscreenenter"",""1"",""5641""
","
","
","""event"",""trial"",""time""
""fullscreenenter"",""1"",""5641""
","
","","","-1","","","16","9685","4577","&#9761;","elianto","#3366ff99","-1","-1","1","+10","[]","0","0","2","","","","","","","",""
"pit-trial","42","793913","0.0-2.0-11.1-0.1","battery-v0.2","","""event"",""trial"",""time""
""fullscreenenter"",""1"",""5641""
","
","
","""event"",""trial"",""time""
""fullscreenenter"",""1"",""5641""
","
","","","-1","","","16","9685","4577","&#9761;","elianto","#3366ff99","-1","-1","1","+10","[]","0","0","2","","","","","","","",""
"pit-trial","43","798776","0.0-2.0-11.1-1.1","battery-v0.2","","""event"",""trial"",""time""
""fullscreenenter"",""1"",""5641""
","
","
","""event"",""trial"",""time""
""fullscreenenter"",""1"",""5641""
","
","","","-1","","","16","9685","4577","&#9761;","elianto","#3366ff99","-1","-1","1","+10","[]","0","0","2","","","","","","","",""
"pit-trial","44","803640","0.0-2.0-11.1-2.1","battery-v0.2","","""event"",""trial"",""time""
""fullscreenenter"",""1"",""5641""
","
","
","""event"",""trial"",""time""
""fullscreenenter"",""1"",""5641""
","
","","","-1","","","16","9685","4577","&#9761;","elianto","#3366ff99","-1","-1","1","+10","[]","0","0","2","","","","","","","",""
"pit-trial","45","808505","0.0-2.0-11.1-3.1","battery-v0.2","","""event"",""trial"",""time""
""fullscreenenter"",""1"",""5641""
","
","
","""event"",""trial"",""time""
""fullscreenenter"",""1"",""5641""
","
","","","-1","","","16","9685","4577","&#9761;","elianto","#3366ff99","-1","-1","1","0","[]","0","0","2","","","","","","","",""
"pit-trial","46","813362","0.0-2.0-11.1-4.1","battery-v0.2","","""event"",""trial"",""time""
""fullscreenenter"",""1"",""5641""
","
","
","""event"",""trial"",""time""
""fullscreenenter"",""1"",""5641""
","
","","","-1","","","16","9685","4577","&#9761;","elianto","#3366ff99","-1","-1","1","+10","[]","0","0","2","","","","","","","",""
"pit-trial","47","818232","0.0-2.0-11.2-0.2","battery-v0.2","","""event"",""trial"",""time""
""fullscreenenter"",""1"",""5641""
","
","
","""event"",""trial"",""time""
""fullscreenenter"",""1"",""5641""
","
","","","-1","","","16","9685","4577","&#9761;","elianto","#3366ff99","-1","-1","1","+10","[]","0","0","2","","","","","","","",""
"pit-trial","48","823096","0.0-2.0-11.2-1.2","battery-v0.2","","""event"",""trial"",""time""
""fullscreenenter"",""1"",""5641""
","
","
","""event"",""trial"",""time""
""fullscreenenter"",""1"",""5641""
","
","","","-1","","","16","9685","4577","&#9761;","elianto","#3366ff99","-1","-1","1","+10","[]","0","0","2","","","","","","","",""
"pit-trial","49","827959","0.0-2.0-11.2-2.2","battery-v0.2","","""event"",""trial"",""time""
""fullscreenenter"",""1"",""5641""
","
","
","""event"",""trial"",""time""
""fullscreenenter"",""1"",""5641""
","
","","","-1","","","16","9685","4577","&#9761;","elianto","#3366ff99","-1","-1","1","+10","[]","0","0","2","","","","","","","",""
"pit-trial","50","832826","0.0-2.0-11.2-3.2","battery-v0.2","","""event"",""trial"",""time""
""fullscreenenter"",""1"",""5641""
","
","
","""event"",""trial"",""time""
""fullscreenenter"",""1"",""5641""
","
","","","-1","","","16","9685","4577","&#9761;","elianto","#3366ff99","-1","-1","1","0","[]","0","0","2","","","","","","","",""
"pit-trial","51","837687","0.0-2.0-11.2-4.2","battery-v0.2","","""event"",""trial"",""time""
""fullscreenenter"",""1"",""5641""
","
","
","""event"",""trial"",""time""
""fullscreenenter"",""1"",""5641""
","
","","","-1","","","16","9685","4577","&#9761;","elianto","#3366ff99","-1","-1","1","+10","[]","0","0","2","","","","","","","",""
"pit-trial","52","842555","0.0-2.0-11.3-0.3","battery-v0.2","","""event"",""trial"",""time""
""fullscreenenter"",""1"",""5641""
","
","
","""event"",""trial"",""time""
""fullscreenenter"",""1"",""5641""
","
","","","-1","","","16","9685","4577","&#9761;","elianto","#3366ff99","-1","-1","1","+10","[]","0","0","2","","","","","","","",""
"pit-trial","53","847418","0.0-2.0-11.3-1.3","battery-v0.2","","""event"",""trial"",""time""
""fullscreenenter"",""1"",""5641""
","
","
","""event"",""trial"",""time""
""fullscreenenter"",""1"",""5641""
","
","","","-1","","","16","9685","4577","&#9761;","elianto","#3366ff99","-1","-1","1","+10","[]","0","0","2","","","","","","","",""
"pit-trial","54","852276","0.0-2.0-11.3-2.3","battery-v0.2","","""event"",""trial"",""time""
""fullscreenenter"",""1"",""5641""
","
","
","""event"",""trial"",""time""
""fullscreenenter"",""1"",""5641""
","
","","","-1","","","16","9685","4577","&#9761;","elianto","#3366ff99","-1","-1","1","+10","[]","0","0","2","","","","","","","",""
"pit-trial","55","857136","0.0-2.0-11.3-3.3","battery-v0.2","","""event"",""trial"",""time""
""fullscreenenter"",""1"",""5641""
","
","
","""event"",""trial"",""time""
""fullscreenenter"",""1"",""5641""
","
","","","-1","","","16","9685","4577","&#9761;","elianto","#3366ff99","-1","-1","1","0","[]","0","0","2","","","","","","","",""
"pit-trial","56","860553","0.0-2.0-11.3-4.3","battery-v0.2","","""event"",""trial"",""time""
""fullscreenenter"",""1"",""5641""
","
","
","""event"",""trial"",""time""
""fullscreenenter"",""1"",""5641""
","
","","","557.3999999985099","","","16","9685","4577","&#9761;","elianto","#3366ff99","-1"," ","0","0","[1409.1000000014901]","1","0","2","","","","","","","",""
"call-function","57","860558","0.0-2.0-12.0","battery-v0.2","","""event"",""trial"",""time""
""fullscreenenter"",""1"",""5641""
","
","
","""event"",""trial"",""time""
""fullscreenenter"",""1"",""5641""
","
","","","","","","","","","","","","","","","","","","","","","","","","","","",""
"pit-instructions","58","894202","0.0-2.0-13.0","battery-v0.2","","""event"",""trial"",""time""
""fullscreenenter"",""1"",""5641""
","
","
","""event"",""trial"",""time""
""fullscreenenter"",""1"",""5641""
","
","","[{""page_index"":0,""viewing_time"":4855.4000000059605},{""page_index"":1,""viewing_time"":6782},{""page_index"":2,""viewing_time"":5856},{""page_index"":3,""viewing_time"":10207.09999999404},{""page_index"":4,""viewing_time"":5939.5}]","33642.60000000149","","","","","","","","","","","","","","","","","","","","","","","",""
"pit-trial","59","897804","0.0-2.0-14.0-0.0","battery-v0.2","","""event"",""trial"",""time""
""fullscreenenter"",""1"",""5641""
","
","
","""event"",""trial"",""time""
""fullscreenenter"",""1"",""5641""
","
","","","730","","","16","9685","4577","&#9826;","elianto","#f73b6a7A","-1"," ","0","-10","[1585.5]","1","0","3","","","","","","","",""
"pit-trial","60","902667","0.0-2.0-14.0-1.0","battery-v0.2","","""event"",""trial"",""time""
""fullscreenenter"",""1"",""5641""
","
","
","""event"",""trial"",""time""
""fullscreenenter"",""1"",""5641""
","
","","","-1","","","16","9685","4577","&#9826;","elianto","#f73b6a7A","-1","-1","1","0","[]","0","0","3","","","","","","","",""
"pit-trial","61","907531","0.0-2.0-14.0-2.0","battery-v0.2","","""event"",""trial"",""time""
""fullscreenenter"",""1"",""5641""
","
","
","""event"",""trial"",""time""
""fullscreenenter"",""1"",""5641""
","
","","","-1","","","16","9685","4577","&#9826;","elianto","#f73b6a7A","-1","-1","1","0","[]","0","0","3","","","","","","","",""
"pit-trial","62","912392","0.0-2.0-14.0-3.0","battery-v0.2","","""event"",""trial"",""time""
""fullscreenenter"",""1"",""5641""
","
","
","""event"",""trial"",""time""
""fullscreenenter"",""1"",""5641""
","
","","","-1","","","16","9685","4577","&#9826;","elianto","#f73b6a7A","-1","-1","1","-10","[]","0","0","3","","","","","","","",""
"pit-trial","63","917253","0.0-2.0-14.0-4.0","battery-v0.2","","""event"",""trial"",""time""
""fullscreenenter"",""1"",""5641""
","
","
","""event"",""trial"",""time""
""fullscreenenter"",""1"",""5641""
","
","","","-1","","","16","9685","4577","&#9826;","elianto","#f73b6a7A","-1","-1","1","0","[]","0","0","3","","","","","","","",""
"pit-trial","64","922116","0.0-2.0-14.1-0.1","battery-v0.2","","""event"",""trial"",""time""
""fullscreenenter"",""1"",""5641""
","
","
","""event"",""trial"",""time""
""fullscreenenter"",""1"",""5641""
","
","","","-1","","","16","9685","4577","&#9826;","elianto","#f73b6a7A","-1","-1","1","0","[]","0","0","3","","","","","","","",""
"pit-trial","65","926986","0.0-2.0-14.1-1.1","battery-v0.2","","""event"",""trial"",""time""
""fullscreenenter"",""1"",""5641""
","
","
","""event"",""trial"",""time""
""fullscreenenter"",""1"",""5641""
","
","","","-1","","","16","9685","4577","&#9826;","elianto","#f73b6a7A","-1","-1","1","0","[]","0","0","3","","","","","","","",""
"pit-trial","66","931848","0.0-2.0-14.1-2.1","battery-v0.2","","""event"",""trial"",""time""
""fullscreenenter"",""1"",""5641""
","
","
","""event"",""trial"",""time""
""fullscreenenter"",""1"",""5641""
","
","","","-1","","","16","9685","4577","&#9826;","elianto","#f73b6a7A","-1","-1","1","0","[]","0","0","3","","","","","","","",""
"pit-trial","67","936704","0.0-2.0-14.1-3.1","battery-v0.2","","""event"",""trial"",""time""
""fullscreenenter"",""1"",""5641""
","
","
","""event"",""trial"",""time""
""fullscreenenter"",""1"",""5641""
","
","","","-1","","","16","9685","4577","&#9826;","elianto","#f73b6a7A","-1","-1","1","-10","[]","0","0","3","","","","","","","",""
"pit-trial","68","941573","0.0-2.0-14.1-4.1","battery-v0.2","","""event"",""trial"",""time""
""fullscreenenter"",""1"",""5641""
","
","
","""event"",""trial"",""time""
""fullscreenenter"",""1"",""5641""
","
","","","-1","","","16","9685","4577","&#9826;","elianto","#f73b6a7A","-1","-1","1","0","[]","0","0","3","","","","","","","",""
"pit-trial","69","946440","0.0-2.0-14.2-0.2","battery-v0.2","","""event"",""trial"",""time""
""fullscreenenter"",""1"",""5641""
","
","
","""event"",""trial"",""time""
""fullscreenenter"",""1"",""5641""
","
","","","-1","","","16","9685","4577","&#9826;","elianto","#f73b6a7A","-1","-1","1","0","[]","0","0","3","","","","","","","",""
"pit-trial","70","951298","0.0-2.0-14.2-1.2","battery-v0.2","","""event"",""trial"",""time""
""fullscreenenter"",""1"",""5641""
","
","
","""event"",""trial"",""time""
""fullscreenenter"",""1"",""5641""
","
","","","-1","","","16","9685","4577","&#9826;","elianto","#f73b6a7A","-1","-1","1","0","[]","0","0","3","","","","","","","",""
"pit-trial","71","956159","0.0-2.0-14.2-2.2","battery-v0.2","","""event"",""trial"",""time""
""fullscreenenter"",""1"",""5641""
","
","
","""event"",""trial"",""time""
""fullscreenenter"",""1"",""5641""
","
","","","-1","","","16","9685","4577","&#9826;","elianto","#f73b6a7A","-1","-1","1","0","[]","0","0","3","","","","","","","",""
"pit-trial","72","961017","0.0-2.0-14.2-3.2","battery-v0.2","","""event"",""trial"",""time""
""fullscreenenter"",""1"",""5641""
","
","
","""event"",""trial"",""time""
""fullscreenenter"",""1"",""5641""
","
","","","-1","","","16","9685","4577","&#9826;","elianto","#f73b6a7A","-1","-1","1","-10","[]","0","0","3","","","","","","","",""
"pit-trial","73","965877","0.0-2.0-14.2-4.2","battery-v0.2","","""event"",""trial"",""time""
""fullscreenenter"",""1"",""5641""
","
","
","""event"",""trial"",""time""
""fullscreenenter"",""1"",""5641""
","
","","","-1","","","16","9685","4577","&#9826;","elianto","#f73b6a7A","-1","-1","1","0","[]","0","0","3","","","","","","","",""
"pit-trial","74","970755","0.0-2.0-14.3-0.3","battery-v0.2","","""event"",""trial"",""time""
""fullscreenenter"",""1"",""5641""
","
","
","""event"",""trial"",""time""
""fullscreenenter"",""1"",""5641""
","
","","","-1","","","16","9685","4577","&#9826;","elianto","#f73b6a7A","-1","-1","1","0","[]","0","0","3","","","","","","","",""
"pit-trial","75","975611","0.0-2.0-14.3-1.3","battery-v0.2","","""event"",""trial"",""time""
""fullscreenenter"",""1"",""5641""
","
","
","""event"",""trial"",""time""
""fullscreenenter"",""1"",""5641""
","
","","","-1","","","16","9685","4577","&#9826;","elianto","#f73b6a7A","-1","-1","1","0","[]","0","0","3","","","","","","","",""
"pit-trial","76","980469","0.0-2.0-14.3-2.3","battery-v0.2","","""event"",""trial"",""time""
""fullscreenenter"",""1"",""5641""
","
","
","""event"",""trial"",""time""
""fullscreenenter"",""1"",""5641""
","
","","","-1","","","16","9685","4577","&#9826;","elianto","#f73b6a7A","-1","-1","1","0","[]","0","0","3","","","","","","","",""
"pit-trial","77","985335","0.0-2.0-14.3-3.3","battery-v0.2","","""event"",""trial"",""time""
""fullscreenenter"",""1"",""5641""
","
","
","""event"",""trial"",""time""
""fullscreenenter"",""1"",""5641""
","
","","","-1","","","16","9685","4577","&#9826;","elianto","#f73b6a7A","-1","-1","1","-10","[]","0","0","3","","","","","","","",""
"pit-trial","78","990199","0.0-2.0-14.3-4.3","battery-v0.2","","""event"",""trial"",""time""
""fullscreenenter"",""1"",""5641""
","
","
","""event"",""trial"",""time""
""fullscreenenter"",""1"",""5641""
","
","","","-1","","","16","9685","4577","&#9826;","elianto","#f73b6a7A","-1","-1","1","0","[]","0","0","3","","","","","","","",""
"call-function","79","990203","0.0-2.0-15.0","battery-v0.2","","""event"",""trial"",""time""
""fullscreenenter"",""1"",""5641""
","
","
","""event"",""trial"",""time""
""fullscreenenter"",""1"",""5641""
","
","","","","","","","","","","","","","","","","","","","","","","","","","","",""
"pit-instructions","80","1024470","0.0-2.0-16.0","battery-v0.2","","""event"",""trial"",""time""
""fullscreenenter"",""1"",""5641""
","
","
","""event"",""trial"",""time""
""fullscreenenter"",""1"",""5641""
","
","","[{""page_index"":0,""viewing_time"":11581.79999999702},{""page_index"":1,""viewing_time"":8581.90000000596},{""page_index"":2,""viewing_time"":10035.69999999553},{""page_index"":3,""viewing_time"":4064.2000000029802}]","34265.79999999702","","","","","","","","","","","","","","","","","","","","","","","",""
"pit-trial","81","1029334","0.0-2.0-17.0-0.0","battery-v0.2","","""event"",""trial"",""time""
""fullscreenenter"",""1"",""5641""
","
","
","""event"",""trial"",""time""
""fullscreenenter"",""1"",""5641""
","
","","","-1","","","16","9685","4577","&#9789;","elianto","#f73b6a7A"," ","-1","0","-10","[3049.4000000059605]","1","0","4","","","","","","","",""
"pit-trial","82","1034199","0.0-2.0-17.0-1.0","battery-v0.2","","""event"",""trial"",""time""
""fullscreenenter"",""1"",""5641""
","
","
","""event"",""trial"",""time""
""fullscreenenter"",""1"",""5641""
","
","","","-1","","","16","9685","4577","&#9789;","elianto","#f73b6a7A"," ","-1","0","-10","[]","0","0","4","","","","","","","",""
"pit-trial","83","1037385","0.0-2.0-17.0-2.0","battery-v0.2","","""event"",""trial"",""time""
""fullscreenenter"",""1"",""5641""
","
","
","""event"",""trial"",""time""
""fullscreenenter"",""1"",""5641""
","
","","","323.69999999552965","","","16","9685","4577","&#9789;","elianto","#f73b6a7A"," "," ","1","0","[1174.1999999955297]","1","0","4","","","","","","","",""
"pit-trial","84","1040524","0.0-2.0-17.0-3.0","battery-v0.2","","""event"",""trial"",""time""
""fullscreenenter"",""1"",""5641""
","
","
","""event"",""trial"",""time""
""fullscreenenter"",""1"",""5641""
","
","","","279.3999999985099","","","16","9685","4577","&#9789;","elianto","#f73b6a7A"," "," ","1","-10","[1130.6000000014901]","1","0","4","","","","","","","",""
"pit-trial","85","1044147","0.0-2.0-17.0-4.0","battery-v0.2","","""event"",""trial"",""time""
""fullscreenenter"",""1"",""5641""
","
","
","""event"",""trial"",""time""
""fullscreenenter"",""1"",""5641""
","
","","","759.2999999970198","","","16","9685","4577","&#9789;","elianto","#f73b6a7A"," "," ","1","0","[1614.7999999970198]","1","0","4","","","","","","","",""
"pit-trial","86","1047356","0.0-2.0-17.1-0.1","battery-v0.2","","""event"",""trial"",""time""
""fullscreenenter"",""1"",""5641""
","
","
","""event"",""trial"",""time""
""fullscreenenter"",""1"",""5641""
","
","","","336.29999999701977","","","16","9685","4577","&#9789;","elianto","#f73b6a7A"," "," ","1","0","[1195.3000000044703]","1","0","4","","","","","","","",""
"pit-trial","87","1052221","0.0-2.0-17.1-1.1","battery-v0.2","","""event"",""trial"",""time""
""fullscreenenter"",""1"",""5641""
","
","
","""event"",""trial"",""time""
""fullscreenenter"",""1"",""5641""
","
","","","-1","","","16","9685","4577","&#9789;","elianto","#f73b6a7A"," ","-1","0","-10","[]","0","0","4","","","","","","","",""
"pit-trial","88","1056214","0.0-2.0-17.1-2.1","battery-v0.2","","""event"",""trial"",""time""
""fullscreenenter"",""1"",""5641""
","
","
","""event"",""trial"",""time""
""fullscreenenter"",""1"",""5641""
","
","","","1134.6000000014901","","","16","9685","4577","&#9789;","elianto","#f73b6a7A"," "," ","1","0","[1986.7999999970198]","1","0","4","","","","","","","",""
"pit-trial","89","1059404","0.0-2.0-17.1-3.1","battery-v0.2","","""event"",""trial"",""time""
""fullscreenenter"",""1"",""5641""
","
","
","""event"",""trial"",""time""
""fullscreenenter"",""1"",""5641""
","
","","","323.80000000447035","","","16","9685","4577","&#9789;","elianto","#f73b6a7A"," "," ","1","-10","[268.30000000447035,1177.2000000029802]","2","0","4","","","","","","","",""
"pit-trial","90","1064272","0.0-2.0-17.1-4.1","battery-v0.2","","""event"",""trial"",""time""
""fullscreenenter"",""1"",""5641""
","
","
","""event"",""trial"",""time""
""fullscreenenter"",""1"",""5641""
","
","","","-1","","","16","9685","4577","&#9789;","elianto","#f73b6a7A"," ","-1","0","-10","[]","0","0","4","","","","","","","",""
"pit-trial","91","1067445","0.0-2.0-17.2-0.2","battery-v0.2","","""event"",""trial"",""time""
""fullscreenenter"",""1"",""5641""
","
","
","""event"",""trial"",""time""
""fullscreenenter"",""1"",""5641""
","
","","","312","","","16","9685","4577","&#9789;","elianto","#f73b6a7A"," "," ","1","0","[1162.6000000014901]","1","0","4","","","","","","","",""
"pit-trial","92","1071107","0.0-2.0-17.2-1.2","battery-v0.2","","""event"",""trial"",""time""
""fullscreenenter"",""1"",""5641""
","
","
","""event"",""trial"",""time""
""fullscreenenter"",""1"",""5641""
","
","","","801.2000000029802","","","16","9685","4577","&#9789;","elianto","#f73b6a7A"," "," ","1","0","[641.9000000059605,1651.7000000029802]","2","0","4","","","","","","","",""
"pit-trial","93","1074232","0.0-2.0-17.2-2.2","battery-v0.2","","""event"",""trial"",""time""
""fullscreenenter"",""1"",""5641""
","
","
","""event"",""trial"",""time""
""fullscreenenter"",""1"",""5641""
","
","","","256.5","","","16","9685","4577","&#9789;","elianto","#f73b6a7A"," "," ","1","0","[1112.6000000014901]","1","0","4","","","","","","","",""
"pit-trial","94","1077203","0.0-2.0-17.2-3.2","battery-v0.2","","""event"",""trial"",""time""
""fullscreenenter"",""1"",""5641""
","
","
","""event"",""trial"",""time""
""fullscreenenter"",""1"",""5641""
","
","","","109.39999999850988","","","16","9685","4577","&#9789;","elianto","#f73b6a7A"," "," ","1","-10","[962.1999999955297]","1","0","4","","","","","","","",""
"pit-trial","95","1080694","0.0-2.0-17.2-4.2","battery-v0.2","","""event"",""trial"",""time""
""fullscreenenter"",""1"",""5641""
","
","
","""event"",""trial"",""time""
""fullscreenenter"",""1"",""5641""
","
","","","628","","","16","9685","4577","&#9789;","elianto","#f73b6a7A"," "," ","1","0","[1484.5]","1","0","4","","","","","","","",""
"pit-trial","96","1084383","0.0-2.0-17.3-0.3","battery-v0.2","","""event"",""trial"",""time""
""fullscreenenter"",""1"",""5641""
","
","
","""event"",""trial"",""time""
""fullscreenenter"",""1"",""5641""
","
","","","827.2999999970198","","","16","9685","4577","&#9789;","elianto","#f73b6a7A"," "," ","1","0","[1680.1000000014901]","1","0","4","","","","","","","",""
"pit-trial","97","1088094","0.0-2.0-17.3-1.3","battery-v0.2","","""event"",""trial"",""time""
""fullscreenenter"",""1"",""5641""
","
","
","""event"",""trial"",""time""
""fullscreenenter"",""1"",""5641""
","
","","","848.2999999970198","","","16","9685","4577","&#9789;","elianto","#f73b6a7A"," "," ","1","0","[1700.4000000059605]","1","0","4","","","","","","","",""
"pit-trial","98","1091145","0.0-2.0-17.3-2.3","battery-v0.2","","""event"",""trial"",""time""
""fullscreenenter"",""1"",""5641""
","
","
","""event"",""trial"",""time""
""fullscreenenter"",""1"",""5641""
","
","","","182.79999999701977","","","16","9685","4577","&#9789;","elianto","#f73b6a7A"," "," ","1","0","[1039.3000000044703]","1","0","4","","","","","","","",""
"pit-trial","99","1094851","0.0-2.0-17.3-3.3","battery-v0.2","","""event"",""trial"",""time""
""fullscreenenter"",""1"",""5641""
","
","
","""event"",""trial"",""time""
""fullscreenenter"",""1"",""5641""
","
","","","846","","","16","9685","4577","&#9789;","elianto","#f73b6a7A"," "," ","1","-10","[435.3999999985099,1698.3000000044703]","2","0","4","","","","","","","",""
"pit-trial","100","1099061","0.0-2.0-17.3-4.3","battery-v0.2","","""event"",""trial"",""time""
""fullscreenenter"",""1"",""5641""
","
","
","""event"",""trial"",""time""
""fullscreenenter"",""1"",""5641""
","
","","","1348","","","16","9685","4577","&#9789;","elianto","#f73b6a7A"," "," ","1","0","[2200.8000000044703]","1","0","4","","","","","","","",""
"call-function","101","1099065","0.0-2.0-18.0","battery-v0.2","","""event"",""trial"",""time""
""fullscreenenter"",""1"",""5641""
","
","
","""event"",""trial"",""time""
""fullscreenenter"",""1"",""5641""
","
","","","","","","","","","","","","","","","","","","","","","","","","","","",""
"pit-instructions","102","1241120","0.0-2.0-19.0","battery-v0.2","","""event"",""trial"",""time""
""fullscreenenter"",""1"",""5641""
","
","
","""event"",""trial"",""time""
""fullscreenenter"",""1"",""5641""
","
","","[{""page_index"":0,""viewing_time"":26605},{""page_index"":1,""viewing_time"":15959.19999999553},{""page_index"":2,""viewing_time"":9067.5},{""page_index"":3,""viewing_time"":7337.70000000298},{""page_index"":4,""viewing_time"":56396.19999999553},{""page_index"":5,""viewing_time"":10819.70000000298},{""page_index"":6,""viewing_time"":4293.39999999851},{""page_index"":7,""viewing_time"":4779.20000000298},{""page_index"":8,""viewing_time"":6799.19999999553}]","142058.19999999553","","","","","","","","","","","","","","","","","","","","","","","",""
"pit-comprehension","103","1247301","0.0-2.0-20.0-0.0","battery-v0.2","","""event"",""trial"",""time""
""fullscreenenter"",""1"",""5641""
","
","
","""event"",""trial"",""time""
""fullscreenenter"",""1"",""5641""
","
","","","6159","[""SPACE""]","0","16","9685","4577","","","","","","","","","","","","","","","","","","",""
"pit-instructions","104","1252305","0.0-2.0-20.0-1.0","battery-v0.2","","""event"",""trial"",""time""
""fullscreenenter"",""1"",""5641""
","
","
","""event"",""trial"",""time""
""fullscreenenter"",""1"",""5641""
","
","","[{""page_index"":0,""viewing_time"":4830.29999999702}]","4831.29999999702","","","","","","","","","","","","","","","","","","","","","","","",""
"pit-comprehension","105","1259018","0.0-2.0-21.0-0.0","battery-v0.2","","""event"",""trial"",""time""
""fullscreenenter"",""1"",""5641""
","
","
","""event"",""trial"",""time""
""fullscreenenter"",""1"",""5641""
","
","","","6697.10000000149","[""10""]","0","16","9685","4577","","","","","","","","","","","","","","","","","","",""
"pit-instructions","106","1260499","0.0-2.0-21.0-1.0","battery-v0.2","","""event"",""trial"",""time""
""fullscreenenter"",""1"",""5641""
","
","
","""event"",""trial"",""time""
""fullscreenenter"",""1"",""5641""
","
","","[{""page_index"":0,""viewing_time"":1406.5}]","1408.6000000014901","","","","","","","","","","","","","","","","","","","","","","","",""
"pit-comprehension","107","1267734","0.0-2.0-22.0-0.0","battery-v0.2","","""event"",""trial"",""time""
""fullscreenenter"",""1"",""5641""
","
","
","""event"",""trial"",""time""
""fullscreenenter"",""1"",""5641""
","
","","","7217","[""-10""]","1","16","9685","4577","","","","","","","","","","","","","","","","","","",""
"pit-instructions","108","1270241","0.0-2.0-22.0-1.0","battery-v0.2","","""event"",""trial"",""time""
""fullscreenenter"",""1"",""5641""
","
","
","""event"",""trial"",""time""
""fullscreenenter"",""1"",""5641""
","
","","[{""page_index"":0,""viewing_time"":2425.7000000029802}]","2428","","","","","","","","","","","","","","","","","","","","","","","",""
"pit-instructions","109","1271317","0.0-2.0-22.0-2.0-0.0","battery-v0.2","","""event"",""trial"",""time""
""fullscreenenter"",""1"",""5641""
","
","
","""event"",""trial"",""time""
""fullscreenenter"",""1"",""5641""
","
","","[{""page_index"":0,""viewing_time"":1065.7999999970198}]","1066.7999999970198","","","","","","","","","","","","","","","","","","","","","","","",""
"pit-comprehension","110","1278082","0.0-2.0-22.1-0.1","battery-v0.2","","""event"",""trial"",""time""
""fullscreenenter"",""1"",""5641""
","
","
","""event"",""trial"",""time""
""fullscreenenter"",""1"",""5641""
","
","","","6754","[""0""]","0","16","9685","4577","","","","","","","","","","","","","","","","","","",""
"pit-instructions","111","1298055","0.0-2.0-22.1-1.1","battery-v0.2","","""event"",""trial"",""time""
""fullscreenenter"",""1"",""5641""
","
","
","""event"",""trial"",""time""
""fullscreenenter"",""1"",""5641""
","
","","[{""page_index"":0,""viewing_time"":19879.30000000447}]","19881.80000000447","","","","","","","","","","","","","","","","","","","","","","","",""
"pit-comprehension","112","1308677","0.0-2.0-23.0-0.0","battery-v0.2","","""event"",""trial"",""time""
""fullscreenenter"",""1"",""5641""
","
","
","""event"",""trial"",""time""
""fullscreenenter"",""1"",""5641""
","
","","","10604.60000000149","[""False""]","1","16","9685","4577","","","","","","","","","","","","","","","","","","",""
"pit-instructions","113","1315612","0.0-2.0-23.0-1.0","battery-v0.2","","""event"",""trial"",""time""
""fullscreenenter"",""1"",""5641""
","
","
","""event"",""trial"",""time""
""fullscreenenter"",""1"",""5641""
","
","","[{""page_index"":0,""viewing_time"":6842.5}]","6845.10000000149","","","","","","","","","","","","","","","","","","","","","","","",""
"pit-instructions","114","1316611","0.0-2.0-23.0-2.0-0.0","battery-v0.2","","""event"",""trial"",""time""
""fullscreenenter"",""1"",""5641""
","
","
","""event"",""trial"",""time""
""fullscreenenter"",""1"",""5641""
","
","","[{""page_index"":0,""viewing_time"":990.6000000014901}]","992","","","","","","","","","","","","","","","","","","","","","","","",""
"pit-comprehension","115","1326387","0.0-2.0-23.1-0.1","battery-v0.2","","""event"",""trial"",""time""
""fullscreenenter"",""1"",""5641""
","
","
","""event"",""trial"",""time""
""fullscreenenter"",""1"",""5641""
","
","","","9764.5","[""True""]","0","16","9685","4577","","","","","","","","","","","","","","","","","","",""
"pit-instructions","116","1338952","0.0-2.0-23.1-1.1","battery-v0.2","","""event"",""trial"",""time""
""fullscreenenter"",""1"",""5641""
","
","
","""event"",""trial"",""time""
""fullscreenenter"",""1"",""5641""
","
","","[{""page_index"":0,""viewing_time"":12459.30000000447}]","12462.10000000149","","","","","","","","","","","","","","","","","","","","","","","",""
"pit-comprehension","117","1362233","0.0-2.0-24.0-0.0","battery-v0.2","","""event"",""trial"",""time""
""fullscreenenter"",""1"",""5641""
","
","
","""event"",""trial"",""time""
""fullscreenenter"",""1"",""5641""
","
","","","23267.40000000596","[""True""]","0","16","9685","4577","","","","","","","","","","","","","","","","","","",""
"pit-instructions","118","1400822","0.0-2.0-24.0-1.0","battery-v0.2","","""event"",""trial"",""time""
""fullscreenenter"",""1"",""5641""
","
","
","""event"",""trial"",""time""
""fullscreenenter"",""1"",""5641""
","
","","[{""page_index"":0,""viewing_time"":38501.19999999553}]","38502.5","","","","","","","","","","","","","","","","","","","","","","","",""
"pit-comprehension","119","1410035","0.0-2.0-25.0-0.0","battery-v0.2","","""event"",""trial"",""time""
""fullscreenenter"",""1"",""5641""
","
","
","""event"",""trial"",""time""
""fullscreenenter"",""1"",""5641""
","
","","","9180","[""True""]","0","16","9685","4577","","","","","","","","","","","","","","","","","","",""
"pit-instructions","120","1413867","0.0-2.0-25.0-1.0","battery-v0.2","","""event"",""trial"",""time""
""fullscreenenter"",""1"",""5641""
","
","
","""event"",""trial"",""time""
""fullscreenenter"",""1"",""5641""
","
","","[{""page_index"":0,""viewing_time"":3747}]","3750.1999999955297","","","","","","","","","","","","","","","","","","","","","","","",""
"pit-comprehension","121","1418675","0.0-2.0-26.0-0.0","battery-v0.2","","""event"",""trial"",""time""
""fullscreenenter"",""1"",""5641""
","
","
","""event"",""trial"",""time""
""fullscreenenter"",""1"",""5641""
","
","","","4793.60000000149","[""True""]","1","16","9685","4577","","","","","","","","","","","","","","","","","","",""
"pit-instructions","122","1421949","0.0-2.0-26.0-1.0","battery-v0.2","","""event"",""trial"",""time""
""fullscreenenter"",""1"",""5641""
","
","
","""event"",""trial"",""time""
""fullscreenenter"",""1"",""5641""
","
","","[{""page_index"":0,""viewing_time"":3188.39999999851}]","3192.60000000149","","","","","","","","","","","","","","","","","","","","","","","",""
"pit-instructions","123","1423021","0.0-2.0-26.0-2.0-0.0","battery-v0.2","","""event"",""trial"",""time""
""fullscreenenter"",""1"",""5641""
","
","
","""event"",""trial"",""time""
""fullscreenenter"",""1"",""5641""
","
","","[{""page_index"":0,""viewing_time"":1062.7999999970198}]","1063.5","","","","","","","","","","","","","","","","","","","","","","","",""
"pit-comprehension","124","1428118","0.0-2.0-26.1-0.1","battery-v0.2","","""event"",""trial"",""time""
""fullscreenenter"",""1"",""5641""
","
","
","""event"",""trial"",""time""
""fullscreenenter"",""1"",""5641""
","
","","","5091.60000000149","[""False""]","0","16","9685","4577","","","","","","","","","","","","","","","","","","",""
"pit-instructions","125","1452436","0.0-2.0-26.1-1.1","battery-v0.2","","""event"",""trial"",""time""
""fullscreenenter"",""1"",""5641""
","
","
","""event"",""trial"",""time""
""fullscreenenter"",""1"",""5641""
","
","","[{""page_index"":0,""viewing_time"":24235.90000000596}]","24237.60000000149","","","","","","","","","","","","","","","","","","","","","","","",""
"pit-instructions","126","1486630","0.0-3.0","battery-v0.2","","""event"",""trial"",""time""
""fullscreenenter"",""1"",""5641""
","
","
","""event"",""trial"",""time""
""fullscreenenter"",""1"",""5641""
","
","","[{""page_index"":0,""viewing_time"":19338.30000000447},{""page_index"":1,""viewing_time"":7194.89999999851},{""page_index"":2,""viewing_time"":7648.10000000149}]","34183.70000000298","","","","","","","","","","","","","","","","","","","","","","","",""
"pit-trial","127","1490007","0.0-4.0","battery-v0.2","","""event"",""trial"",""time""
""fullscreenenter"",""1"",""5641""
","
","
","""event"",""trial"",""time""
""fullscreenenter"",""1"",""5641""
","
","","","495.70000000298023","","","16","9685","4577","&#9728;","elianto","#f73b6a7A","-1"," ","0","-10","[1347.8000000044703]","1","1","","","9685","1","0","4","lose","no-go","0"
"pit-trial","128","1493587","0.0-5.0","battery-v0.2","","""event"",""trial"",""time""
""fullscreenenter"",""1"",""5641""
","
","
","""event"",""trial"",""time""
""fullscreenenter"",""1"",""5641""
","
","","","714.5","","","16","9685","4577","&#9752;","elianto","#f73b6a7A"," "," ","1","0","[1568.6000000014901]","1","1","","","9685","2","3","3","lose","go","0"
"pit-trial","129","1496859","0.0-6.0","battery-v0.2","","""event"",""trial"",""time""
""fullscreenenter"",""1"",""5641""
","
","
","""event"",""trial"",""time""
""fullscreenenter"",""1"",""5641""
","
","","","408.6000000014901","","","16","9685","4577","&#9733;","elianto","#3366ff99","-1"," ","0","0","[1259.1000000014901]","1","1","","","9685","3","2","2","win","no-go","0"
"pit-trial","130","1500214","0.0-7.0","battery-v0.2","","""event"",""trial"",""time""
""fullscreenenter"",""1"",""5641""
","
","
","""event"",""trial"",""time""
""fullscreenenter"",""1"",""5641""
","
","","","490.69999999552965","","","16","9685","4577","&#9730;","elianto","#3366ff99"," "," ","1","+10","[1343.1000000014901]","1","1","","","9685","4","1","1","win","go","0"
"pit-trial","131","1503492","0.0-8.0","battery-v0.2","","""event"",""trial"",""time""
""fullscreenenter"",""1"",""5641""
","
","
","""event"",""trial"",""time""
""fullscreenenter"",""1"",""5641""
","
","","","414.19999999552965","","","16","9685","4577","&#9752;","elianto","#f73b6a7A"," "," ","1","0","[1268.6000000014901]","1","1","","","9685","5","3","3","lose","go","0"
"pit-trial","132","1506919","0.0-9.0","battery-v0.2","","""event"",""trial"",""time""
""fullscreenenter"",""1"",""5641""
","
","
","""event"",""trial"",""time""
""fullscreenenter"",""1"",""5641""
","
","","","557.6000000014901","","","16","9685","4577","&#9730;","elianto","#3366ff99"," "," ","1","+10","[1416.7000000029802]","1","1","","","9685","6","1","1","win","go","0"
"pit-trial","133","1510023","0.0-10.0","battery-v0.2","","""event"",""trial"",""time""
""fullscreenenter"",""1"",""5641""
","
","
","""event"",""trial"",""time""
""fullscreenenter"",""1"",""5641""
","
","","","225.29999999701977","","","16","9685","4577","&#9728;","elianto","#f73b6a7A","-1"," ","0","-10","[1094.6000000014901]","1","1","","","9685","7","0","4","lose","no-go","0"
"pit-trial","134","1513020","0.0-11.0","battery-v0.2","","""event"",""trial"",""time""
""fullscreenenter"",""1"",""5641""
","
","
","""event"",""trial"",""time""
""fullscreenenter"",""1"",""5641""
","
","","","133.19999999552965","","","16","9685","4577","&#9733;","elianto","#3366ff99","-1"," ","0","0","[990.7999999970198]","1","1","","","9685","8","2","2","win","no-go","0"
"pit-trial","135","1516411","0.0-12.0","battery-v0.2","","""event"",""trial"",""time""
""fullscreenenter"",""1"",""5641""
","
","
","""event"",""trial"",""time""
""fullscreenenter"",""1"",""5641""
","
","","","528.8000000044703","","","16","9685","4577","&#9730;","elianto","#3366ff99"," "," ","1","+10","[1382.2000000029802]","1","1","","","9685","9","1","1","win","go","0"
"pit-trial","136","1519739","0.0-13.0","battery-v0.2","","""event"",""trial"",""time""
""fullscreenenter"",""1"",""5641""
","
","
","""event"",""trial"",""time""
""fullscreenenter"",""1"",""5641""
","
","","","469.5","","","16","9685","4577","&#9733;","elianto","#3366ff99","-1"," ","0","0","[1322]","1","1","","","9685","10","2","2","win","no-go","0"
"pit-trial","137","1522921","0.0-14.0","battery-v0.2","","""event"",""trial"",""time""
""fullscreenenter"",""1"",""5641""
","
","
","""event"",""trial"",""time""
""fullscreenenter"",""1"",""5641""
","
","","","320.40000000596046","","","16","9685","4577","&#9752;","elianto","#f73b6a7A"," "," ","1","0","[1170.2999999970198]","1","1","","","9685","11","3","3","lose","go","0"
"pit-trial","138","1526151","0.0-15.0","battery-v0.2","","""event"",""trial"",""time""
""fullscreenenter"",""1"",""5641""
","
","
","""event"",""trial"",""time""
""fullscreenenter"",""1"",""5641""
","
","","","368.5","","","16","9685","4577","&#9728;","elianto","#f73b6a7A","-1"," ","0","-10","[1220.6000000014901]","1","1","","","9685","12","0","4","lose","no-go","0"
"pit-trial","139","1529876","0.0-16.0","battery-v0.2","","""event"",""trial"",""time""
""fullscreenenter"",""1"",""5641""
","
","
","""event"",""trial"",""time""
""fullscreenenter"",""1"",""5641""
","
","","","857.8999999985099","","","16","9685","4577","&#9733;","elianto","#3366ff99","-1"," ","0","+10","[1712.0999999940395]","1","1","","","9685","13","2","2","win","no-go","1"
"pit-trial","140","1533564","0.0-17.0","battery-v0.2","","""event"",""trial"",""time""
""fullscreenenter"",""1"",""5641""
","
","
","""event"",""trial"",""time""
""fullscreenenter"",""1"",""5641""
","
","","","825.7999999970198","","","16","9685","4577","&#9752;","elianto","#f73b6a7A"," "," ","1","0","[1678.5]","1","1","","","9685","14","3","3","lose","go","0"
"pit-trial","141","1537412","0.0-18.0","battery-v0.2","","""event"",""trial"",""time""
""fullscreenenter"",""1"",""5641""
","
","
","""event"",""trial"",""time""
""fullscreenenter"",""1"",""5641""
","
","","","990.7000000029802","","","16","9685","4577","&#9728;","elianto","#f73b6a7A","-1"," ","0","-10","[1840.8000000044703]","1","1","","","9685","15","0","4","lose","no-go","0"
"pit-trial","142","1541796","0.0-19.0","battery-v0.2","","""event"",""trial"",""time""
""fullscreenenter"",""1"",""5641""
","
","
","""event"",""trial"",""time""
""fullscreenenter"",""1"",""5641""
","
","","","1529.5","","","16","9685","4577","&#9730;","elianto","#3366ff99"," "," ","1","+10","[2379.5]","1","1","","","9685","16","1","1","win","go","0"
"pit-trial","143","1545163","0.0-20.0","battery-v0.2","","""event"",""trial"",""time""
""fullscreenenter"",""1"",""5641""
","
","
","""event"",""trial"",""time""
""fullscreenenter"",""1"",""5641""
","
","","","502.19999999552965","","","16","9685","4577","&#9728;","elianto","#f73b6a7A","-1"," ","0","-10","[1356.8999999985099]","1","1","","","9685","17","0","4","lose","no-go","0"
"pit-trial","144","1548671","0.0-21.0","battery-v0.2","","""event"",""trial"",""time""
""fullscreenenter"",""1"",""5641""
","
","
","""event"",""trial"",""time""
""fullscreenenter"",""1"",""5641""
","
","","","644.7000000029802","","","16","9685","4577","&#9733;","elianto","#3366ff99","-1"," ","0","0","[1497.5]","1","1","","","9685","18","2","2","win","no-go","0"
"pit-trial","145","1552021","0.0-22.0","battery-v0.2","","""event"",""trial"",""time""
""fullscreenenter"",""1"",""5641""
","
","
","""event"",""trial"",""time""
""fullscreenenter"",""1"",""5641""
","
","","","482.69999999552965","","","16","9685","4577","&#9730;","elianto","#3366ff99"," "," ","1","+10","[1338.7000000029802]","1","1","","","9685","19","1","1","win","go","0"
"pit-trial","146","1555616","0.0-23.0","battery-v0.2","","""event"",""trial"",""time""
""fullscreenenter"",""1"",""5641""
","
","
","""event"",""trial"",""time""
""fullscreenenter"",""1"",""5641""
","
","","","732.6000000014901","","","16","9685","4577","&#9752;","elianto","#f73b6a7A"," "," ","1","0","[1589]","1","1","","","9685","20","3","3","lose","go","0"
"pit-instructions","147","1594979","0.0-24.0","battery-v0.2","","""event"",""trial"",""time""
""fullscreenenter"",""1"",""5641""
","
","
","""event"",""trial"",""time""
""fullscreenenter"",""1"",""5641""
","
","","[{""page_index"":0,""viewing_time"":32146.79999999702},{""page_index"":1,""viewing_time"":7210.4000000059605}]","39360.10000000149","","","","","","","","","","","","","","","","","","","","","","","",""
"pit-trial","148","1598369","0.0-25.0","battery-v0.2","","""event"",""trial"",""time""
""fullscreenenter"",""1"",""5641""
","
","
","""event"",""trial"",""time""
""fullscreenenter"",""1"",""5641""
","
","","","519.8999999985099","","","16","9685","4577","g","elianto","#f73b6a7A"," "," ","1","-10","[1373.0999999940395]","1","2","","","9685","21","3","3","lose","go","1"
"pit-trial","149","1601778","0.0-26.0","battery-v0.2","","""event"",""trial"",""time""
""fullscreenenter"",""1"",""5641""
","
","
","""event"",""trial"",""time""
""fullscreenenter"",""1"",""5641""
","
","","","539.6000000014901","","","16","9685","4577","u","elianto","#f73b6a7A","-1"," ","0","-10","[1394.7999999970198]","1","2","","","9685","22","0","4","lose","no-go","0"
"pit-trial","150","1605108","0.0-27.0","battery-v0.2","","""event"",""trial"",""time""
""fullscreenenter"",""1"",""5641""
","
","
","""event"",""trial"",""time""
""fullscreenenter"",""1"",""5641""
","
","","","472.69999999552965","","","16","9685","4577","l","elianto","#3366ff99"," "," ","1","0","[1322.7999999970198]","1","2","","","9685","23","1","1","win","go","1"
"pit-trial","151","1608189","0.0-28.0","battery-v0.2","","""event"",""trial"",""time""
""fullscreenenter"",""1"",""5641""
","
","
","""event"",""trial"",""time""
""fullscreenenter"",""1"",""5641""
","
","","","224.20000000298023","","","16","9685","4577","a","elianto","#f73b6a7A","-1"," ","0","-10","[1074.2999999970198]","1","2","","","9685","24","2","4","lose","no-go","0"
"pit-trial","152","1611689","0.0-29.0","battery-v0.2","","""event"",""trial"",""time""
""fullscreenenter"",""1"",""5641""
","
","
","""event"",""trial"",""time""
""fullscreenenter"",""1"",""5641""
","
","","","632.7999999970198","","","16","9685","4577","l","elianto","#3366ff99"," "," ","1","0","[1492.7000000029802]","1","2","","","9685","25","1","1","win","go","1"
"pit-trial","153","1616553","0.0-30.0","battery-v0.2","","""event"",""trial"",""time""
""fullscreenenter"",""1"",""5641""
","
","
","""event"",""trial"",""time""
""fullscreenenter"",""1"",""5641""
","
","","","-1","","","16","9685","4577","g","elianto","#f73b6a7A"," ","-1","0","-10","[3558.39999999851]","1","2","","","9685","26","3","3","lose","go","0"
"pit-trial","154","1619839","0.0-31.0","battery-v0.2","","""event"",""trial"",""time""
""fullscreenenter"",""1"",""5641""
","
","
","""event"",""trial"",""time""
""fullscreenenter"",""1"",""5641""
","
","","","425.20000000298023","","","16","9685","4577","u","elianto","#f73b6a7A","-1"," ","0","-10","[1278.2000000029802]","1","2","","","9685","27","0","4","lose","no-go","0"
"pit-trial","155","1623108","0.0-32.0","battery-v0.2","","""event"",""trial"",""time""
""fullscreenenter"",""1"",""5641""
","
","
","""event"",""trial"",""time""
""fullscreenenter"",""1"",""5641""
","
","","","403.70000000298023","","","16","9685","4577","a","elianto","#f73b6a7A","-1"," ","0","-10","[1260.0999999940395]","1","2","","","9685","28","2","4","lose","no-go","0"
"pit-trial","156","1626834","0.0-33.0","battery-v0.2","","""event"",""trial"",""time""
""fullscreenenter"",""1"",""5641""
","
","
","""event"",""trial"",""time""
""fullscreenenter"",""1"",""5641""
","
","","","867.3999999985099","","","16","9685","4577","a","elianto","#f73b6a7A","-1"," ","0","-10","[1718]","1","2","","","9685","29","2","4","lose","no-go","0"
"pit-trial","157","1630048","0.0-34.0","battery-v0.2","","""event"",""trial"",""time""
""fullscreenenter"",""1"",""5641""
","
","
","""event"",""trial"",""time""
""fullscreenenter"",""1"",""5641""
","
","","","349","","","16","9685","4577","u","elianto","#f73b6a7A","-1"," ","0","-10","[1202]","1","2","","","9685","30","0","4","lose","no-go","0"
"pit-trial","158","1633504","0.0-35.0","battery-v0.2","","""event"",""trial"",""time""
""fullscreenenter"",""1"",""5641""
","
","
","""event"",""trial"",""time""
""fullscreenenter"",""1"",""5641""
","
","","","596.5","","","16","9685","4577","l","elianto","#3366ff99"," "," ","1","+10","[1450.5]","1","2","","","9685","31","1","1","win","go","0"
"pit-trial","159","1636752","0.0-36.0","battery-v0.2","","""event"",""trial"",""time""
""fullscreenenter"",""1"",""5641""
","
","
","""event"",""trial"",""time""
""fullscreenenter"",""1"",""5641""
","
","","","381.80000000447035","","","16","9685","4577","g","elianto","#f73b6a7A"," "," ","1","-10","[1236.3999999985099]","1","2","","","9685","32","3","3","lose","go","1"
"pit-trial","160","1641616","0.0-37.0","battery-v0.2","","""event"",""trial"",""time""
""fullscreenenter"",""1"",""5641""
","
","
","""event"",""trial"",""time""
""fullscreenenter"",""1"",""5641""
","
","","","-1","","","16","9685","4577","u","elianto","#f73b6a7A","-1","-1","1","0","[]","0","2","","","9685","33","0","4","lose","no-go","0"
"pit-trial","161","1645068","0.0-38.0","battery-v0.2","","""event"",""trial"",""time""
""fullscreenenter"",""1"",""5641""
","
","
","""event"",""trial"",""time""
""fullscreenenter"",""1"",""5641""
","
","","","589","","","16","9685","4577","l","elianto","#3366ff99"," "," ","1","0","[1443]","1","2","","","9685","34","1","1","win","go","1"
"pit-trial","162","1649930","0.0-39.0","battery-v0.2","","""event"",""trial"",""time""
""fullscreenenter"",""1"",""5641""
","
","
","""event"",""trial"",""time""
""fullscreenenter"",""1"",""5641""
","
","","","-1","","","16","9685","4577","a","elianto","#f73b6a7A","-1","-1","1","-10","[]","0","2","","","9685","35","2","4","lose","no-go","1"
"pit-trial","163","1653391","0.0-40.0","battery-v0.2","","""event"",""trial"",""time""
""fullscreenenter"",""1"",""5641""
","
","
","""event"",""trial"",""time""
""fullscreenenter"",""1"",""5641""
","
","","","602.2000000029802","","","16","9685","4577","g","elianto","#f73b6a7A"," "," ","1","-10","[1454.7000000029802,2884.5,3318.8000000044703]","3","2","","","9685","36","3","3","lose","go","1"
"pit-trial","164","1656562","0.0-41.0","battery-v0.2","","""event"",""trial"",""time""
""fullscreenenter"",""1"",""5641""
","
","
","""event"",""trial"",""time""
""fullscreenenter"",""1"",""5641""
","
","","","290.79999999701977","","","16","9685","4577","g","elianto","#f73b6a7A"," "," ","1","0","[1158.7000000029802]","1","2","","","9685","37","3","3","lose","go","0"
"pit-trial","165","1659891","0.0-42.0","battery-v0.2","","""event"",""trial"",""time""
""fullscreenenter"",""1"",""5641""
","
","
","""event"",""trial"",""time""
""fullscreenenter"",""1"",""5641""
","
","","","457.6000000014901","","","16","9685","4577","a","elianto","#f73b6a7A","-1"," ","0","0","[1316]","1","2","","","9685","38","2","4","lose","no-go","1"
"pit-trial","166","1663299","0.0-43.0","battery-v0.2","","""event"",""trial"",""time""
""fullscreenenter"",""1"",""5641""
","
","
","""event"",""trial"",""time""
""fullscreenenter"",""1"",""5641""
","
","","","548.5","","","16","9685","4577","u","elianto","#f73b6a7A","-1"," ","0","-10","[1402.6999999955297]","1","2","","","9685","39","0","4","lose","no-go","0"
"pit-trial","167","1667251","0.0-44.0","battery-v0.2","","""event"",""trial"",""time""
""fullscreenenter"",""1"",""5641""
","
","
","""event"",""trial"",""time""
""fullscreenenter"",""1"",""5641""
","
","","","1094.2000000029802","","","16","9685","4577","l","elianto","#3366ff99"," "," ","1","+10","[1945.5]","1","2","","","9685","40","1","1","win","go","0"
"pit-trial","168","1672108","0.0-45.0","battery-v0.2","","""event"",""trial"",""time""
""fullscreenenter"",""1"",""5641""
","
","
","""event"",""trial"",""time""
""fullscreenenter"",""1"",""5641""
","
","","","-1","","","16","9685","4577","l","elianto","#3366ff99"," ","-1","0","0","[]","0","2","","","9685","41","1","1","win","go","0"
"pit-trial","169","1675369","0.0-46.0","battery-v0.2","","""event"",""trial"",""time""
""fullscreenenter"",""1"",""5641""
","
","
","""event"",""trial"",""time""
""fullscreenenter"",""1"",""5641""
","
","","","399","","","16","9685","4577","a","elianto","#f73b6a7A","-1"," ","0","-10","[1251.2999999970198]","1","2","","","9685","42","2","4","lose","no-go","0"
"pit-trial","170","1679732","0.0-47.0","battery-v0.2","","""event"",""trial"",""time""
""fullscreenenter"",""1"",""5641""
","
","
","""event"",""trial"",""time""
""fullscreenenter"",""1"",""5641""
","
","","","1503","","","16","9685","4577","u","elianto","#f73b6a7A","-1"," ","0","-10","[2355.10000000149]","1","2","","","9685","43","0","4","lose","no-go","0"
"pit-trial","171","1684595","0.0-48.0","battery-v0.2","","""event"",""trial"",""time""
""fullscreenenter"",""1"",""5641""
","
","
","""event"",""trial"",""time""
""fullscreenenter"",""1"",""5641""
","
","","","-1","","","16","9685","4577","g","elianto","#f73b6a7A"," ","-1","0","-10","[3298.3000000044703]","1","2","","","9685","44","3","3","lose","go","0"
"pit-trial","172","1687859","0.0-49.0","battery-v0.2","","""event"",""trial"",""time""
""fullscreenenter"",""1"",""5641""
","
","
","""event"",""trial"",""time""
""fullscreenenter"",""1"",""5641""
","
","","","403.29999999701977","","","16","9685","4577","u","elianto","#f73b6a7A","-1"," ","0","-10","[1255.5]","1","2","","","9685","45","0","4","lose","no-go","0"
"pit-trial","173","1691373","0.0-50.0","battery-v0.2","","""event"",""trial"",""time""
""fullscreenenter"",""1"",""5641""
","
","
","""event"",""trial"",""time""
""fullscreenenter"",""1"",""5641""
","
","","","651.8999999985099","","","16","9685","4577","p","elianto","#3366ff99","-1"," ","0","0","[1503.8999999985099]","1","2","","","9685","46","4","2","win","no-go","0"
"pit-trial","174","1694754","0.0-51.0","battery-v0.2","","""event"",""trial"",""time""
""fullscreenenter"",""1"",""5641""
","
","
","""event"",""trial"",""time""
""fullscreenenter"",""1"",""5641""
","
","","","516.2000000029802","","","16","9685","4577","a","elianto","#f73b6a7A","-1"," ","0","-10","[1369.7000000029802]","1","2","","","9685","47","2","4","lose","no-go","0"
"pit-trial","175","1697860","0.0-52.0","battery-v0.2","","""event"",""trial"",""time""
""fullscreenenter"",""1"",""5641""
","
","
","""event"",""trial"",""time""
""fullscreenenter"",""1"",""5641""
","
","","","241","","","16","9685","4577","g","elianto","#f73b6a7A"," "," ","1","0","[1093.5]","1","2","","","9685","48","3","3","lose","go","0"
"pit-trial","176","1701442","0.0-53.0","battery-v0.2","","""event"",""trial"",""time""
""fullscreenenter"",""1"",""5641""
","
","
","""event"",""trial"",""time""
""fullscreenenter"",""1"",""5641""
","
","","","715.6999999955297","","","16","9685","4577","u","elianto","#f73b6a7A","-1"," ","0","-10","[1568.5]","1","2","","","9685","49","0","4","lose","no-go","0"
"pit-trial","177","1706307","0.0-54.0","battery-v0.2","","""event"",""trial"",""time""
""fullscreenenter"",""1"",""5641""
","
","
","""event"",""trial"",""time""
""fullscreenenter"",""1"",""5641""
","
","","","-1","","","16","9685","4577","p","elianto","#3366ff99","-1","-1","1","+10","[215.20000000298023,3930.10000000149]","2","2","","","9685","50","4","2","win","no-go","0"
"pit-trial","178","1710196","0.0-55.0","battery-v0.2","","""event"",""trial"",""time""
""fullscreenenter"",""1"",""5641""
","
","
","""event"",""trial"",""time""
""fullscreenenter"",""1"",""5641""
","
","","","1028.7999999970198","","","16","9685","4577","g","elianto","#f73b6a7A"," "," ","1","0","[1884.7999999970198]","1","2","","","9685","51","3","3","lose","go","0"
"pit-trial","179","1713424","0.0-56.0","battery-v0.2","","""event"",""trial"",""time""
""fullscreenenter"",""1"",""5641""
","
","
","""event"",""trial"",""time""
""fullscreenenter"",""1"",""5641""
","
","","","369.3999999985099","","","16","9685","4577","l","elianto","#3366ff99"," "," ","1","+10","[1220.7000000029802]","1","2","","","9685","52","1","1","win","go","0"
"pit-trial","180","1716655","0.0-57.0","battery-v0.2","","""event"",""trial"",""time""
""fullscreenenter"",""1"",""5641""
","
","
","""event"",""trial"",""time""
""fullscreenenter"",""1"",""5641""
","
","","","370.70000000298023","","","16","9685","4577","u","elianto","#f73b6a7A","-1"," ","0","-10","[369.79999999701977,1223.5]","2","2","","","9685","53","0","4","lose","no-go","0"
"pit-trial","181","1719610","0.0-58.0","battery-v0.2","","""event"",""trial"",""time""
""fullscreenenter"",""1"",""5641""
","
","
","""event"",""trial"",""time""
""fullscreenenter"",""1"",""5641""
","
","","","90.60000000149012","","","16","9685","4577","a","elianto","#f73b6a7A","-1"," ","0","-10","[945.7000000029802]","1","2","","","9685","54","2","4","lose","no-go","0"
"pit-trial","182","1722750","0.0-59.0","battery-v0.2","","""event"",""trial"",""time""
""fullscreenenter"",""1"",""5641""
","
","
","""event"",""trial"",""time""
""fullscreenenter"",""1"",""5641""
","
","","","280.80000000447035","","","16","9685","4577","p","elianto","#3366ff99","-1"," ","0","0","[1132.6000000014901]","1","2","","","9685","55","4","2","win","no-go","0"
"pit-trial","183","1725936","0.0-60.0","battery-v0.2","","""event"",""trial"",""time""
""fullscreenenter"",""1"",""5641""
","
","
","""event"",""trial"",""time""
""fullscreenenter"",""1"",""5641""
","
","","","329.79999999701977","","","16","9685","4577","l","elianto","#3366ff99"," "," ","1","+10","[1180.5999999940395,1445.3999999985099]","2","2","","","9685","56","1","1","win","go","0"
"pit-trial","184","1730794","0.0-61.0","battery-v0.2","","""event"",""trial"",""time""
""fullscreenenter"",""1"",""5641""
","
","
","""event"",""trial"",""time""
""fullscreenenter"",""1"",""5641""
","
","","","-1","","","16","9685","4577","u","elianto","#f73b6a7A","-1","-1","1","0","[]","0","2","","","9685","57","0","4","lose","no-go","0"
"pit-trial","185","1734207","0.0-62.0","battery-v0.2","","""event"",""trial"",""time""
""fullscreenenter"",""1"",""5641""
","
","
","""event"",""trial"",""time""
""fullscreenenter"",""1"",""5641""
","
","","","545.7999999970198","","","16","9685","4577","p","elianto","#3366ff99","-1"," ","0","0","[1401.5]","1","2","","","9685","58","4","2","win","no-go","0"
"pit-trial","186","1737576","0.0-63.0","battery-v0.2","","""event"",""trial"",""time""
""fullscreenenter"",""1"",""5641""
","
","
","""event"",""trial"",""time""
""fullscreenenter"",""1"",""5641""
","
","","","506.6000000014901","","","16","9685","4577","g","elianto","#f73b6a7A"," "," ","1","0","[1360.2999999970198]","1","2","","","9685","59","3","3","lose","go","0"
"pit-trial","187","1741450","0.0-64.0","battery-v0.2","","""event"",""trial"",""time""
""fullscreenenter"",""1"",""5641""
","
","
","""event"",""trial"",""time""
""fullscreenenter"",""1"",""5641""
","
","","","1011.5","","","16","9685","4577","l","elianto","#3366ff99"," "," ","1","+10","[1864.0999999940395]","1","2","","","9685","60","1","1","win","go","0"
"pit-trial","188","1744849","0.0-65.0","battery-v0.2","","""event"",""trial"",""time""
""fullscreenenter"",""1"",""5641""
","
","
","""event"",""trial"",""time""
""fullscreenenter"",""1"",""5641""
","
","","","539.8999999985099","","","16","9685","4577","p","elianto","#3366ff99","-1"," ","0","0","[1392.1999999955297]","1","2","","","9685","61","4","2","win","no-go","0"
"pit-trial","189","1748435","0.0-66.0","battery-v0.2","","""event"",""trial"",""time""
""fullscreenenter"",""1"",""5641""
","
","
","""event"",""trial"",""time""
""fullscreenenter"",""1"",""5641""
","
","","","726.8000000044703","","","16","9685","4577","l","elianto","#3366ff99"," "," ","1","+10","[1578.6000000014901]","1","2","","","9685","62","1","1","win","go","0"
"pit-trial","190","1751613","0.0-67.0","battery-v0.2","","""event"",""trial"",""time""
""fullscreenenter"",""1"",""5641""
","
","
","""event"",""trial"",""time""
""fullscreenenter"",""1"",""5641""
","
","","","311.3999999985099","","","16","9685","4577","a","elianto","#f73b6a7A","-1"," ","0","-10","[1162.2000000029802]","1","2","","","9685","63","2","4","lose","no-go","0"
"pit-trial","191","1754947","0.0-68.0","battery-v0.2","","""event"",""trial"",""time""
""fullscreenenter"",""1"",""5641""
","
","
","""event"",""trial"",""time""
""fullscreenenter"",""1"",""5641""
","
","","","471.70000000298023","","","16","9685","4577","g","elianto","#f73b6a7A"," "," ","1","0","[1323.1000000014901]","1","2","","","9685","64","3","3","lose","go","0"
"pit-trial","192","1758563","0.0-69.0","battery-v0.2","","""event"",""trial"",""time""
""fullscreenenter"",""1"",""5641""
","
","
","""event"",""trial"",""time""
""fullscreenenter"",""1"",""5641""
","
","","","754.5999999940395","","","16","9685","4577","p","elianto","#3366ff99","-1"," ","0","0","[1610.3999999985099]","1","2","","","9685","65","4","2","win","no-go","0"
"pit-trial","193","1761999","0.0-70.0","battery-v0.2","","""event"",""trial"",""time""
""fullscreenenter"",""1"",""5641""
","
","
","""event"",""trial"",""time""
""fullscreenenter"",""1"",""5641""
","
","","","572.3999999985099","","","16","9685","4577","l","elianto","#3366ff99"," "," ","1","+10","[1424]","1","2","","","9685","66","1","1","win","go","0"
"pit-trial","194","1765714","0.0-71.0","battery-v0.2","","""event"",""trial"",""time""
""fullscreenenter"",""1"",""5641""
","
","
","""event"",""trial"",""time""
""fullscreenenter"",""1"",""5641""
","
","","","851.5","","","16","9685","4577","g","elianto","#f73b6a7A"," "," ","1","0","[1703.8999999985099]","1","2","","","9685","67","3","3","lose","go","0"
"pit-trial","195","1769251","0.0-72.0","battery-v0.2","","""event"",""trial"",""time""
""fullscreenenter"",""1"",""5641""
","
","
","""event"",""trial"",""time""
""fullscreenenter"",""1"",""5641""
","
","","","672.2999999970198","","","16","9685","4577","a","elianto","#f73b6a7A","-1"," ","0","0","[1524.6000000014901]","1","2","","","9685","68","2","4","lose","no-go","1"
"pit-trial","196","1772752","0.0-73.0","battery-v0.2","","""event"",""trial"",""time""
""fullscreenenter"",""1"",""5641""
","
","
","""event"",""trial"",""time""
""fullscreenenter"",""1"",""5641""
","
","","","633.8000000044703","","","16","9685","4577","p","elianto","#3366ff99","-1"," ","0","+10","[1488.2000000029802]","1","2","","","9685","69","4","2","win","no-go","1"
"pit-trial","197","1776543","0.0-74.0","battery-v0.2","","""event"",""trial"",""time""
""fullscreenenter"",""1"",""5641""
","
","
","""event"",""trial"",""time""
""fullscreenenter"",""1"",""5641""
","
","","","925.2000000029802","","","16","9685","4577","g","elianto","#f73b6a7A"," "," ","1","0","[1777.3999999985099]","1","2","","","9685","70","3","3","lose","go","0"
"pit-trial","198","1779808","0.0-75.0","battery-v0.2","","""event"",""trial"",""time""
""fullscreenenter"",""1"",""5641""
","
","
","""event"",""trial"",""time""
""fullscreenenter"",""1"",""5641""
","
","","","401.8999999985099","","","16","9685","4577","l","elianto","#3366ff99"," "," ","1","0","[1255.5]","1","2","","","9685","71","1","1","win","go","1"
"pit-trial","199","1783132","0.0-76.0","battery-v0.2","","""event"",""trial"",""time""
""fullscreenenter"",""1"",""5641""
","
","
","""event"",""trial"",""time""
""fullscreenenter"",""1"",""5641""
","
","","","458.19999999552965","","","16","9685","4577","s","elianto","#3366ff99"," "," ","1","+10","[1310.6000000014901]","1","2","","","9685","72","5","1","win","go","0"
"pit-trial","200","1786592","0.0-77.0","battery-v0.2","","""event"",""trial"",""time""
""fullscreenenter"",""1"",""5641""
","
","
","""event"",""trial"",""time""
""fullscreenenter"",""1"",""5641""
","
","","","603.1999999955297","","","16","9685","4577","p","elianto","#3366ff99","-1"," ","0","0","[702.2999999970198,1454.7000000029802]","2","2","","","9685","73","4","2","win","no-go","0"
"pit-trial","201","1789648","0.0-78.0","battery-v0.2","","""event"",""trial"",""time""
""fullscreenenter"",""1"",""5641""
","
","
","""event"",""trial"",""time""
""fullscreenenter"",""1"",""5641""
","
","","","197.29999999701977","","","16","9685","4577","s","elianto","#3366ff99"," "," ","1","+10","[1047.3999999985099]","1","2","","","9685","74","5","1","win","go","0"
"pit-trial","202","1793008","0.0-79.0","battery-v0.2","","""event"",""trial"",""time""
""fullscreenenter"",""1"",""5641""
","
","
","""event"",""trial"",""time""
""fullscreenenter"",""1"",""5641""
","
","","","493.1000000014901","","","16","9685","4577","l","elianto","#3366ff99"," "," ","1","+10","[1350.5]","1","2","","","9685","75","1","1","win","go","0"
"pit-trial","203","1796231","0.0-80.0","battery-v0.2","","""event"",""trial"",""time""
""fullscreenenter"",""1"",""5641""
","
","
","""event"",""trial"",""time""
""fullscreenenter"",""1"",""5641""
","
","","","362.20000000298023","","","16","9685","4577","g","elianto","#f73b6a7A"," "," ","1","0","[1212.7000000029802]","1","2","","","9685","76","3","3","lose","go","0"
"pit-trial","204","1799312","0.0-81.0","battery-v0.2","","""event"",""trial"",""time""
""fullscreenenter"",""1"",""5641""
","
","
","""event"",""trial"",""time""
""fullscreenenter"",""1"",""5641""
","
","","","216.89999999850988","","","16","9685","4577","w","elianto","#f73b6a7A","-1"," ","0","-10","[1069]","1","2","","","9685","77","6","4","lose","no-go","0"
"pit-trial","205","1803014","0.0-82.0","battery-v0.2","","""event"",""trial"",""time""
""fullscreenenter"",""1"",""5641""
","
","
","""event"",""trial"",""time""
""fullscreenenter"",""1"",""5641""
","
","","","839.7999999970198","","","16","9685","4577","g","elianto","#f73b6a7A"," "," ","1","0","[1691.3000000044703]","1","2","","","9685","78","3","3","lose","go","0"
"pit-trial","206","1806440","0.0-83.0","battery-v0.2","","""event"",""trial"",""time""
""fullscreenenter"",""1"",""5641""
","
","
","""event"",""trial"",""time""
""fullscreenenter"",""1"",""5641""
","
","","","561.9000000059605","","","16","9685","4577","s","elianto","#3366ff99"," "," ","1","+10","[1415.3000000044703]","1","2","","","9685","79","5","1","win","go","0"
"pit-trial","207","1809887","0.0-84.0","battery-v0.2","","""event"",""trial"",""time""
""fullscreenenter"",""1"",""5641""
","
","
","""event"",""trial"",""time""
""fullscreenenter"",""1"",""5641""
","
","","","588.8000000044703","","","16","9685","4577","p","elianto","#3366ff99","-1"," ","0","0","[1440.8999999985099]","1","2","","","9685","80","4","2","win","no-go","0"
"pit-trial","208","1813423","0.0-85.0","battery-v0.2","","""event"",""trial"",""time""
""fullscreenenter"",""1"",""5641""
","
","
","""event"",""trial"",""time""
""fullscreenenter"",""1"",""5641""
","
","","","670.6999999955297","","","16","9685","4577","e","elianto","#f73b6a7A"," "," ","1","0","[1529.5]","1","2","","","9685","81","7","3","lose","go","0"
"pit-trial","209","1816856","0.0-86.0","battery-v0.2","","""event"",""trial"",""time""
""fullscreenenter"",""1"",""5641""
","
","
","""event"",""trial"",""time""
""fullscreenenter"",""1"",""5641""
","
","","","568.5999999940395","","","16","9685","4577","p","elianto","#3366ff99","-1"," ","0","0","[1421.8999999985099]","1","2","","","9685","82","4","2","win","no-go","0"
"pit-trial","210","1820477","0.0-87.0","battery-v0.2","","""event"",""trial"",""time""
""fullscreenenter"",""1"",""5641""
","
","
","""event"",""trial"",""time""
""fullscreenenter"",""1"",""5641""
","
","","","754.8999999985099","","","16","9685","4577","s","elianto","#3366ff99"," "," ","1","+10","[1610.3000000044703]","1","2","","","9685","83","5","1","win","go","0"
"pit-trial","211","1823725","0.0-88.0","battery-v0.2","","""event"",""trial"",""time""
""fullscreenenter"",""1"",""5641""
","
","
","""event"",""trial"",""time""
""fullscreenenter"",""1"",""5641""
","
","","","387.1000000014901","","","16","9685","4577","w","elianto","#f73b6a7A","-1"," ","0","-10","[1238.3999999985099]","1","2","","","9685","84","6","4","lose","no-go","0"
"pit-trial","212","1827253","0.0-89.0","battery-v0.2","","""event"",""trial"",""time""
""fullscreenenter"",""1"",""5641""
","
","
","""event"",""trial"",""time""
""fullscreenenter"",""1"",""5641""
","
","","","667.1000000014901","","","16","9685","4577","w","elianto","#f73b6a7A","-1"," ","0","-10","[1522.2999999970198]","1","2","","","9685","85","6","4","lose","no-go","0"
"pit-trial","213","1830488","0.0-90.0","battery-v0.2","","""event"",""trial"",""time""
""fullscreenenter"",""1"",""5641""
","
","
","""event"",""trial"",""time""
""fullscreenenter"",""1"",""5641""
","
","","","372.1000000014901","","","16","9685","4577","p","elianto","#3366ff99","-1"," ","0","+10","[1222.5]","1","2","","","9685","86","4","2","win","no-go","1"
"pit-trial","214","1834151","0.0-91.0","battery-v0.2","","""event"",""trial"",""time""
""fullscreenenter"",""1"",""5641""
","
","
","""event"",""trial"",""time""
""fullscreenenter"",""1"",""5641""
","
","","","797.7000000029802","","","16","9685","4577","e","elianto","#f73b6a7A"," "," ","1","-10","[1653.5]","1","2","","","9685","87","7","3","lose","go","1"
"pit-trial","215","1837521","0.0-92.0","battery-v0.2","","""event"",""trial"",""time""
""fullscreenenter"",""1"",""5641""
","
","
","""event"",""trial"",""time""
""fullscreenenter"",""1"",""5641""
","
","","","503.6000000014901","","","16","9685","4577","s","elianto","#3366ff99"," "," ","1","+10","[1355.7999999970198]","1","2","","","9685","88","5","1","win","go","0"
"pit-trial","216","1840960","0.0-93.0","battery-v0.2","","""event"",""trial"",""time""
""fullscreenenter"",""1"",""5641""
","
","
","""event"",""trial"",""time""
""fullscreenenter"",""1"",""5641""
","
","","","576.3999999985099","","","16","9685","4577","s","elianto","#3366ff99"," "," ","1","0","[1430]","1","2","","","9685","89","5","1","win","go","1"
"pit-trial","217","1844211","0.0-94.0","battery-v0.2","","""event"",""trial"",""time""
""fullscreenenter"",""1"",""5641""
","
","
","""event"",""trial"",""time""
""fullscreenenter"",""1"",""5641""
","
","","","382.79999999701977","","","16","9685","4577","w","elianto","#f73b6a7A","-1"," ","0","-10","[1237.2999999970198]","1","2","","","9685","90","6","4","lose","no-go","0"
"pit-trial","218","1847363","0.0-95.0","battery-v0.2","","""event"",""trial"",""time""
""fullscreenenter"",""1"",""5641""
","
","
","""event"",""trial"",""time""
""fullscreenenter"",""1"",""5641""
","
","","","289.69999999552965","","","16","9685","4577","e","elianto","#f73b6a7A"," "," ","1","-10","[1142.5]","1","2","","","9685","91","7","3","lose","go","1"
"pit-trial","219","1852129","0.0-96.0","battery-v0.2","","""event"",""trial"",""time""
""fullscreenenter"",""1"",""5641""
","
","
","""event"",""trial"",""time""
""fullscreenenter"",""1"",""5641""
","
","","","1902.7999999970198","","","16","9685","4577","p","elianto","#3366ff99","-1"," ","0","0","[2754.5]","1","2","","","9685","92","4","2","win","no-go","0"
"pit-trial","220","1855560","0.0-97.0","battery-v0.2","","""event"",""trial"",""time""
""fullscreenenter"",""1"",""5641""
","
","
","""event"",""trial"",""time""
""fullscreenenter"",""1"",""5641""
","
","","","557.3999999985099","","","16","9685","4577","d","elianto","#3366ff99","-1"," ","0","0","[1417.4000000059605]","1","2","","","9685","93","8","2","win","no-go","0"
"pit-trial","221","1859534","0.0-98.0","battery-v0.2","","""event"",""trial"",""time""
""fullscreenenter"",""1"",""5641""
","
","
","""event"",""trial"",""time""
""fullscreenenter"",""1"",""5641""
","
","","","1102.3000000044703","","","16","9685","4577","e","elianto","#f73b6a7A"," "," ","1","0","[1962.2999999970198]","1","2","","","9685","94","7","3","lose","go","0"
"pit-trial","222","1862858","0.0-99.0","battery-v0.2","","""event"",""trial"",""time""
""fullscreenenter"",""1"",""5641""
","
","
","""event"",""trial"",""time""
""fullscreenenter"",""1"",""5641""
","
","","","465","","","16","9685","4577","s","elianto","#3366ff99"," "," ","1","+10","[1317.8999999985099]","1","2","","","9685","95","5","1","win","go","0"
"pit-trial","223","1866503","0.0-100.0","battery-v0.2","","""event"",""trial"",""time""
""fullscreenenter"",""1"",""5641""
","
","
","""event"",""trial"",""time""
""fullscreenenter"",""1"",""5641""
","
","","","777.8999999985099","","","16","9685","4577","w","elianto","#f73b6a7A","-1"," ","0","-10","[1631.6999999955297]","1","2","","","9685","96","6","4","lose","no-go","0"
"pit-trial","224","1870107","0.0-101.0","battery-v0.2","","""event"",""trial"",""time""
""fullscreenenter"",""1"",""5641""
","
","
","""event"",""trial"",""time""
""fullscreenenter"",""1"",""5641""
","
","","","739","","","16","9685","4577","e","elianto","#f73b6a7A"," "," ","1","0","[1595.8999999985099]","1","2","","","9685","97","7","3","lose","go","0"
"pit-trial","225","1874974","0.0-102.0","battery-v0.2","","""event"",""trial"",""time""
""fullscreenenter"",""1"",""5641""
","
","
","""event"",""trial"",""time""
""fullscreenenter"",""1"",""5641""
","
","","","-1","","","16","9685","4577","w","elianto","#f73b6a7A","-1","-1","1","0","[]","0","2","","","9685","98","6","4","lose","no-go","0"
"pit-trial","226","1878394","0.0-103.0","battery-v0.2","","""event"",""trial"",""time""
""fullscreenenter"",""1"",""5641""
","
","
","""event"",""trial"",""time""
""fullscreenenter"",""1"",""5641""
","
","","","560.1000000014901","","","16","9685","4577","d","elianto","#3366ff99","-1"," ","0","0","[1414.3999999985099]","1","2","","","9685","99","8","2","win","no-go","0"
"pit-trial","227","1881892","0.0-104.0","battery-v0.2","","""event"",""trial"",""time""
""fullscreenenter"",""1"",""5641""
","
","
","""event"",""trial"",""time""
""fullscreenenter"",""1"",""5641""
","
","","","631.5","","","16","9685","4577","s","elianto","#3366ff99"," "," ","1","+10","[1485.5]","1","2","","","9685","100","5","1","win","go","0"
"pit-trial","228","1885339","0.0-105.0","battery-v0.2","","""event"",""trial"",""time""
""fullscreenenter"",""1"",""5641""
","
","
","""event"",""trial"",""time""
""fullscreenenter"",""1"",""5641""
","
","","","584.2000000029802","","","16","9685","4577","s","elianto","#3366ff99"," "," ","1","+10","[1436.7999999970198]","1","2","","","9685","101","5","1","win","go","0"
"pit-trial","229","1890208","0.0-106.0","battery-v0.2","","""event"",""trial"",""time""
""fullscreenenter"",""1"",""5641""
","
","
","""event"",""trial"",""time""
""fullscreenenter"",""1"",""5641""
","
","","","-1","","","16","9685","4577","w","elianto","#f73b6a7A","-1","-1","1","0","[]","0","2","","","9685","102","6","4","lose","no-go","0"
"pit-trial","230","1893678","0.0-107.0","battery-v0.2","","""event"",""trial"",""time""
""fullscreenenter"",""1"",""5641""
","
","
","""event"",""trial"",""time""
""fullscreenenter"",""1"",""5641""
","
","","","605.7000000029802","","","16","9685","4577","j","elianto","#3366ff99","-1"," ","0","0","[1459.2000000029802]","1","2","","","9685","103","9","2","win","no-go","0"
"pit-trial","231","1897012","0.0-108.0","battery-v0.2","","""event"",""trial"",""time""
""fullscreenenter"",""1"",""5641""
","
","
","""event"",""trial"",""time""
""fullscreenenter"",""1"",""5641""
","
","","","472.8999999985099","","","16","9685","4577","d","elianto","#3366ff99","-1"," ","0","0","[1325.8999999985099]","1","2","","","9685","104","8","2","win","no-go","0"
"pit-trial","232","1900154","0.0-109.0","battery-v0.2","","""event"",""trial"",""time""
""fullscreenenter"",""1"",""5641""
","
","
","""event"",""trial"",""time""
""fullscreenenter"",""1"",""5641""
","
","","","282.80000000447035","","","16","9685","4577","w","elianto","#f73b6a7A","-1"," ","0","-10","[1134.7999999970198]","1","2","","","9685","105","6","4","lose","no-go","0"
"pit-trial","233","1903500","0.0-110.0","battery-v0.2","","""event"",""trial"",""time""
""fullscreenenter"",""1"",""5641""
","
","
","""event"",""trial"",""time""
""fullscreenenter"",""1"",""5641""
","
","","","479.3999999985099","","","16","9685","4577","s","elianto","#3366ff99"," "," ","1","+10","[1333.6999999955297]","1","2","","","9685","106","5","1","win","go","0"
"pit-trial","234","1906889","0.0-111.0","battery-v0.2","","""event"",""trial"",""time""
""fullscreenenter"",""1"",""5641""
","
","
","""event"",""trial"",""time""
""fullscreenenter"",""1"",""5641""
","
","","","524.5","","","16","9685","4577","d","elianto","#3366ff99","-1"," ","0","0","[1382.0999999940395]","1","2","","","9685","107","8","2","win","no-go","0"
"pit-trial","235","1910216","0.0-112.0","battery-v0.2","","""event"",""trial"",""time""
""fullscreenenter"",""1"",""5641""
","
","
","""event"",""trial"",""time""
""fullscreenenter"",""1"",""5641""
","
","","","463","","","16","9685","4577","j","elianto","#3366ff99","-1"," ","0","0","[1318.8999999985099]","1","2","","","9685","108","9","2","win","no-go","0"
"pit-trial","236","1913524","0.0-113.0","battery-v0.2","","""event"",""trial"",""time""
""fullscreenenter"",""1"",""5641""
","
","
","""event"",""trial"",""time""
""fullscreenenter"",""1"",""5641""
","
","","","450","","","16","9685","4577","j","elianto","#3366ff99","-1"," ","0","+10","[196.70000000298023,1302.1000000014901]","2","2","","","9685","109","9","2","win","no-go","1"
"pit-trial","237","1917626","0.0-114.0","battery-v0.2","","""event"",""trial"",""time""
""fullscreenenter"",""1"",""5641""
","
","
","""event"",""trial"",""time""
""fullscreenenter"",""1"",""5641""
","
","","","1238.7000000029802","","","16","9685","4577","d","elianto","#3366ff99","-1"," ","0","0","[2089.89999999851]","1","2","","","9685","110","8","2","win","no-go","0"
"pit-trial","238","1921174","0.0-115.0","battery-v0.2","","""event"",""trial"",""time""
""fullscreenenter"",""1"",""5641""
","
","
","""event"",""trial"",""time""
""fullscreenenter"",""1"",""5641""
","
","","","677.5","","","16","9685","4577","w","elianto","#f73b6a7A","-1"," ","0","-10","[1530.3999999985099]","1","2","","","9685","111","6","4","lose","no-go","0"
"pit-trial","239","1924436","0.0-116.0","battery-v0.2","","""event"",""trial"",""time""
""fullscreenenter"",""1"",""5641""
","
","
","""event"",""trial"",""time""
""fullscreenenter"",""1"",""5641""
","
","","","401","","","16","9685","4577","s","elianto","#3366ff99"," "," ","1","+10","[1256]","1","2","","","9685","112","5","1","win","go","0"
"pit-trial","240","1928213","0.0-117.0","battery-v0.2","","""event"",""trial"",""time""
""fullscreenenter"",""1"",""5641""
","
","
","""event"",""trial"",""time""
""fullscreenenter"",""1"",""5641""
","
","","","917.7999999970198","","","16","9685","4577","e","elianto","#f73b6a7A"," "," ","1","0","[1770.3999999985099]","1","2","","","9685","113","7","3","lose","go","0"
"pit-trial","241","1931462","0.0-118.0","battery-v0.2","","""event"",""trial"",""time""
""fullscreenenter"",""1"",""5641""
","
","
","""event"",""trial"",""time""
""fullscreenenter"",""1"",""5641""
","
","","","387.09999999403954","","","16","9685","4577","s","elianto","#3366ff99"," "," ","1","+10","[1238.3000000044703]","1","2","","","9685","114","5","1","win","go","0"
"pit-trial","242","1935215","0.0-119.0","battery-v0.2","","""event"",""trial"",""time""
""fullscreenenter"",""1"",""5641""
","
","
","""event"",""trial"",""time""
""fullscreenenter"",""1"",""5641""
","
","","","893.0999999940395","","","16","9685","4577","d","elianto","#3366ff99","-1"," ","0","0","[1745.7000000029802]","1","2","","","9685","115","8","2","win","no-go","0"
"pit-trial","243","1938247","0.0-120.0","battery-v0.2","","""event"",""trial"",""time""
""fullscreenenter"",""1"",""5641""
","
","
","""event"",""trial"",""time""
""fullscreenenter"",""1"",""5641""
","
","","","170.10000000149012","","","16","9685","4577","j","elianto","#3366ff99","-1"," ","0","0","[1024.2000000029802]","1","2","","","9685","116","9","2","win","no-go","0"
"pit-trial","244","1941493","0.0-121.0","battery-v0.2","","""event"",""trial"",""time""
""fullscreenenter"",""1"",""5641""
","
","
","""event"",""trial"",""time""
""fullscreenenter"",""1"",""5641""
","
","","","388.1000000014901","","","16","9685","4577","j","elianto","#3366ff99","-1"," ","0","+10","[1238.7000000029802]","1","2","","","9685","117","9","2","win","no-go","1"
"pit-trial","245","1944816","0.0-122.0","battery-v0.2","","""event"",""trial"",""time""
""fullscreenenter"",""1"",""5641""
","
","
","""event"",""trial"",""time""
""fullscreenenter"",""1"",""5641""
","
","","","464","","","16","9685","4577","s","elianto","#3366ff99"," "," ","1","+10","[1316.1000000014901]","1","2","","","9685","118","5","1","win","go","0"
"pit-trial","246","1948154","0.0-123.0","battery-v0.2","","""event"",""trial"",""time""
""fullscreenenter"",""1"",""5641""
","
","
","""event"",""trial"",""time""
""fullscreenenter"",""1"",""5641""
","
","","","472.19999999552965","","","16","9685","4577","d","elianto","#3366ff99","-1"," ","0","+10","[1325.5999999940395]","1","2","","","9685","119","8","2","win","no-go","1"
"pit-trial","247","1953024","0.0-124.0","battery-v0.2","","""event"",""trial"",""time""
""fullscreenenter"",""1"",""5641""
","
","
","""event"",""trial"",""time""
""fullscreenenter"",""1"",""5641""
","
","","","-1","","","16","9685","4577","w","elianto","#f73b6a7A","-1","-1","1","0","[4559.10000000149]","1","2","","","9685","120","6","4","lose","no-go","0"
"pit-trial","248","1956380","0.0-125.0","battery-v0.2","","""event"",""trial"",""time""
""fullscreenenter"",""1"",""5641""
","
","
","""event"",""trial"",""time""
""fullscreenenter"",""1"",""5641""
","
","","","495.8999999985099","","","16","9685","4577","s","elianto","#3366ff99"," "," ","1","0","[1348.2000000029802]","1","2","","","9685","121","5","1","win","go","1"
"pit-trial","249","1960075","0.0-126.0","battery-v0.2","","""event"",""trial"",""time""
""fullscreenenter"",""1"",""5641""
","
","
","""event"",""trial"",""time""
""fullscreenenter"",""1"",""5641""
","
","","","835","","","16","9685","4577","e","elianto","#f73b6a7A"," "," ","1","0","[1685.9000000059605]","1","2","","","9685","122","7","3","lose","go","0"
"pit-trial","250","1964059","0.0-127.0","battery-v0.2","","""event"",""trial"",""time""
""fullscreenenter"",""1"",""5641""
","
","
","""event"",""trial"",""time""
""fullscreenenter"",""1"",""5641""
","
","","","1124.8999999985099","","","16","9685","4577","j","elianto","#3366ff99","-1"," ","0","+10","[1979]","1","2","","","9685","123","9","2","win","no-go","1"
"pit-trial","251","1967314","0.0-128.0","battery-v0.2","","""event"",""trial"",""time""
""fullscreenenter"",""1"",""5641""
","
","
","""event"",""trial"",""time""
""fullscreenenter"",""1"",""5641""
","
","","","392","","","16","9685","4577","d","elianto","#3366ff99","-1"," ","0","0","[1245.7000000029802]","1","2","","","9685","124","8","2","win","no-go","0"
"pit-trial","252","1970917","0.0-129.0","battery-v0.2","","""event"",""trial"",""time""
""fullscreenenter"",""1"",""5641""
","
","
","""event"",""trial"",""time""
""fullscreenenter"",""1"",""5641""
","
","","","740.8999999985099","","","16","9685","4577","j","elianto","#3366ff99","-1"," ","0","0","[1596.5]","1","2","","","9685","125","9","2","win","no-go","0"
"pit-trial","253","1975780","0.0-130.0","battery-v0.2","","""event"",""trial"",""time""
""fullscreenenter"",""1"",""5641""
","
","
","""event"",""trial"",""time""
""fullscreenenter"",""1"",""5641""
","
","","","-1","","","16","9685","4577","w","elianto","#f73b6a7A","-1","-1","1","0","[]","0","2","","","9685","126","6","4","lose","no-go","0"
"pit-trial","254","1980209","0.0-131.0","battery-v0.2","","""event"",""trial"",""time""
""fullscreenenter"",""1"",""5641""
","
","
","""event"",""trial"",""time""
""fullscreenenter"",""1"",""5641""
","
","","","1569.2000000029802","","","16","9685","4577","e","elianto","#f73b6a7A"," "," ","1","0","[638.6000000014901,2421.39999999851]","2","2","","","9685","127","7","3","lose","go","0"
"pit-trial","255","1984575","0.0-132.0","battery-v0.2","","""event"",""trial"",""time""
""fullscreenenter"",""1"",""5641""
","
","
","""event"",""trial"",""time""
""fullscreenenter"",""1"",""5641""
","
","","","1507.2999999970198","","","16","9685","4577","d","elianto","#3366ff99","-1"," ","0","0","[2359.5]","1","2","","","9685","128","8","2","win","no-go","0"
"pit-trial","256","1987852","0.0-133.0","battery-v0.2","","""event"",""trial"",""time""
""fullscreenenter"",""1"",""5641""
","
","
","""event"",""trial"",""time""
""fullscreenenter"",""1"",""5641""
","
","","","409.59999999403954","","","16","9685","4577","d","elianto","#3366ff99","-1"," ","0","0","[1267.5]","1","2","","","9685","129","8","2","win","no-go","0"
"pit-trial","257","1991414","0.0-134.0","battery-v0.2","","""event"",""trial"",""time""
""fullscreenenter"",""1"",""5641""
","
","
","""event"",""trial"",""time""
""fullscreenenter"",""1"",""5641""
","
","","","701.3000000044703","","","16","9685","4577","e","elianto","#f73b6a7A"," "," ","1","0","[1553.2000000029802]","1","2","","","9685","130","7","3","lose","go","0"
"pit-trial","258","1995272","0.0-135.0","battery-v0.2","","""event"",""trial"",""time""
""fullscreenenter"",""1"",""5641""
","
","
","""event"",""trial"",""time""
""fullscreenenter"",""1"",""5641""
","
","","","996.6999999955297","","","16","9685","4577","j","elianto","#3366ff99","-1"," ","0","0","[1846.8000000044703]","1","2","","","9685","131","9","2","win","no-go","0"
"pit-trial","259","2000140","0.0-136.0","battery-v0.2","","""event"",""trial"",""time""
""fullscreenenter"",""1"",""5641""
","
","
","""event"",""trial"",""time""
""fullscreenenter"",""1"",""5641""
","
","","","-1","","","16","9685","4577","w","elianto","#f73b6a7A","-1","-1","1","0","[3553.10000000149]","1","2","","","9685","132","6","4","lose","no-go","0"
"pit-trial","260","2003509","0.0-137.0","battery-v0.2","","""event"",""trial"",""time""
""fullscreenenter"",""1"",""5641""
","
","
","""event"",""trial"",""time""
""fullscreenenter"",""1"",""5641""
","
","","","507.70000000298023","","","16","9685","4577","j","elianto","#3366ff99","-1"," ","0","0","[1362.5]","1","2","","","9685","133","9","2","win","no-go","0"
"pit-trial","261","2008369","0.0-138.0","battery-v0.2","","""event"",""trial"",""time""
""fullscreenenter"",""1"",""5641""
","
","
","""event"",""trial"",""time""
""fullscreenenter"",""1"",""5641""
","
","","","-1","","","16","9685","4577","e","elianto","#f73b6a7A"," ","-1","0","-10","[]","0","2","","","9685","134","7","3","lose","go","0"
"pit-trial","262","2011693","0.0-139.0","battery-v0.2","","""event"",""trial"",""time""
""fullscreenenter"",""1"",""5641""
","
","
","""event"",""trial"",""time""
""fullscreenenter"",""1"",""5641""
","
","","","462","","","16","9685","4577","d","elianto","#3366ff99","-1"," ","0","0","[1315.7999999970198]","1","2","","","9685","135","8","2","win","no-go","0"
"pit-trial","263","2016554","0.0-140.0","battery-v0.2","","""event"",""trial"",""time""
""fullscreenenter"",""1"",""5641""
","
","
","""event"",""trial"",""time""
""fullscreenenter"",""1"",""5641""
","
","","","-1","","","16","9685","4577","w","elianto","#f73b6a7A","-1","-1","1","0","[]","0","2","","","9685","136","6","4","lose","no-go","0"
"pit-trial","264","2020821","0.0-141.0","battery-v0.2","","""event"",""trial"",""time""
""fullscreenenter"",""1"",""5641""
","
","
","""event"",""trial"",""time""
""fullscreenenter"",""1"",""5641""
","
