"trial_type","trial_index","time_elapsed","internal_node_id","task_version","subject_id","interactions","blur_events","focus_events","fullscreenenter_events","fullscreenexit_events","success","view_history","rt","responses","num_errors","age","subject","participantId","rune","rune_set","hex","correct","choice","accuracy","outcome","keys","total_keys","block","practice","value","sub","trial","stimulus","robot","valence","action","sham"
"pavlovia","0","7","0.0-0.0","battery-v0.2","","""event"",""trial"",""time""
""fullscreenenter"",""1"",""4207""
","
","
","""event"",""trial"",""time""
""fullscreenenter"",""1"",""4207""
","
","","","","","","","","","","","","","","","","","","","","","","","","","","",""
"fullscreen","1","5186","0.0-1.0","battery-v0.2","","""event"",""trial"",""time""
""fullscreenenter"",""1"",""4207""
","
","
","""event"",""trial"",""time""
""fullscreenenter"",""1"",""4207""
","
","true","","","","","","","","","","","","","","","","","","","","","","","","","",""
"pit-instructions","2","13526","0.0-2.0-0.0","battery-v0.2","","""event"",""trial"",""time""
""fullscreenenter"",""1"",""4207""
","
","
","""event"",""trial"",""time""
""fullscreenenter"",""1"",""4207""
","
","","[{""page_index"":0,""viewing_time"":8332.699999988079}]","8334.399999976158","","","","","","","","","","","","","","","","","","","","","","","",""
"pit-comprehension","3","19086","0.0-2.0-1.0-0.0","battery-v0.2","","""event"",""trial"",""time""
""fullscreenenter"",""1"",""4207""
","
","
","""event"",""trial"",""time""
""fullscreenenter"",""1"",""4207""
","
","","","5553.199999988079","[""shark""]","0","17","4246","3028","","","","","","","","","","","","","","","","","","",""
"pit-instructions","4","20393","0.0-2.0-1.0-1.0","battery-v0.2","","""event"",""trial"",""time""
""fullscreenenter"",""1"",""4207""
","
","
","""event"",""trial"",""time""
""fullscreenenter"",""1"",""4207""
","
","","[{""page_index"":0,""viewing_time"":1279}]","1279.699999988079","","","","","","","","","","","","","","","","","","","","","","","",""
"pit-comprehension","5","24444","0.0-2.0-2.0-0.0","battery-v0.2","","""event"",""trial"",""time""
""fullscreenenter"",""1"",""4207""
","
","
","""event"",""trial"",""time""
""fullscreenenter"",""1"",""4207""
","
","","","4043.7000000178814","[""tiger""]","0","17","4246","3028","","","","","","","","","","","","","","","","","","",""
"pit-instructions","6","25168","0.0-2.0-2.0-1.0","battery-v0.2","","""event"",""trial"",""time""
""fullscreenenter"",""1"",""4207""
","
","
","""event"",""trial"",""time""
""fullscreenenter"",""1"",""4207""
","
","","[{""page_index"":0,""viewing_time"":717.5}]","718.0999999940395","","","","","","","","","","","","","","","","","","","","","","","",""
"pit-instructions","7","138131","0.0-2.0-3.0","battery-v0.2","","""event"",""trial"",""time""
""fullscreenenter"",""1"",""4207""
","
","
","""event"",""trial"",""time""
""fullscreenenter"",""1"",""4207""
","
","","[{""page_index"":0,""viewing_time"":17936.40000000596},{""page_index"":1,""viewing_time"":5907.5999999940395},{""page_index"":2,""viewing_time"":7175.700000017881},{""page_index"":3,""viewing_time"":5066.0999999940395},{""page_index"":4,""viewing_time"":7692.799999982119},{""page_index"":5,""viewing_time"":10475.700000017881},{""page_index"":6,""viewing_time"":7211.0999999940395},{""page_index"":7,""viewing_time"":6159.4000000059605},{""page_index"":8,""viewing_time"":6239.5999999940395},{""page_index"":9,""viewing_time"":8674.59999999404},{""page_index"":10,""viewing_time"":12260.300000011921},{""page_index"":11,""viewing_time"":7122.9000000059605},{""page_index"":12,""viewing_time"":6317.5999999940395},{""page_index"":13,""viewing_time"":4719}]","112959.80000001192","","","","","","","","","","","","","","","","","","","","","","","",""
"pit-trial","8","141465","0.0-2.0-4.0-0.0","battery-v0.2","","""event"",""trial"",""time""
""fullscreenenter"",""1"",""4207""
","
","
","""event"",""trial"",""time""
""fullscreenenter"",""1"",""4207""
","
","","","475.30000001192093","","","17","4246","3028","&#9784;","elianto","#FFFFF080"," "," ","1","&#10004","[1325.9000000059605]","1","0","0","","","","","","","",""
"pit-trial","9","145002","0.0-2.0-4.1-0.1","battery-v0.2","","""event"",""trial"",""time""
""fullscreenenter"",""1"",""4207""
","
","
","""event"",""trial"",""time""
""fullscreenenter"",""1"",""4207""
","
","","","676.0999999940395","","","17","4246","3028","&#9784;","elianto","#FFFFF080"," "," ","1","&#10004","[1530.4000000059605]","1","0","0","","","","","","","",""
"pit-trial","10","148243","0.0-2.0-4.2-0.2","battery-v0.2","","""event"",""trial"",""time""
""fullscreenenter"",""1"",""4207""
","
","
","""event"",""trial"",""time""
""fullscreenenter"",""1"",""4207""
","
","","","381.89999997615814","","","17","4246","3028","&#9784;","elianto","#FFFFF080"," "," ","1","&#10004","[1233.9000000059605]","1","0","0","","","","","","","",""
"pit-trial","11","151523","0.0-2.0-4.3-0.3","battery-v0.2","","""event"",""trial"",""time""
""fullscreenenter"",""1"",""4207""
","
","
","""event"",""trial"",""time""
""fullscreenenter"",""1"",""4207""
","
","","","416.90000000596046","","","17","4246","3028","&#9784;","elianto","#FFFFF080"," "," ","1","&#10004","[1267.5]","1","0","0","","","","","","","",""
"pit-trial","12","154775","0.0-2.0-4.4-0.4","battery-v0.2","","""event"",""trial"",""time""
""fullscreenenter"",""1"",""4207""
","
","
","""event"",""trial"",""time""
""fullscreenenter"",""1"",""4207""
","
","","","393.90000000596046","","","17","4246","3028","&#9784;","elianto","#FFFFF080"," "," ","1","&#10004","[1244.2000000178814]","1","0","0","","","","","","","",""
"pit-instructions","13","175865","0.0-2.0-5.0","battery-v0.2","","""event"",""trial"",""time""
""fullscreenenter"",""1"",""4207""
","
","
","""event"",""trial"",""time""
""fullscreenenter"",""1"",""4207""
","
","","[{""page_index"":0,""viewing_time"":4810.4000000059605},{""page_index"":1,""viewing_time"":5913.899999976158},{""page_index"":2,""viewing_time"":4703.200000017881},{""page_index"":3,""viewing_time"":5654.5}]","21083.59999999404","","","","","","","","","","","","","","","","","","","","","","","",""
"pit-trial","14","180727","0.0-2.0-6.0-0.0","battery-v0.2","","""event"",""trial"",""time""
""fullscreenenter"",""1"",""4207""
","
","
","""event"",""trial"",""time""
""fullscreenenter"",""1"",""4207""
","
","","","-1","","","17","4246","3028","&#9854;","elianto","#FFFFF080","-1","-1","1","&#10004","[]","0","0","1","","","","","","","",""
"pit-trial","15","185590","0.0-2.0-6.1-0.1","battery-v0.2","","""event"",""trial"",""time""
""fullscreenenter"",""1"",""4207""
","
","
","""event"",""trial"",""time""
""fullscreenenter"",""1"",""4207""
","
","","","-1","","","17","4246","3028","&#9854;","elianto","#FFFFF080","-1","-1","1","&#10004","[]","0","0","1","","","","","","","",""
"pit-trial","16","190454","0.0-2.0-6.2-0.2","battery-v0.2","","""event"",""trial"",""time""
""fullscreenenter"",""1"",""4207""
","
","
","""event"",""trial"",""time""
""fullscreenenter"",""1"",""4207""
","
","","","-1","","","17","4246","3028","&#9854;","elianto","#FFFFF080","-1","-1","1","&#10004","[]","0","0","1","","","","","","","",""
"pit-trial","17","195319","0.0-2.0-6.3-0.3","battery-v0.2","","""event"",""trial"",""time""
""fullscreenenter"",""1"",""4207""
","
","
","""event"",""trial"",""time""
""fullscreenenter"",""1"",""4207""
","
","","","-1","","","17","4246","3028","&#9854;","elianto","#FFFFF080","-1","-1","1","&#10004","[]","0","0","1","","","","","","","",""
"pit-trial","18","200184","0.0-2.0-6.4-0.4","battery-v0.2","","""event"",""trial"",""time""
""fullscreenenter"",""1"",""4207""
","
","
","""event"",""trial"",""time""
""fullscreenenter"",""1"",""4207""
","
","","","-1","","","17","4246","3028","&#9854;","elianto","#FFFFF080","-1","-1","1","&#10004","[]","0","0","1","","","","","","","",""
"pit-instructions","19","314309","0.0-2.0-7.0","battery-v0.2","","""event"",""trial"",""time""
""fullscreenenter"",""1"",""4207""
","
","
","""event"",""trial"",""time""
""fullscreenenter"",""1"",""4207""
","
","","[{""page_index"":0,""viewing_time"":5433.699999988079},{""page_index"":1,""viewing_time"":7334.700000017881},{""page_index"":2,""viewing_time"":5651.199999988079},{""page_index"":3,""viewing_time"":6313},{""page_index"":4,""viewing_time"":5279.200000017881},{""page_index"":5,""viewing_time"":5327.699999988079},{""page_index"":6,""viewing_time"":4585.800000011921},{""page_index"":7,""viewing_time"":8131.5},{""page_index"":8,""viewing_time"":6405.0999999940395},{""page_index"":9,""viewing_time"":5945.299999982119},{""page_index"":10,""viewing_time"":6366.100000023842},{""page_index"":11,""viewing_time"":4497.0999999940395},{""page_index"":12,""viewing_time"":6665.9000000059605},{""page_index"":13,""viewing_time"":7061.0999999940395},{""page_index"":14,""viewing_time"":7244.5},{""page_index"":15,""viewing_time"":6395.299999982119},{""page_index"":16,""viewing_time"":6449.300000011921},{""page_index"":17,""viewing_time"":9033}]","114120","","","","","","","","","","","","","","","","","","","","","","","",""
"pit-trial","20","317650","0.0-2.0-8.0-0.0","battery-v0.2","","""event"",""trial"",""time""
""fullscreenenter"",""1"",""4207""
","
","
","""event"",""trial"",""time""
""fullscreenenter"",""1"",""4207""
","
","","","486.2999999821186","","","17","4246","3028","&#9776;","elianto","#3366ff99"," "," ","1","+10","[1337.199999988079]","1","0","1","","","","","","","",""
"pit-trial","21","320915","0.0-2.0-8.0-1.0","battery-v0.2","","""event"",""trial"",""time""
""fullscreenenter"",""1"",""4207""
","
","
","""event"",""trial"",""time""
""fullscreenenter"",""1"",""4207""
","
","","","403.30000001192093","","","17","4246","3028","&#9776;","elianto","#3366ff99"," "," ","1","+10","[1254.199999988079]","1","0","1","","","","","","","",""
"pit-trial","22","324170","0.0-2.0-8.0-2.0","battery-v0.2","","""event"",""trial"",""time""
""fullscreenenter"",""1"",""4207""
","
","
","""event"",""trial"",""time""
""fullscreenenter"",""1"",""4207""
","
","","","396.5","","","17","4246","3028","&#9776;","elianto","#3366ff99"," "," ","1","+10","[1248.4000000059605]","1","0","1","","","","","","","",""
"pit-trial","23","327418","0.0-2.0-8.0-3.0","battery-v0.2","","""event"",""trial"",""time""
""fullscreenenter"",""1"",""4207""
","
","
","""event"",""trial"",""time""
""fullscreenenter"",""1"",""4207""
","
","","","390.5","","","17","4246","3028","&#9776;","elianto","#3366ff99"," "," ","1","0","[1243.4000000059605]","1","0","1","","","","","","","",""
"pit-trial","24","330732","0.0-2.0-8.0-4.0","battery-v0.2","","""event"",""trial"",""time""
""fullscreenenter"",""1"",""4207""
","
","
","""event"",""trial"",""time""
""fullscreenenter"",""1"",""4207""
","
","","","453.39999997615814","","","17","4246","3028","&#9776;","elianto","#3366ff99"," "," ","1","+10","[1308.199999988079]","1","0","1","","","","","","","",""
"pit-trial","25","333939","0.0-2.0-8.1-0.1","battery-v0.2","","""event"",""trial"",""time""
""fullscreenenter"",""1"",""4207""
","
","
","""event"",""trial"",""time""
""fullscreenenter"",""1"",""4207""
","
","","","347.90000000596046","","","17","4246","3028","&#9776;","elianto","#3366ff99"," "," ","1","+10","[1199.2999999821186]","1","0","1","","","","","","","",""
"pit-trial","26","337130","0.0-2.0-8.1-1.1","battery-v0.2","","""event"",""trial"",""time""
""fullscreenenter"",""1"",""4207""
","
","
","""event"",""trial"",""time""
""fullscreenenter"",""1"",""4207""
","
","","","332","","","17","4246","3028","&#9776;","elianto","#3366ff99"," "," ","1","+10","[1184.5999999940395]","1","0","1","","","","","","","",""
"pit-trial","27","340372","0.0-2.0-8.1-2.1","battery-v0.2","","""event"",""trial"",""time""
""fullscreenenter"",""1"",""4207""
","
","
","""event"",""trial"",""time""
""fullscreenenter"",""1"",""4207""
","
","","","383.7999999821186","","","17","4246","3028","&#9776;","elianto","#3366ff99"," "," ","1","+10","[1236.199999988079]","1","0","1","","","","","","","",""
"pit-trial","28","343483","0.0-2.0-8.1-3.1","battery-v0.2","","""event"",""trial"",""time""
""fullscreenenter"",""1"",""4207""
","
","
","""event"",""trial"",""time""
""fullscreenenter"",""1"",""4207""
","
","","","244.80000001192093","","","17","4246","3028","&#9776;","elianto","#3366ff99"," "," ","1","0","[1103.6000000238419]","1","0","1","","","","","","","",""
"pit-trial","29","346555","0.0-2.0-8.1-4.1","battery-v0.2","","""event"",""trial"",""time""
""fullscreenenter"",""1"",""4207""
","
","
","""event"",""trial"",""time""
""fullscreenenter"",""1"",""4207""
","
","","","213.5","","","17","4246","3028","&#9776;","elianto","#3366ff99"," "," ","1","+10","[1065.7999999821186]","1","0","1","","","","","","","",""
"pit-trial","30","349756","0.0-2.0-8.2-0.2","battery-v0.2","","""event"",""trial"",""time""
""fullscreenenter"",""1"",""4207""
","
","
","""event"",""trial"",""time""
""fullscreenenter"",""1"",""4207""
","
","","","338.7999999821186","","","17","4246","3028","&#9776;","elianto","#3366ff99"," "," ","1","+10","[1190.7999999821186]","1","0","1","","","","","","","",""
"pit-trial","31","352923","0.0-2.0-8.2-1.2","battery-v0.2","","""event"",""trial"",""time""
""fullscreenenter"",""1"",""4207""
","
","
","""event"",""trial"",""time""
""fullscreenenter"",""1"",""4207""
","
","","","308.10000002384186","","","17","4246","3028","&#9776;","elianto","#3366ff99"," "," ","1","+10","[1159.3999999761581]","1","0","1","","","","","","","",""
"pit-trial","32","356063","0.0-2.0-8.2-2.2","battery-v0.2","","""event"",""trial"",""time""
""fullscreenenter"",""1"",""4207""
","
","
","""event"",""trial"",""time""
""fullscreenenter"",""1"",""4207""
","
","","","283.09999999403954","","","17","4246","3028","&#9776;","elianto","#3366ff99"," "," ","1","+10","[1135.199999988079]","1","0","1","","","","","","","",""
"pit-trial","33","359178","0.0-2.0-8.2-3.2","battery-v0.2","","""event"",""trial"",""time""
""fullscreenenter"",""1"",""4207""
","
","
","""event"",""trial"",""time""
""fullscreenenter"",""1"",""4207""
","
","","","257.40000000596046","","","17","4246","3028","&#9776;","elianto","#3366ff99"," "," ","1","0","[1108.0999999940395]","1","0","1","","","","","","","",""
"pit-trial","34","362355","0.0-2.0-8.2-4.2","battery-v0.2","","""event"",""trial"",""time""
""fullscreenenter"",""1"",""4207""
","
","
","""event"",""trial"",""time""
""fullscreenenter"",""1"",""4207""
","
","","","319.80000001192093","","","17","4246","3028","&#9776;","elianto","#3366ff99"," "," ","1","+10","[1170.9000000059605]","1","0","1","","","","","","","",""
"call-function","35","362359","0.0-2.0-9.0","battery-v0.2","","""event"",""trial"",""time""
""fullscreenenter"",""1"",""4207""
","
","
","""event"",""trial"",""time""
""fullscreenenter"",""1"",""4207""
","
","","","","","","","","","","","","","","","","","","","","","","","","","","",""
"pit-instructions","36","401234","0.0-2.0-10.0","battery-v0.2","","""event"",""trial"",""time""
""fullscreenenter"",""1"",""4207""
","
","
","""event"",""trial"",""time""
""fullscreenenter"",""1"",""4207""
","
","","[{""page_index"":0,""viewing_time"":6613.0999999940395},{""page_index"":1,""viewing_time"":6808.0999999940395},{""page_index"":2,""viewing_time"":9190.59999999404},{""page_index"":3,""viewing_time"":8814.800000011921},{""page_index"":4,""viewing_time"":7445.5}]","38873.39999997616","","","","","","","","","","","","","","","","","","","","","","","",""
"pit-trial","37","406099","0.0-2.0-11.0-0.0","battery-v0.2","","""event"",""trial"",""time""
""fullscreenenter"",""1"",""4207""
","
","
","""event"",""trial"",""time""
""fullscreenenter"",""1"",""4207""
","
","","","-1","","","17","4246","3028","&#9761;","elianto","#3366ff99","-1","-1","1","+10","[]","0","0","2","","","","","","","",""
"pit-trial","38","410964","0.0-2.0-11.0-1.0","battery-v0.2","","""event"",""trial"",""time""
""fullscreenenter"",""1"",""4207""
","
","
","""event"",""trial"",""time""
""fullscreenenter"",""1"",""4207""
","
","","","-1","","","17","4246","3028","&#9761;","elianto","#3366ff99","-1","-1","1","+10","[]","0","0","2","","","","","","","",""
"pit-trial","39","415831","0.0-2.0-11.0-2.0","battery-v0.2","","""event"",""trial"",""time""
""fullscreenenter"",""1"",""4207""
","
","
","""event"",""trial"",""time""
""fullscreenenter"",""1"",""4207""
","
","","","-1","","","17","4246","3028","&#9761;","elianto","#3366ff99","-1","-1","1","+10","[]","0","0","2","","","","","","","",""
"pit-trial","40","419188","0.0-2.0-11.0-3.0","battery-v0.2","","""event"",""trial"",""time""
""fullscreenenter"",""1"",""4207""
","
","
","""event"",""trial"",""time""
""fullscreenenter"",""1"",""4207""
","
","","","490","","","17","4246","3028","&#9761;","elianto","#3366ff99","-1"," ","0","+10","[1346.0999999940395]","1","0","2","","","","","","","",""
"pit-trial","41","422524","0.0-2.0-11.0-4.0","battery-v0.2","","""event"",""trial"",""time""
""fullscreenenter"",""1"",""4207""
","
","
","""event"",""trial"",""time""
""fullscreenenter"",""1"",""4207""
","
","","","475.40000000596046","","","17","4246","3028","&#9761;","elianto","#3366ff99","-1"," ","0","0","[1327.2000000178814]","1","0","2","","","","","","","",""
"pit-trial","42","425836","0.0-2.0-11.1-0.1","battery-v0.2","","""event"",""trial"",""time""
""fullscreenenter"",""1"",""4207""
","
","
","""event"",""trial"",""time""
""fullscreenenter"",""1"",""4207""
","
","","","446.89999997615814","","","17","4246","3028","&#9761;","elianto","#3366ff99","-1"," ","0","0","[1297.199999988079]","1","0","2","","","","","","","",""
"pit-trial","43","430691","0.0-2.0-11.1-1.1","battery-v0.2","","""event"",""trial"",""time""
""fullscreenenter"",""1"",""4207""
","
","
","""event"",""trial"",""time""
""fullscreenenter"",""1"",""4207""
","
","","","-1","","","17","4246","3028","&#9761;","elianto","#3366ff99","-1","-1","1","+10","[]","0","0","2","","","","","","","",""
"pit-trial","44","435552","0.0-2.0-11.1-2.1","battery-v0.2","","""event"",""trial"",""time""
""fullscreenenter"",""1"",""4207""
","
","
","""event"",""trial"",""time""
""fullscreenenter"",""1"",""4207""
","
","","","-1","","","17","4246","3028","&#9761;","elianto","#3366ff99","-1","-1","1","+10","[]","0","0","2","","","","","","","",""
"pit-trial","45","440417","0.0-2.0-11.1-3.1","battery-v0.2","","""event"",""trial"",""time""
""fullscreenenter"",""1"",""4207""
","
","
","""event"",""trial"",""time""
""fullscreenenter"",""1"",""4207""
","
","","","-1","","","17","4246","3028","&#9761;","elianto","#3366ff99","-1","-1","1","0","[]","0","0","2","","","","","","","",""
"pit-trial","46","445281","0.0-2.0-11.1-4.1","battery-v0.2","","""event"",""trial"",""time""
""fullscreenenter"",""1"",""4207""
","
","
","""event"",""trial"",""time""
""fullscreenenter"",""1"",""4207""
","
","","","-1","","","17","4246","3028","&#9761;","elianto","#3366ff99","-1","-1","1","+10","[]","0","0","2","","","","","","","",""
"pit-trial","47","450145","0.0-2.0-11.2-0.2","battery-v0.2","","""event"",""trial"",""time""
""fullscreenenter"",""1"",""4207""
","
","
","""event"",""trial"",""time""
""fullscreenenter"",""1"",""4207""
","
","","","-1","","","17","4246","3028","&#9761;","elianto","#3366ff99","-1","-1","1","+10","[]","0","0","2","","","","","","","",""
"pit-trial","48","455009","0.0-2.0-11.2-1.2","battery-v0.2","","""event"",""trial"",""time""
""fullscreenenter"",""1"",""4207""
","
","
","""event"",""trial"",""time""
""fullscreenenter"",""1"",""4207""
","
","","","-1","","","17","4246","3028","&#9761;","elianto","#3366ff99","-1","-1","1","+10","[]","0","0","2","","","","","","","",""
"pit-trial","49","459873","0.0-2.0-11.2-2.2","battery-v0.2","","""event"",""trial"",""time""
""fullscreenenter"",""1"",""4207""
","
","
","""event"",""trial"",""time""
""fullscreenenter"",""1"",""4207""
","
","","","-1","","","17","4246","3028","&#9761;","elianto","#3366ff99","-1","-1","1","+10","[]","0","0","2","","","","","","","",""
"pit-trial","50","464735","0.0-2.0-11.2-3.2","battery-v0.2","","""event"",""trial"",""time""
""fullscreenenter"",""1"",""4207""
","
","
","""event"",""trial"",""time""
""fullscreenenter"",""1"",""4207""
","
","","","-1","","","17","4246","3028","&#9761;","elianto","#3366ff99","-1","-1","1","0","[]","0","0","2","","","","","","","",""
"pit-trial","51","469601","0.0-2.0-11.2-4.2","battery-v0.2","","""event"",""trial"",""time""
""fullscreenenter"",""1"",""4207""
","
","
","""event"",""trial"",""time""
""fullscreenenter"",""1"",""4207""
","
","","","-1","","","17","4246","3028","&#9761;","elianto","#3366ff99","-1","-1","1","+10","[]","0","0","2","","","","","","","",""
"pit-trial","52","474465","0.0-2.0-11.3-0.3","battery-v0.2","","""event"",""trial"",""time""
""fullscreenenter"",""1"",""4207""
","
","
","""event"",""trial"",""time""
""fullscreenenter"",""1"",""4207""
","
","","","-1","","","17","4246","3028","&#9761;","elianto","#3366ff99","-1","-1","1","+10","[]","0","0","2","","","","","","","",""
"pit-trial","53","479329","0.0-2.0-11.3-1.3","battery-v0.2","","""event"",""trial"",""time""
""fullscreenenter"",""1"",""4207""
","
","
","""event"",""trial"",""time""
""fullscreenenter"",""1"",""4207""
","
","","","-1","","","17","4246","3028","&#9761;","elianto","#3366ff99","-1","-1","1","+10","[]","0","0","2","","","","","","","",""
"pit-trial","54","484192","0.0-2.0-11.3-2.3","battery-v0.2","","""event"",""trial"",""time""
""fullscreenenter"",""1"",""4207""
","
","
","""event"",""trial"",""time""
""fullscreenenter"",""1"",""4207""
","
","","","-1","","","17","4246","3028","&#9761;","elianto","#3366ff99","-1","-1","1","+10","[]","0","0","2","","","","","","","",""
"pit-trial","55","489056","0.0-2.0-11.3-3.3","battery-v0.2","","""event"",""trial"",""time""
""fullscreenenter"",""1"",""4207""
","
","
","""event"",""trial"",""time""
""fullscreenenter"",""1"",""4207""
","
","","","-1","","","17","4246","3028","&#9761;","elianto","#3366ff99","-1","-1","1","0","[]","0","0","2","","","","","","","",""
"pit-trial","56","493920","0.0-2.0-11.3-4.3","battery-v0.2","","""event"",""trial"",""time""
""fullscreenenter"",""1"",""4207""
","
","
","""event"",""trial"",""time""
""fullscreenenter"",""1"",""4207""
","
","","","-1","","","17","4246","3028","&#9761;","elianto","#3366ff99","-1","-1","1","+10","[]","0","0","2","","","","","","","",""
"call-function","57","493923","0.0-2.0-12.0","battery-v0.2","","""event"",""trial"",""time""
""fullscreenenter"",""1"",""4207""
","
","
","""event"",""trial"",""time""
""fullscreenenter"",""1"",""4207""
","
","","","","","","","","","","","","","","","","","","","","","","","","","","",""
"pit-instructions","58","524397","0.0-2.0-13.0","battery-v0.2","","""event"",""trial"",""time""
""fullscreenenter"",""1"",""4207""
","
","
","""event"",""trial"",""time""
""fullscreenenter"",""1"",""4207""
","
","","[{""page_index"":0,""viewing_time"":4355.5},{""page_index"":1,""viewing_time"":6521.700000017881},{""page_index"":2,""viewing_time"":3137.0999999940395},{""page_index"":3,""viewing_time"":11351.800000011921},{""page_index"":4,""viewing_time"":5106}]","30473.40000000596","","","","","","","","","","","","","","","","","","","","","","","",""
"pit-trial","59","527644","0.0-2.0-14.0-0.0","battery-v0.2","","""event"",""trial"",""time""
""fullscreenenter"",""1"",""4207""
","
","
","""event"",""trial"",""time""
""fullscreenenter"",""1"",""4207""
","
","","","385.40000000596046","","","17","4246","3028","&#9826;","elianto","#f73b6a7A","-1"," ","0","-10","[1236.5999999940395]","1","0","3","","","","","","","",""
"pit-trial","60","530834","0.0-2.0-14.0-1.0","battery-v0.2","","""event"",""trial"",""time""
""fullscreenenter"",""1"",""4207""
","
","
","""event"",""trial"",""time""
""fullscreenenter"",""1"",""4207""
","
","","","327.5","","","17","4246","3028","&#9826;","elianto","#f73b6a7A","-1"," ","0","-10","[1178.9000000059605]","1","0","3","","","","","","","",""
"pit-trial","61","533939","0.0-2.0-14.0-2.0","battery-v0.2","","""event"",""trial"",""time""
""fullscreenenter"",""1"",""4207""
","
","
","""event"",""trial"",""time""
""fullscreenenter"",""1"",""4207""
","
","","","243.59999999403954","","","17","4246","3028","&#9826;","elianto","#f73b6a7A","-1"," ","0","-10","[1096.5]","1","0","3","","","","","","","",""
"pit-trial","62","538804","0.0-2.0-14.0-3.0","battery-v0.2","","""event"",""trial"",""time""
""fullscreenenter"",""1"",""4207""
","
","
","""event"",""trial"",""time""
""fullscreenenter"",""1"",""4207""
","
","","","-1","","","17","4246","3028","&#9826;","elianto","#f73b6a7A","-1","-1","1","-10","[]","0","0","3","","","","","","","",""
"pit-trial","63","543667","0.0-2.0-14.0-4.0","battery-v0.2","","""event"",""trial"",""time""
""fullscreenenter"",""1"",""4207""
","
","
","""event"",""trial"",""time""
""fullscreenenter"",""1"",""4207""
","
","","","-1","","","17","4246","3028","&#9826;","elianto","#f73b6a7A","-1","-1","1","0","[]","0","0","3","","","","","","","",""
"pit-trial","64","548523","0.0-2.0-14.1-0.1","battery-v0.2","","""event"",""trial"",""time""
""fullscreenenter"",""1"",""4207""
","
","
","""event"",""trial"",""time""
""fullscreenenter"",""1"",""4207""
","
","","","-1","","","17","4246","3028","&#9826;","elianto","#f73b6a7A","-1","-1","1","0","[]","0","0","3","","","","","","","",""
"pit-trial","65","553387","0.0-2.0-14.1-1.1","battery-v0.2","","""event"",""trial"",""time""
""fullscreenenter"",""1"",""4207""
","
","
","""event"",""trial"",""time""
""fullscreenenter"",""1"",""4207""
","
","","","-1","","","17","4246","3028","&#9826;","elianto","#f73b6a7A","-1","-1","1","0","[]","0","0","3","","","","","","","",""
"pit-trial","66","558250","0.0-2.0-14.1-2.1","battery-v0.2","","""event"",""trial"",""time""
""fullscreenenter"",""1"",""4207""
","
","
","""event"",""trial"",""time""
""fullscreenenter"",""1"",""4207""
","
","","","-1","","","17","4246","3028","&#9826;","elianto","#f73b6a7A","-1","-1","1","0","[]","0","0","3","","","","","","","",""
"pit-trial","67","563115","0.0-2.0-14.1-3.1","battery-v0.2","","""event"",""trial"",""time""
""fullscreenenter"",""1"",""4207""
","
","
","""event"",""trial"",""time""
""fullscreenenter"",""1"",""4207""
","
","","","-1","","","17","4246","3028","&#9826;","elianto","#f73b6a7A","-1","-1","1","-10","[]","0","0","3","","","","","","","",""
"pit-trial","68","567979","0.0-2.0-14.1-4.1","battery-v0.2","","""event"",""trial"",""time""
""fullscreenenter"",""1"",""4207""
","
","
","""event"",""trial"",""time""
""fullscreenenter"",""1"",""4207""
","
","","","-1","","","17","4246","3028","&#9826;","elianto","#f73b6a7A","-1","-1","1","0","[]","0","0","3","","","","","","","",""
"pit-trial","69","572844","0.0-2.0-14.2-0.2","battery-v0.2","","""event"",""trial"",""time""
""fullscreenenter"",""1"",""4207""
","
","
","""event"",""trial"",""time""
""fullscreenenter"",""1"",""4207""
","
","","","-1","","","17","4246","3028","&#9826;","elianto","#f73b6a7A","-1","-1","1","0","[]","0","0","3","","","","","","","",""
"pit-trial","70","577707","0.0-2.0-14.2-1.2","battery-v0.2","","""event"",""trial"",""time""
""fullscreenenter"",""1"",""4207""
","
","
","""event"",""trial"",""time""
""fullscreenenter"",""1"",""4207""
","
","","","-1","","","17","4246","3028","&#9826;","elianto","#f73b6a7A","-1","-1","1","0","[]","0","0","3","","","","","","","",""
"pit-trial","71","582572","0.0-2.0-14.2-2.2","battery-v0.2","","""event"",""trial"",""time""
""fullscreenenter"",""1"",""4207""
","
","
","""event"",""trial"",""time""
""fullscreenenter"",""1"",""4207""
","
","","","-1","","","17","4246","3028","&#9826;","elianto","#f73b6a7A","-1","-1","1","0","[]","0","0","3","","","","","","","",""
"pit-trial","72","587435","0.0-2.0-14.2-3.2","battery-v0.2","","""event"",""trial"",""time""
""fullscreenenter"",""1"",""4207""
","
","
","""event"",""trial"",""time""
""fullscreenenter"",""1"",""4207""
","
","","","-1","","","17","4246","3028","&#9826;","elianto","#f73b6a7A","-1","-1","1","-10","[]","0","0","3","","","","","","","",""
"pit-trial","73","592300","0.0-2.0-14.2-4.2","battery-v0.2","","""event"",""trial"",""time""
""fullscreenenter"",""1"",""4207""
","
","
","""event"",""trial"",""time""
""fullscreenenter"",""1"",""4207""
","
","","","-1","","","17","4246","3028","&#9826;","elianto","#f73b6a7A","-1","-1","1","0","[]","0","0","3","","","","","","","",""
"pit-trial","74","597171","0.0-2.0-14.3-0.3","battery-v0.2","","""event"",""trial"",""time""
""fullscreenenter"",""1"",""4207""
","
","
","""event"",""trial"",""time""
""fullscreenenter"",""1"",""4207""
","
","","","-1","","","17","4246","3028","&#9826;","elianto","#f73b6a7A","-1","-1","1","0","[]","0","0","3","","","","","","","",""
"pit-trial","75","602036","0.0-2.0-14.3-1.3","battery-v0.2","","""event"",""trial"",""time""
""fullscreenenter"",""1"",""4207""
","
","
","""event"",""trial"",""time""
""fullscreenenter"",""1"",""4207""
","
","","","-1","","","17","4246","3028","&#9826;","elianto","#f73b6a7A","-1","-1","1","0","[]","0","0","3","","","","","","","",""
"pit-trial","76","606899","0.0-2.0-14.3-2.3","battery-v0.2","","""event"",""trial"",""time""
""fullscreenenter"",""1"",""4207""
","
","
","""event"",""trial"",""time""
""fullscreenenter"",""1"",""4207""
","
","","","-1","","","17","4246","3028","&#9826;","elianto","#f73b6a7A","-1","-1","1","0","[]","0","0","3","","","","","","","",""
"pit-trial","77","611763","0.0-2.0-14.3-3.3","battery-v0.2","","""event"",""trial"",""time""
""fullscreenenter"",""1"",""4207""
","
","
","""event"",""trial"",""time""
""fullscreenenter"",""1"",""4207""
","
","","","-1","","","17","4246","3028","&#9826;","elianto","#f73b6a7A","-1","-1","1","-10","[]","0","0","3","","","","","","","",""
"pit-trial","78","616619","0.0-2.0-14.3-4.3","battery-v0.2","","""event"",""trial"",""time""
""fullscreenenter"",""1"",""4207""
","
","
","""event"",""trial"",""time""
""fullscreenenter"",""1"",""4207""
","
","","","-1","","","17","4246","3028","&#9826;","elianto","#f73b6a7A","-1","-1","1","0","[]","0","0","3","","","","","","","",""
"call-function","79","616622","0.0-2.0-15.0","battery-v0.2","","""event"",""trial"",""time""
""fullscreenenter"",""1"",""4207""
","
","
","""event"",""trial"",""time""
""fullscreenenter"",""1"",""4207""
","
","","","","","","","","","","","","","","","","","","","","","","","","","","",""
"pit-instructions","80","643574","0.0-2.0-16.0","battery-v0.2","","""event"",""trial"",""time""
""fullscreenenter"",""1"",""4207""
","
","
","""event"",""trial"",""time""
""fullscreenenter"",""1"",""4207""
","
","","[{""page_index"":0,""viewing_time"":7083.300000011921},{""page_index"":1,""viewing_time"":9019.799999982119},{""page_index"":2,""viewing_time"":4720.4000000059605},{""page_index"":3,""viewing_time"":6126.5999999940395}]","26951.5","","","","","","","","","","","","","","","","","","","","","","","",""
"pit-trial","81","646810","0.0-2.0-17.0-0.0","battery-v0.2","","""event"",""trial"",""time""
""fullscreenenter"",""1"",""4207""
","
","
","""event"",""trial"",""time""
""fullscreenenter"",""1"",""4207""
","
","","","372.7999999821186","","","17","4246","3028","&#9789;","elianto","#f73b6a7A"," "," ","1","0","[1229]","1","0","4","","","","","","","",""
"pit-trial","82","649931","0.0-2.0-17.0-1.0","battery-v0.2","","""event"",""trial"",""time""
""fullscreenenter"",""1"",""4207""
","
","
","""event"",""trial"",""time""
""fullscreenenter"",""1"",""4207""
","
","","","255.19999998807907","","","17","4246","3028","&#9789;","elianto","#f73b6a7A"," "," ","1","0","[1107.699999988079]","1","0","4","","","","","","","",""
"pit-trial","83","652971","0.0-2.0-17.0-2.0","battery-v0.2","","""event"",""trial"",""time""
""fullscreenenter"",""1"",""4207""
","
","
","""event"",""trial"",""time""
""fullscreenenter"",""1"",""4207""
","
","","","183.30000001192093","","","17","4246","3028","&#9789;","elianto","#f73b6a7A"," "," ","1","0","[1034.300000011921]","1","0","4","","","","","","","",""
"pit-trial","84","656140","0.0-2.0-17.0-3.0","battery-v0.2","","""event"",""trial"",""time""
""fullscreenenter"",""1"",""4207""
","
","
","""event"",""trial"",""time""
""fullscreenenter"",""1"",""4207""
","
","","","303.09999999403954","","","17","4246","3028","&#9789;","elianto","#f73b6a7A"," "," ","1","-10","[1155.7000000178814]","1","0","4","","","","","","","",""
"pit-trial","85","659179","0.0-2.0-17.0-4.0","battery-v0.2","","""event"",""trial"",""time""
""fullscreenenter"",""1"",""4207""
","
","
","""event"",""trial"",""time""
""fullscreenenter"",""1"",""4207""
","
","","","182.69999998807907","","","17","4246","3028","&#9789;","elianto","#f73b6a7A"," "," ","1","0","[1033.5999999940395]","1","0","4","","","","","","","",""
"pit-trial","86","662212","0.0-2.0-17.1-0.1","battery-v0.2","","""event"",""trial"",""time""
""fullscreenenter"",""1"",""4207""
","
","
","""event"",""trial"",""time""
""fullscreenenter"",""1"",""4207""
","
","","","160.5","","","17","4246","3028","&#9789;","elianto","#f73b6a7A"," "," ","1","0","[1019]","1","0","4","","","","","","","",""
"pit-trial","87","667075","0.0-2.0-17.1-1.1","battery-v0.2","","""event"",""trial"",""time""
""fullscreenenter"",""1"",""4207""
","
","
","""event"",""trial"",""time""
""fullscreenenter"",""1"",""4207""
","
","","","-1","","","17","4246","3028","&#9789;","elianto","#f73b6a7A"," ","-1","0","-10","[]","0","0","4","","","","","","","",""
"pit-trial","88","670179","0.0-2.0-17.1-2.1","battery-v0.2","","""event"",""trial"",""time""
""fullscreenenter"",""1"",""4207""
","
","
","""event"",""trial"",""time""
""fullscreenenter"",""1"",""4207""
","
","","","245.59999999403954","","","17","4246","3028","&#9789;","elianto","#f73b6a7A"," "," ","1","0","[1097.2999999821186]","1","0","4","","","","","","","",""
"pit-trial","89","673204","0.0-2.0-17.1-3.1","battery-v0.2","","""event"",""trial"",""time""
""fullscreenenter"",""1"",""4207""
","
","
","""event"",""trial"",""time""
""fullscreenenter"",""1"",""4207""
","
","","","168.40000000596046","","","17","4246","3028","&#9789;","elianto","#f73b6a7A"," "," ","1","-10","[1020.7000000178814]","1","0","4","","","","","","","",""
"pit-trial","90","676242","0.0-2.0-17.1-4.1","battery-v0.2","","""event"",""trial"",""time""
""fullscreenenter"",""1"",""4207""
","
","
","""event"",""trial"",""time""
""fullscreenenter"",""1"",""4207""
","
","","","182.40000000596046","","","17","4246","3028","&#9789;","elianto","#f73b6a7A"," "," ","1","0","[1032.800000011921]","1","0","4","","","","","","","",""
"pit-trial","91","679242","0.0-2.0-17.2-0.2","battery-v0.2","","""event"",""trial"",""time""
""fullscreenenter"",""1"",""4207""
","
","
","""event"",""trial"",""time""
""fullscreenenter"",""1"",""4207""
","
","","","139.2000000178814","","","17","4246","3028","&#9789;","elianto","#f73b6a7A"," "," ","1","0","[994]","1","0","4","","","","","","","",""
"pit-trial","92","682274","0.0-2.0-17.2-1.2","battery-v0.2","","""event"",""trial"",""time""
""fullscreenenter"",""1"",""4207""
","
","
","""event"",""trial"",""time""
""fullscreenenter"",""1"",""4207""
","
","","","173.09999999403954","","","17","4246","3028","&#9789;","elianto","#f73b6a7A"," "," ","1","0","[1025.4000000059605]","1","0","4","","","","","","","",""
"pit-trial","93","685322","0.0-2.0-17.2-2.2","battery-v0.2","","""event"",""trial"",""time""
""fullscreenenter"",""1"",""4207""
","
","
","""event"",""trial"",""time""
""fullscreenenter"",""1"",""4207""
","
","","","186.90000000596046","","","17","4246","3028","&#9789;","elianto","#f73b6a7A"," "," ","1","0","[1040.7000000178814]","1","0","4","","","","","","","",""
"pit-trial","94","688491","0.0-2.0-17.2-3.2","battery-v0.2","","""event"",""trial"",""time""
""fullscreenenter"",""1"",""4207""
","
","
","""event"",""trial"",""time""
""fullscreenenter"",""1"",""4207""
","
","","","307.40000000596046","","","17","4246","3028","&#9789;","elianto","#f73b6a7A"," "," ","1","-10","[1160.5]","1","0","4","","","","","","","",""
"pit-trial","95","691483","0.0-2.0-17.2-4.2","battery-v0.2","","""event"",""trial"",""time""
""fullscreenenter"",""1"",""4207""
","
","
","""event"",""trial"",""time""
""fullscreenenter"",""1"",""4207""
","
","","","133.30000001192093","","","17","4246","3028","&#9789;","elianto","#f73b6a7A"," "," ","1","0","[983.6999999880791]","1","0","4","","","","","","","",""
"pit-trial","96","694490","0.0-2.0-17.3-0.3","battery-v0.2","","""event"",""trial"",""time""
""fullscreenenter"",""1"",""4207""
","
","
","""event"",""trial"",""time""
""fullscreenenter"",""1"",""4207""
","
","","","144.7000000178814","","","17","4246","3028","&#9789;","elianto","#f73b6a7A"," "," ","1","0","[995.5]","1","0","4","","","","","","","",""
"pit-trial","97","697474","0.0-2.0-17.3-1.3","battery-v0.2","","""event"",""trial"",""time""
""fullscreenenter"",""1"",""4207""
","
","
","""event"",""trial"",""time""
""fullscreenenter"",""1"",""4207""
","
","","","122.5","","","17","4246","3028","&#9789;","elianto","#f73b6a7A"," "," ","1","0","[973.5999999940395]","1","0","4","","","","","","","",""
"pit-trial","98","700456","0.0-2.0-17.3-2.3","battery-v0.2","","""event"",""trial"",""time""
""fullscreenenter"",""1"",""4207""
","
","
","""event"",""trial"",""time""
""fullscreenenter"",""1"",""4207""
","
","","","125","","","17","4246","3028","&#9789;","elianto","#f73b6a7A"," "," ","1","0","[975.2000000178814]","1","0","4","","","","","","","",""
"pit-trial","99","703498","0.0-2.0-17.3-3.3","battery-v0.2","","""event"",""trial"",""time""
""fullscreenenter"",""1"",""4207""
","
","
","""event"",""trial"",""time""
""fullscreenenter"",""1"",""4207""
","
","","","177.19999998807907","","","17","4246","3028","&#9789;","elianto","#f73b6a7A"," "," ","1","-10","[1032.199999988079]","1","0","4","","","","","","","",""
"pit-trial","100","706531","0.0-2.0-17.3-4.3","battery-v0.2","","""event"",""trial"",""time""
""fullscreenenter"",""1"",""4207""
","
","
","""event"",""trial"",""time""
""fullscreenenter"",""1"",""4207""
","
","","","171.90000000596046","","","17","4246","3028","&#9789;","elianto","#f73b6a7A"," "," ","1","0","[1023.3000000119209]","1","0","4","","","","","","","",""
"call-function","101","706534","0.0-2.0-18.0","battery-v0.2","","""event"",""trial"",""time""
""fullscreenenter"",""1"",""4207""
","
","
","""event"",""trial"",""time""
""fullscreenenter"",""1"",""4207""
","
","","","","","","","","","","","","","","","","","","","","","","","","","","",""
"pit-instructions","102","774206","0.0-2.0-19.0","battery-v0.2","","""event"",""trial"",""time""
""fullscreenenter"",""1"",""4207""
","
","
","""event"",""trial"",""time""
""fullscreenenter"",""1"",""4207""
","
","","[{""page_index"":0,""viewing_time"":6821.799999982119},{""page_index"":1,""viewing_time"":5890.300000011921},{""page_index"":2,""viewing_time"":12170.5},{""page_index"":3,""viewing_time"":8882.699999988079},{""page_index"":4,""viewing_time"":7167.200000017881},{""page_index"":5,""viewing_time"":8569.5},{""page_index"":6,""viewing_time"":7895.5999999940395},{""page_index"":7,""viewing_time"":6506.4000000059605},{""page_index"":8,""viewing_time"":3764.7999999821186}]","67670.29999998212","","","","","","","","","","","","","","","","","","","","","","","",""
"pit-comprehension","103","779568","0.0-2.0-20.0-0.0","battery-v0.2","","""event"",""trial"",""time""
""fullscreenenter"",""1"",""4207""
","
","
","""event"",""trial"",""time""
""fullscreenenter"",""1"",""4207""
","
","","","5352.300000011921","[""SPACE""]","0","17","4246","3028","","","","","","","","","","","","","","","","","","",""
"pit-instructions","104","782330","0.0-2.0-20.0-1.0","battery-v0.2","","""event"",""trial"",""time""
""fullscreenenter"",""1"",""4207""
","
","
","""event"",""trial"",""time""
""fullscreenenter"",""1"",""4207""
","
","","[{""page_index"":0,""viewing_time"":2704.0999999940395}]","2705.800000011921","","","","","","","","","","","","","","","","","","","","","","","",""
"pit-comprehension","105","789203","0.0-2.0-21.0-0.0","battery-v0.2","","""event"",""trial"",""time""
""fullscreenenter"",""1"",""4207""
","
","
","""event"",""trial"",""time""
""fullscreenenter"",""1"",""4207""
","
","","","6865.300000011921","[""10""]","0","17","4246","3028","","","","","","","","","","","","","","","","","","",""
"pit-instructions","106","791063","0.0-2.0-21.0-1.0","battery-v0.2","","""event"",""trial"",""time""
""fullscreenenter"",""1"",""4207""
","
","
","""event"",""trial"",""time""
""fullscreenenter"",""1"",""4207""
","
","","[{""page_index"":0,""viewing_time"":1825.5999999940395}]","1825.7999999821186","","","","","","","","","","","","","","","","","","","","","","","",""
"pit-comprehension","107","797829","0.0-2.0-22.0-0.0","battery-v0.2","","""event"",""trial"",""time""
""fullscreenenter"",""1"",""4207""
","
","
","""event"",""trial"",""time""
""fullscreenenter"",""1"",""4207""
","
","","","6762.300000011921","[""0""]","0","17","4246","3028","","","","","","","","","","","","","","","","","","",""
"pit-instructions","108","799847","0.0-2.0-22.0-1.0","battery-v0.2","","""event"",""trial"",""time""
""fullscreenenter"",""1"",""4207""
","
","
","""event"",""trial"",""time""
""fullscreenenter"",""1"",""4207""
","
","","[{""page_index"":0,""viewing_time"":1984}]","1984.4000000059605","","","","","","","","","","","","","","","","","","","","","","","",""
"pit-comprehension","109","818248","0.0-2.0-23.0-0.0","battery-v0.2","","""event"",""trial"",""time""
""fullscreenenter"",""1"",""4207""
","
","
","""event"",""trial"",""time""
""fullscreenenter"",""1"",""4207""
","
","","","18396.70000001788","[""True""]","0","17","4246","3028","","","","","","","","","","","","","","","","","","",""
"pit-instructions","110","820029","0.0-2.0-23.0-1.0","battery-v0.2","","""event"",""trial"",""time""
""fullscreenenter"",""1"",""4207""
","
","
","""event"",""trial"",""time""
""fullscreenenter"",""1"",""4207""
","
","","[{""page_index"":0,""viewing_time"":1735.7000000178814}]","1736.300000011921","","","","","","","","","","","","","","","","","","","","","","","",""
"pit-comprehension","111","827492","0.0-2.0-24.0-0.0","battery-v0.2","","""event"",""trial"",""time""
""fullscreenenter"",""1"",""4207""
","
","
","""event"",""trial"",""time""
""fullscreenenter"",""1"",""4207""
","
","","","7457.0999999940395","[""True""]","0","17","4246","3028","","","","","","","","","","","","","","","","","","",""
"pit-instructions","112","829426","0.0-2.0-24.0-1.0","battery-v0.2","","""event"",""trial"",""time""
""fullscreenenter"",""1"",""4207""
","
","
","""event"",""trial"",""time""
""fullscreenenter"",""1"",""4207""
","
","","[{""page_index"":0,""viewing_time"":1882.6000000238419}]","1883.300000011921","","","","","","","","","","","","","","","","","","","","","","","",""
"pit-comprehension","113","836132","0.0-2.0-25.0-0.0","battery-v0.2","","""event"",""trial"",""time""
""fullscreenenter"",""1"",""4207""
","
","
","""event"",""trial"",""time""
""fullscreenenter"",""1"",""4207""
","
","","","6700","[""True""]","0","17","4246","3028","","","","","","","","","","","","","","","","","","",""
"pit-instructions","114","838895","0.0-2.0-25.0-1.0","battery-v0.2","","""event"",""trial"",""time""
""fullscreenenter"",""1"",""4207""
","
","
","""event"",""trial"",""time""
""fullscreenenter"",""1"",""4207""
","
","","[{""page_index"":0,""viewing_time"":2720.9000000059605}]","2722.2000000178814","","","","","","","","","","","","","","","","","","","","","","","",""
"pit-comprehension","115","843966","0.0-2.0-26.0-0.0","battery-v0.2","","""event"",""trial"",""time""
""fullscreenenter"",""1"",""4207""
","
","
","""event"",""trial"",""time""
""fullscreenenter"",""1"",""4207""
","
","","","5063.199999988079","[""False""]","0","17","4246","3028","","","","","","","","","","","","","","","","","","",""
"pit-instructions","116","845823","0.0-2.0-26.0-1.0","battery-v0.2","","""event"",""trial"",""time""
""fullscreenenter"",""1"",""4207""
","
","
","""event"",""trial"",""time""
""fullscreenenter"",""1"",""4207""
","
","","[{""page_index"":0,""viewing_time"":1809.800000011921}]","1810.199999988079","","","","","","","","","","","","","","","","","","","","","","","",""
"pit-instructions","117","862735","0.0-3.0","battery-v0.2","","""event"",""trial"",""time""
""fullscreenenter"",""1"",""4207""
","
","
","""event"",""trial"",""time""
""fullscreenenter"",""1"",""4207""
","
","","[{""page_index"":0,""viewing_time"":3682},{""page_index"":1,""viewing_time"":5538.700000017881},{""page_index"":2,""viewing_time"":7687.5}]","16909.40000000596","","","","","","","","","","","","","","","","","","","","","","","",""
"pit-trial","118","866027","0.0-4.0","battery-v0.2","","""event"",""trial"",""time""
""fullscreenenter"",""1"",""4207""
","
","
","""event"",""trial"",""time""
""fullscreenenter"",""1"",""4207""
","
","","","426.90000000596046","","","17","4246","3028","&#9752;","elianto","#f73b6a7A"," "," ","1","0","[1279.0999999940395]","1","1","","","4246","1","3","3","lose","go","0"
"pit-trial","119","869203","0.0-5.0","battery-v0.2","","""event"",""trial"",""time""
""fullscreenenter"",""1"",""4207""
","
","
","""event"",""trial"",""time""
""fullscreenenter"",""1"",""4207""
","
","","","321.2999999821186","","","17","4246","3028","&#9728;","elianto","#f73b6a7A","-1"," ","0","-10","[1172.5]","1","1","","","4246","2","0","4","lose","no-go","0"
"pit-trial","120","872411","0.0-6.0","battery-v0.2","","""event"",""trial"",""time""
""fullscreenenter"",""1"",""4207""
","
","
","""event"",""trial"",""time""
""fullscreenenter"",""1"",""4207""
","
","","","343.90000000596046","","","17","4246","3028","&#9730;","elianto","#3366ff99"," "," ","1","+10","[1195.9000000059605]","1","1","","","4246","3","1","1","win","go","0"
"pit-trial","121","875787","0.0-7.0","battery-v0.2","","""event"",""trial"",""time""
""fullscreenenter"",""1"",""4207""
","
","
","""event"",""trial"",""time""
""fullscreenenter"",""1"",""4207""
","
","","","517","","","17","4246","3028","&#9733;","elianto","#3366ff99","-1"," ","0","0","[1369.2000000178814]","1","1","","","4246","4","2","2","win","no-go","0"
"pit-trial","122","879107","0.0-8.0","battery-v0.2","","""event"",""trial"",""time""
""fullscreenenter"",""1"",""4207""
","
","
","""event"",""trial"",""time""
""fullscreenenter"",""1"",""4207""
","
","","","460.2000000178814","","","17","4246","3028","&#9752;","elianto","#f73b6a7A"," "," ","1","0","[1312.5]","1","1","","","4246","5","3","3","lose","go","0"
"pit-trial","123","882435","0.0-9.0","battery-v0.2","","""event"",""trial"",""time""
""fullscreenenter"",""1"",""4207""
","
","
","""event"",""trial"",""time""
""fullscreenenter"",""1"",""4207""
","
","","","464.10000002384186","","","17","4246","3028","&#9728;","elianto","#f73b6a7A","-1"," ","0","0","[1316.2999999821186]","1","1","","","4246","6","0","4","lose","no-go","1"
"pit-trial","124","885851","0.0-10.0","battery-v0.2","","""event"",""trial"",""time""
""fullscreenenter"",""1"",""4207""
","
","
","""event"",""trial"",""time""
""fullscreenenter"",""1"",""4207""
","
","","","557.9000000059605","","","17","4246","3028","&#9733;","elianto","#3366ff99","-1"," ","0","0","[1410.2000000178814]","1","1","","","4246","7","2","2","win","no-go","0"
"pit-trial","125","889851","0.0-11.0","battery-v0.2","","""event"",""trial"",""time""
""fullscreenenter"",""1"",""4207""
","
","
","""event"",""trial"",""time""
""fullscreenenter"",""1"",""4207""
","
","","","1141.300000011921","","","17","4246","3028","&#9730;","elianto","#3366ff99"," "," ","1","0","[1992.4000000059605]","1","1","","","4246","8","1","1","win","go","1"
"pit-trial","126","893890","0.0-12.0","battery-v0.2","","""event"",""trial"",""time""
""fullscreenenter"",""1"",""4207""
","
","
","""event"",""trial"",""time""
""fullscreenenter"",""1"",""4207""
","
","","","1176","","","17","4246","3028","&#9728;","elianto","#f73b6a7A","-1"," ","0","-10","[2027.199999988079]","1","1","","","4246","9","0","4","lose","no-go","0"
"pit-trial","127","898755","0.0-13.0","battery-v0.2","","""event"",""trial"",""time""
""fullscreenenter"",""1"",""4207""
","
","
","""event"",""trial"",""time""
""fullscreenenter"",""1"",""4207""
","
","","","-1","","","17","4246","3028","&#9733;","elianto","#3366ff99","-1","-1","1","+10","[]","0","1","","","4246","10","2","2","win","no-go","0"
"pit-trial","128","902794","0.0-14.0","battery-v0.2","","""event"",""trial"",""time""
""fullscreenenter"",""1"",""4207""
","
","
","""event"",""trial"",""time""
""fullscreenenter"",""1"",""4207""
","
","","","1183.0999999940395","","","17","4246","3028","&#9752;","elianto","#f73b6a7A"," "," ","1","0","[2035.9000000059605]","1","1","","","4246","11","3","3","lose","go","0"
"pit-trial","129","907658","0.0-15.0","battery-v0.2","","""event"",""trial"",""time""
""fullscreenenter"",""1"",""4207""
","
","
","""event"",""trial"",""time""
""fullscreenenter"",""1"",""4207""
","
","","","-1","","","17","4246","3028","&#9730;","elianto","#3366ff99"," ","-1","0","+10","[]","0","1","","","4246","12","1","1","win","go","1"
"pit-trial","130","912522","0.0-16.0","battery-v0.2","","""event"",""trial"",""time""
""fullscreenenter"",""1"",""4207""
","
","
","""event"",""trial"",""time""
""fullscreenenter"",""1"",""4207""
","
","","","-1","","","17","4246","3028","&#9728;","elianto","#f73b6a7A","-1","-1","1","0","[]","0","1","","","4246","13","0","4","lose","no-go","0"
"pit-trial","131","916698","0.0-17.0","battery-v0.2","","""event"",""trial"",""time""
""fullscreenenter"",""1"",""4207""
","
","
","""event"",""trial"",""time""
""fullscreenenter"",""1"",""4207""
","
","","","1318.4000000059605","","","17","4246","3028","&#9752;","elianto","#f73b6a7A"," "," ","1","0","[2171.100000023842]","1","1","","","4246","14","3","3","lose","go","0"
"pit-trial","132","921563","0.0-18.0","battery-v0.2","","""event"",""trial"",""time""
""fullscreenenter"",""1"",""4207""
","
","
","""event"",""trial"",""time""
""fullscreenenter"",""1"",""4207""
","
","","","-1","","","17","4246","3028","&#9730;","elianto","#3366ff99"," ","-1","0","+10","[]","0","1","","","4246","15","1","1","win","go","1"
"pit-trial","133","926426","0.0-19.0","battery-v0.2","","""event"",""trial"",""time""
""fullscreenenter"",""1"",""4207""
","
","
","""event"",""trial"",""time""
""fullscreenenter"",""1"",""4207""
","
","","","-1","","","17","4246","3028","&#9733;","elianto","#3366ff99","-1","-1","1","+10","[]","0","1","","","4246","16","2","2","win","no-go","0"
"pit-trial","134","931291","0.0-20.0","battery-v0.2","","""event"",""trial"",""time""
""fullscreenenter"",""1"",""4207""
","
","
","""event"",""trial"",""time""
""fullscreenenter"",""1"",""4207""
","
","","","-1","","","17","4246","3028","&#9733;","elianto","#3366ff99","-1","-1","1","+10","[]","0","1","","","4246","17","2","2","win","no-go","0"
"pit-trial","135","936155","0.0-21.0","battery-v0.2","","""event"",""trial"",""time""
""fullscreenenter"",""1"",""4207""
","
","
","""event"",""trial"",""time""
""fullscreenenter"",""1"",""4207""
","
","","","-1","","","17","4246","3028","&#9730;","elianto","#3366ff99"," ","-1","0","0","[]","0","1","","","4246","18","1","1","win","go","0"
"pit-trial","136","941019","0.0-22.0","battery-v0.2","","""event"",""trial"",""time""
""fullscreenenter"",""1"",""4207""
","
","
","""event"",""trial"",""time""
""fullscreenenter"",""1"",""4207""
","
","","","-1","","","17","4246","3028","&#9728;","elianto","#f73b6a7A","-1","-1","1","0","[]","0","1","","","4246","19","0","4","lose","no-go","0"
"pit-trial","137","944717","0.0-23.0","battery-v0.2","","""event"",""trial"",""time""
""fullscreenenter"",""1"",""4207""
","
","
","""event"",""trial"",""time""
""fullscreenenter"",""1"",""4207""
","
","","","839.3000000119209","","","17","4246","3028","&#9752;","elianto","#f73b6a7A"," "," ","1","-10","[1690.9000000059605]","1","1","","","4246","20","3","3","lose","go","1"
"pit-instructions","138","958016","0.0-24.0","battery-v0.2","","""event"",""trial"",""time""
""fullscreenenter"",""1"",""4207""
","
","
","""event"",""trial"",""time""
""fullscreenenter"",""1"",""4207""
","
","","[{""page_index"":0,""viewing_time"":6285.100000023842},{""page_index"":1,""viewing_time"":7011.5}]","13297.40000000596","","","","","","","","","","","","","","","","","","","","","","","",""
"pit-trial","139","961691","0.0-25.0","battery-v0.2","","""event"",""trial"",""time""
""fullscreenenter"",""1"",""4207""
","
","
","""event"",""trial"",""time""
""fullscreenenter"",""1"",""4207""
","
","","","813.7999999821186","","","17","4246","3028","m","elianto","#f73b6a7A"," "," ","1","0","[1668.699999988079]","1","2","","","4246","21","0","3","lose","go","0"
"pit-trial","140","965090","0.0-26.0","battery-v0.2","","""event"",""trial"",""time""
""fullscreenenter"",""1"",""4207""
","
","
","""event"",""trial"",""time""
""fullscreenenter"",""1"",""4207""
","
","","","539.1999999880791","","","17","4246","3028","y","elianto","#f73b6a7A"," "," ","1","0","[1390.199999988079]","1","2","","","4246","22","2","3","lose","go","0"
"pit-trial","141","968619","0.0-27.0","battery-v0.2","","""event"",""trial"",""time""
""fullscreenenter"",""1"",""4207""
","
","
","""event"",""trial"",""time""
""fullscreenenter"",""1"",""4207""
","
","","","671.4000000059605","","","17","4246","3028","h","elianto","#f73b6a7A","-1"," ","0","0","[1521.800000011921]","1","2","","","4246","23","3","4","lose","no-go","1"
"pit-trial","142","973475","0.0-28.0","battery-v0.2","","""event"",""trial"",""time""
""fullscreenenter"",""1"",""4207""
","
","
","""event"",""trial"",""time""
""fullscreenenter"",""1"",""4207""
","
","","","-1","","","17","4246","3028","r","elianto","#3366ff99","-1","-1","1","+10","[]","0","2","","","4246","24","1","2","win","no-go","0"
"pit-trial","143","977019","0.0-29.0","battery-v0.2","","""event"",""trial"",""time""
""fullscreenenter"",""1"",""4207""
","
","
","""event"",""trial"",""time""
""fullscreenenter"",""1"",""4207""
","
","","","685.6999999880791","","","17","4246","3028","y","elianto","#f73b6a7A"," "," ","1","0","[1538.0999999940395]","1","2","","","4246","25","2","3","lose","go","0"
"pit-trial","144","981506","0.0-30.0","battery-v0.2","","""event"",""trial"",""time""
""fullscreenenter"",""1"",""4207""
","
","
","""event"",""trial"",""time""
""fullscreenenter"",""1"",""4207""
","
","","","1628.5999999940395","","","17","4246","3028","h","elianto","#f73b6a7A","-1"," ","0","-10","[2478.800000011921]","1","2","","","4246","26","3","4","lose","no-go","0"
"pit-trial","145","985682","0.0-31.0","battery-v0.2","","""event"",""trial"",""time""
""fullscreenenter"",""1"",""4207""
","
","
","""event"",""trial"",""time""
""fullscreenenter"",""1"",""4207""
","
","","","1316.9000000059605","","","17","4246","3028","m","elianto","#f73b6a7A"," "," ","1","0","[2170]","1","2","","","4246","27","0","3","lose","go","0"
"pit-trial","146","990546","0.0-32.0","battery-v0.2","","""event"",""trial"",""time""
""fullscreenenter"",""1"",""4207""
","
","
","""event"",""trial"",""time""
""fullscreenenter"",""1"",""4207""
","
","","","-1","","","17","4246","3028","r","elianto","#3366ff99","-1","-1","1","0","[]","0","2","","","4246","28","1","2","win","no-go","1"
"pit-trial","147","994547","0.0-33.0","battery-v0.2","","""event"",""trial"",""time""
""fullscreenenter"",""1"",""4207""
","
","
","""event"",""trial"",""time""
""fullscreenenter"",""1"",""4207""
","
","","","1144","","","17","4246","3028","m","elianto","#f73b6a7A"," "," ","1","-10","[1994.5999999940395]","1","2","","","4246","29","0","3","lose","go","1"
"pit-trial","148","999407","0.0-34.0","battery-v0.2","","""event"",""trial"",""time""
""fullscreenenter"",""1"",""4207""
","
","
","""event"",""trial"",""time""
""fullscreenenter"",""1"",""4207""
","
","","","-1","","","17","4246","3028","y","elianto","#f73b6a7A"," ","-1","0","-10","[]","0","2","","","4246","30","2","3","lose","go","0"
"pit-trial","149","1003996","0.0-35.0","battery-v0.2","","""event"",""trial"",""time""
""fullscreenenter"",""1"",""4207""
","
","
","""event"",""trial"",""time""
""fullscreenenter"",""1"",""4207""
","
","","","1726.7000000178814","","","17","4246","3028","r","elianto","#3366ff99","-1"," ","0","0","[2577.2000000178814]","1","2","","","4246","31","1","2","win","no-go","0"
"pit-trial","150","1008715","0.0-36.0","battery-v0.2","","""event"",""trial"",""time""
""fullscreenenter"",""1"",""4207""
","
","
","""event"",""trial"",""time""
""fullscreenenter"",""1"",""4207""
","
","","","1861.199999988079","","","17","4246","3028","h","elianto","#f73b6a7A","-1"," ","0","-10","[2712.800000011921]","1","2","","","4246","32","3","4","lose","no-go","0"
"pit-trial","151","1013580","0.0-37.0","battery-v0.2","","""event"",""trial"",""time""
""fullscreenenter"",""1"",""4207""
","
","
","""event"",""trial"",""time""
""fullscreenenter"",""1"",""4207""
","
","","","-1","","","17","4246","3028","m","elianto","#f73b6a7A"," ","-1","0","-10","[]","0","2","","","4246","33","0","3","lose","go","0"
"pit-trial","152","1018447","0.0-38.0","battery-v0.2","","""event"",""trial"",""time""
""fullscreenenter"",""1"",""4207""
","
","
","""event"",""trial"",""time""
""fullscreenenter"",""1"",""4207""
","
","","","-1","","","17","4246","3028","h","elianto","#f73b6a7A","-1","-1","1","0","[]","0","2","","","4246","34","3","4","lose","no-go","0"
"pit-trial","153","1023035","0.0-39.0","battery-v0.2","","""event"",""trial"",""time""
""fullscreenenter"",""1"",""4207""
","
","
","""event"",""trial"",""time""
""fullscreenenter"",""1"",""4207""
","
","","","1722","","","17","4246","3028","r","elianto","#3366ff99","-1"," ","0","+10","[2577.2000000178814]","1","2","","","4246","35","1","2","win","no-go","1"
"pit-trial","154","1027467","0.0-40.0","battery-v0.2","","""event"",""trial"",""time""
""fullscreenenter"",""1"",""4207""
","
","
","""event"",""trial"",""time""
""fullscreenenter"",""1"",""4207""
","
","","","1573.5","","","17","4246","3028","y","elianto","#f73b6a7A"," "," ","1","-10","[2426.0999999940395]","1","2","","","4246","36","2","3","lose","go","1"
"pit-trial","155","1032331","0.0-41.0","battery-v0.2","","""event"",""trial"",""time""
""fullscreenenter"",""1"",""4207""
","
","
","""event"",""trial"",""time""
""fullscreenenter"",""1"",""4207""
","
","","","-1","","","17","4246","3028","y","elianto","#f73b6a7A"," ","-1","0","0","[]","0","2","","","4246","37","2","3","lose","go","1"
"pit-trial","156","1036546","0.0-42.0","battery-v0.2","","""event"",""trial"",""time""
""fullscreenenter"",""1"",""4207""
","
","
","""event"",""trial"",""time""
""fullscreenenter"",""1"",""4207""
","
","","","1356.199999988079","","","17","4246","3028","r","elianto","#3366ff99","-1"," ","0","0","[2208.9000000059605]","1","2","","","4246","38","1","2","win","no-go","0"
"pit-trial","157","1041017","0.0-43.0","battery-v0.2","","""event"",""trial"",""time""
""fullscreenenter"",""1"",""4207""
","
","
","""event"",""trial"",""time""
""fullscreenenter"",""1"",""4207""
","
","","","1613.2000000178814","","","17","4246","3028","m","elianto","#f73b6a7A"," "," ","1","-10","[2466.2000000178814]","1","2","","","4246","39","0","3","lose","go","1"
"pit-trial","158","1045882","0.0-44.0","battery-v0.2","","""event"",""trial"",""time""
""fullscreenenter"",""1"",""4207""
","
","
","""event"",""trial"",""time""
""fullscreenenter"",""1"",""4207""
","
","","","-1","","","17","4246","3028","h","elianto","#f73b6a7A","-1","-1","1","0","[]","0","2","","","4246","40","3","4","lose","no-go","0"
"pit-trial","159","1050745","0.0-45.0","battery-v0.2","","""event"",""trial"",""time""
""fullscreenenter"",""1"",""4207""
","
","
","""event"",""trial"",""time""
""fullscreenenter"",""1"",""4207""
","
","","","-1","","","17","4246","3028","h","elianto","#f73b6a7A","-1","-1","1","0","[]","0","2","","","4246","41","3","4","lose","no-go","0"
"pit-trial","160","1055610","0.0-46.0","battery-v0.2","","""event"",""trial"",""time""
""fullscreenenter"",""1"",""4207""
","
","
","""event"",""trial"",""time""
""fullscreenenter"",""1"",""4207""
","
","","","-1","","","17","4246","3028","r","elianto","#3366ff99","-1","-1","1","0","[]","0","2","","","4246","42","1","2","win","no-go","1"
"pit-trial","161","1060474","0.0-47.0","battery-v0.2","","""event"",""trial"",""time""
""fullscreenenter"",""1"",""4207""
","
","
","""event"",""trial"",""time""
""fullscreenenter"",""1"",""4207""
","
","","","-1","","","17","4246","3028","y","elianto","#f73b6a7A"," ","-1","0","-10","[]","0","2","","","4246","43","2","3","lose","go","0"
"pit-trial","162","1065338","0.0-48.0","battery-v0.2","","""event"",""trial"",""time""
""fullscreenenter"",""1"",""4207""
","
","
","""event"",""trial"",""time""
""fullscreenenter"",""1"",""4207""
","
","","","-1","","","17","4246","3028","m","elianto","#f73b6a7A"," ","-1","0","-10","[]","0","2","","","4246","44","0","3","lose","go","0"
"pit-trial","163","1070203","0.0-49.0","battery-v0.2","","""event"",""trial"",""time""
""fullscreenenter"",""1"",""4207""
","
","
","""event"",""trial"",""time""
""fullscreenenter"",""1"",""4207""
","
","","","-1","","","17","4246","3028","m","elianto","#f73b6a7A"," ","-1","0","0","[]","0","2","","","4246","45","0","3","lose","go","1"
"pit-trial","164","1075066","0.0-50.0","battery-v0.2","","""event"",""trial"",""time""
""fullscreenenter"",""1"",""4207""
","
","
","""event"",""trial"",""time""
""fullscreenenter"",""1"",""4207""
","
","","","-1","","","17","4246","3028","h","elianto","#f73b6a7A","-1","-1","1","0","[]","0","2","","","4246","46","3","4","lose","no-go","0"
"pit-trial","165","1078875","0.0-51.0","battery-v0.2","","""event"",""trial"",""time""
""fullscreenenter"",""1"",""4207""
","
","
","""event"",""trial"",""time""
""fullscreenenter"",""1"",""4207""
","
","","","943.2999999821186","","","17","4246","3028","r","elianto","#3366ff99","-1"," ","0","0","[1798.199999988079]","1","2","","","4246","47","1","2","win","no-go","0"
"pit-trial","166","1083731","0.0-52.0","battery-v0.2","","""event"",""trial"",""time""
""fullscreenenter"",""1"",""4207""
","
","
","""event"",""trial"",""time""
""fullscreenenter"",""1"",""4207""
","
","","","-1","","","17","4246","3028","y","elianto","#f73b6a7A"," ","-1","0","-10","[]","0","2","","","4246","48","2","3","lose","go","0"
"pit-trial","167","1088592","0.0-53.0","battery-v0.2","","""event"",""trial"",""time""
""fullscreenenter"",""1"",""4207""
","
","
","""event"",""trial"",""time""
""fullscreenenter"",""1"",""4207""
","
","","","-1","","","17","4246","3028","h","elianto","#f73b6a7A","-1","-1","1","0","[]","0","2","","","4246","49","3","4","lose","no-go","0"
"pit-trial","168","1093456","0.0-54.0","battery-v0.2","","""event"",""trial"",""time""
""fullscreenenter"",""1"",""4207""
","
","
","""event"",""trial"",""time""
""fullscreenenter"",""1"",""4207""
","
","","","-1","","","17","4246","3028","y","elianto","#f73b6a7A"," ","-1","0","-10","[]","0","2","","","4246","50","2","3","lose","go","0"
"pit-trial","169","1098320","0.0-55.0","battery-v0.2","","""event"",""trial"",""time""
""fullscreenenter"",""1"",""4207""
","
","
","""event"",""trial"",""time""
""fullscreenenter"",""1"",""4207""
","
","","","-1","","","17","4246","3028","m","elianto","#f73b6a7A"," ","-1","0","-10","[]","0","2","","","4246","51","0","3","lose","go","0"
"pit-trial","170","1103184","0.0-56.0","battery-v0.2","","""event"",""trial"",""time""
""fullscreenenter"",""1"",""4207""
","
","
","""event"",""trial"",""time""
""fullscreenenter"",""1"",""4207""
","
","","","-1","","","17","4246","3028","r","elianto","#3366ff99","-1","-1","1","0","[]","0","2","","","4246","52","1","2","win","no-go","1"
"pit-trial","171","1108048","0.0-57.0","battery-v0.2","","""event"",""trial"",""time""
""fullscreenenter"",""1"",""4207""
","
","
","""event"",""trial"",""time""
""fullscreenenter"",""1"",""4207""
","
","","","-1","","","17","4246","3028","h","elianto","#f73b6a7A","-1","-1","1","0","[]","0","2","","","4246","53","3","4","lose","no-go","0"
"pit-trial","172","1112912","0.0-58.0","battery-v0.2","","""event"",""trial"",""time""
""fullscreenenter"",""1"",""4207""
","
","
","""event"",""trial"",""time""
""fullscreenenter"",""1"",""4207""
","
","","","-1","","","17","4246","3028","m","elianto","#f73b6a7A"," ","-1","0","-10","[]","0","2","","","4246","54","0","3","lose","go","0"
"pit-trial","173","1116467","0.0-59.0","battery-v0.2","","""event"",""trial"",""time""
""fullscreenenter"",""1"",""4207""
","
","
","""event"",""trial"",""time""
""fullscreenenter"",""1"",""4207""
","
","","","698.0999999940395","","","17","4246","3028","y","elianto","#f73b6a7A"," "," ","1","0","[1548.800000011921]","1","2","","","4246","55","2","3","lose","go","0"
"pit-trial","174","1121019","0.0-60.0","battery-v0.2","","""event"",""trial"",""time""
""fullscreenenter"",""1"",""4207""
","
","
","""event"",""trial"",""time""
""fullscreenenter"",""1"",""4207""
","
","","","1690.9000000059605","","","17","4246","3028","r","elianto","#3366ff99","-1"," ","0","0","[2542.300000011921]","1","2","","","4246","56","1","2","win","no-go","0"
"pit-trial","175","1124660","0.0-61.0","battery-v0.2","","""event"",""trial"",""time""
""fullscreenenter"",""1"",""4207""
","
","
","""event"",""trial"",""time""
""fullscreenenter"",""1"",""4207""
","
","","","782.9000000059605","","","17","4246","3028","y","elianto","#f73b6a7A"," "," ","1","-10","[1634.0999999940395]","1","2","","","4246","57","2","3","lose","go","1"
"pit-trial","176","1128637","0.0-62.0","battery-v0.2","","""event"",""trial"",""time""
""fullscreenenter"",""1"",""4207""
","
","
","""event"",""trial"",""time""
""fullscreenenter"",""1"",""4207""
","
","","","1106.300000011921","","","17","4246","3028","z","elianto","#3366ff99"," "," ","1","+10","[1962.1000000238419]","1","2","","","4246","58","4","1","win","go","0"
"pit-trial","177","1133501","0.0-63.0","battery-v0.2","","""event"",""trial"",""time""
""fullscreenenter"",""1"",""4207""
","
","
","""event"",""trial"",""time""
""fullscreenenter"",""1"",""4207""
","
","","","-1","","","17","4246","3028","h","elianto","#f73b6a7A","-1","-1","1","0","[]","0","2","","","4246","59","3","4","lose","no-go","0"
"pit-trial","178","1137930","0.0-64.0","battery-v0.2","","""event"",""trial"",""time""
""fullscreenenter"",""1"",""4207""
","
","
","""event"",""trial"",""time""
""fullscreenenter"",""1"",""4207""
","
","","","1561.9000000059605","","","17","4246","3028","m","elianto","#f73b6a7A"," "," ","1","-10","[2419.4000000059605]","1","2","","","4246","60","0","3","lose","go","1"
"pit-trial","179","1141643","0.0-65.0","battery-v0.2","","""event"",""trial"",""time""
""fullscreenenter"",""1"",""4207""
","
","
","""event"",""trial"",""time""
""fullscreenenter"",""1"",""4207""
","
","","","855.7000000178814","","","17","4246","3028","z","elianto","#3366ff99"," "," ","1","+10","[1705.800000011921]","1","2","","","4246","61","4","1","win","go","0"
"pit-trial","180","1146506","0.0-66.0","battery-v0.2","","""event"",""trial"",""time""
""fullscreenenter"",""1"",""4207""
","
","
","""event"",""trial"",""time""
""fullscreenenter"",""1"",""4207""
","
","","","-1","","","17","4246","3028","r","elianto","#3366ff99","-1","-1","1","+10","[]","0","2","","","4246","62","1","2","win","no-go","0"
"pit-trial","181","1151372","0.0-67.0","battery-v0.2","","""event"",""trial"",""time""
""fullscreenenter"",""1"",""4207""
","
","
","""event"",""trial"",""time""
""fullscreenenter"",""1"",""4207""
","
","","","-1","","","17","4246","3028","h","elianto","#f73b6a7A","-1","-1","1","0","[]","0","2","","","4246","63","3","4","lose","no-go","0"
"pit-trial","182","1155658","0.0-68.0","battery-v0.2","","""event"",""trial"",""time""
""fullscreenenter"",""1"",""4207""
","
","
","""event"",""trial"",""time""
""fullscreenenter"",""1"",""4207""
","
","","","1419.9000000059605","","","17","4246","3028","y","elianto","#f73b6a7A"," "," ","1","0","[2279.4000000059605]","1","2","","","4246","64","2","3","lose","go","0"
"pit-trial","183","1159346","0.0-69.0","battery-v0.2","","""event"",""trial"",""time""
""fullscreenenter"",""1"",""4207""
","
","
","""event"",""trial"",""time""
""fullscreenenter"",""1"",""4207""
","
","","","826.9000000059605","","","17","4246","3028","z","elianto","#3366ff99"," "," ","1","+10","[1679.4000000059605]","1","2","","","4246","65","4","1","win","go","0"
"pit-trial","184","1164202","0.0-70.0","battery-v0.2","","""event"",""trial"",""time""
""fullscreenenter"",""1"",""4207""
","
","
","""event"",""trial"",""time""
""fullscreenenter"",""1"",""4207""
","
","","","-1","","","17","4246","3028","h","elianto","#f73b6a7A","-1","-1","1","0","[]","0","2","","","4246","66","3","4","lose","no-go","0"
"pit-trial","185","1168030","0.0-71.0","battery-v0.2","","""event"",""trial"",""time""
""fullscreenenter"",""1"",""4207""
","
","
","""event"",""trial"",""time""
""fullscreenenter"",""1"",""4207""
","
","","","965.8000000119209","","","17","4246","3028","c","elianto","#3366ff99","-1"," ","0","+10","[1819.800000011921]","1","2","","","4246","67","5","2","win","no-go","1"
"pit-trial","186","1172895","0.0-72.0","battery-v0.2","","""event"",""trial"",""time""
""fullscreenenter"",""1"",""4207""
","
","
","""event"",""trial"",""time""
""fullscreenenter"",""1"",""4207""
","
","","","-1","","","17","4246","3028","r","elianto","#3366ff99","-1","-1","1","+10","[]","0","2","","","4246","68","1","2","win","no-go","0"
"pit-trial","187","1177759","0.0-73.0","battery-v0.2","","""event"",""trial"",""time""
""fullscreenenter"",""1"",""4207""
","
","
","""event"",""trial"",""time""
""fullscreenenter"",""1"",""4207""
","
","","","-1","","","17","4246","3028","r","elianto","#3366ff99","-1","-1","1","+10","[]","0","2","","","4246","69","1","2","win","no-go","0"
"pit-trial","188","1181690","0.0-74.0","battery-v0.2","","""event"",""trial"",""time""
""fullscreenenter"",""1"",""4207""
","
","
","""event"",""trial"",""time""
""fullscreenenter"",""1"",""4207""
","
","","","1064.2999999821186","","","17","4246","3028","y","elianto","#f73b6a7A"," "," ","1","0","[1919.5]","1","2","","","4246","70","2","3","lose","go","0"
"pit-trial","189","1185155","0.0-75.0","battery-v0.2","","""event"",""trial"",""time""
""fullscreenenter"",""1"",""4207""
","
","
","""event"",""trial"",""time""
""fullscreenenter"",""1"",""4207""
","
","","","605.2000000178814","","","17","4246","3028","z","elianto","#3366ff99"," "," ","1","0","[1458.5]","1","2","","","4246","71","4","1","win","go","1"
"pit-trial","190","1188737","0.0-76.0","battery-v0.2","","""event"",""trial"",""time""
""fullscreenenter"",""1"",""4207""
","
","
","""event"",""trial"",""time""
""fullscreenenter"",""1"",""4207""
","
","","","727.9000000059605","","","17","4246","3028","c","elianto","#3366ff99","-1"," ","0","+10","[1578.199999988079]","1","2","","","4246","72","5","2","win","no-go","1"
"pit-trial","191","1192516","0.0-77.0","battery-v0.2","","""event"",""trial"",""time""
""fullscreenenter"",""1"",""4207""
","
","
","""event"",""trial"",""time""
""fullscreenenter"",""1"",""4207""
","
","","","920.4000000059605","","","17","4246","3028","z","elianto","#3366ff99"," "," ","1","+10","[1774.199999988079]","1","2","","","4246","73","4","1","win","go","0"
"pit-trial","192","1197379","0.0-78.0","battery-v0.2","","""event"",""trial"",""time""
""fullscreenenter"",""1"",""4207""
","
","
","""event"",""trial"",""time""
""fullscreenenter"",""1"",""4207""
","
","","","-1","","","17","4246","3028","h","elianto","#f73b6a7A","-1","-1","1","0","[]","0","2","","","4246","74","3","4","lose","no-go","0"
"pit-trial","193","1202243","0.0-79.0","battery-v0.2","","""event"",""trial"",""time""
""fullscreenenter"",""1"",""4207""
","
","
","""event"",""trial"",""time""
""fullscreenenter"",""1"",""4207""
","
","","","-1","","","17","4246","3028","r","elianto","#3366ff99","-1","-1","1","+10","[]","0","2","","","4246","75","1","2","win","no-go","0"
"pit-trial","194","1205860","0.0-80.0","battery-v0.2","","""event"",""trial"",""time""
""fullscreenenter"",""1"",""4207""
","
","
","""event"",""trial"",""time""
""fullscreenenter"",""1"",""4207""
","
","","","760.5999999940395","","","17","4246","3028","c","elianto","#3366ff99","-1"," ","0","0","[1612.5]","1","2","","","4246","76","5","2","win","no-go","0"
"pit-trial","195","1209308","0.0-81.0","battery-v0.2","","""event"",""trial"",""time""
""fullscreenenter"",""1"",""4207""
","
","
","""event"",""trial"",""time""
""fullscreenenter"",""1"",""4207""
","
","","","593.6999999880791","","","17","4246","3028","z","elianto","#3366ff99"," "," ","1","0","[1444.699999988079]","1","2","","","4246","77","4","1","win","go","1"
"pit-trial","196","1212763","0.0-82.0","battery-v0.2","","""event"",""trial"",""time""
""fullscreenenter"",""1"",""4207""
","
","
","""event"",""trial"",""time""
""fullscreenenter"",""1"",""4207""
","
","","","592.3000000119209","","","17","4246","3028","z","elianto","#3366ff99"," "," ","1","+10","[1444.699999988079]","1","2","","","4246","78","4","1","win","go","0"
"pit-trial","197","1217620","0.0-83.0","battery-v0.2","","""event"",""trial"",""time""
""fullscreenenter"",""1"",""4207""
","
","
","""event"",""trial"",""time""
""fullscreenenter"",""1"",""4207""
","
","","","-1","","","17","4246","3028","h","elianto","#f73b6a7A","-1","-1","1","0","[]","0","2","","","4246","79","3","4","lose","no-go","0"
"pit-trial","198","1221067","0.0-84.0","battery-v0.2","","""event"",""trial"",""time""
""fullscreenenter"",""1"",""4207""
","
","
","""event"",""trial"",""time""
""fullscreenenter"",""1"",""4207""
","
","","","585.0999999940395","","","17","4246","3028","c","elianto","#3366ff99","-1"," ","0","+10","[1435.5]","1","2","","","4246","80","5","2","win","no-go","1"
"pit-trial","199","1225931","0.0-85.0","battery-v0.2","","""event"",""trial"",""time""
""fullscreenenter"",""1"",""4207""
","
","
","""event"",""trial"",""time""
""fullscreenenter"",""1"",""4207""
","
","","","-1","","","17","4246","3028","t","elianto","#f73b6a7A","-1","-1","1","0","[]","0","2","","","4246","81","7","4","lose","no-go","0"
"pit-trial","200","1229516","0.0-86.0","battery-v0.2","","""event"",""trial"",""time""
""fullscreenenter"",""1"",""4207""
","
","
","""event"",""trial"",""time""
""fullscreenenter"",""1"",""4207""
","
","","","726.7000000178814","","","17","4246","3028","z","elianto","#3366ff99"," "," ","1","+10","[1577.4000000059605]","1","2","","","4246","82","4","1","win","go","0"
"pit-trial","201","1234378","0.0-87.0","battery-v0.2","","""event"",""trial"",""time""
""fullscreenenter"",""1"",""4207""
","
","
","""event"",""trial"",""time""
""fullscreenenter"",""1"",""4207""
","
","","","-1","","","17","4246","3028","h","elianto","#f73b6a7A","-1","-1","1","0","[]","0","2","","","4246","83","3","4","lose","no-go","0"
"pit-trial","202","1237923","0.0-88.0","battery-v0.2","","""event"",""trial"",""time""
""fullscreenenter"",""1"",""4207""
","
","
","""event"",""trial"",""time""
""fullscreenenter"",""1"",""4207""
","
","","","684.3000000119209","","","17","4246","3028","c","elianto","#3366ff99","-1"," ","0","0","[1537]","1","2","","","4246","84","5","2","win","no-go","0"
"pit-trial","203","1242788","0.0-89.0","battery-v0.2","","""event"",""trial"",""time""
""fullscreenenter"",""1"",""4207""
","
","
","""event"",""trial"",""time""
""fullscreenenter"",""1"",""4207""
","
","","","-1","","","17","4246","3028","t","elianto","#f73b6a7A","-1","-1","1","0","[]","0","2","","","4246","85","7","4","lose","no-go","0"
"pit-trial","204","1247650","0.0-90.0","battery-v0.2","","""event"",""trial"",""time""
""fullscreenenter"",""1"",""4207""
","
","
","""event"",""trial"",""time""
""fullscreenenter"",""1"",""4207""
","
","","","-1","","","17","4246","3028","b","elianto","#f73b6a7A"," ","-1","0","-10","[]","0","2","","","4246","86","6","3","lose","go","0"
"pit-trial","205","1251168","0.0-91.0","battery-v0.2","","""event"",""trial"",""time""
""fullscreenenter"",""1"",""4207""
","
","
","""event"",""trial"",""time""
""fullscreenenter"",""1"",""4207""
","
","","","659.0999999940395","","","17","4246","3028","z","elianto","#3366ff99"," "," ","1","+10","[1510]","1","2","","","4246","87","4","1","win","go","0"
"pit-trial","206","1254642","0.0-92.0","battery-v0.2","","""event"",""trial"",""time""
""fullscreenenter"",""1"",""4207""
","
","
","""event"",""trial"",""time""
""fullscreenenter"",""1"",""4207""
","
","","","612.8000000119209","","","17","4246","3028","c","elianto","#3366ff99","-1"," ","0","0","[1467.300000011921]","1","2","","","4246","88","5","2","win","no-go","0"
"pit-trial","207","1258723","0.0-93.0","battery-v0.2","","""event"",""trial"",""time""
""fullscreenenter"",""1"",""4207""
","
","
","""event"",""trial"",""time""
""fullscreenenter"",""1"",""4207""
","
","","","1221.2000000178814","","","17","4246","3028","b","elianto","#f73b6a7A"," "," ","1","0","[2074.300000011921]","1","2","","","4246","89","6","3","lose","go","0"
"pit-trial","208","1262258","0.0-94.0","battery-v0.2","","""event"",""trial"",""time""
""fullscreenenter"",""1"",""4207""
","
","
","""event"",""trial"",""time""
""fullscreenenter"",""1"",""4207""
","
","","","674.4000000059605","","","17","4246","3028","z","elianto","#3366ff99"," "," ","1","+10","[1527]","1","2","","","4246","90","4","1","win","go","0"
"pit-trial","209","1267123","0.0-95.0","battery-v0.2","","""event"",""trial"",""time""
""fullscreenenter"",""1"",""4207""
","
","
","""event"",""trial"",""time""
""fullscreenenter"",""1"",""4207""
","
","","","-1","","","17","4246","3028","t","elianto","#f73b6a7A","-1","-1","1","-10","[]","0","2","","","4246","91","7","4","lose","no-go","1"
"pit-trial","210","1270618","0.0-96.0","battery-v0.2","","""event"",""trial"",""time""
""fullscreenenter"",""1"",""4207""
","
","
","""event"",""trial"",""time""
""fullscreenenter"",""1"",""4207""
","
","","","636.7000000178814","","","17","4246","3028","c","elianto","#3366ff99","-1"," ","0","0","[1487.7000000178814]","1","2","","","4246","92","5","2","win","no-go","0"
"pit-trial","211","1274715","0.0-97.0","battery-v0.2","","""event"",""trial"",""time""
""fullscreenenter"",""1"",""4207""
","
","
","""event"",""trial"",""time""
""fullscreenenter"",""1"",""4207""
","
","","","1236.199999988079","","","17","4246","3028","f","elianto","#3366ff99"," "," ","1","+10","[2088]","1","2","","","4246","93","8","1","win","go","0"
"pit-trial","212","1278660","0.0-98.0","battery-v0.2","","""event"",""trial"",""time""
""fullscreenenter"",""1"",""4207""
","
","
","""event"",""trial"",""time""
""fullscreenenter"",""1"",""4207""
","
","","","1084.1000000238419","","","17","4246","3028","b","elianto","#f73b6a7A"," "," ","1","0","[1936.0999999940395]","1","2","","","4246","94","6","3","lose","go","0"
"pit-trial","213","1282404","0.0-99.0","battery-v0.2","","""event"",""trial"",""time""
""fullscreenenter"",""1"",""4207""
","
","
","""event"",""trial"",""time""
""fullscreenenter"",""1"",""4207""
","
","","","887.0999999940395","","","17","4246","3028","c","elianto","#3366ff99","-1"," ","0","0","[1738.6000000238419]","1","2","","","4246","95","5","2","win","no-go","0"
"pit-trial","214","1287266","0.0-100.0","battery-v0.2","","""event"",""trial"",""time""
""fullscreenenter"",""1"",""4207""
","
","
","""event"",""trial"",""time""
""fullscreenenter"",""1"",""4207""
","
","","","-1","","","17","4246","3028","t","elianto","#f73b6a7A","-1","-1","1","0","[]","0","2","","","4246","96","7","4","lose","no-go","0"
"pit-trial","215","1291107","0.0-101.0","battery-v0.2","","""event"",""trial"",""time""
""fullscreenenter"",""1"",""4207""
","
","
","""event"",""trial"",""time""
""fullscreenenter"",""1"",""4207""
","
","","","974.5","","","17","4246","3028","b","elianto","#f73b6a7A"," "," ","1","0","[1827.9000000059605]","1","2","","","4246","97","6","3","lose","go","0"
"pit-trial","216","1295964","0.0-102.0","battery-v0.2","","""event"",""trial"",""time""
""fullscreenenter"",""1"",""4207""
","
","
","""event"",""trial"",""time""
""fullscreenenter"",""1"",""4207""
","
","","","-1","","","17","4246","3028","t","elianto","#f73b6a7A","-1","-1","1","-10","[]","0","2","","","4246","98","7","4","lose","no-go","1"
"pit-trial","217","1299755","0.0-103.0","battery-v0.2","","""event"",""trial"",""time""
""fullscreenenter"",""1"",""4207""
","
","
","""event"",""trial"",""time""
""fullscreenenter"",""1"",""4207""
","
","","","929.5999999940395","","","17","4246","3028","f","elianto","#3366ff99"," "," ","1","+10","[1781.0999999940395]","1","2","","","4246","99","8","1","win","go","0"
"pit-trial","218","1304619","0.0-104.0","battery-v0.2","","""event"",""trial"",""time""
""fullscreenenter"",""1"",""4207""
","
","
","""event"",""trial"",""time""
""fullscreenenter"",""1"",""4207""
","
","","","-1","","","17","4246","3028","c","elianto","#3366ff99","-1","-1","1","+10","[]","0","2","","","4246","100","5","2","win","no-go","0"
"pit-trial","219","1308922","0.0-105.0","battery-v0.2","","""event"",""trial"",""time""
""fullscreenenter"",""1"",""4207""
","
","
","""event"",""trial"",""time""
""fullscreenenter"",""1"",""4207""
","
","","","1446.2000000178814","","","17","4246","3028","t","elianto","#f73b6a7A","-1"," ","0","0","[2297.800000011921]","1","2","","","4246","101","7","4","lose","no-go","1"
"pit-trial","220","1312914","0.0-106.0","battery-v0.2","","""event"",""trial"",""time""
""fullscreenenter"",""1"",""4207""
","
","
","""event"",""trial"",""time""
""fullscreenenter"",""1"",""4207""
","
","","","1134.1000000238419","","","17","4246","3028","f","elianto","#3366ff99"," "," ","1","0","[1987.300000011921]","1","2","","","4246","102","8","1","win","go","1"
"pit-trial","221","1317779","0.0-107.0","battery-v0.2","","""event"",""trial"",""time""
""fullscreenenter"",""1"",""4207""
","
","
","""event"",""trial"",""time""
""fullscreenenter"",""1"",""4207""
","
","","","-1","","","17","4246","3028","c","elianto","#3366ff99","-1","-1","1","+10","[]","0","2","","","4246","103","5","2","win","no-go","0"
"pit-trial","222","1321675","0.0-108.0","battery-v0.2","","""event"",""trial"",""time""
""fullscreenenter"",""1"",""4207""
","
","
","""event"",""trial"",""time""
""fullscreenenter"",""1"",""4207""
","
","","","1035.6000000238419","","","17","4246","3028","n","elianto","#3366ff99"," "," ","1","+10","[1886.3999999761581]","1","2","","","4246","104","9","1","win","go","0"
"pit-trial","223","1325491","0.0-109.0","battery-v0.2","","""event"",""trial"",""time""
""fullscreenenter"",""1"",""4207""
","
","
","""event"",""trial"",""time""
""fullscreenenter"",""1"",""4207""
","
","","","957.9000000059605","","","17","4246","3028","f","elianto","#3366ff99"," "," ","1","+10","[1808.1000000238419]","1","2","","","4246","105","8","1","win","go","0"
"pit-trial","224","1329052","0.0-110.0","battery-v0.2","","""event"",""trial"",""time""
""fullscreenenter"",""1"",""4207""
","
","
","""event"",""trial"",""time""
""fullscreenenter"",""1"",""4207""
","
","","","696.5","","","17","4246","3028","n","elianto","#3366ff99"," "," ","1","+10","[1547.1000000238419]","1","2","","","4246","106","9","1","win","go","0"
"pit-trial","225","1332636","0.0-111.0","battery-v0.2","","""event"",""trial"",""time""
""fullscreenenter"",""1"",""4207""
","
","
","""event"",""trial"",""time""
""fullscreenenter"",""1"",""4207""
","
","","","719.1999999880791","","","17","4246","3028","z","elianto","#3366ff99"," "," ","1","+10","[1571.2999999821186]","1","2","","","4246","107","4","1","win","go","0"
"pit-trial","226","1336515","0.0-112.0","battery-v0.2","","""event"",""trial"",""time""
""fullscreenenter"",""1"",""4207""
","
","
","""event"",""trial"",""time""
""fullscreenenter"",""1"",""4207""
","
","","","1015.6999999880791","","","17","4246","3028","b","elianto","#f73b6a7A"," "," ","1","0","[1868.9000000059605]","1","2","","","4246","108","6","3","lose","go","0"
"pit-trial","227","1340011","0.0-113.0","battery-v0.2","","""event"",""trial"",""time""
""fullscreenenter"",""1"",""4207""
","
","
","""event"",""trial"",""time""
""fullscreenenter"",""1"",""4207""
","
","","","638.7000000178814","","","17","4246","3028","n","elianto","#3366ff99"," "," ","1","+10","[1489.4000000059605]","1","2","","","4246","109","9","1","win","go","0"
"pit-trial","228","1343748","0.0-114.0","battery-v0.2","","""event"",""trial"",""time""
""fullscreenenter"",""1"",""4207""
","
","
","""event"",""trial"",""time""
""fullscreenenter"",""1"",""4207""
","
","","","876.5999999940395","","","17","4246","3028","b","elianto","#f73b6a7A"," "," ","1","0","[1728.699999988079]","1","2","","","4246","110","6","3","lose","go","0"
"pit-trial","229","1347292","0.0-115.0","battery-v0.2","","""event"",""trial"",""time""
""fullscreenenter"",""1"",""4207""
","
","
","""event"",""trial"",""time""
""fullscreenenter"",""1"",""4207""
","
","","","678.5999999940395","","","17","4246","3028","f","elianto","#3366ff99"," "," ","1","+10","[1528.800000011921]","1","2","","","4246","111","8","1","win","go","0"
"pit-trial","230","1352155","0.0-116.0","battery-v0.2","","""event"",""trial"",""time""
""fullscreenenter"",""1"",""4207""
","
","
","""event"",""trial"",""time""
""fullscreenenter"",""1"",""4207""
","
","","","-1","","","17","4246","3028","c","elianto","#3366ff99","-1","-1","1","0","[]","0","2","","","4246","112","5","2","win","no-go","1"
"pit-trial","231","1355793","0.0-117.0","battery-v0.2","","""event"",""trial"",""time""
""fullscreenenter"",""1"",""4207""
","
","
","""event"",""trial"",""time""
""fullscreenenter"",""1"",""4207""
","
","","","779.3000000119209","","","17","4246","3028","n","elianto","#3366ff99"," "," ","1","+10","[540.2000000178814,1631.9000000059605]","2","2","","","4246","113","9","1","win","go","0"
"pit-trial","232","1359754","0.0-118.0","battery-v0.2","","""event"",""trial"",""time""
""fullscreenenter"",""1"",""4207""
","
","
","""event"",""trial"",""time""
""fullscreenenter"",""1"",""4207""
","
","","","1099.7000000178814","","","17","4246","3028","b","elianto","#f73b6a7A"," "," ","1","0","[1952.6000000238419]","1","2","","","4246","114","6","3","lose","go","0"
"pit-trial","233","1364619","0.0-119.0","battery-v0.2","","""event"",""trial"",""time""
""fullscreenenter"",""1"",""4207""
","
","
","""event"",""trial"",""time""
""fullscreenenter"",""1"",""4207""
","
","","","-1","","","17","4246","3028","c","elianto","#3366ff99","-1","-1","1","+10","[]","0","2","","","4246","115","5","2","win","no-go","0"
"pit-trial","234","1368187","0.0-120.0","battery-v0.2","","""event"",""trial"",""time""
""fullscreenenter"",""1"",""4207""
","
","
","""event"",""trial"",""time""
""fullscreenenter"",""1"",""4207""
","
","","","709.1999999880791","","","17","4246","3028","f","elianto","#3366ff99"," "," ","1","+10","[1561.199999988079]","1","2","","","4246","116","8","1","win","go","0"
"pit-trial","235","1373050","0.0-121.0","battery-v0.2","","""event"",""trial"",""time""
""fullscreenenter"",""1"",""4207""
","
","
","""event"",""trial"",""time""
""fullscreenenter"",""1"",""4207""
","
","","","-1","","","17","4246","3028","c","elianto","#3366ff99","-1","-1","1","+10","[]","0","2","","","4246","117","5","2","win","no-go","0"
"pit-trial","236","1376612","0.0-122.0","battery-v0.2","","""event"",""trial"",""time""
""fullscreenenter"",""1"",""4207""
","
","
","""event"",""trial"",""time""
""fullscreenenter"",""1"",""4207""
","
","","","700.1999999880791","","","17","4246","3028","f","elianto","#3366ff99"," "," ","1","+10","[1552.0999999940395]","1","2","","","4246","118","8","1","win","go","0"
"pit-trial","237","1380564","0.0-123.0","battery-v0.2","","""event"",""trial"",""time""
""fullscreenenter"",""1"",""4207""
","
","
","""event"",""trial"",""time""
""fullscreenenter"",""1"",""4207""
","
","","","1089.6000000238419","","","17","4246","3028","b","elianto","#f73b6a7A"," "," ","1","0","[1941.7999999821186]","1","2","","","4246","119","6","3","lose","go","0"
"pit-trial","238","1384115","0.0-124.0","battery-v0.2","","""event"",""trial"",""time""
""fullscreenenter"",""1"",""4207""
","
","
","""event"",""trial"",""time""
""fullscreenenter"",""1"",""4207""
","
","","","693.1999999880791","","","17","4246","3028","n","elianto","#3366ff99"," "," ","1","0","[1544.7000000178814]","1","2","","","4246","120","9","1","win","go","1"
"pit-trial","239","1387795","0.0-125.0","battery-v0.2","","""event"",""trial"",""time""
""fullscreenenter"",""1"",""4207""
","
","
","""event"",""trial"",""time""
""fullscreenenter"",""1"",""4207""
","
","","","821.7999999821186","","","17","4246","3028","b","elianto","#f73b6a7A"," "," ","1","0","[1673.699999988079]","1","2","","","4246","121","6","3","lose","go","0"
"pit-trial","240","1391375","0.0-126.0","battery-v0.2","","""event"",""trial"",""time""
""fullscreenenter"",""1"",""4207""
","
","
","""event"",""trial"",""time""
""fullscreenenter"",""1"",""4207""
","
","","","720.9000000059605","","","17","4246","3028","n","elianto","#3366ff99"," "," ","1","0","[1574.199999988079]","1","2","","","4246","122","9","1","win","go","1"
"pit-trial","241","1395099","0.0-127.0","battery-v0.2","","""event"",""trial"",""time""
""fullscreenenter"",""1"",""4207""
","
","
","""event"",""trial"",""time""
""fullscreenenter"",""1"",""4207""
","
","","","865.8000000119209","","","17","4246","3028","t","elianto","#f73b6a7A","-1"," ","0","-10","[1716]","1","2","","","4246","123","7","4","lose","no-go","0"
"pit-trial","242","1398667","0.0-128.0","battery-v0.2","","""event"",""trial"",""time""
""fullscreenenter"",""1"",""4207""
","
","
","""event"",""trial"",""time""
""fullscreenenter"",""1"",""4207""
","
","","","707.6999999880791","","","17","4246","3028","f","elianto","#3366ff99"," "," ","1","+10","[1559.0999999940395]","1","2","","","4246","124","8","1","win","go","0"
"pit-trial","243","1402235","0.0-129.0","battery-v0.2","","""event"",""trial"",""time""
""fullscreenenter"",""1"",""4207""
","
","
","""event"",""trial"",""time""
""fullscreenenter"",""1"",""4207""
","
","","","705","","","17","4246","3028","b","elianto","#f73b6a7A"," "," ","1","0","[1555.5999999940395]","1","2","","","4246","125","6","3","lose","go","0"
"pit-trial","244","1405763","0.0-130.0","battery-v0.2","","""event"",""trial"",""time""
""fullscreenenter"",""1"",""4207""
","
","
","""event"",""trial"",""time""
""fullscreenenter"",""1"",""4207""
","
","","","667.4000000059605","","","17","4246","3028","n","elianto","#3366ff99"," "," ","1","+10","[1518.4000000059605]","1","2","","","4246","126","9","1","win","go","0"
"pit-trial","245","1410627","0.0-131.0","battery-v0.2","","""event"",""trial"",""time""
""fullscreenenter"",""1"",""4207""
","
","
","""event"",""trial"",""time""
""fullscreenenter"",""1"",""4207""
","
","","","-1","","","17","4246","3028","t","elianto","#f73b6a7A","-1","-1","1","0","[]","0","2","","","4246","127","7","4","lose","no-go","0"
"pit-trial","246","1414123","0.0-132.0","battery-v0.2","","""event"",""trial"",""time""
""fullscreenenter"",""1"",""4207""
","
","
","""event"",""trial"",""time""
""fullscreenenter"",""1"",""4207""
","
","","","631.2000000178814","","","17","4246","3028","f","elianto","#3366ff99"," "," ","1","0","[1482.5999999940395]","1","2","","","4246","128","8","1","win","go","1"
"pit-trial","247","1417547","0.0-133.0","battery-v0.2","","""event"",""trial"",""time""
""fullscreenenter"",""1"",""4207""
","
","
","""event"",""trial"",""time""
""fullscreenenter"",""1"",""4207""
","
","","","565.2000000178814","","","17","4246","3028","f","elianto","#3366ff99"," "," ","1","+10","[1416.1000000238419]","1","2","","","4246","129","8","1","win","go","0"
"pit-trial","248","1421132","0.0-134.0","battery-v0.2","","""event"",""trial"",""time""
""fullscreenenter"",""1"",""4207""
","
","
","""event"",""trial"",""time""
""fullscreenenter"",""1"",""4207""
","
","","","720.9000000059605","","","17","4246","3028","b","elianto","#f73b6a7A"," "," ","1","0","[1573.9000000059605]","1","2","","","4246","130","6","3","lose","go","0"
"pit-trial","249","1425988","0.0-135.0","battery-v0.2","","""event"",""trial"",""time""
""fullscreenenter"",""1"",""4207""
","
","
","""event"",""trial"",""time""
""fullscreenenter"",""1"",""4207""
","
","","","-1","","","17","4246","3028","t","elianto","#f73b6a7A","-1","-1","1","0","[]","0","2","","","4246","131","7","4","lose","no-go","0"
"pit-trial","250","1429535","0.0-136.0","battery-v0.2","","""event"",""trial"",""time""
""fullscreenenter"",""1"",""4207""
","
","
","""event"",""trial"",""time""
""fullscreenenter"",""1"",""4207""
","
","","","688.8999999761581","","","17","4246","3028","n","elianto","#3366ff99"," "," ","1","+10","[1539.2999999821186]","1","2","","","4246","132","9","1","win","go","0"
"pit-trial","251","1434400","0.0-137.0","battery-v0.2","","""event"",""trial"",""time""
""fullscreenenter"",""1"",""4207""
","
","
","""event"",""trial"",""time""
""fullscreenenter"",""1"",""4207""
","
","","","-1","","","17","4246","3028","t","elianto","#f73b6a7A","-1","-1","1","0","[]","0","2","","","4246","133","7","4","lose","no-go","0"
"pit-trial","252","1438139","0.0-138.0","battery-v0.2","","""event"",""trial"",""time""
""fullscreenenter"",""1"",""4207""
","
","
","""event"",""trial"",""time""
""fullscreenenter"",""1"",""4207""
","
","","","873.8000000119209","","","17","4246","3028","b","elianto","#f73b6a7A"," "," ","1","-10","[1728.5999999940395]","1","2","","","4246","134","6","3","lose","go","1"
"pit-trial","253","1441679","0.0-139.0","battery-v0.2","","""event"",""trial"",""time""
""fullscreenenter"",""1"",""4207""
","
","
","""event"",""trial"",""time""
""fullscreenenter"",""1"",""4207""
","
","","","683.7000000178814","","","17","4246","3028","f","elianto","#3366ff99"," "," ","1","+10","[1534.7999999821186]","1","2","","","4246","135","8","1","win","go","0"
"pit-trial","254","1445177","0.0-140.0","battery-v0.2","","""event"",""trial"",""time""
""fullscreenenter"",""1"",""4207""
","
","
","""event"",""trial"",""time""
""fullscreenenter"",""1"",""4207""
","
","","","637.4000000059605","","","17","4246","3028","n","elianto","#3366ff99"," "," ","1","+10","[1487.4000000059605]","1","2","","","4246","136","9","1","win","go","0"
"pit-trial","255","1448692","0.0-141.0","battery-v0.2","","""event"",""trial"",""time""
""fullscreenenter"",""1"",""4207""
","
","
","""event"",""trial"",""time""
""fullscreenenter"",""1"",""4207""
","
","","","656.1999999880791","","","17","4246","3028","b","elianto","#f73b6a7A"," "," ","1","0","[1509.5999999940395]","1","2","","","4246","137","6","3","lose","go","0"
"pit-trial","256","1453556","0.0-142.0","battery-v0.2","","""event"",""trial"",""time""
""fullscreenenter"",""1"",""4207""
","
","
","""event"",""trial"",""time""
""fullscreenenter"",""1"",""4207""
","
","","","-1","","","17","4246","3028","t","elianto","#f73b6a7A","-1","-1","1","0","[]","0","2","","","4246","138","7","4","lose","no-go","0"
"pit-trial","257","1457067","0.0-143.0","battery-v0.2","","""event"",""trial"",""time""
""fullscreenenter"",""1"",""4207""
","
","
","""event"",""trial"",""time""
""fullscreenenter"",""1"",""4207""
","
","","","652.5999999940395","","","17","4246","3028","f","elianto","#3366ff99"," "," ","1","+10","[1503.0999999940395]","1","2","","","4246","139","8","1","win","go","0"
"pit-trial","258","1460563","0.0-144.0","battery-v0.2","","""event"",""trial"",""time""
""fullscreenenter"",""1"",""4207""
","
","
","""event"",""trial"",""time""
""fullscreenenter"",""1"",""4207""
","
","","","636","","","17","4246","3028","n","elianto","#3366ff99"," "," ","1","+10","[1486.1000000238419]","1","2","","","4246","140","9","1","win","go","0"
"pit-instructions","259","1503949","0.0-145.0","battery-v0.2","","""event"",""trial"",""time""
""fullscreenenter"",""1"",""4207""
","
","
","""event"",""trial"",""time""
""fullscreenenter"",""1"",""4207""
","
","","[{""page_index"":0,""viewing_time"":28539.69999998808},{""page_index"":1,""viewing_time"":14843.800000011921}]","43384.90000000596","","","","","","","","","","","","","","","","","","","","","","","",""
"pit-trial","260","1507323","0.0-146.0","battery-v0.2","","""event"",""trial"",""time""
""fullscreenenter"",""1"",""4207""
","
","
","""event"",""trial"",""time""
""fullscreenenter"",""1"",""4207""
","
","","","506.30000001192093","","","17","4246","3028","g","elianto","#f73b6a7A"," "," ","1","0","[1359.300000011921]","1","3","","","4246","141","3","3","lose","go","0"
"pit-trial","261","1510763","0.0-147.0","battery-v0.2","","""event"",""trial"",""time""
""fullscreenenter"",""1"",""4207""
","
","
","""event"",""trial"",""time""
""fullscreenenter"",""1"",""4207""
","
","","","578.9000000059605","","","17","4246","3028","u","elianto","#f73b6a7A","-1"," ","0","-10","[1430.800000011921]","1","3","","","4246","142","0","4","lose","no-go","0"
"pit-trial","262","1514123","0.0-148.0","battery-v0.2","","""event"",""trial"",""time""
""fullscreenenter"",""1"",""4207""
","
","
","""event"",""trial"",""time""
""fullscreenenter"",""1"",""4207""
","
","","","498.2000000178814","","","17","4246","3028","l","elianto","#3366ff99"," "," ","1","+10","[1349.9000000059605]","1","3","","","4246","143","1","1","win","go","0"
"pit-trial","263","1517499","0.0-149.0","battery-v0.2","","""event"",""trial"",""time""
""fullscreenenter"",""1"",""4207""
","
","
","""event"",""trial"",""time""
""fullscreenenter"",""1"",""4207""
","
","","","513.8000000119209","","","17","4246","3028","a","elianto","#f73b6a7A","-1"," ","0","-10","[1364.699999988079]","1","3","","","4246","144","2","4","lose","no-go","0"
"pit-trial","264","1521036","0.0-150.0","battery-v0.2","","""event"",""trial"",""time""
""fullscreenenter"",""1"",""4207""
","
","
","""event"",""trial"",""time""
""fullscreenenter"",""1"",""4207""
","
","","","672.7999999821186","","","17","4246","3028","g","elianto","#f73b6a7A"," "," ","1","-10","[1523.199999988079]","1","3","","","4246","145","3","3","lose","go","1"
"pit-trial","265","1524597","0.0-151.0","battery-v0.2","","""event"",""trial"",""time""
""fullscreenenter"",""1"",""4207""
","
","
","""event"",""trial"",""time""
""fullscreenenter"",""1"",""4207""
","
","","","694.3000000119209","","","17","4246","3028","a","elianto","#f73b6a7A","-1"," ","0","0","[1545.5999999940395]","1","3","","","4246","146","2","4","lose","no-go","1"
"pit-trial","266","1528098","0.0-152.0","battery-v0.2","","""event"",""trial"",""time""
""fullscreenenter"",""1"",""4207""
","
","
","""event"",""trial"",""time""
""fullscreenenter"",""1"",""4207""
","
