"trial_type","trial_index","time_elapsed","internal_node_id","task_version","subject_id","interactions","blur_events","focus_events","fullscreenenter_events","fullscreenexit_events","success","view_history","rt","responses","num_errors","age","subject","participantId","rune","rune_set","hex","correct","choice","accuracy","outcome","keys","total_keys","block","practice","value","sub","trial","stimulus","robot","valence","action","sham"
"pavlovia","0","5","0.0-0.0","battery-v0.2","","""event"",""trial"",""time""
""fullscreenenter"",""1"",""5450""
","
","
","""event"",""trial"",""time""
""fullscreenenter"",""1"",""5450""
","
","","","","","","","","","","","","","","","","","","","","","","","","","","",""
"fullscreen","1","6425","0.0-1.0","battery-v0.2","","""event"",""trial"",""time""
""fullscreenenter"",""1"",""5450""
","
","
","""event"",""trial"",""time""
""fullscreenenter"",""1"",""5450""
","
","true","","","","","","","","","","","","","","","","","","","","","","","","","",""
"pit-instructions","2","13970","0.0-2.0-0.0","battery-v0.2","","""event"",""trial"",""time""
""fullscreenenter"",""1"",""5450""
","
","
","""event"",""trial"",""time""
""fullscreenenter"",""1"",""5450""
","
","","[{""page_index"":0,""viewing_time"":7540}]","7541","","","","","","","","","","","","","","","","","","","","","","","",""
"pit-comprehension","3","17803","0.0-2.0-1.0-0.0","battery-v0.2","","""event"",""trial"",""time""
""fullscreenenter"",""1"",""5450""
","
","
","""event"",""trial"",""time""
""fullscreenenter"",""1"",""5450""
","
","","","3824.999999999998","[""shark""]","0","14","4570","2844","","","","","","","","","","","","","","","","","","",""
"pit-instructions","4","19593","0.0-2.0-1.0-1.0","battery-v0.2","","""event"",""trial"",""time""
""fullscreenenter"",""1"",""5450""
","
","
","""event"",""trial"",""time""
""fullscreenenter"",""1"",""5450""
","
","","[{""page_index"":0,""viewing_time"":1779}]","1780","","","","","","","","","","","","","","","","","","","","","","","",""
"pit-comprehension","5","23338","0.0-2.0-2.0-0.0","battery-v0.2","","""event"",""trial"",""time""
""fullscreenenter"",""1"",""5450""
","
","
","""event"",""trial"",""time""
""fullscreenenter"",""1"",""5450""
","
","","","3742.9999999999964","[""tiger""]","0","14","4570","2844","","","","","","","","","","","","","","","","","","",""
"pit-instructions","6","24907","0.0-2.0-2.0-1.0","battery-v0.2","","""event"",""trial"",""time""
""fullscreenenter"",""1"",""5450""
","
","
","""event"",""trial"",""time""
""fullscreenenter"",""1"",""5450""
","
","","[{""page_index"":0,""viewing_time"":1564}]","1565","","","","","","","","","","","","","","","","","","","","","","","",""
"pit-instructions","7","186974","0.0-2.0-3.0","battery-v0.2","","""event"",""trial"",""time""
""fullscreenenter"",""1"",""5450""
","
","
","""event"",""trial"",""time""
""fullscreenenter"",""1"",""5450""
","
","","[{""page_index"":0,""viewing_time"":51685},{""page_index"":1,""viewing_time"":5035},{""page_index"":2,""viewing_time"":6843},{""page_index"":3,""viewing_time"":5771},{""page_index"":4,""viewing_time"":6437.000000000015},{""page_index"":5,""viewing_time"":5966.999999999985},{""page_index"":6,""viewing_time"":8545.000000000015},{""page_index"":7,""viewing_time"":6071.999999999985},{""page_index"":8,""viewing_time"":6030},{""page_index"":9,""viewing_time"":9807},{""page_index"":10,""viewing_time"":8850},{""page_index"":11,""viewing_time"":12772},{""page_index"":12,""viewing_time"":14050},{""page_index"":13,""viewing_time"":14204}]","162070","","","","","","","","","","","","","","","","","","","","","","","",""
"pit-trial","8","190206","0.0-2.0-4.0-0.0","battery-v0.2","","""event"",""trial"",""time""
""fullscreenenter"",""1"",""5450""
","
","
","""event"",""trial"",""time""
""fullscreenenter"",""1"",""5450""
","
","","","376","","","14","4570","2844","&#9784;","elianto","#FFFFF080"," "," ","1","&#10004","[1226]","1","0","0","","","","","","","",""
"pit-trial","9","193327","0.0-2.0-4.1-0.1","battery-v0.2","","""event"",""trial"",""time""
""fullscreenenter"",""1"",""5450""
","
","
","""event"",""trial"",""time""
""fullscreenenter"",""1"",""5450""
","
","","","263.9999999999709","","","14","4570","2844","&#9784;","elianto","#FFFFF080"," "," ","1","&#10004","[1115]","1","0","0","","","","","","","",""
"pit-trial","10","196584","0.0-2.0-4.2-0.2","battery-v0.2","","""event"",""trial"",""time""
""fullscreenenter"",""1"",""5450""
","
","
","""event"",""trial"",""time""
""fullscreenenter"",""1"",""5450""
","
","","","401","","","14","4570","2844","&#9784;","elianto","#FFFFF080"," "," ","1","&#10004","[1251]","1","0","0","","","","","","","",""
"pit-trial","11","199848","0.0-2.0-4.3-0.3","battery-v0.2","","""event"",""trial"",""time""
""fullscreenenter"",""1"",""5450""
","
","
","""event"",""trial"",""time""
""fullscreenenter"",""1"",""5450""
","
","","","407","","","14","4570","2844","&#9784;","elianto","#FFFFF080"," "," ","1","&#10004","[1258]","1","0","0","","","","","","","",""
"pit-trial","12","203090","0.0-2.0-4.4-0.4","battery-v0.2","","""event"",""trial"",""time""
""fullscreenenter"",""1"",""5450""
","
","
","""event"",""trial"",""time""
""fullscreenenter"",""1"",""5450""
","
","","","383.9999999999709","","","14","4570","2844","&#9784;","elianto","#FFFFF080"," "," ","1","&#10004","[1235]","1","0","0","","","","","","","",""
"pit-instructions","13","227747","0.0-2.0-5.0","battery-v0.2","","""event"",""trial"",""time""
""fullscreenenter"",""1"",""5450""
","
","
","""event"",""trial"",""time""
""fullscreenenter"",""1"",""5450""
","
","","[{""page_index"":0,""viewing_time"":6196.000000000029},{""page_index"":1,""viewing_time"":5393.999999999971},{""page_index"":2,""viewing_time"":6777},{""page_index"":3,""viewing_time"":6282}]","24651","","","","","","","","","","","","","","","","","","","","","","","",""
"pit-trial","14","232604","0.0-2.0-6.0-0.0","battery-v0.2","","""event"",""trial"",""time""
""fullscreenenter"",""1"",""5450""
","
","
","""event"",""trial"",""time""
""fullscreenenter"",""1"",""5450""
","
","","","-1","","","14","4570","2844","&#9854;","elianto","#FFFFF080","-1","-1","1","&#10004","[]","0","0","1","","","","","","","",""
"pit-trial","15","237462","0.0-2.0-6.1-0.1","battery-v0.2","","""event"",""trial"",""time""
""fullscreenenter"",""1"",""5450""
","
","
","""event"",""trial"",""time""
""fullscreenenter"",""1"",""5450""
","
","","","-1","","","14","4570","2844","&#9854;","elianto","#FFFFF080","-1","-1","1","&#10004","[]","0","0","1","","","","","","","",""
"pit-trial","16","242319","0.0-2.0-6.2-0.2","battery-v0.2","","""event"",""trial"",""time""
""fullscreenenter"",""1"",""5450""
","
","
","""event"",""trial"",""time""
""fullscreenenter"",""1"",""5450""
","
","","","-1","","","14","4570","2844","&#9854;","elianto","#FFFFF080","-1","-1","1","&#10004","[]","0","0","1","","","","","","","",""
"pit-trial","17","247174","0.0-2.0-6.3-0.3","battery-v0.2","","""event"",""trial"",""time""
""fullscreenenter"",""1"",""5450""
","
","
","""event"",""trial"",""time""
""fullscreenenter"",""1"",""5450""
","
","","","-1","","","14","4570","2844","&#9854;","elianto","#FFFFF080","-1","-1","1","&#10004","[]","0","0","1","","","","","","","",""
"pit-trial","18","252028","0.0-2.0-6.4-0.4","battery-v0.2","","""event"",""trial"",""time""
""fullscreenenter"",""1"",""5450""
","
","
","""event"",""trial"",""time""
""fullscreenenter"",""1"",""5450""
","
","","","-1","","","14","4570","2844","&#9854;","elianto","#FFFFF080","-1","-1","1","&#10004","[]","0","0","1","","","","","","","",""
"pit-instructions","19","377795","0.0-2.0-7.0","battery-v0.2","","""event"",""trial"",""time""
""fullscreenenter"",""1"",""5450""
","
","
","""event"",""trial"",""time""
""fullscreenenter"",""1"",""5450""
","
","","[{""page_index"":0,""viewing_time"":7388.999999999971},{""page_index"":1,""viewing_time"":7870.000000000029},{""page_index"":2,""viewing_time"":7488},{""page_index"":3,""viewing_time"":5941},{""page_index"":4,""viewing_time"":5541},{""page_index"":5,""viewing_time"":6229},{""page_index"":6,""viewing_time"":7532},{""page_index"":7,""viewing_time"":8748},{""page_index"":8,""viewing_time"":8210},{""page_index"":9,""viewing_time"":6424},{""page_index"":10,""viewing_time"":6904},{""page_index"":11,""viewing_time"":4809},{""page_index"":12,""viewing_time"":7322},{""page_index"":13,""viewing_time"":6784},{""page_index"":14,""viewing_time"":7234},{""page_index"":15,""viewing_time"":7238},{""page_index"":16,""viewing_time"":7179},{""page_index"":17,""viewing_time"":6926}]","125768","","","","","","","","","","","","","","","","","","","","","","","",""
"pit-trial","20","381054","0.0-2.0-8.0-0.0","battery-v0.2","","""event"",""trial"",""time""
""fullscreenenter"",""1"",""5450""
","
","
","""event"",""trial"",""time""
""fullscreenenter"",""1"",""5450""
","
","","","399","","","14","4570","2844","&#9776;","elianto","#3366ff99"," "," ","1","+10","[1250]","1","0","1","","","","","","","",""
"pit-trial","21","385911","0.0-2.0-8.0-1.0","battery-v0.2","","""event"",""trial"",""time""
""fullscreenenter"",""1"",""5450""
","
","
","""event"",""trial"",""time""
""fullscreenenter"",""1"",""5450""
","
","","","-1","","","14","4570","2844","&#9776;","elianto","#3366ff99"," ","-1","0","0","[4827]","1","0","1","","","","","","","",""
"pit-trial","22","389421","0.0-2.0-8.0-2.0","battery-v0.2","","""event"",""trial"",""time""
""fullscreenenter"",""1"",""5450""
","
","
","""event"",""trial"",""time""
""fullscreenenter"",""1"",""5450""
","
","","","654","","","14","4570","2844","&#9776;","elianto","#3366ff99"," "," ","1","+10","[1505]","1","0","1","","","","","","","",""
"pit-trial","23","392865","0.0-2.0-8.0-3.0","battery-v0.2","","""event"",""trial"",""time""
""fullscreenenter"",""1"",""5450""
","
","
","""event"",""trial"",""time""
""fullscreenenter"",""1"",""5450""
","
","","","588","","","14","4570","2844","&#9776;","elianto","#3366ff99"," "," ","1","0","[1438]","1","0","1","","","","","","","",""
"pit-trial","24","397721","0.0-2.0-8.0-4.0","battery-v0.2","","""event"",""trial"",""time""
""fullscreenenter"",""1"",""5450""
","
","
","""event"",""trial"",""time""
""fullscreenenter"",""1"",""5450""
","
","","","-1","","","14","4570","2844","&#9776;","elianto","#3366ff99"," ","-1","0","0","[]","0","0","1","","","","","","","",""
"pit-trial","25","401620","0.0-2.0-8.1-0.1","battery-v0.2","","""event"",""trial"",""time""
""fullscreenenter"",""1"",""5450""
","
","
","""event"",""trial"",""time""
""fullscreenenter"",""1"",""5450""
","
","","","1043","","","14","4570","2844","&#9776;","elianto","#3366ff99"," "," ","1","+10","[1893]","1","0","1","","","","","","","",""
"pit-trial","26","406474","0.0-2.0-8.1-1.1","battery-v0.2","","""event"",""trial"",""time""
""fullscreenenter"",""1"",""5450""
","
","
","""event"",""trial"",""time""
""fullscreenenter"",""1"",""5450""
","
","","","-1","","","14","4570","2844","&#9776;","elianto","#3366ff99"," ","-1","0","0","[]","0","0","1","","","","","","","",""
"pit-trial","27","409509","0.0-2.0-8.1-2.1","battery-v0.2","","""event"",""trial"",""time""
""fullscreenenter"",""1"",""5450""
","
","
","""event"",""trial"",""time""
""fullscreenenter"",""1"",""5450""
","
","","","178","","","14","4570","2844","&#9776;","elianto","#3366ff99"," "," ","1","+10","[1028]","1","0","1","","","","","","","",""
"pit-trial","28","414365","0.0-2.0-8.1-3.1","battery-v0.2","","""event"",""trial"",""time""
""fullscreenenter"",""1"",""5450""
","
","
","""event"",""trial"",""time""
""fullscreenenter"",""1"",""5450""
","
","","","-1","","","14","4570","2844","&#9776;","elianto","#3366ff99"," ","-1","0","+10","[]","0","0","1","","","","","","","",""
"pit-trial","29","417647","0.0-2.0-8.1-4.1","battery-v0.2","","""event"",""trial"",""time""
""fullscreenenter"",""1"",""5450""
","
","
","""event"",""trial"",""time""
""fullscreenenter"",""1"",""5450""
","
","","","425.0000000000582","","","14","4570","2844","&#9776;","elianto","#3366ff99"," "," ","1","+10","[1275]","1","0","1","","","","","","","",""
"pit-trial","30","422504","0.0-2.0-8.2-0.2","battery-v0.2","","""event"",""trial"",""time""
""fullscreenenter"",""1"",""5450""
","
","
","""event"",""trial"",""time""
""fullscreenenter"",""1"",""5450""
","
","","","-1","","","14","4570","2844","&#9776;","elianto","#3366ff99"," ","-1","0","0","[]","0","0","1","","","","","","","",""
"pit-trial","31","427361","0.0-2.0-8.2-1.2","battery-v0.2","","""event"",""trial"",""time""
""fullscreenenter"",""1"",""5450""
","
","
","""event"",""trial"",""time""
""fullscreenenter"",""1"",""5450""
","
","","","-1","","","14","4570","2844","&#9776;","elianto","#3366ff99"," ","-1","0","0","[]","0","0","1","","","","","","","",""
"pit-trial","32","431336","0.0-2.0-8.2-2.2","battery-v0.2","","""event"",""trial"",""time""
""fullscreenenter"",""1"",""5450""
","
","
","""event"",""trial"",""time""
""fullscreenenter"",""1"",""5450""
","
","","","1119","","","14","4570","2844","&#9776;","elianto","#3366ff99"," "," ","1","+10","[1970]","1","0","1","","","","","","","",""
"pit-trial","33","436193","0.0-2.0-8.2-3.2","battery-v0.2","","""event"",""trial"",""time""
""fullscreenenter"",""1"",""5450""
","
","
","""event"",""trial"",""time""
""fullscreenenter"",""1"",""5450""
","
","","","-1","","","14","4570","2844","&#9776;","elianto","#3366ff99"," ","-1","0","+10","[]","0","0","1","","","","","","","",""
"pit-trial","34","439731","0.0-2.0-8.2-4.2","battery-v0.2","","""event"",""trial"",""time""
""fullscreenenter"",""1"",""5450""
","
","
","""event"",""trial"",""time""
""fullscreenenter"",""1"",""5450""
","
","","","681.0000000000582","","","14","4570","2844","&#9776;","elianto","#3366ff99"," "," ","1","+10","[1532.0000000000582]","1","0","1","","","","","","","",""
"call-function","35","439735","0.0-2.0-9.0","battery-v0.2","","""event"",""trial"",""time""
""fullscreenenter"",""1"",""5450""
","
","
","""event"",""trial"",""time""
""fullscreenenter"",""1"",""5450""
","
","","","","","","","","","","","","","","","","","","","","","","","","","","",""
"pit-instructions","36","480071","0.0-2.0-10.0","battery-v0.2","","""event"",""trial"",""time""
""fullscreenenter"",""1"",""5450""
","
","
","""event"",""trial"",""time""
""fullscreenenter"",""1"",""5450""
","
","","[{""page_index"":0,""viewing_time"":5846},{""page_index"":1,""viewing_time"":6753},{""page_index"":2,""viewing_time"":9216.000000000058},{""page_index"":3,""viewing_time"":11072.999999999942},{""page_index"":4,""viewing_time"":7448}]","40336","","","","","","","","","","","","","","","","","","","","","","","",""
"pit-trial","37","484926","0.0-2.0-11.0-0.0","battery-v0.2","","""event"",""trial"",""time""
""fullscreenenter"",""1"",""5450""
","
","
","""event"",""trial"",""time""
""fullscreenenter"",""1"",""5450""
","
","","","-1","","","14","4570","2844","&#9761;","elianto","#3366ff99","-1","-1","1","+10","[]","0","0","2","","","","","","","",""
"pit-trial","38","489782","0.0-2.0-11.0-1.0","battery-v0.2","","""event"",""trial"",""time""
""fullscreenenter"",""1"",""5450""
","
","
","""event"",""trial"",""time""
""fullscreenenter"",""1"",""5450""
","
","","","-1","","","14","4570","2844","&#9761;","elianto","#3366ff99","-1","-1","1","+10","[]","0","0","2","","","","","","","",""
"pit-trial","39","494646","0.0-2.0-11.0-2.0","battery-v0.2","","""event"",""trial"",""time""
""fullscreenenter"",""1"",""5450""
","
","
","""event"",""trial"",""time""
""fullscreenenter"",""1"",""5450""
","
","","","-1","","","14","4570","2844","&#9761;","elianto","#3366ff99","-1","-1","1","+10","[]","0","0","2","","","","","","","",""
"pit-trial","40","499502","0.0-2.0-11.0-3.0","battery-v0.2","","""event"",""trial"",""time""
""fullscreenenter"",""1"",""5450""
","
","
","""event"",""trial"",""time""
""fullscreenenter"",""1"",""5450""
","
","","","-1","","","14","4570","2844","&#9761;","elianto","#3366ff99","-1","-1","1","0","[]","0","0","2","","","","","","","",""
"pit-trial","41","504359","0.0-2.0-11.0-4.0","battery-v0.2","","""event"",""trial"",""time""
""fullscreenenter"",""1"",""5450""
","
","
","""event"",""trial"",""time""
""fullscreenenter"",""1"",""5450""
","
","","","-1","","","14","4570","2844","&#9761;","elianto","#3366ff99","-1","-1","1","+10","[]","0","0","2","","","","","","","",""
"pit-trial","42","509217","0.0-2.0-11.1-0.1","battery-v0.2","","""event"",""trial"",""time""
""fullscreenenter"",""1"",""5450""
","
","
","""event"",""trial"",""time""
""fullscreenenter"",""1"",""5450""
","
","","","-1","","","14","4570","2844","&#9761;","elianto","#3366ff99","-1","-1","1","+10","[]","0","0","2","","","","","","","",""
"pit-trial","43","514075","0.0-2.0-11.1-1.1","battery-v0.2","","""event"",""trial"",""time""
""fullscreenenter"",""1"",""5450""
","
","
","""event"",""trial"",""time""
""fullscreenenter"",""1"",""5450""
","
","","","-1","","","14","4570","2844","&#9761;","elianto","#3366ff99","-1","-1","1","+10","[]","0","0","2","","","","","","","",""
"pit-trial","44","518932","0.0-2.0-11.1-2.1","battery-v0.2","","""event"",""trial"",""time""
""fullscreenenter"",""1"",""5450""
","
","
","""event"",""trial"",""time""
""fullscreenenter"",""1"",""5450""
","
","","","-1","","","14","4570","2844","&#9761;","elianto","#3366ff99","-1","-1","1","+10","[]","0","0","2","","","","","","","",""
"pit-trial","45","523789","0.0-2.0-11.1-3.1","battery-v0.2","","""event"",""trial"",""time""
""fullscreenenter"",""1"",""5450""
","
","
","""event"",""trial"",""time""
""fullscreenenter"",""1"",""5450""
","
","","","-1","","","14","4570","2844","&#9761;","elianto","#3366ff99","-1","-1","1","0","[]","0","0","2","","","","","","","",""
"pit-trial","46","528647","0.0-2.0-11.1-4.1","battery-v0.2","","""event"",""trial"",""time""
""fullscreenenter"",""1"",""5450""
","
","
","""event"",""trial"",""time""
""fullscreenenter"",""1"",""5450""
","
","","","-1","","","14","4570","2844","&#9761;","elianto","#3366ff99","-1","-1","1","+10","[]","0","0","2","","","","","","","",""
"pit-trial","47","533505","0.0-2.0-11.2-0.2","battery-v0.2","","""event"",""trial"",""time""
""fullscreenenter"",""1"",""5450""
","
","
","""event"",""trial"",""time""
""fullscreenenter"",""1"",""5450""
","
","","","-1","","","14","4570","2844","&#9761;","elianto","#3366ff99","-1","-1","1","+10","[]","0","0","2","","","","","","","",""
"pit-trial","48","538361","0.0-2.0-11.2-1.2","battery-v0.2","","""event"",""trial"",""time""
""fullscreenenter"",""1"",""5450""
","
","
","""event"",""trial"",""time""
""fullscreenenter"",""1"",""5450""
","
","","","-1","","","14","4570","2844","&#9761;","elianto","#3366ff99","-1","-1","1","+10","[]","0","0","2","","","","","","","",""
"pit-trial","49","543219","0.0-2.0-11.2-2.2","battery-v0.2","","""event"",""trial"",""time""
""fullscreenenter"",""1"",""5450""
","
","
","""event"",""trial"",""time""
""fullscreenenter"",""1"",""5450""
","
","","","-1","","","14","4570","2844","&#9761;","elianto","#3366ff99","-1","-1","1","+10","[]","0","0","2","","","","","","","",""
"pit-trial","50","548074","0.0-2.0-11.2-3.2","battery-v0.2","","""event"",""trial"",""time""
""fullscreenenter"",""1"",""5450""
","
","
","""event"",""trial"",""time""
""fullscreenenter"",""1"",""5450""
","
","","","-1","","","14","4570","2844","&#9761;","elianto","#3366ff99","-1","-1","1","0","[]","0","0","2","","","","","","","",""
"pit-trial","51","552930","0.0-2.0-11.2-4.2","battery-v0.2","","""event"",""trial"",""time""
""fullscreenenter"",""1"",""5450""
","
","
","""event"",""trial"",""time""
""fullscreenenter"",""1"",""5450""
","
","","","-1","","","14","4570","2844","&#9761;","elianto","#3366ff99","-1","-1","1","+10","[]","0","0","2","","","","","","","",""
"pit-trial","52","557785","0.0-2.0-11.3-0.3","battery-v0.2","","""event"",""trial"",""time""
""fullscreenenter"",""1"",""5450""
","
","
","""event"",""trial"",""time""
""fullscreenenter"",""1"",""5450""
","
","","","-1","","","14","4570","2844","&#9761;","elianto","#3366ff99","-1","-1","1","+10","[]","0","0","2","","","","","","","",""
"pit-trial","53","562643","0.0-2.0-11.3-1.3","battery-v0.2","","""event"",""trial"",""time""
""fullscreenenter"",""1"",""5450""
","
","
","""event"",""trial"",""time""
""fullscreenenter"",""1"",""5450""
","
","","","-1","","","14","4570","2844","&#9761;","elianto","#3366ff99","-1","-1","1","+10","[]","0","0","2","","","","","","","",""
"pit-trial","54","565874","0.0-2.0-11.3-2.3","battery-v0.2","","""event"",""trial"",""time""
""fullscreenenter"",""1"",""5450""
","
","
","""event"",""trial"",""time""
""fullscreenenter"",""1"",""5450""
","
","","","374","","","14","4570","2844","&#9761;","elianto","#3366ff99","-1"," ","0","0","[1224.9999999998836]","1","0","2","","","","","","","",""
"pit-trial","55","569235","0.0-2.0-11.3-3.3","battery-v0.2","","""event"",""trial"",""time""
""fullscreenenter"",""1"",""5450""
","
","
","""event"",""trial"",""time""
""fullscreenenter"",""1"",""5450""
","
","","","503","","","14","4570","2844","&#9761;","elianto","#3366ff99","-1"," ","0","+10","[1355]","1","0","2","","","","","","","",""
"pit-trial","56","574091","0.0-2.0-11.3-4.3","battery-v0.2","","""event"",""trial"",""time""
""fullscreenenter"",""1"",""5450""
","
","
","""event"",""trial"",""time""
""fullscreenenter"",""1"",""5450""
","
","","","-1","","","14","4570","2844","&#9761;","elianto","#3366ff99","-1","-1","1","+10","[]","0","0","2","","","","","","","",""
"call-function","57","574092","0.0-2.0-12.0","battery-v0.2","","""event"",""trial"",""time""
""fullscreenenter"",""1"",""5450""
","
","
","""event"",""trial"",""time""
""fullscreenenter"",""1"",""5450""
","
","","","","","","","","","","","","","","","","","","","","","","","","","","",""
"pit-instructions","58","609877","0.0-2.0-13.0","battery-v0.2","","""event"",""trial"",""time""
""fullscreenenter"",""1"",""5450""
","
","
","""event"",""trial"",""time""
""fullscreenenter"",""1"",""5450""
","
","","[{""page_index"":0,""viewing_time"":7217},{""page_index"":1,""viewing_time"":8311},{""page_index"":2,""viewing_time"":4619},{""page_index"":3,""viewing_time"":10062},{""page_index"":4,""viewing_time"":5576}]","35785","","","","","","","","","","","","","","","","","","","","","","","",""
"pit-trial","59","613212","0.0-2.0-14.0-0.0","battery-v0.2","","""event"",""trial"",""time""
""fullscreenenter"",""1"",""5450""
","
","
","""event"",""trial"",""time""
""fullscreenenter"",""1"",""5450""
","
","","","480","","","14","4570","2844","&#9826;","elianto","#f73b6a7A","-1"," ","0","-10","[1330]","1","0","3","","","","","","","",""
"pit-trial","60","618069","0.0-2.0-14.0-1.0","battery-v0.2","","""event"",""trial"",""time""
""fullscreenenter"",""1"",""5450""
","
","
","""event"",""trial"",""time""
""fullscreenenter"",""1"",""5450""
","
","","","-1","","","14","4570","2844","&#9826;","elianto","#f73b6a7A","-1","-1","1","0","[]","0","0","3","","","","","","","",""
"pit-trial","61","622927","0.0-2.0-14.0-2.0","battery-v0.2","","""event"",""trial"",""time""
""fullscreenenter"",""1"",""5450""
","
","
","""event"",""trial"",""time""
""fullscreenenter"",""1"",""5450""
","
","","","-1","","","14","4570","2844","&#9826;","elianto","#f73b6a7A","-1","-1","1","0","[]","0","0","3","","","","","","","",""
"pit-trial","62","627783","0.0-2.0-14.0-3.0","battery-v0.2","","""event"",""trial"",""time""
""fullscreenenter"",""1"",""5450""
","
","
","""event"",""trial"",""time""
""fullscreenenter"",""1"",""5450""
","
","","","-1","","","14","4570","2844","&#9826;","elianto","#f73b6a7A","-1","-1","1","-10","[]","0","0","3","","","","","","","",""
"pit-trial","63","632640","0.0-2.0-14.0-4.0","battery-v0.2","","""event"",""trial"",""time""
""fullscreenenter"",""1"",""5450""
","
","
","""event"",""trial"",""time""
""fullscreenenter"",""1"",""5450""
","
","","","-1","","","14","4570","2844","&#9826;","elianto","#f73b6a7A","-1","-1","1","0","[]","0","0","3","","","","","","","",""
"pit-trial","64","637497","0.0-2.0-14.1-0.1","battery-v0.2","","""event"",""trial"",""time""
""fullscreenenter"",""1"",""5450""
","
","
","""event"",""trial"",""time""
""fullscreenenter"",""1"",""5450""
","
","","","-1","","","14","4570","2844","&#9826;","elianto","#f73b6a7A","-1","-1","1","0","[]","0","0","3","","","","","","","",""
"pit-trial","65","642354","0.0-2.0-14.1-1.1","battery-v0.2","","""event"",""trial"",""time""
""fullscreenenter"",""1"",""5450""
","
","
","""event"",""trial"",""time""
""fullscreenenter"",""1"",""5450""
","
","","","-1","","","14","4570","2844","&#9826;","elianto","#f73b6a7A","-1","-1","1","0","[]","0","0","3","","","","","","","",""
"pit-trial","66","647210","0.0-2.0-14.1-2.1","battery-v0.2","","""event"",""trial"",""time""
""fullscreenenter"",""1"",""5450""
","
","
","""event"",""trial"",""time""
""fullscreenenter"",""1"",""5450""
","
","","","-1","","","14","4570","2844","&#9826;","elianto","#f73b6a7A","-1","-1","1","0","[]","0","0","3","","","","","","","",""
"pit-trial","67","652066","0.0-2.0-14.1-3.1","battery-v0.2","","""event"",""trial"",""time""
""fullscreenenter"",""1"",""5450""
","
","
","""event"",""trial"",""time""
""fullscreenenter"",""1"",""5450""
","
","","","-1","","","14","4570","2844","&#9826;","elianto","#f73b6a7A","-1","-1","1","-10","[]","0","0","3","","","","","","","",""
"pit-trial","68","656921","0.0-2.0-14.1-4.1","battery-v0.2","","""event"",""trial"",""time""
""fullscreenenter"",""1"",""5450""
","
","
","""event"",""trial"",""time""
""fullscreenenter"",""1"",""5450""
","
","","","-1","","","14","4570","2844","&#9826;","elianto","#f73b6a7A","-1","-1","1","0","[]","0","0","3","","","","","","","",""
"pit-trial","69","661778","0.0-2.0-14.2-0.2","battery-v0.2","","""event"",""trial"",""time""
""fullscreenenter"",""1"",""5450""
","
","
","""event"",""trial"",""time""
""fullscreenenter"",""1"",""5450""
","
","","","-1","","","14","4570","2844","&#9826;","elianto","#f73b6a7A","-1","-1","1","0","[]","0","0","3","","","","","","","",""
"pit-trial","70","666634","0.0-2.0-14.2-1.2","battery-v0.2","","""event"",""trial"",""time""
""fullscreenenter"",""1"",""5450""
","
","
","""event"",""trial"",""time""
""fullscreenenter"",""1"",""5450""
","
","","","-1","","","14","4570","2844","&#9826;","elianto","#f73b6a7A","-1","-1","1","0","[]","0","0","3","","","","","","","",""
"pit-trial","71","671177","0.0-2.0-14.2-2.2","battery-v0.2","","""event"",""trial"",""time""
""fullscreenenter"",""1"",""5450""
","
","
","""event"",""trial"",""time""
""fullscreenenter"",""1"",""5450""
","
","","","1686","","","14","4570","2844","&#9826;","elianto","#f73b6a7A","-1"," ","0","-10","[2537]","1","0","3","","","","","","","",""
"pit-trial","72","674647","0.0-2.0-14.2-3.2","battery-v0.2","","""event"",""trial"",""time""
""fullscreenenter"",""1"",""5450""
","
","
","""event"",""trial"",""time""
""fullscreenenter"",""1"",""5450""
","
","","","615","","","14","4570","2844","&#9826;","elianto","#f73b6a7A","-1"," ","0","0","[1465]","1","0","3","","","","","","","",""
"pit-trial","73","678668","0.0-2.0-14.2-4.2","battery-v0.2","","""event"",""trial"",""time""
""fullscreenenter"",""1"",""5450""
","
","
","""event"",""trial"",""time""
""fullscreenenter"",""1"",""5450""
","
","","","1164","","","14","4570","2844","&#9826;","elianto","#f73b6a7A","-1"," ","0","-10","[2014]","1","0","3","","","","","","","",""
"pit-trial","74","683525","0.0-2.0-14.3-0.3","battery-v0.2","","""event"",""trial"",""time""
""fullscreenenter"",""1"",""5450""
","
","
","""event"",""trial"",""time""
""fullscreenenter"",""1"",""5450""
","
","","","-1","","","14","4570","2844","&#9826;","elianto","#f73b6a7A","-1","-1","1","0","[]","0","0","3","","","","","","","",""
"pit-trial","75","688381","0.0-2.0-14.3-1.3","battery-v0.2","","""event"",""trial"",""time""
""fullscreenenter"",""1"",""5450""
","
","
","""event"",""trial"",""time""
""fullscreenenter"",""1"",""5450""
","
","","","-1","","","14","4570","2844","&#9826;","elianto","#f73b6a7A","-1","-1","1","0","[]","0","0","3","","","","","","","",""
"pit-trial","76","693238","0.0-2.0-14.3-2.3","battery-v0.2","","""event"",""trial"",""time""
""fullscreenenter"",""1"",""5450""
","
","
","""event"",""trial"",""time""
""fullscreenenter"",""1"",""5450""
","
","","","-1","","","14","4570","2844","&#9826;","elianto","#f73b6a7A","-1","-1","1","0","[]","0","0","3","","","","","","","",""
"pit-trial","77","698095","0.0-2.0-14.3-3.3","battery-v0.2","","""event"",""trial"",""time""
""fullscreenenter"",""1"",""5450""
","
","
","""event"",""trial"",""time""
""fullscreenenter"",""1"",""5450""
","
","","","-1","","","14","4570","2844","&#9826;","elianto","#f73b6a7A","-1","-1","1","-10","[]","0","0","3","","","","","","","",""
"pit-trial","78","702951","0.0-2.0-14.3-4.3","battery-v0.2","","""event"",""trial"",""time""
""fullscreenenter"",""1"",""5450""
","
","
","""event"",""trial"",""time""
""fullscreenenter"",""1"",""5450""
","
","","","-1","","","14","4570","2844","&#9826;","elianto","#f73b6a7A","-1","-1","1","0","[]","0","0","3","","","","","","","",""
"call-function","79","702955","0.0-2.0-15.0","battery-v0.2","","""event"",""trial"",""time""
""fullscreenenter"",""1"",""5450""
","
","
","""event"",""trial"",""time""
""fullscreenenter"",""1"",""5450""
","
","","","","","","","","","","","","","","","","","","","","","","","","","","",""
"pit-instructions","80","731158","0.0-2.0-16.0","battery-v0.2","","""event"",""trial"",""time""
""fullscreenenter"",""1"",""5450""
","
","
","""event"",""trial"",""time""
""fullscreenenter"",""1"",""5450""
","
","","[{""page_index"":0,""viewing_time"":6687},{""page_index"":1,""viewing_time"":8895},{""page_index"":2,""viewing_time"":8457},{""page_index"":3,""viewing_time"":4162}]","28202","","","","","","","","","","","","","","","","","","","","","","","",""
"pit-trial","81","734125","0.0-2.0-17.0-0.0","battery-v0.2","","""event"",""trial"",""time""
""fullscreenenter"",""1"",""5450""
","
","
","""event"",""trial"",""time""
""fullscreenenter"",""1"",""5450""
","
","","","108","","","14","4570","2844","&#9789;","elianto","#f73b6a7A"," "," ","1","0","[959,1255,1492,1695,2005,2203,2506,2724]","8","0","4","","","","","","","",""
"pit-trial","82","737133","0.0-2.0-17.0-1.0","battery-v0.2","","""event"",""trial"",""time""
""fullscreenenter"",""1"",""5450""
","
","
","""event"",""trial"",""time""
""fullscreenenter"",""1"",""5450""
","
","","","152.00000000011642","","","14","4570","2844","&#9789;","elianto","#f73b6a7A"," "," ","1","0","[357,592,795,1005.0000000001164,1206,1612,1793,2001,2462.0000000001164,2718,2944]","11","0","4","","","","","","","",""
"pit-trial","83","740246","0.0-2.0-17.0-2.0","battery-v0.2","","""event"",""trial"",""time""
""fullscreenenter"",""1"",""5450""
","
","
","""event"",""trial"",""time""
""fullscreenenter"",""1"",""5450""
","
","","","258.9999999998836","","","14","4570","2844","&#9789;","elianto","#f73b6a7A"," "," ","1","0","[202.99999999988358,426.9999999998836,828.9999999998836,1108.9999999998836,1341,1548,1770.9999999998836]","7","0","4","","","","","","","",""
"pit-trial","84","743826","0.0-2.0-17.0-3.0","battery-v0.2","","""event"",""trial"",""time""
""fullscreenenter"",""1"",""5450""
","
","
","""event"",""trial"",""time""
""fullscreenenter"",""1"",""5450""
","
","","","727","","","14","4570","2844","&#9789;","elianto","#f73b6a7A"," "," ","1","-10","[1578]","1","0","4","","","","","","","",""
"pit-trial","85","746990","0.0-2.0-17.0-4.0","battery-v0.2","","""event"",""trial"",""time""
""fullscreenenter"",""1"",""5450""
","
","
","""event"",""trial"",""time""
""fullscreenenter"",""1"",""5450""
","
","","","308","","","14","4570","2844","&#9789;","elianto","#f73b6a7A"," "," ","1","0","[1158]","1","0","4","","","","","","","",""
"pit-trial","86","750479","0.0-2.0-17.1-0.1","battery-v0.2","","""event"",""trial"",""time""
""fullscreenenter"",""1"",""5450""
","
","
","""event"",""trial"",""time""
""fullscreenenter"",""1"",""5450""
","
","","","633","","","14","4570","2844","&#9789;","elianto","#f73b6a7A"," "," ","1","0","[1483]","1","0","4","","","","","","","",""
"pit-trial","87","753711","0.0-2.0-17.1-1.1","battery-v0.2","","""event"",""trial"",""time""
""fullscreenenter"",""1"",""5450""
","
","
","""event"",""trial"",""time""
""fullscreenenter"",""1"",""5450""
","
","","","376.9999999998836","","","14","4570","2844","&#9789;","elianto","#f73b6a7A"," "," ","1","0","[723,1226,1427.0000000001164]","3","0","4","","","","","","","",""
"pit-trial","88","756723","0.0-2.0-17.1-2.1","battery-v0.2","","""event"",""trial"",""time""
""fullscreenenter"",""1"",""5450""
","
","
","""event"",""trial"",""time""
""fullscreenenter"",""1"",""5450""
","
","","","156","","","14","4570","2844","&#9789;","elianto","#f73b6a7A"," "," ","1","0","[1006]","1","0","4","","","","","","","",""
"pit-trial","89","760965","0.0-2.0-17.1-3.1","battery-v0.2","","""event"",""trial"",""time""
""fullscreenenter"",""1"",""5450""
","
","
","""event"",""trial"",""time""
""fullscreenenter"",""1"",""5450""
","
","","","1385.9999999998836","","","14","4570","2844","&#9789;","elianto","#f73b6a7A"," "," ","1","-10","[2236.9999999998836]","1","0","4","","","","","","","",""
"pit-trial","90","764714","0.0-2.0-17.1-4.1","battery-v0.2","","""event"",""trial"",""time""
""fullscreenenter"",""1"",""5450""
","
","
","""event"",""trial"",""time""
""fullscreenenter"",""1"",""5450""
","
","","","895","","","14","4570","2844","&#9789;","elianto","#f73b6a7A"," "," ","1","0","[1745]","1","0","4","","","","","","","",""
"pit-trial","91","768377","0.0-2.0-17.2-0.2","battery-v0.2","","""event"",""trial"",""time""
""fullscreenenter"",""1"",""5450""
","
","
","""event"",""trial"",""time""
""fullscreenenter"",""1"",""5450""
","
","","","806.0000000001164","","","14","4570","2844","&#9789;","elianto","#f73b6a7A"," "," ","1","0","[1657.0000000001164]","1","0","4","","","","","","","",""
"pit-trial","92","771872","0.0-2.0-17.2-1.2","battery-v0.2","","""event"",""trial"",""time""
""fullscreenenter"",""1"",""5450""
","
","
","""event"",""trial"",""time""
""fullscreenenter"",""1"",""5450""
","
","","","637.9999999998836","","","14","4570","2844","&#9789;","elianto","#f73b6a7A"," "," ","1","0","[1488,1629.0000000001164]","2","0","4","","","","","","","",""
"pit-trial","93","775192","0.0-2.0-17.2-2.2","battery-v0.2","","""event"",""trial"",""time""
""fullscreenenter"",""1"",""5450""
","
","
","""event"",""trial"",""time""
""fullscreenenter"",""1"",""5450""
","
","","","462","","","14","4570","2844","&#9789;","elianto","#f73b6a7A"," "," ","1","0","[1313]","1","0","4","","","","","","","",""
"pit-trial","94","779152","0.0-2.0-17.2-3.2","battery-v0.2","","""event"",""trial"",""time""
""fullscreenenter"",""1"",""5450""
","
","
","""event"",""trial"",""time""
""fullscreenenter"",""1"",""5450""
","
","","","1103","","","14","4570","2844","&#9789;","elianto","#f73b6a7A"," "," ","1","-10","[1953]","1","0","4","","","","","","","",""
"pit-trial","95","782343","0.0-2.0-17.2-4.2","battery-v0.2","","""event"",""trial"",""time""
""fullscreenenter"",""1"",""5450""
","
","
","""event"",""trial"",""time""
""fullscreenenter"",""1"",""5450""
","
","","","334","","","14","4570","2844","&#9789;","elianto","#f73b6a7A"," "," ","1","0","[1185]","1","0","4","","","","","","","",""
"pit-trial","96","786527","0.0-2.0-17.3-0.3","battery-v0.2","","""event"",""trial"",""time""
""fullscreenenter"",""1"",""5450""
","
","
","""event"",""trial"",""time""
""fullscreenenter"",""1"",""5450""
","
","","","1326","","","14","4570","2844","&#9789;","elianto","#f73b6a7A"," "," ","1","0","[2177]","1","0","4","","","","","","","",""
"pit-trial","97","790393","0.0-2.0-17.3-1.3","battery-v0.2","","""event"",""trial"",""time""
""fullscreenenter"",""1"",""5450""
","
","
","""event"",""trial"",""time""
""fullscreenenter"",""1"",""5450""
","
","","","1009","","","14","4570","2844","&#9789;","elianto","#f73b6a7A"," "," ","1","0","[1860]","1","0","4","","","","","","","",""
"pit-trial","98","794252","0.0-2.0-17.3-2.3","battery-v0.2","","""event"",""trial"",""time""
""fullscreenenter"",""1"",""5450""
","
","
","""event"",""trial"",""time""
""fullscreenenter"",""1"",""5450""
","
","","","1003","","","14","4570","2844","&#9789;","elianto","#f73b6a7A"," "," ","1","0","[1854]","1","0","4","","","","","","","",""
"pit-trial","99","799109","0.0-2.0-17.3-3.3","battery-v0.2","","""event"",""trial"",""time""
""fullscreenenter"",""1"",""5450""
","
","
","""event"",""trial"",""time""
""fullscreenenter"",""1"",""5450""
","
","","","-1","","","14","4570","2844","&#9789;","elianto","#f73b6a7A"," ","-1","0","0","[3173]","1","0","4","","","","","","","",""
"pit-trial","100","802855","0.0-2.0-17.3-4.3","battery-v0.2","","""event"",""trial"",""time""
""fullscreenenter"",""1"",""5450""
","
","
","""event"",""trial"",""time""
""fullscreenenter"",""1"",""5450""
","
","","","888","","","14","4570","2844","&#9789;","elianto","#f73b6a7A"," "," ","1","0","[1739]","1","0","4","","","","","","","",""
"call-function","101","802860","0.0-2.0-18.0","battery-v0.2","","""event"",""trial"",""time""
""fullscreenenter"",""1"",""5450""
","
","
","""event"",""trial"",""time""
""fullscreenenter"",""1"",""5450""
","
","","","","","","","","","","","","","","","","","","","","","","","","","","",""
"pit-instructions","102","886312","0.0-2.0-19.0","battery-v0.2","","""event"",""trial"",""time""
""fullscreenenter"",""1"",""5450""
","
","
","""event"",""trial"",""time""
""fullscreenenter"",""1"",""5450""
","
","","[{""page_index"":0,""viewing_time"":6639},{""page_index"":1,""viewing_time"":6037},{""page_index"":2,""viewing_time"":8183},{""page_index"":3,""viewing_time"":17729},{""page_index"":4,""viewing_time"":10372},{""page_index"":5,""viewing_time"":12926},{""page_index"":6,""viewing_time"":10878},{""page_index"":7,""viewing_time"":6334},{""page_index"":8,""viewing_time"":4354}]","83453","","","","","","","","","","","","","","","","","","","","","","","",""
"pit-comprehension","103","891870","0.0-2.0-20.0-0.0","battery-v0.2","","""event"",""trial"",""time""
""fullscreenenter"",""1"",""5450""
","
","
","""event"",""trial"",""time""
""fullscreenenter"",""1"",""5450""
","
","","","5552","[""SPACE""]","0","14","4570","2844","","","","","","","","","","","","","","","","","","",""
"pit-instructions","104","894507","0.0-2.0-20.0-1.0","battery-v0.2","","""event"",""trial"",""time""
""fullscreenenter"",""1"",""5450""
","
","
","""event"",""trial"",""time""
""fullscreenenter"",""1"",""5450""
","
","","[{""page_index"":0,""viewing_time"":2596}]","2596","","","","","","","","","","","","","","","","","","","","","","","",""
"pit-comprehension","105","901137","0.0-2.0-21.0-0.0","battery-v0.2","","""event"",""trial"",""time""
""fullscreenenter"",""1"",""5450""
","
","
","""event"",""trial"",""time""
""fullscreenenter"",""1"",""5450""
","
","","","6627","[""10""]","0","14","4570","2844","","","","","","","","","","","","","","","","","","",""
"pit-instructions","106","902645","0.0-2.0-21.0-1.0","battery-v0.2","","""event"",""trial"",""time""
""fullscreenenter"",""1"",""5450""
","
","
","""event"",""trial"",""time""
""fullscreenenter"",""1"",""5450""
","
","","[{""page_index"":0,""viewing_time"":1455.0000000001164}]","1455.0000000001164","","","","","","","","","","","","","","","","","","","","","","","",""
"pit-comprehension","107","909230","0.0-2.0-22.0-0.0","battery-v0.2","","""event"",""trial"",""time""
""fullscreenenter"",""1"",""5450""
","
","
","""event"",""trial"",""time""
""fullscreenenter"",""1"",""5450""
","
","","","6584","[""0""]","0","14","4570","2844","","","","","","","","","","","","","","","","","","",""
"pit-instructions","108","910713","0.0-2.0-22.0-1.0","battery-v0.2","","""event"",""trial"",""time""
""fullscreenenter"",""1"",""5450""
","
","
","""event"",""trial"",""time""
""fullscreenenter"",""1"",""5450""
","
","","[{""page_index"":0,""viewing_time"":1448}]","1448","","","","","","","","","","","","","","","","","","","","","","","",""
"pit-comprehension","109","919215","0.0-2.0-23.0-0.0","battery-v0.2","","""event"",""trial"",""time""
""fullscreenenter"",""1"",""5450""
","
","
","""event"",""trial"",""time""
""fullscreenenter"",""1"",""5450""
","
","","","8500","[""True""]","0","14","4570","2844","","","","","","","","","","","","","","","","","","",""
"pit-instructions","110","920791","0.0-2.0-23.0-1.0","battery-v0.2","","""event"",""trial"",""time""
""fullscreenenter"",""1"",""5450""
","
","
","""event"",""trial"",""time""
""fullscreenenter"",""1"",""5450""
","
","","[{""page_index"":0,""viewing_time"":1529}]","1530","","","","","","","","","","","","","","","","","","","","","","","",""
"pit-comprehension","111","928292","0.0-2.0-24.0-0.0","battery-v0.2","","""event"",""trial"",""time""
""fullscreenenter"",""1"",""5450""
","
","
","""event"",""trial"",""time""
""fullscreenenter"",""1"",""5450""
","
","","","7498.999999999884","[""True""]","0","14","4570","2844","","","","","","","","","","","","","","","","","","",""
"pit-instructions","112","929892","0.0-2.0-24.0-1.0","battery-v0.2","","""event"",""trial"",""time""
""fullscreenenter"",""1"",""5450""
","
","
","""event"",""trial"",""time""
""fullscreenenter"",""1"",""5450""
","
","","[{""page_index"":0,""viewing_time"":1552}]","1552","","","","","","","","","","","","","","","","","","","","","","","",""
"pit-comprehension","113","936820","0.0-2.0-25.0-0.0","battery-v0.2","","""event"",""trial"",""time""
""fullscreenenter"",""1"",""5450""
","
","
","""event"",""trial"",""time""
""fullscreenenter"",""1"",""5450""
","
","","","6924","[""True""]","0","14","4570","2844","","","","","","","","","","","","","","","","","","",""
"pit-instructions","114","938296","0.0-2.0-25.0-1.0","battery-v0.2","","""event"",""trial"",""time""
""fullscreenenter"",""1"",""5450""
","
","
","""event"",""trial"",""time""
""fullscreenenter"",""1"",""5450""
","
","","[{""page_index"":0,""viewing_time"":1425}]","1425","","","","","","","","","","","","","","","","","","","","","","","",""
"pit-comprehension","115","944096","0.0-2.0-26.0-0.0","battery-v0.2","","""event"",""trial"",""time""
""fullscreenenter"",""1"",""5450""
","
","
","""event"",""trial"",""time""
""fullscreenenter"",""1"",""5450""
","
","","","5798","[""False""]","0","14","4570","2844","","","","","","","","","","","","","","","","","","",""
"pit-instructions","116","945669","0.0-2.0-26.0-1.0","battery-v0.2","","""event"",""trial"",""time""
""fullscreenenter"",""1"",""5450""
","
","
","""event"",""trial"",""time""
""fullscreenenter"",""1"",""5450""
","
","","[{""page_index"":0,""viewing_time"":1519.9999999998836}]","1519.9999999998836","","","","","","","","","","","","","","","","","","","","","","","",""
"pit-instructions","117","961464","0.0-3.0","battery-v0.2","","""event"",""trial"",""time""
""fullscreenenter"",""1"",""5450""
","
","
","""event"",""trial"",""time""
""fullscreenenter"",""1"",""5450""
","
","","[{""page_index"":0,""viewing_time"":3481},{""page_index"":1,""viewing_time"":5030},{""page_index"":2,""viewing_time"":7282}]","15794","","","","","","","","","","","","","","","","","","","","","","","",""
"pit-trial","118","964868","0.0-4.0","battery-v0.2","","""event"",""trial"",""time""
""fullscreenenter"",""1"",""5450""
","
","
","""event"",""trial"",""time""
""fullscreenenter"",""1"",""5450""
","
","","","538","","","14","4570","2844","&#9752;","elianto","#f73b6a7A"," "," ","1","0","[1389]","1","1","","","4570","1","3","3","lose","go","0"
"pit-trial","119","968610","0.0-5.0","battery-v0.2","","""event"",""trial"",""time""
""fullscreenenter"",""1"",""5450""
","
","
","""event"",""trial"",""time""
""fullscreenenter"",""1"",""5450""
","
","","","884","","","14","4570","2844","&#9728;","elianto","#f73b6a7A","-1"," ","0","-10","[1735]","1","1","","","4570","2","0","4","lose","no-go","0"
"pit-trial","120","972220","0.0-6.0","battery-v0.2","","""event"",""trial"",""time""
""fullscreenenter"",""1"",""5450""
","
","
","""event"",""trial"",""time""
""fullscreenenter"",""1"",""5450""
","
","","","754","","","14","4570","2844","&#9730;","elianto","#3366ff99"," "," ","1","+10","[1604]","1","1","","","4570","3","1","1","win","go","0"
"pit-trial","121","976053","0.0-7.0","battery-v0.2","","""event"",""trial"",""time""
""fullscreenenter"",""1"",""5450""
","
","
","""event"",""trial"",""time""
""fullscreenenter"",""1"",""5450""
","
","","","974","","","14","4570","2844","&#9733;","elianto","#3366ff99","-1"," ","0","0","[1825]","1","1","","","4570","4","2","2","win","no-go","0"
"pit-trial","122","980912","0.0-8.0","battery-v0.2","","""event"",""trial"",""time""
""fullscreenenter"",""1"",""5450""
","
","
","""event"",""trial"",""time""
""fullscreenenter"",""1"",""5450""
","
","","","-1","","","14","4570","2844","&#9728;","elianto","#f73b6a7A","-1","-1","1","0","[]","0","1","","","4570","5","0","4","lose","no-go","0"
"pit-trial","123","984707","0.0-9.0","battery-v0.2","","""event"",""trial"",""time""
""fullscreenenter"",""1"",""5450""
","
","
","""event"",""trial"",""time""
""fullscreenenter"",""1"",""5450""
","
","","","934","","","14","4570","2844","&#9730;","elianto","#3366ff99"," "," ","1","0","[1785]","1","1","","","4570","6","1","1","win","go","1"
"pit-trial","124","989566","0.0-10.0","battery-v0.2","","""event"",""trial"",""time""
""fullscreenenter"",""1"",""5450""
","
","
","""event"",""trial"",""time""
""fullscreenenter"",""1"",""5450""
","
","","","-1","","","14","4570","2844","&#9733;","elianto","#3366ff99","-1","-1","1","0","[2998]","1","1","","","4570","7","2","2","win","no-go","1"
"pit-trial","125","993674","0.0-11.0","battery-v0.2","","""event"",""trial"",""time""
""fullscreenenter"",""1"",""5450""
","
","
","""event"",""trial"",""time""
""fullscreenenter"",""1"",""5450""
","
","","","1252","","","14","4570","2844","&#9752;","elianto","#f73b6a7A"," "," ","1","0","[2103]","1","1","","","4570","8","3","3","lose","go","0"
"pit-trial","126","997247","0.0-12.0","battery-v0.2","","""event"",""trial"",""time""
""fullscreenenter"",""1"",""5450""
","
","
","""event"",""trial"",""time""
""fullscreenenter"",""1"",""5450""
","
","","","716","","","14","4570","2844","&#9733;","elianto","#3366ff99","-1"," ","0","0","[1567]","1","1","","","4570","9","2","2","win","no-go","0"
"pit-trial","127","1002103","0.0-13.0","battery-v0.2","","""event"",""trial"",""time""
""fullscreenenter"",""1"",""5450""
","
","
","""event"",""trial"",""time""
""fullscreenenter"",""1"",""5450""
","
","","","-1","","","14","4570","2844","&#9752;","elianto","#f73b6a7A"," ","-1","0","-10","[]","0","1","","","4570","10","3","3","lose","go","0"
"pit-trial","128","1005921","0.0-14.0","battery-v0.2","","""event"",""trial"",""time""
""fullscreenenter"",""1"",""5450""
","
","
","""event"",""trial"",""time""
""fullscreenenter"",""1"",""5450""
","
","","","963","","","14","4570","2844","&#9730;","elianto","#3366ff99"," "," ","1","+10","[1814]","1","1","","","4570","11","1","1","win","go","0"
"pit-trial","129","1010201","0.0-15.0","battery-v0.2","","""event"",""trial"",""time""
""fullscreenenter"",""1"",""5450""
","
","
","""event"",""trial"",""time""
""fullscreenenter"",""1"",""5450""
","
","","","1423","","","14","4570","2844","&#9728;","elianto","#f73b6a7A","-1"," ","0","-10","[2273.0000000001164]","1","1","","","4570","12","0","4","lose","no-go","0"
"pit-trial","130","1013955","0.0-16.0","battery-v0.2","","""event"",""trial"",""time""
""fullscreenenter"",""1"",""5450""
","
","
","""event"",""trial"",""time""
""fullscreenenter"",""1"",""5450""
","
","","","899","","","14","4570","2844","&#9730;","elianto","#3366ff99"," "," ","1","+10","[1749]","1","1","","","4570","13","1","1","win","go","0"
"pit-trial","131","1018184","0.0-17.0","battery-v0.2","","""event"",""trial"",""time""
""fullscreenenter"",""1"",""5450""
","
","
","""event"",""trial"",""time""
""fullscreenenter"",""1"",""5450""
","
","","","1371","","","14","4570","2844","&#9733;","elianto","#3366ff99","-1"," ","0","0","[2221]","1","1","","","4570","14","2","2","win","no-go","0"
"pit-trial","132","1022051","0.0-18.0","battery-v0.2","","""event"",""trial"",""time""
""fullscreenenter"",""1"",""5450""
","
","
","""event"",""trial"",""time""
""fullscreenenter"",""1"",""5450""
","
","","","1010","","","14","4570","2844","&#9728;","elianto","#f73b6a7A","-1"," ","0","-10","[1859.9999999998836]","1","1","","","4570","15","0","4","lose","no-go","0"
"pit-trial","133","1026647","0.0-19.0","battery-v0.2","","""event"",""trial"",""time""
""fullscreenenter"",""1"",""5450""
","
","
","""event"",""trial"",""time""
""fullscreenenter"",""1"",""5450""
","
","","","1739","","","14","4570","2844","&#9752;","elianto","#f73b6a7A"," "," ","1","0","[2589]","1","1","","","4570","16","3","3","lose","go","0"
"pit-trial","134","1030547","0.0-20.0","battery-v0.2","","""event"",""trial"",""time""
""fullscreenenter"",""1"",""5450""
","
","
","""event"",""trial"",""time""
""fullscreenenter"",""1"",""5450""
","
","","","1038","","","14","4570","2844","&#9752;","elianto","#f73b6a7A"," "," ","1","0","[1888]","1","1","","","4570","17","3","3","lose","go","0"
"pit-trial","135","1035406","0.0-21.0","battery-v0.2","","""event"",""trial"",""time""
""fullscreenenter"",""1"",""5450""
","
","
","""event"",""trial"",""time""
""fullscreenenter"",""1"",""5450""
","
","","","-1","","","14","4570","2844","&#9728;","elianto","#f73b6a7A","-1","-1","1","-10","[]","0","1","","","4570","18","0","4","lose","no-go","1"
"pit-trial","136","1039260","0.0-22.0","battery-v0.2","","""event"",""trial"",""time""
""fullscreenenter"",""1"",""5450""
","
","
","""event"",""trial"",""time""
""fullscreenenter"",""1"",""5450""
","
","","","995.0000000001164","","","14","4570","2844","&#9730;","elianto","#3366ff99"," "," ","1","+10","[1846]","1","1","","","4570","19","1","1","win","go","0"
"pit-trial","137","1044119","0.0-23.0","battery-v0.2","","""event"",""trial"",""time""
""fullscreenenter"",""1"",""5450""
","
","
","""event"",""trial"",""time""
""fullscreenenter"",""1"",""5450""
","
","","","-1","","","14","4570","2844","&#9733;","elianto","#3366ff99","-1","-1","1","+10","[]","0","1","","","4570","20","2","2","win","no-go","0"
"pit-instructions","138","1055943","0.0-24.0","battery-v0.2","","""event"",""trial"",""time""
""fullscreenenter"",""1"",""5450""
","
","
","""event"",""trial"",""time""
""fullscreenenter"",""1"",""5450""
","
","","[{""page_index"":0,""viewing_time"":5492.999999999884},{""page_index"":1,""viewing_time"":6324}]","11817.999999999884","","","","","","","","","","","","","","","","","","","","","","","",""
"pit-trial","139","1059641","0.0-25.0","battery-v0.2","","""event"",""trial"",""time""
""fullscreenenter"",""1"",""5450""
","
","
","""event"",""trial"",""time""
""fullscreenenter"",""1"",""5450""
","
","","","842","","","14","4570","2844","a","elianto","#f73b6a7A","-1"," ","0","-10","[1691]","1","2","","","4570","21","2","4","lose","no-go","0"
"pit-trial","140","1063678","0.0-26.0","battery-v0.2","","""event"",""trial"",""time""
""fullscreenenter"",""1"",""5450""
","
","
","""event"",""trial"",""time""
""fullscreenenter"",""1"",""5450""
","
","","","1180","","","14","4570","2844","g","elianto","#f73b6a7A"," "," ","1","0","[2031]","1","2","","","4570","22","3","3","lose","go","0"
"pit-trial","141","1068536","0.0-27.0","battery-v0.2","","""event"",""trial"",""time""
""fullscreenenter"",""1"",""5450""
","
","
","""event"",""trial"",""time""
""fullscreenenter"",""1"",""5450""
","
","","","-1","","","14","4570","2844","u","elianto","#f73b6a7A","-1","-1","1","-10","[]","0","2","","","4570","23","0","4","lose","no-go","1"
"pit-trial","142","1072188","0.0-28.0","battery-v0.2","","""event"",""trial"",""time""
""fullscreenenter"",""1"",""5450""
","
","
","""event"",""trial"",""time""
""fullscreenenter"",""1"",""5450""
","
","","","794","","","14","4570","2844","l","elianto","#3366ff99"," "," ","1","+10","[1644]","1","2","","","4570","24","1","1","win","go","0"
"pit-trial","143","1075827","0.0-29.0","battery-v0.2","","""event"",""trial"",""time""
""fullscreenenter"",""1"",""5450""
","
","
","""event"",""trial"",""time""
""fullscreenenter"",""1"",""5450""
","
","","","782","","","14","4570","2844","l","elianto","#3366ff99"," "," ","1","+10","[1632]","1","2","","","4570","25","1","1","win","go","0"
"pit-trial","144","1079859","0.0-30.0","battery-v0.2","","""event"",""trial"",""time""
""fullscreenenter"",""1"",""5450""
","
","
","""event"",""trial"",""time""
""fullscreenenter"",""1"",""5450""
","
","","","1175","","","14","4570","2844","a","elianto","#f73b6a7A","-1"," ","0","-10","[2025]","1","2","","","4570","26","2","4","lose","no-go","0"
"pit-trial","145","1084715","0.0-31.0","battery-v0.2","","""event"",""trial"",""time""
""fullscreenenter"",""1"",""5450""
","
","
","""event"",""trial"",""time""
""fullscreenenter"",""1"",""5450""
","
","","","-1","","","14","4570","2844","g","elianto","#f73b6a7A"," ","-1","0","0","[]","0","2","","","4570","27","3","3","lose","go","1"
"pit-trial","146","1089574","0.0-32.0","battery-v0.2","","""event"",""trial"",""time""
""fullscreenenter"",""1"",""5450""
","
","
","""event"",""trial"",""time""
""fullscreenenter"",""1"",""5450""
","
","","","-1","","","14","4570","2844","u","elianto","#f73b6a7A","-1","-1","1","-10","[]","0","2","","","4570","28","0","4","lose","no-go","1"
"pit-trial","147","1094433","0.0-33.0","battery-v0.2","","""event"",""trial"",""time""
""fullscreenenter"",""1"",""5450""
","
","
","""event"",""trial"",""time""
""fullscreenenter"",""1"",""5450""
","
","","","-1","","","14","4570","2844","a","elianto","#f73b6a7A","-1","-1","1","0","[]","0","2","","","4570","29","2","4","lose","no-go","0"
"pit-trial","148","1099290","0.0-34.0","battery-v0.2","","""event"",""trial"",""time""
""fullscreenenter"",""1"",""5450""
","
","
","""event"",""trial"",""time""
""fullscreenenter"",""1"",""5450""
","
","","","-1","","","14","4570","2844","g","elianto","#f73b6a7A"," ","-1","0","-10","[]","0","2","","","4570","30","3","3","lose","go","0"
"pit-trial","149","1103156","0.0-35.0","battery-v0.2","","""event"",""trial"",""time""
""fullscreenenter"",""1"",""5450""
","
","
","""event"",""trial"",""time""
""fullscreenenter"",""1"",""5450""
","
","","","1001","","","14","4570","2844","l","elianto","#3366ff99"," "," ","1","+10","[1851]","1","2","","","4570","31","1","1","win","go","0"
"pit-trial","150","1106766","0.0-36.0","battery-v0.2","","""event"",""trial"",""time""
""fullscreenenter"",""1"",""5450""
","
","
","""event"",""trial"",""time""
""fullscreenenter"",""1"",""5450""
","
","","","751","","","14","4570","2844","u","elianto","#f73b6a7A","-1"," ","0","-10","[1601]","1","2","","","4570","32","0","4","lose","no-go","0"
"pit-trial","151","1110446","0.0-37.0","battery-v0.2","","""event"",""trial"",""time""
""fullscreenenter"",""1"",""5450""
","
","
","""event"",""trial"",""time""
""fullscreenenter"",""1"",""5450""
","
","","","823","","","14","4570","2844","a","elianto","#f73b6a7A","-1"," ","0","0","[1674]","1","2","","","4570","33","2","4","lose","no-go","1"
"pit-trial","152","1114413","0.0-38.0","battery-v0.2","","""event"",""trial"",""time""
""fullscreenenter"",""1"",""5450""
","
","
","""event"",""trial"",""time""
""fullscreenenter"",""1"",""5450""
","
","","","1112.0000000002328","","","14","4570","2844","g","elianto","#f73b6a7A"," "," ","1","0","[1962]","1","2","","","4570","34","3","3","lose","go","0"
"pit-trial","153","1119274","0.0-39.0","battery-v0.2","","""event"",""trial"",""time""
""fullscreenenter"",""1"",""5450""
","
","
","""event"",""trial"",""time""
""fullscreenenter"",""1"",""5450""
","
","","","-1","","","14","4570","2844","u","elianto","#f73b6a7A","-1","-1","1","-10","[]","0","2","","","4570","35","0","4","lose","no-go","1"
"pit-trial","154","1122919","0.0-40.0","battery-v0.2","","""event"",""trial"",""time""
""fullscreenenter"",""1"",""5450""
","
","
","""event"",""trial"",""time""
""fullscreenenter"",""1"",""5450""
","
","","","785","","","14","4570","2844","l","elianto","#3366ff99"," "," ","1","+10","[1637]","1","2","","","4570","36","1","1","win","go","0"
"pit-trial","155","1126358","0.0-41.0","battery-v0.2","","""event"",""trial"",""time""
""fullscreenenter"",""1"",""5450""
","
","
","""event"",""trial"",""time""
""fullscreenenter"",""1"",""5450""
","
","","","582","","","14","4570","2844","g","elianto","#f73b6a7A"," "," ","1","-10","[1433]","1","2","","","4570","37","3","3","lose","go","1"
"pit-trial","156","1130137","0.0-42.0","battery-v0.2","","""event"",""trial"",""time""
""fullscreenenter"",""1"",""5450""
","
","
","""event"",""trial"",""time""
""fullscreenenter"",""1"",""5450""
","
","","","921","","","14","4570","2844","u","elianto","#f73b6a7A","-1"," ","0","-10","[1773]","1","2","","","4570","38","0","4","lose","no-go","0"
"pit-trial","157","1133902","0.0-43.0","battery-v0.2","","""event"",""trial"",""time""
""fullscreenenter"",""1"",""5450""
","
","
","""event"",""trial"",""time""
""fullscreenenter"",""1"",""5450""
","
","","","901.0000000002328","","","14","4570","2844","l","elianto","#3366ff99"," "," ","1","+10","[1751.0000000002328]","1","2","","","4570","39","1","1","win","go","0"
"pit-trial","158","1137802","0.0-44.0","battery-v0.2","","""event"",""trial"",""time""
""fullscreenenter"",""1"",""5450""
","
","
","""event"",""trial"",""time""
""fullscreenenter"",""1"",""5450""
","
","","","1041","","","14","4570","2844","a","elianto","#f73b6a7A","-1"," ","0","-10","[1892]","1","2","","","4570","40","2","4","lose","no-go","0"
"pit-trial","159","1141314","0.0-45.0","battery-v0.2","","""event"",""trial"",""time""
""fullscreenenter"",""1"",""5450""
","
","
","""event"",""trial"",""time""
""fullscreenenter"",""1"",""5450""
","
","","","654","","","14","4570","2844","l","elianto","#3366ff99"," "," ","1","+10","[1505]","1","2","","","4570","41","1","1","win","go","0"
"pit-trial","160","1146170","0.0-46.0","battery-v0.2","","""event"",""trial"",""time""
""fullscreenenter"",""1"",""5450""
","
","
","""event"",""trial"",""time""
""fullscreenenter"",""1"",""5450""
","
","","","-1","","","14","4570","2844","a","elianto","#f73b6a7A","-1","-1","1","0","[]","0","2","","","4570","42","2","4","lose","no-go","0"
"pit-trial","161","1151028","0.0-47.0","battery-v0.2","","""event"",""trial"",""time""
""fullscreenenter"",""1"",""5450""
","
","
","""event"",""trial"",""time""
""fullscreenenter"",""1"",""5450""
","
","","","-1","","","14","4570","2844","g","elianto","#f73b6a7A"," ","-1","0","-10","[]","0","2","","","4570","43","3","3","lose","go","0"
"pit-trial","162","1155894","0.0-48.0","battery-v0.2","","""event"",""trial"",""time""
""fullscreenenter"",""1"",""5450""
","
","
","""event"",""trial"",""time""
""fullscreenenter"",""1"",""5450""
","
","","","-1","","","14","4570","2844","u","elianto","#f73b6a7A","-1","-1","1","0","[]","0","2","","","4570","44","0","4","lose","no-go","0"
"pit-trial","163","1159979","0.0-49.0","battery-v0.2","","""event"",""trial"",""time""
""fullscreenenter"",""1"",""5450""
","
","
","""event"",""trial"",""time""
""fullscreenenter"",""1"",""5450""
","
","","","1227","","","14","4570","2844","g","elianto","#f73b6a7A"," "," ","1","-10","[2077]","1","2","","","4570","45","3","3","lose","go","1"
"pit-trial","164","1164302","0.0-50.0","battery-v0.2","","""event"",""trial"",""time""
""fullscreenenter"",""1"",""5450""
","
","
","""event"",""trial"",""time""
""fullscreenenter"",""1"",""5450""
","
","","","1465","","","14","4570","2844","a","elianto","#f73b6a7A","-1"," ","0","0","[2315]","1","2","","","4570","46","2","4","lose","no-go","1"
"pit-trial","165","1169160","0.0-51.0","battery-v0.2","","""event"",""trial"",""time""
""fullscreenenter"",""1"",""5450""
","
","
","""event"",""trial"",""time""
""fullscreenenter"",""1"",""5450""
","
","","","-1","","","14","4570","2844","u","elianto","#f73b6a7A","-1","-1","1","0","[]","0","2","","","4570","47","0","4","lose","no-go","0"
"pit-trial","166","1172763","0.0-52.0","battery-v0.2","","""event"",""trial"",""time""
""fullscreenenter"",""1"",""5450""
","
","
","""event"",""trial"",""time""
""fullscreenenter"",""1"",""5450""
","
","","","744","","","14","4570","2844","p","elianto","#3366ff99","-1"," ","0","0","[1595]","1","2","","","4570","48","4","2","win","no-go","0"
"pit-trial","167","1176563","0.0-53.0","battery-v0.2","","""event"",""trial"",""time""
""fullscreenenter"",""1"",""5450""
","
","
","""event"",""trial"",""time""
""fullscreenenter"",""1"",""5450""
","
","","","941.9999999997672","","","14","4570","2844","u","elianto","#f73b6a7A","-1"," ","0","-10","[1792]","1","2","","","4570","49","0","4","lose","no-go","0"
"pit-trial","168","1180188","0.0-54.0","battery-v0.2","","""event"",""trial"",""time""
""fullscreenenter"",""1"",""5450""
","
","
","""event"",""trial"",""time""
""fullscreenenter"",""1"",""5450""
","
","","","767","","","14","4570","2844","p","elianto","#3366ff99","-1"," ","0","0","[1617]","1","2","","","4570","50","4","2","win","no-go","0"
"pit-trial","169","1183860","0.0-55.0","battery-v0.2","","""event"",""trial"",""time""
""fullscreenenter"",""1"",""5450""
","
","
","""event"",""trial"",""time""
""fullscreenenter"",""1"",""5450""
","
","","","814","","","14","4570","2844","l","elianto","#3366ff99"," "," ","1","+10","[1664]","1","2","","","4570","51","1","1","win","go","0"
"pit-trial","170","1187704","0.0-56.0","battery-v0.2","","""event"",""trial"",""time""
""fullscreenenter"",""1"",""5450""
","
","
","""event"",""trial"",""time""
""fullscreenenter"",""1"",""5450""
","
","","","985","","","14","4570","2844","g","elianto","#f73b6a7A"," "," ","1","0","[1836]","1","2","","","4570","52","3","3","lose","go","0"
"pit-trial","171","1192562","0.0-57.0","battery-v0.2","","""event"",""trial"",""time""
""fullscreenenter"",""1"",""5450""
","
","
","""event"",""trial"",""time""
""fullscreenenter"",""1"",""5450""
","
","","","-1","","","14","4570","2844","a","elianto","#f73b6a7A","-1","-1","1","0","[2894]","1","2","","","4570","53","2","4","lose","no-go","0"
"pit-trial","172","1196134","0.0-58.0","battery-v0.2","","""event"",""trial"",""time""
""fullscreenenter"",""1"",""5450""
","
","
","""event"",""trial"",""time""
""fullscreenenter"",""1"",""5450""
","
","","","712","","","14","4570","2844","u","elianto","#f73b6a7A","-1"," ","0","-10","[1563]","1","2","","","4570","54","0","4","lose","no-go","0"
"pit-trial","173","1200993","0.0-59.0","battery-v0.2","","""event"",""trial"",""time""
""fullscreenenter"",""1"",""5450""
","
","
","""event"",""trial"",""time""
""fullscreenenter"",""1"",""5450""
","
","","","-1","","","14","4570","2844","p","elianto","#3366ff99","-1","-1","1","+10","[]","0","2","","","4570","55","4","2","win","no-go","0"
"pit-trial","174","1205070","0.0-60.0","battery-v0.2","","""event"",""trial"",""time""
""fullscreenenter"",""1"",""5450""
","
","
","""event"",""trial"",""time""
""fullscreenenter"",""1"",""5450""
","
","","","1220","","","14","4570","2844","l","elianto","#3366ff99"," "," ","1","+10","[2070]","1","2","","","4570","56","1","1","win","go","0"
"pit-trial","175","1209030","0.0-61.0","battery-v0.2","","""event"",""trial"",""time""
""fullscreenenter"",""1"",""5450""
","
","
","""event"",""trial"",""time""
""fullscreenenter"",""1"",""5450""
","
","","","1106","","","14","4570","2844","g","elianto","#f73b6a7A"," "," ","1","0","[1956]","1","2","","","4570","57","3","3","lose","go","0"
"pit-trial","176","1212610","0.0-62.0","battery-v0.2","","""event"",""trial"",""time""
""fullscreenenter"",""1"",""5450""
","
","
","""event"",""trial"",""time""
""fullscreenenter"",""1"",""5450""
","
","","","722.0000000002328","","","14","4570","2844","l","elianto","#3366ff99"," "," ","1","+10","[1572]","1","2","","","4570","58","1","1","win","go","0"
"pit-trial","177","1217468","0.0-63.0","battery-v0.2","","""event"",""trial"",""time""
""fullscreenenter"",""1"",""5450""
","
","
","""event"",""trial"",""time""
""fullscreenenter"",""1"",""5450""
","
","","","-1","","","14","4570","2844","u","elianto","#f73b6a7A","-1","-1","1","0","[]","0","2","","","4570","59","0","4","lose","no-go","0"
"pit-trial","178","1222327","0.0-64.0","battery-v0.2","","""event"",""trial"",""time""
""fullscreenenter"",""1"",""5450""
","
","
","""event"",""trial"",""time""
""fullscreenenter"",""1"",""5450""
","
","","","-1","","","14","4570","2844","p","elianto","#3366ff99","-1","-1","1","+10","[5.999999999767169]","1","2","","","4570","60","4","2","win","no-go","0"
"pit-trial","179","1226226","0.0-65.0","battery-v0.2","","""event"",""trial"",""time""
""fullscreenenter"",""1"",""5450""
","
","
","""event"",""trial"",""time""
""fullscreenenter"",""1"",""5450""
","
","","","1042","","","14","4570","2844","g","elianto","#f73b6a7A"," "," ","1","0","[1891.0000000002328]","1","2","","","4570","61","3","3","lose","go","0"
"pit-trial","180","1230057","0.0-66.0","battery-v0.2","","""event"",""trial"",""time""
""fullscreenenter"",""1"",""5450""
","
","
","""event"",""trial"",""time""
""fullscreenenter"",""1"",""5450""
","
","","","973","","","14","4570","2844","a","elianto","#f73b6a7A","-1"," ","0","-10","[1823]","1","2","","","4570","62","2","4","lose","no-go","0"
"pit-trial","181","1233954","0.0-67.0","battery-v0.2","","""event"",""trial"",""time""
""fullscreenenter"",""1"",""5450""
","
","
","""event"",""trial"",""time""
""fullscreenenter"",""1"",""5450""
","
","","","1040","","","14","4570","2844","l","elianto","#3366ff99"," "," ","1","+10","[1890]","1","2","","","4570","63","1","1","win","go","0"
"pit-trial","182","1238812","0.0-68.0","battery-v0.2","","""event"",""trial"",""time""
""fullscreenenter"",""1"",""5450""
","
","
","""event"",""trial"",""time""
""fullscreenenter"",""1"",""5450""
","
","","","-1","","","14","4570","2844","p","elianto","#3366ff99","-1","-1","1","+10","[]","0","2","","","4570","64","4","2","win","no-go","0"
"pit-trial","183","1242576","0.0-69.0","battery-v0.2","","""event"",""trial"",""time""
""fullscreenenter"",""1"",""5450""
","
","
","""event"",""trial"",""time""
""fullscreenenter"",""1"",""5450""
","
","","","905","","","14","4570","2844","a","elianto","#f73b6a7A","-1"," ","0","-10","[1756]","1","2","","","4570","65","2","4","lose","no-go","0"
"pit-trial","184","1246438","0.0-70.0","battery-v0.2","","""event"",""trial"",""time""
""fullscreenenter"",""1"",""5450""
","
","
","""event"",""trial"",""time""
""fullscreenenter"",""1"",""5450""
","
","","","1003","","","14","4570","2844","l","elianto","#3366ff99"," "," ","1","+10","[1854]","1","2","","","4570","66","1","1","win","go","0"
"pit-trial","185","1250432","0.0-71.0","battery-v0.2","","""event"",""trial"",""time""
""fullscreenenter"",""1"",""5450""
","
","
","""event"",""trial"",""time""
""fullscreenenter"",""1"",""5450""
","
","","","1136","","","14","4570","2844","g","elianto","#f73b6a7A"," "," ","1","0","[1985.9999999997672]","1","2","","","4570","67","3","3","lose","go","0"
"pit-trial","186","1255290","0.0-72.0","battery-v0.2","","""event"",""trial"",""time""
""fullscreenenter"",""1"",""5450""
","
","
","""event"",""trial"",""time""
""fullscreenenter"",""1"",""5450""
","
","","","-1","","","14","4570","2844","p","elianto","#3366ff99","-1","-1","1","+10","[]","0","2","","","4570","68","4","2","win","no-go","0"
"pit-trial","187","1259386","0.0-73.0","battery-v0.2","","""event"",""trial"",""time""
""fullscreenenter"",""1"",""5450""
","
","
","""event"",""trial"",""time""
""fullscreenenter"",""1"",""5450""
","
","","","1238.9999999997672","","","14","4570","2844","s","elianto","#3366ff99"," "," ","1","0","[2089]","1","2","","","4570","69","5","1","win","go","1"
"pit-trial","188","1263386","0.0-74.0","battery-v0.2","","""event"",""trial"",""time""
""fullscreenenter"",""1"",""5450""
","
","
","""event"",""trial"",""time""
""fullscreenenter"",""1"",""5450""
","
","","","1143","","","14","4570","2844","g","elianto","#f73b6a7A"," "," ","1","0","[1994]","1","2","","","4570","70","3","3","lose","go","0"
"pit-trial","189","1268245","0.0-75.0","battery-v0.2","","""event"",""trial"",""time""
""fullscreenenter"",""1"",""5450""
","
","
","""event"",""trial"",""time""
""fullscreenenter"",""1"",""5450""
","
","","","-1","","","14","4570","2844","p","elianto","#3366ff99","-1","-1","1","+10","[]","0","2","","","4570","71","4","2","win","no-go","0"
"pit-trial","190","1272283","0.0-76.0","battery-v0.2","","""event"",""trial"",""time""
""fullscreenenter"",""1"",""5450""
","
","
","""event"",""trial"",""time""
""fullscreenenter"",""1"",""5450""
","
","","","1177.0000000002328","","","14","4570","2844","l","elianto","#3366ff99"," "," ","1","0","[2028.0000000002328]","1","2","","","4570","72","1","1","win","go","1"
"pit-trial","191","1276476","0.0-77.0","battery-v0.2","","""event"",""trial"",""time""
""fullscreenenter"",""1"",""5450""
","
","
","""event"",""trial"",""time""
""fullscreenenter"",""1"",""5450""
","
","","","1334","","","14","4570","2844","s","elianto","#3366ff99"," "," ","1","+10","[2185]","1","2","","","4570","73","5","1","win","go","0"
"pit-trial","192","1280690","0.0-78.0","battery-v0.2","","""event"",""trial"",""time""
""fullscreenenter"",""1"",""5450""
","
","
","""event"",""trial"",""time""
""fullscreenenter"",""1"",""5450""
","
","","","1357","","","14","4570","2844","g","elianto","#f73b6a7A"," "," ","1","0","[2206.999999999767]","1","2","","","4570","74","3","3","lose","go","0"
"pit-trial","193","1285549","0.0-79.0","battery-v0.2","","""event"",""trial"",""time""
""fullscreenenter"",""1"",""5450""
","
","
","""event"",""trial"",""time""
""fullscreenenter"",""1"",""5450""
","
","","","-1","","","14","4570","2844","p","elianto","#3366ff99","-1","-1","1","+10","[]","0","2","","","4570","75","4","2","win","no-go","0"
"pit-trial","194","1289726","0.0-80.0","battery-v0.2","","""event"",""trial"",""time""
""fullscreenenter"",""1"",""5450""
","
","
","""event"",""trial"",""time""
""fullscreenenter"",""1"",""5450""
","
","","","1319.9999999997672","","","14","4570","2844","l","elianto","#3366ff99"," "," ","1","+10","[2170]","1","2","","","4570","76","1","1","win","go","0"
"pit-trial","195","1294584","0.0-81.0","battery-v0.2","","""event"",""trial"",""time""
""fullscreenenter"",""1"",""5450""
","
","
","""event"",""trial"",""time""
""fullscreenenter"",""1"",""5450""
","
","","","-1","","","14","4570","2844","p","elianto","#3366ff99","-1","-1","1","+10","[3100.999999999767]","1","2","","","4570","77","4","2","win","no-go","0"
"pit-trial","196","1298974","0.0-82.0","battery-v0.2","","""event"",""trial"",""time""
""fullscreenenter"",""1"",""5450""
","
","
","""event"",""trial"",""time""
""fullscreenenter"",""1"",""5450""
","
","","","1532","","","14","4570","2844","w","elianto","#f73b6a7A","-1"," ","0","-10","[2383]","1","2","","","4570","78","6","4","lose","no-go","0"
"pit-trial","197","1303253","0.0-83.0","battery-v0.2","","""event"",""trial"",""time""
""fullscreenenter"",""1"",""5450""
","
","
","""event"",""trial"",""time""
""fullscreenenter"",""1"",""5450""
","
","","","1420","","","14","4570","2844","g","elianto","#f73b6a7A"," "," ","1","0","[2270.000000000233]","1","2","","","4570","79","3","3","lose","go","0"
"pit-trial","198","1308112","0.0-84.0","battery-v0.2","","""event"",""trial"",""time""
""fullscreenenter"",""1"",""5450""
","
","
","""event"",""trial"",""time""
""fullscreenenter"",""1"",""5450""
","
","","","-1","","","14","4570","2844","s","elianto","#3366ff99"," ","-1","0","0","[]","0","2","","","4570","80","5","1","win","go","0"
"pit-trial","199","1312971","0.0-85.0","battery-v0.2","","""event"",""trial"",""time""
""fullscreenenter"",""1"",""5450""
","
","
","""event"",""trial"",""time""
""fullscreenenter"",""1"",""5450""
","
","","","-1","","","14","4570","2844","p","elianto","#3366ff99","-1","-1","1","+10","[]","0","2","","","4570","81","4","2","win","no-go","0"
"pit-trial","200","1317249","0.0-86.0","battery-v0.2","","""event"",""trial"",""time""
""fullscreenenter"",""1"",""5450""
","
","
","""event"",""trial"",""time""
""fullscreenenter"",""1"",""5450""
","
","","","1419","","","14","4570","2844","e","elianto","#f73b6a7A"," "," ","1","0","[2270]","1","2","","","4570","82","7","3","lose","go","0"
"pit-trial","201","1322111","0.0-87.0","battery-v0.2","","""event"",""trial"",""time""
""fullscreenenter"",""1"",""5450""
","
","
","""event"",""trial"",""time""
""fullscreenenter"",""1"",""5450""
","
","","","-1","","","14","4570","2844","w","elianto","#f73b6a7A","-1","-1","1","0","[]","0","2","","","4570","83","6","4","lose","no-go","0"
"pit-trial","202","1326575","0.0-88.0","battery-v0.2","","""event"",""trial"",""time""
""fullscreenenter"",""1"",""5450""
","
","
","""event"",""trial"",""time""
""fullscreenenter"",""1"",""5450""
","
","","","1605","","","14","4570","2844","s","elianto","#3366ff99"," "," ","1","+10","[2456]","1","2","","","4570","84","5","1","win","go","0"
"pit-trial","203","1331296","0.0-89.0","battery-v0.2","","""event"",""trial"",""time""
""fullscreenenter"",""1"",""5450""
","
","
","""event"",""trial"",""time""
""fullscreenenter"",""1"",""5450""
","
","","","1863","","","14","4570","2844","e","elianto","#f73b6a7A"," "," ","1","-10","[2713]","1","2","","","4570","85","7","3","lose","go","1"
"pit-trial","204","1336156","0.0-90.0","battery-v0.2","","""event"",""trial"",""time""
""fullscreenenter"",""1"",""5450""
","
","
","""event"",""trial"",""time""
""fullscreenenter"",""1"",""5450""
","
","","","-1","","","14","4570","2844","w","elianto","#f73b6a7A","-1","-1","1","0","[]","0","2","","","4570","86","6","4","lose","no-go","0"
"pit-trial","205","1340187","0.0-91.0","battery-v0.2","","""event"",""trial"",""time""
""fullscreenenter"",""1"",""5450""
","
","
","""event"",""trial"",""time""
""fullscreenenter"",""1"",""5450""
","
","","","1172","","","14","4570","2844","s","elianto","#3366ff99"," "," ","1","+10","[2022.9999999997672]","1","2","","","4570","87","5","1","win","go","0"
"pit-trial","206","1345046","0.0-92.0","battery-v0.2","","""event"",""trial"",""time""
""fullscreenenter"",""1"",""5450""
","
","
","""event"",""trial"",""time""
""fullscreenenter"",""1"",""5450""
","
","","","-1","","","14","4570","2844","p","elianto","#3366ff99","-1","-1","1","0","[]","0","2","","","4570","88","4","2","win","no-go","1"
"pit-trial","207","1349904","0.0-93.0","battery-v0.2","","""event"",""trial"",""time""
""fullscreenenter"",""1"",""5450""
","
","
","""event"",""trial"",""time""
""fullscreenenter"",""1"",""5450""
","
","","","-1","","","14","4570","2844","w","elianto","#f73b6a7A","-1","-1","1","0","[]","0","2","","","4570","89","6","4","lose","no-go","0"
"pit-trial","208","1354108","0.0-94.0","battery-v0.2","","""event"",""trial"",""time""
""fullscreenenter"",""1"",""5450""
","
","
","""event"",""trial"",""time""
""fullscreenenter"",""1"",""5450""
","
","","","1345","","","14","4570","2844","e","elianto","#f73b6a7A"," "," ","1","0","[2195]","1","2","","","4570","90","7","3","lose","go","0"
"pit-trial","209","1358966","0.0-95.0","battery-v0.2","","""event"",""trial"",""time""
""fullscreenenter"",""1"",""5450""
","
","
","""event"",""trial"",""time""
""fullscreenenter"",""1"",""5450""
","
","","","-1","","","14","4570","2844","p","elianto","#3366ff99","-1","-1","1","+10","[]","0","2","","","4570","91","4","2","win","no-go","0"
"pit-trial","210","1362875","0.0-96.0","battery-v0.2","","""event"",""trial"",""time""
""fullscreenenter"",""1"",""5450""
","
","
","""event"",""trial"",""time""
""fullscreenenter"",""1"",""5450""
","
","","","1050","","","14","4570","2844","s","elianto","#3366ff99"," "," ","1","+10","[1901]","1","2","","","4570","92","5","1","win","go","0"
"pit-trial","211","1366955","0.0-97.0","battery-v0.2","","""event"",""trial"",""time""
""fullscreenenter"",""1"",""5450""
","
","
","""event"",""trial"",""time""
""fullscreenenter"",""1"",""5450""
","
","","","1221","","","14","4570","2844","e","elianto","#f73b6a7A"," "," ","1","0","[2072]","1","2","","","4570","93","7","3","lose","go","0"
"pit-trial","212","1371596","0.0-98.0","battery-v0.2","","""event"",""trial"",""time""
""fullscreenenter"",""1"",""5450""
","
","
","""event"",""trial"",""time""
""fullscreenenter"",""1"",""5450""
","
","","","1784","","","14","4570","2844","d","elianto","#3366ff99","-1"," ","0","0","[2633.000000000233]","1","2","","","4570","94","8","2","win","no-go","0"
"pit-trial","213","1375777","0.0-99.0","battery-v0.2","","""event"",""trial"",""time""
""fullscreenenter"",""1"",""5450""
","
","
","""event"",""trial"",""time""
""fullscreenenter"",""1"",""5450""
","
","","","1323","","","14","4570","2844","s","elianto","#3366ff99"," "," ","1","+10","[2174]","1","2","","","4570","95","5","1","win","go","0"
"pit-trial","214","1380635","0.0-100.0","battery-v0.2","","""event"",""trial"",""time""
""fullscreenenter"",""1"",""5450""
","
","
","""event"",""trial"",""time""
""fullscreenenter"",""1"",""5450""
","
","","","-1","","","14","4570","2844","w","elianto","#f73b6a7A","-1","-1","1","-10","[]","0","2","","","4570","96","6","4","lose","no-go","1"
"pit-trial","215","1384977","0.0-101.0","battery-v0.2","","""event"",""trial"",""time""
""fullscreenenter"",""1"",""5450""
","
","
","""event"",""trial"",""time""
""fullscreenenter"",""1"",""5450""
","
","","","1483","","","14","4570","2844","w","elianto","#f73b6a7A","-1"," ","0","-10","[2334]","1","2","","","4570","97","6","4","lose","no-go","0"
"pit-trial","216","1389323","0.0-102.0","battery-v0.2","","""event"",""trial"",""time""
""fullscreenenter"",""1"",""5450""
","
","
","""event"",""trial"",""time""
""fullscreenenter"",""1"",""5450""
","
","","","1487","","","14","4570","2844","e","elianto","#f73b6a7A"," "," ","1","0","[2339]","1","2","","","4570","98","7","3","lose","go","0"
"pit-trial","217","1393727","0.0-103.0","battery-v0.2","","""event"",""trial"",""time""
""fullscreenenter"",""1"",""5450""
","
","
","""event"",""trial"",""time""
""fullscreenenter"",""1"",""5450""
","
","","","1544.9999999997672","","","14","4570","2844","d","elianto","#3366ff99","-1"," ","0","0","[2395]","1","2","","","4570","99","8","2","win","no-go","0"
"pit-trial","218","1397668","0.0-104.0","battery-v0.2","","""event"",""trial"",""time""
""fullscreenenter"",""1"",""5450""
","
","
","""event"",""trial"",""time""
""fullscreenenter"",""1"",""5450""
","
","","","1082","","","14","4570","2844","s","elianto","#3366ff99"," "," ","1","+10","[1933]","1","2","","","4570","100","5","1","win","go","0"
"pit-trial","219","1402526","0.0-105.0","battery-v0.2","","""event"",""trial"",""time""
""fullscreenenter"",""1"",""5450""
","
","
","""event"",""trial"",""time""
""fullscreenenter"",""1"",""5450""
","
","","","-1","","","14","4570","2844","w","elianto","#f73b6a7A","-1","-1","1","-10","[3518]","1","2","","","4570","101","6","4","lose","no-go","1"
"pit-trial","220","1406759","0.0-106.0","battery-v0.2","","""event"",""trial"",""time""
""fullscreenenter"",""1"",""5450""
","
","
","""event"",""trial"",""time""
""fullscreenenter"",""1"",""5450""
","
","","","1374","","","14","4570","2844","d","elianto","#3366ff99","-1"," ","0","0","[2226]","1","2","","","4570","102","8","2","win","no-go","0"
"pit-trial","221","1410712","0.0-107.0","battery-v0.2","","""event"",""trial"",""time""
""fullscreenenter"",""1"",""5450""
","
","
","""event"",""trial"",""time""
""fullscreenenter"",""1"",""5450""
","
","","","1094","","","14","4570","2844","s","elianto","#3366ff99"," "," ","1","+10","[1945]","1","2","","","4570","103","5","1","win","go","0"
"pit-trial","222","1414713","0.0-108.0","battery-v0.2","","""event"",""trial"",""time""
""fullscreenenter"",""1"",""5450""
","
","
","""event"",""trial"",""time""
""fullscreenenter"",""1"",""5450""
","
","","","1142","","","14","4570","2844","j","elianto","#3366ff99","-1"," ","0","0","[1992.9999999997672]","1","2","","","4570","104","9","2","win","no-go","0"
"pit-trial","223","1418884","0.0-109.0","battery-v0.2","","""event"",""trial"",""time""
""fullscreenenter"",""1"",""5450""
","
","
","""event"",""trial"",""time""
""fullscreenenter"",""1"",""5450""
","
","","","1313","","","14","4570","2844","s","elianto","#3366ff99"," "," ","1","+10","[2164]","1","2","","","4570","105","5","1","win","go","0"
"pit-trial","224","1423312","0.0-110.0","battery-v0.2","","""event"",""trial"",""time""
""fullscreenenter"",""1"",""5450""
","
","
","""event"",""trial"",""time""
""fullscreenenter"",""1"",""5450""
","
","","","1572","","","14","4570","2844","j","elianto","#3366ff99","-1"," ","0","0","[2422]","1","2","","","4570","106","9","2","win","no-go","0"
"pit-trial","225","1428171","0.0-111.0","battery-v0.2","","""event"",""trial"",""time""
""fullscreenenter"",""1"",""5450""
","
","
","""event"",""trial"",""time""
""fullscreenenter"",""1"",""5450""
","
","","","-1","","","14","4570","2844","d","elianto","#3366ff99","-1","-1","1","+10","[]","0","2","","","4570","107","8","2","win","no-go","0"
"pit-trial","226","1432595","0.0-112.0","battery-v0.2","","""event"",""trial"",""time""
""fullscreenenter"",""1"",""5450""
","
","
","""event"",""trial"",""time""
""fullscreenenter"",""1"",""5450""
","
","","","1567","","","14","4570","2844","w","elianto","#f73b6a7A","-1"," ","0","-10","[2418]","1","2","","","4570","108","6","4","lose","no-go","0"
"pit-trial","227","1436643","0.0-113.0","battery-v0.2","","""event"",""trial"",""time""
""fullscreenenter"",""1"",""5450""
","
","
","""event"",""trial"",""time""
""fullscreenenter"",""1"",""5450""
","
","","","1189","","","14","4570","2844","d","elianto","#3366ff99","-1"," ","0","0","[2038.9999999997672]","1","2","","","4570","109","8","2","win","no-go","0"
"pit-trial","228","1441311","0.0-114.0","battery-v0.2","","""event"",""trial"",""time""
""fullscreenenter"",""1"",""5450""
","
","
","""event"",""trial"",""time""
""fullscreenenter"",""1"",""5450""
","
","","","1809","","","14","4570","2844","s","elianto","#3366ff99"," "," ","1","+10","[2660]","1","2","","","4570","110","5","1","win","go","0"
"pit-trial","229","1445446","0.0-115.0","battery-v0.2","","""event"",""trial"",""time""
""fullscreenenter"",""1"",""5450""
","
","
","""event"",""trial"",""time""
""fullscreenenter"",""1"",""5450""
","
","","","1276","","","14","4570","2844","j","elianto","#3366ff99","-1"," ","0","0","[2127]","1","2","","","4570","111","9","2","win","no-go","0"
"pit-trial","230","1450304","0.0-116.0","battery-v0.2","","""event"",""trial"",""time""
""fullscreenenter"",""1"",""5450""
","
","
","""event"",""trial"",""time""
""fullscreenenter"",""1"",""5450""
","
","","","-1","","","14","4570","2844","w","elianto","#f73b6a7A","-1","-1","1","0","[]","0","2","","","4570","112","6","4","lose","no-go","0"
"pit-trial","231","1455165","0.0-117.0","battery-v0.2","","""event"",""trial"",""time""
""fullscreenenter"",""1"",""5450""
","
","
","""event"",""trial"",""time""
""fullscreenenter"",""1"",""5450""
","
","","","-1","","","14","4570","2844","e","elianto","#f73b6a7A"," ","-1","0","-10","[]","0","2","","","4570","113","7","3","lose","go","0"
"pit-trial","232","1459320","0.0-118.0","battery-v0.2","","""event"",""trial"",""time""
""fullscreenenter"",""1"",""5450""
","
","
","""event"",""trial"",""time""
""fullscreenenter"",""1"",""5450""
","
","","","1296","","","14","4570","2844","j","elianto","#3366ff99","-1"," ","0","0","[2147]","1","2","","","4570","114","9","2","win","no-go","0"
"pit-trial","233","1463120","0.0-119.0","battery-v0.2","","""event"",""trial"",""time""
""fullscreenenter"",""1"",""5450""
","
","
","""event"",""trial"",""time""
""fullscreenenter"",""1"",""5450""
","
","","","939.9999999997672","","","14","4570","2844","s","elianto","#3366ff99"," "," ","1","+10","[1791]","1","2","","","4570","115","5","1","win","go","0"
"pit-trial","234","1467313","0.0-120.0","battery-v0.2","","""event"",""trial"",""time""
""fullscreenenter"",""1"",""5450""
","
","
","""event"",""trial"",""time""
""fullscreenenter"",""1"",""5450""
","
","","","1335.0000000002328","","","14","4570","2844","d","elianto","#3366ff99","-1"," ","0","0","[2185]","1","2","","","4570","116","8","2","win","no-go","0"
"pit-trial","235","1472172","0.0-121.0","battery-v0.2","","""event"",""trial"",""time""
""fullscreenenter"",""1"",""5450""
","
","
","""event"",""trial"",""time""
""fullscreenenter"",""1"",""5450""
","
","","","-1","","","14","4570","2844","d","elianto","#3366ff99","-1","-1","1","+10","[]","0","2","","","4570","117","8","2","win","no-go","0"
"pit-trial","236","1476517","0.0-122.0","battery-v0.2","","""event"",""trial"",""time""
""fullscreenenter"",""1"",""5450""
","
","
","""event"",""trial"",""time""
""fullscreenenter"",""1"",""5450""
","
","","","1487","","","14","4570","2844","j","elianto","#3366ff99","-1"," ","0","0","[2337.999999999767]","1","2","","","4570","118","9","2","win","no-go","0"
"pit-trial","237","1480642","0.0-123.0","battery-v0.2","","""event"",""trial"",""time""
""fullscreenenter"",""1"",""5450""
","
","
","""event"",""trial"",""time""
""fullscreenenter"",""1"",""5450""
","
","","","1268","","","14","4570","2844","s","elianto","#3366ff99"," "," ","1","0","[2119]","1","2","","","4570","119","5","1","win","go","1"
"pit-trial","238","1485282","0.0-124.0","battery-v0.2","","""event"",""trial"",""time""
""fullscreenenter"",""1"",""5450""
","
","
","""event"",""trial"",""time""
""fullscreenenter"",""1"",""5450""
","
","","","1784","","","14","4570","2844","w","elianto","#f73b6a7A","-1"," ","0","-10","[2635]","1","2","","","4570","120","6","4","lose","no-go","0"
"pit-trial","239","1490143","0.0-125.0","battery-v0.2","","""event"",""trial"",""time""
""fullscreenenter"",""1"",""5450""
","
","
","""event"",""trial"",""time""
""fullscreenenter"",""1"",""5450""
","
","","","-1","","","14","4570","2844","j","elianto","#3366ff99","-1","-1","1","+10","[]","0","2","","","4570","121","9","2","win","no-go","0"
"pit-trial","240","1494360","0.0-126.0","battery-v0.2","","""event"",""trial"",""time""
""fullscreenenter"",""1"",""5450""
","
","
","""event"",""trial"",""time""
""fullscreenenter"",""1"",""5450""
","
","","","1360.0000000002328","","","14","4570","2844","d","elianto","#3366ff99","-1"," ","0","0","[2211]","1","2","","","4570","122","8","2","win","no-go","0"
"pit-trial","241","1498006","0.0-127.0","battery-v0.2","","""event"",""trial"",""time""
""fullscreenenter"",""1"",""5450""
","
","
","""event"",""trial"",""time""
""fullscreenenter"",""1"",""5450""
","
","","","788","","","14","4570","2844","s","elianto","#3366ff99"," "," ","1","+10","[1638]","1","2","","","4570","123","5","1","win","go","0"
"pit-trial","242","1502161","0.0-128.0","battery-v0.2","","""event"",""trial"",""time""
""fullscreenenter"",""1"",""5450""
","
","
","""event"",""trial"",""time""
""fullscreenenter"",""1"",""5450""
","
","","","1299","","","14","4570","2844","e","elianto","#f73b6a7A"," "," ","1","0","[2150]","1","2","","","4570","124","7","3","lose","go","0"
"pit-trial","243","1505949","0.0-129.0","battery-v0.2","","""event"",""trial"",""time""
""fullscreenenter"",""1"",""5450""
","
","
","""event"",""trial"",""time""
""fullscreenenter"",""1"",""5450""
","
","","","928","","","14","4570","2844","e","elianto","#f73b6a7A"," "," ","1","0","[1779.9999999997672]","1","2","","","4570","125","7","3","lose","go","0"
"pit-trial","244","1509656","0.0-130.0","battery-v0.2","","""event"",""trial"",""time""
""fullscreenenter"",""1"",""5450""
","
","
","""event"",""trial"",""time""
""fullscreenenter"",""1"",""5450""
","
","","","849","","","14","4570","2844","j","elianto","#3366ff99","-1"," ","0","0","[1699.9999999997672]","1","2","","","4570","126","9","2","win","no-go","0"
"pit-trial","245","1514514","0.0-131.0","battery-v0.2","","""event"",""trial"",""time""
""fullscreenenter"",""1"",""5450""
","
","
","""event"",""trial"",""time""
""fullscreenenter"",""1"",""5450""
","
","","","-1","","","14","4570","2844","w","elianto","#f73b6a7A","-1","-1","1","0","[]","0","2","","","4570","127","6","4","lose","no-go","0"
"pit-trial","246","1519370","0.0-132.0","battery-v0.2","","""event"",""trial"",""time""
""fullscreenenter"",""1"",""5450""
","
","
","""event"",""trial"",""time""
""fullscreenenter"",""1"",""5450""
","
","","","-1","","","14","4570","2844","d","elianto","#3366ff99","-1","-1","1","+10","[]","0","2","","","4570","128","8","2","win","no-go","0"
"pit-trial","247","1524228","0.0-133.0","battery-v0.2","","""event"",""trial"",""time""
""fullscreenenter"",""1"",""5450""
","
","
","""event"",""trial"",""time""
""fullscreenenter"",""1"",""5450""
","
","","","-1","","","14","4570","2844","j","elianto","#3366ff99","-1","-1","1","+10","[]","0","2","","","4570","129","9","2","win","no-go","0"
"pit-trial","248","1529085","0.0-134.0","battery-v0.2","","""event"",""trial"",""time""
""fullscreenenter"",""1"",""5450""
","
","
","""event"",""trial"",""time""
""fullscreenenter"",""1"",""5450""
","
","","","-1","","","14","4570","2844","e","elianto","#f73b6a7A"," ","-1","0","-10","[]","0","2","","","4570","130","7","3","lose","go","0"
"pit-trial","249","1533943","0.0-135.0","battery-v0.2","","""event"",""trial"",""time""
""fullscreenenter"",""1"",""5450""
","
","
","""event"",""trial"",""time""
""fullscreenenter"",""1"",""5450""
","
","","","-1","","","14","4570","2844","w","elianto","#f73b6a7A","-1","-1","1","-10","[]","0","2","","","4570","131","6","4","lose","no-go","1"
"pit-trial","250","1538802","0.0-136.0","battery-v0.2","","""event"",""trial"",""time""
""fullscreenenter"",""1"",""5450""
","
","
","""event"",""trial"",""time""
""fullscreenenter"",""1"",""5450""
","
","","","-1","","","14","4570","2844","d","elianto","#3366ff99","-1","-1","1","+10","[]","0","2","","","4570","132","8","2","win","no-go","0"
"pit-trial","251","1543509","0.0-137.0","battery-v0.2","","""event"",""trial"",""time""
""fullscreenenter"",""1"",""5450""
","
","
","""event"",""trial"",""time""
""fullscreenenter"",""1"",""5450""
","
","","","1848","","","14","4570","2844","j","elianto","#3366ff99","-1"," ","0","0","[2699]","1","2","","","4570","133","9","2","win","no-go","0"
"pit-trial","252","1548368","0.0-138.0","battery-v0.2","","""event"",""trial"",""time""
""fullscreenenter"",""1"",""5450""
","
","
","""event"",""trial"",""time""
""fullscreenenter"",""1"",""5450""
","
","","","-1","","","14","4570","2844","w","elianto","#f73b6a7A","-1","-1","1","0","[]","0","2","","","4570","134","6","4","lose","no-go","0"
"pit-trial","253","1552449","0.0-139.0","battery-v0.2","","""event"",""trial"",""time""
""fullscreenenter"",""1"",""5450""
","
","
","""event"",""trial"",""time""
""fullscreenenter"",""1"",""5450""
","
","","","1221","","","14","4570","2844","e","elianto","#f73b6a7A"," "," ","1","0","[2072,2327]","2","2","","","4570","135","7","3","lose","go","0"
"pit-trial","254","1557309","0.0-140.0","battery-v0.2","","""event"",""trial"",""time""
""fullscreenenter"",""1"",""5450""
","
","
","""event"",""trial"",""time""
""fullscreenenter"",""1"",""5450""
","
","","","-1","","","14","4570","2844","d","elianto","#3366ff99","-1","-1","1","+10","[3393.000000000233]","1","2","","","4570","136","8","2","win","no-go","0"
"pit-trial","255","1562168","0.0-141.0","battery-v0.2","","""event"",""trial"",""time""
""fullscreenenter"",""1"",""5450""
","
","
","""event"",""trial"",""time""
""fullscreenenter"",""1"",""5450""
","
","","","-1","","","14","4570","2844","j","elianto","#3366ff99","-1","-1","1","+10","[]","0","2","","","4570","137","9","2","win","no-go","0"
"pit-trial","256","1567027","0.0-142.0","battery-v0.2","","""event"",""trial"",""time""
""fullscreenenter"",""1"",""5450""
","
","
","""event"",""trial"",""time""
""fullscreenenter"",""1"",""5450""
","
","","","-1","","","14","4570","2844","w","elianto","#f73b6a7A","-1","-1","1","0","[]","0","2","","","4570","138","6","4","lose","no-go","0"
"pit-trial","257","1571507","0.0-143.0","battery-v0.2","","""event"",""trial"",""time""
""fullscreenenter"",""1"",""5450""
","
","
","""event"",""trial"",""time""
""fullscreenenter"",""1"",""5450""
","
","","","1622","","","14","4570","2844","e","elianto","#f73b6a7A"," "," ","1","0","[2473]","1","2","","","4570","139","7","3","lose","go","0"
"pit-trial","258","1575946","0.0-144.0","battery-v0.2","","""event"",""trial"",""time""
""fullscreenenter"",""1"",""5450""
","
","
","""event"",""trial"",""time""
""fullscreenenter"",""1"",""5450""
","
","","","1580","","","14","4570","2844","d","elianto","#3366ff99","-1"," ","0","0","[2430.000000000233]","1","2","","","4570","140","8","2","win","no-go","0"
"pit-instructions","259","1590329","0.0-145.0","battery-v0.2","","""event"",""trial"",""time""
""fullscreenenter"",""1"",""5450""
","
","
","""event"",""trial"",""time""
""fullscreenenter"",""1"",""5450""
","
","","[{""page_index"":0,""viewing_time"":5985.999999999767},{""page_index"":1,""viewing_time"":8390}]","14376.999999999767","","","","","","","","","","","","","","","","","","","","","","","",""
"pit-trial","260","1594453","0.0-146.0","battery-v0.2","","""event"",""trial"",""time""
""fullscreenenter"",""1"",""5450""
","
","
","""event"",""trial"",""time""
""fullscreenenter"",""1"",""5450""
","
","","","1264","","","14","4570","2844","b","elianto","#f73b6a7A","-1"," ","0","-10","[2115]","1","3","","","4570","141","3","4","lose","no-go","0"
"pit-trial","261","1599312","0.0-147.0","battery-v0.2","","""event"",""trial"",""time""
""fullscreenenter"",""1"",""5450""
","
","
","""event"",""trial"",""time""
""fullscreenenter"",""1"",""5450""
","
","","","-1","","","14","4570","2844","f","elianto","#3366ff99","-1","-1","1","+10","[2939]","1","3","","","4570","142","1","2","win","no-go","0"
"pit-trial","262","1604171","0.0-148.0","battery-v0.2","","""event"",""trial"",""time""
""fullscreenenter"",""1"",""5450""
","
","
","""event"",""trial"",""time""
""fullscreenenter"",""1"",""5450""
","
","","","-1","","","14","4570","2844","n","elianto","#f73b6a7A"," ","-1","0","0","[]","0","3","","","4570","143","0","3","lose","go","1"
"pit-trial","263","1607943","0.0-149.0","battery-v0.2","","""event"",""trial"",""time""
""fullscreenenter"",""1"",""5450""
","
","
","""event"",""trial"",""time""
""fullscreenenter"",""1"",""5450""
","
","","","912.9999999997672","","","14","4570","2844","t","elianto","#f73b6a7A"," "," ","1","0","[1765]","1","3","","","4570","144","2","3","lose","go","0"
"pit-trial","264","1612023","0.0-150.0","battery-v0.2","","""event"",""trial"",""time""
""fullscreenenter"",""1"",""5450""
","
","
","""event"",""trial"",""time""
""fullscreenenter"",""1"",""5450""
","
","","","1225","","","14","4570","2844","n","elianto","#f73b6a7A"," "," ","1","0","[2075]","1","3","","","4570","145","0","3","lose","go","0"
"pit-trial","265","1616882","0.0-151.0","battery-v0.2","","""event"",""trial"",""time""
""fullscreenenter"",""1"",""5450""
","
","
","""event"",""trial"",""time""
""fullscreenenter"",""1"",""5450""
","
","","","-1","","","14","4570","2844","t","elianto","#f73b6a7A"," ","-1","0","-10","[]","0","3","","","4570","146","2","3","lose","go","0"
"pit-trial","266","1620944","0.0-152.0","battery-v0.2","","""event"",""trial"",""time""
""fullscreenenter"",""1"",""5450""
","
","
","""event"",""trial"",""time""
""fullscreenenter"",""1"",""5450""
","
","","","1204.0000000002328","","","14","4570","2844","f","elianto","#3366ff99","-1"," ","0","0","[2055.000000000233,3678]","2","3","","","4570","147","1","2","win","no-go","0"
"pit-trial","267","1625803","0.0-153.0","battery-v0.2","","""event"",""trial"",""time""
""fullscreenenter"",""1"",""5450""
","
","
","""event"",""trial"",""time""
""fullscreenenter"",""1"",""5450""
","
","","","-1","","","14","4570","2844","b","elianto","#f73b6a7A","-1","-1","1","0","[]","0","3","","","4570","148","3","4","lose","no-go","0"
"pit-trial","268","1629756","0.0-154.0","battery-v0.2","","""event"",""trial"",""time""
""fullscreenenter"",""1"",""5450""
","
","
","""event"",""trial"",""time""
""fullscreenenter"",""1"",""5450""
","
","","","1093","","","14","4570","2844","b","elianto","#f73b6a7A","-1"," ","0","0","[1944]","1","3","","","4570","149","3","4","lose","no-go","1"
"pit-trial","269","1633071","0.0-155.0","battery-v0.2","","""event"",""trial"",""time""
""fullscreenenter"",""1"",""5450""
","
","
","""event"",""trial"",""time""
""fullscreenenter"",""1"",""5450""
","
","","","452.99999999976717","","","14","4570","2844","n","elianto","#f73b6a7A"," "," ","1","-10","[1306]","1","3","","","4570","150","0","3","lose","go","1"
"pit-trial","270","1637558","0.0-156.0","battery-v0.2","","""event"",""trial"",""time""
""fullscreenenter"",""1"",""5450""
","
","
","""event"",""trial"",""time""
""fullscreenenter"",""1"",""5450""
","
","","","1628","","","14","4570","2844","t","elianto","#f73b6a7A"," "," ","1","0","[2479]","1","3","","","4570","151","2","3","lose","go","0"
"pit-trial","271","1641540","0.0-157.0","battery-v0.2","","""event"",""trial"",""time""
""fullscreenenter"",""1"",""5450""
","
","
","""event"",""trial"",""time""
""fullscreenenter"",""1"",""5450""
","
","","","1123.0000000002328","","","14","4570","2844","f","elianto","#3366ff99","-1"," ","0","0","[1974.0000000002328]","1","3","","","4570","152","1","2","win","no-go","0"
"pit-trial","272","1646403","0.0-158.0","battery-v0.2","","""event"",""trial"",""time""
""fullscreenenter"",""1"",""5450""
","
","
","""event"",""trial"",""time""
""fullscreenenter"",""1"",""5450""
","
","","","-1","","","14","4570","2844","b","elianto","#f73b6a7A","-1","-1","1","-10","[565,4143]","2","3","","","4570","153","3","4","lose","no-go","1"
"pit-trial","273","1649743","0.0-159.0","battery-v0.2","","""event"",""trial"",""time""
""fullscreenenter"",""1"",""5450""
","
","
","""event"",""trial"",""time""
""fullscreenenter"",""1"",""5450""
","
","","","482","","","14","4570","2844","f","elianto","#3366ff99","-1"," ","0","0","[1333,2476]","2","3","","","4570","154","1","2","win","no-go","0"
"pit-trial","274","1653672","0.0-160.0","battery-v0.2","","""event"",""trial"",""time""
""fullscreenenter"",""1"",""5450""
","
","
","""event"",""trial"",""time""
""fullscreenenter"",""1"",""5450""
","
","","","1071","","","14","4570","2844","t","elianto","#f73b6a7A"," "," ","1","0","[1921]","1","3","","","4570","155","2","3","lose","go","0"
"pit-trial","275","1657450","0.0-161.0","battery-v0.2","","""event"",""trial"",""time""
""fullscreenenter"",""1"",""5450""
","
","
","""event"",""trial"",""time""
