"trial_type","trial_index","time_elapsed","internal_node_id","task_version","subject_id","interactions","blur_events","focus_events","fullscreenenter_events","fullscreenexit_events","success","view_history","rt","responses","num_errors","age","subject","participantId","rune","rune_set","hex","correct","choice","accuracy","outcome","keys","total_keys","block","practice","value","sub","trial","stimulus","robot","valence","action","sham"
"pavlovia","0","8","0.0-0.0","battery-v0.2","","""event"",""trial"",""time""
""fullscreenenter"",""1"",""3913""
","
","
","""event"",""trial"",""time""
""fullscreenenter"",""1"",""3913""
","
","","","","","","","","","","","","","","","","","","","","","","","","","","",""
"fullscreen","1","4882","0.0-1.0","battery-v0.2","","""event"",""trial"",""time""
""fullscreenenter"",""1"",""3913""
","
","
","""event"",""trial"",""time""
""fullscreenenter"",""1"",""3913""
","
","true","","","","","","","","","","","","","","","","","","","","","","","","","",""
"pit-instructions","2","10585","0.0-2.0-0.0","battery-v0.2","","""event"",""trial"",""time""
""fullscreenenter"",""1"",""3913""
","
","
","""event"",""trial"",""time""
""fullscreenenter"",""1"",""3913""
","
","","[{""page_index"":0,""viewing_time"":5696.900000095367}]","5697.300000071526","","","","","","","","","","","","","","","","","","","","","","","",""
"pit-comprehension","3","17948","0.0-2.0-1.0-0.0","battery-v0.2","","""event"",""trial"",""time""
""fullscreenenter"",""1"",""3913""
","
","
","""event"",""trial"",""time""
""fullscreenenter"",""1"",""3913""
","
","","","7358.399999976158","[""shark""]","0","13","3706","2124","","","","","","","","","","","","","","","","","","",""
"pit-instructions","4","22036","0.0-2.0-1.0-1.0","battery-v0.2","","""event"",""trial"",""time""
""fullscreenenter"",""1"",""3913""
","
","
","""event"",""trial"",""time""
""fullscreenenter"",""1"",""3913""
","
","","[{""page_index"":0,""viewing_time"":4064.899999976158}]","4065.399999976158","","","","","","","","","","","","","","","","","","","","","","","",""
"pit-comprehension","5","29094","0.0-2.0-2.0-0.0","battery-v0.2","","""event"",""trial"",""time""
""fullscreenenter"",""1"",""3913""
","
","
","""event"",""trial"",""time""
""fullscreenenter"",""1"",""3913""
","
","","","7053.100000023842","[""tiger""]","0","13","3706","2124","","","","","","","","","","","","","","","","","","",""
"pit-instructions","6","30826","0.0-2.0-2.0-1.0","battery-v0.2","","""event"",""trial"",""time""
""fullscreenenter"",""1"",""3913""
","
","
","""event"",""trial"",""time""
""fullscreenenter"",""1"",""3913""
","
","","[{""page_index"":0,""viewing_time"":1726}]","1726.4000000953674","","","","","","","","","","","","","","","","","","","","","","","",""
"pit-instructions","7","134163","0.0-2.0-3.0","battery-v0.2","","""event"",""trial"",""time""
""fullscreenenter"",""1"",""3913""
","
","
","""event"",""trial"",""time""
""fullscreenenter"",""1"",""3913""
","
","","[{""page_index"":0,""viewing_time"":9070.899999976158},{""page_index"":1,""viewing_time"":7209},{""page_index"":2,""viewing_time"":6531.199999928474},{""page_index"":3,""viewing_time"":5792.600000023842},{""page_index"":4,""viewing_time"":6161.600000023842},{""page_index"":5,""viewing_time"":5590.399999976158},{""page_index"":6,""viewing_time"":8775.700000047684},{""page_index"":7,""viewing_time"":7786.5},{""page_index"":8,""viewing_time"":7701.100000023842},{""page_index"":9,""viewing_time"":11134.199999928474},{""page_index"":10,""viewing_time"":7133.399999976158},{""page_index"":11,""viewing_time"":7481.100000023842},{""page_index"":12,""viewing_time"":6439.399999976158},{""page_index"":13,""viewing_time"":6526.700000047684}]","103334.59999990463","","","","","","","","","","","","","","","","","","","","","","","",""
"pit-trial","8","137744","0.0-2.0-4.0-0.0","battery-v0.2","","""event"",""trial"",""time""
""fullscreenenter"",""1"",""3913""
","
","
","""event"",""trial"",""time""
""fullscreenenter"",""1"",""3913""
","
","","","711.8000000715256","","","13","3706","2124","&#9784;","elianto","#FFFFF080"," "," ","1","&#10004","[1569]","1","0","0","","","","","","","",""
"pit-trial","9","141257","0.0-2.0-4.1-0.1","battery-v0.2","","""event"",""trial"",""time""
""fullscreenenter"",""1"",""3913""
","
","
","""event"",""trial"",""time""
""fullscreenenter"",""1"",""3913""
","
","","","648.6999999284744","","","13","3706","2124","&#9784;","elianto","#FFFFF080"," "," ","1","&#10004","[1501.7999999523163]","1","0","0","","","","","","","",""
"pit-trial","10","144618","0.0-2.0-4.2-0.2","battery-v0.2","","""event"",""trial"",""time""
""fullscreenenter"",""1"",""3913""
","
","
","""event"",""trial"",""time""
""fullscreenenter"",""1"",""3913""
","
","","","492.5","","","13","3706","2124","&#9784;","elianto","#FFFFF080"," "," ","1","&#10004","[1342.8999999761581]","1","0","0","","","","","","","",""
"pit-trial","11","148143","0.0-2.0-4.3-0.3","battery-v0.2","","""event"",""trial"",""time""
""fullscreenenter"",""1"",""3913""
","
","
","""event"",""trial"",""time""
""fullscreenenter"",""1"",""3913""
","
","","","655.5","","","13","3706","2124","&#9784;","elianto","#FFFFF080"," "," ","1","&#10004","[1507.2000000476837]","1","0","0","","","","","","","",""
"pit-trial","12","151663","0.0-2.0-4.4-0.4","battery-v0.2","","""event"",""trial"",""time""
""fullscreenenter"",""1"",""3913""
","
","
","""event"",""trial"",""time""
""fullscreenenter"",""1"",""3913""
","
","","","647.5","","","13","3706","2124","&#9784;","elianto","#FFFFF080"," "," ","1","&#10004","[1502.3999999761581]","1","0","0","","","","","","","",""
"pit-instructions","13","176965","0.0-2.0-5.0","battery-v0.2","","""event"",""trial"",""time""
""fullscreenenter"",""1"",""3913""
","
","
","""event"",""trial"",""time""
""fullscreenenter"",""1"",""3913""
","
","","[{""page_index"":0,""viewing_time"":5431.799999952316},{""page_index"":1,""viewing_time"":6571.400000095367},{""page_index"":2,""viewing_time"":8181.399999976158},{""page_index"":3,""viewing_time"":5111.899999976158}]","25297.399999976158","","","","","","","","","","","","","","","","","","","","","","","",""
"pit-trial","14","181849","0.0-2.0-6.0-0.0","battery-v0.2","","""event"",""trial"",""time""
""fullscreenenter"",""1"",""3913""
","
","
","""event"",""trial"",""time""
""fullscreenenter"",""1"",""3913""
","
","","","-1","","","13","3706","2124","&#9854;","elianto","#FFFFF080","-1","-1","1","&#10004","[]","0","0","1","","","","","","","",""
"pit-trial","15","186714","0.0-2.0-6.1-0.1","battery-v0.2","","""event"",""trial"",""time""
""fullscreenenter"",""1"",""3913""
","
","
","""event"",""trial"",""time""
""fullscreenenter"",""1"",""3913""
","
","","","-1","","","13","3706","2124","&#9854;","elianto","#FFFFF080","-1","-1","1","&#10004","[]","0","0","1","","","","","","","",""
"pit-trial","16","191587","0.0-2.0-6.2-0.2","battery-v0.2","","""event"",""trial"",""time""
""fullscreenenter"",""1"",""3913""
","
","
","""event"",""trial"",""time""
""fullscreenenter"",""1"",""3913""
","
","","","-1","","","13","3706","2124","&#9854;","elianto","#FFFFF080","-1","-1","1","&#10004","[]","0","0","1","","","","","","","",""
"pit-trial","17","196472","0.0-2.0-6.3-0.3","battery-v0.2","","""event"",""trial"",""time""
""fullscreenenter"",""1"",""3913""
","
","
","""event"",""trial"",""time""
""fullscreenenter"",""1"",""3913""
","
","","","-1","","","13","3706","2124","&#9854;","elianto","#FFFFF080","-1","-1","1","&#10004","[]","0","0","1","","","","","","","",""
"pit-trial","18","201348","0.0-2.0-6.4-0.4","battery-v0.2","","""event"",""trial"",""time""
""fullscreenenter"",""1"",""3913""
","
","
","""event"",""trial"",""time""
""fullscreenenter"",""1"",""3913""
","
","","","-1","","","13","3706","2124","&#9854;","elianto","#FFFFF080","-1","-1","1","&#10004","[]","0","0","1","","","","","","","",""
"pit-instructions","19","335737","0.0-2.0-7.0","battery-v0.2","","""event"",""trial"",""time""
""fullscreenenter"",""1"",""3913""
","
","
","""event"",""trial"",""time""
""fullscreenenter"",""1"",""3913""
","
","","[{""page_index"":0,""viewing_time"":6092.200000047684},{""page_index"":1,""viewing_time"":8166.599999904633},{""page_index"":2,""viewing_time"":6832.700000047684},{""page_index"":3,""viewing_time"":6390.5},{""page_index"":4,""viewing_time"":5723.399999976158},{""page_index"":5,""viewing_time"":5645.700000047684},{""page_index"":6,""viewing_time"":5355.5},{""page_index"":7,""viewing_time"":8482.699999928474},{""page_index"":8,""viewing_time"":10203.600000023842},{""page_index"":9,""viewing_time"":7770.800000071526},{""page_index"":10,""viewing_time"":8382.799999952316},{""page_index"":11,""viewing_time"":5311.600000023842},{""page_index"":12,""viewing_time"":7398.100000023842},{""page_index"":13,""viewing_time"":7570.699999928474},{""page_index"":14,""viewing_time"":7718.700000047684},{""page_index"":15,""viewing_time"":7169.799999952316},{""page_index"":16,""viewing_time"":12638},{""page_index"":17,""viewing_time"":7530.399999976158}]","134384.79999995232","","","","","","","","","","","","","","","","","","","","","","","",""
"pit-trial","20","339764","0.0-2.0-8.0-0.0","battery-v0.2","","""event"",""trial"",""time""
""fullscreenenter"",""1"",""3913""
","
","
","""event"",""trial"",""time""
""fullscreenenter"",""1"",""3913""
","
","","","1159.6999999284744","","","13","3706","2124","&#9776;","elianto","#3366ff99"," "," ","1","+10","[2012.3000000715256]","1","0","1","","","","","","","",""
"pit-trial","21","343689","0.0-2.0-8.0-1.0","battery-v0.2","","""event"",""trial"",""time""
""fullscreenenter"",""1"",""3913""
","
","
","""event"",""trial"",""time""
""fullscreenenter"",""1"",""3913""
","
","","","1069.3999999761581","","","13","3706","2124","&#9776;","elianto","#3366ff99"," "," ","1","+10","[1919.8000000715256]","1","0","1","","","","","","","",""
"pit-trial","22","347202","0.0-2.0-8.0-2.0","battery-v0.2","","""event"",""trial"",""time""
""fullscreenenter"",""1"",""3913""
","
","
","""event"",""trial"",""time""
""fullscreenenter"",""1"",""3913""
","
","","","638.2999999523163","","","13","3706","2124","&#9776;","elianto","#3366ff99"," "," ","1","+10","[1493.6000000238419]","1","0","1","","","","","","","",""
"pit-trial","23","350778","0.0-2.0-8.0-3.0","battery-v0.2","","""event"",""trial"",""time""
""fullscreenenter"",""1"",""3913""
","
","
","""event"",""trial"",""time""
""fullscreenenter"",""1"",""3913""
","
","","","701.3999999761581","","","13","3706","2124","&#9776;","elianto","#3366ff99"," "," ","1","0","[1556.7999999523163]","1","0","1","","","","","","","",""
"pit-trial","24","354365","0.0-2.0-8.0-4.0","battery-v0.2","","""event"",""trial"",""time""
""fullscreenenter"",""1"",""3913""
","
","
","""event"",""trial"",""time""
""fullscreenenter"",""1"",""3913""
","
","","","710.8999999761581","","","13","3706","2124","&#9776;","elianto","#3366ff99"," "," ","1","+10","[1563.6000000238419]","1","0","1","","","","","","","",""
"pit-trial","25","357845","0.0-2.0-8.1-0.1","battery-v0.2","","""event"",""trial"",""time""
""fullscreenenter"",""1"",""3913""
","
","
","""event"",""trial"",""time""
""fullscreenenter"",""1"",""3913""
","
","","","598.5","","","13","3706","2124","&#9776;","elianto","#3366ff99"," "," ","1","+10","[1459.2000000476837]","1","0","1","","","","","","","",""
"pit-trial","26","361324","0.0-2.0-8.1-1.1","battery-v0.2","","""event"",""trial"",""time""
""fullscreenenter"",""1"",""3913""
","
","
","""event"",""trial"",""time""
""fullscreenenter"",""1"",""3913""
","
","","","619","","","13","3706","2124","&#9776;","elianto","#3366ff99"," "," ","1","+10","[1471.9000000953674]","1","0","1","","","","","","","",""
"pit-trial","27","365082","0.0-2.0-8.1-2.1","battery-v0.2","","""event"",""trial"",""time""
""fullscreenenter"",""1"",""3913""
","
","
","""event"",""trial"",""time""
""fullscreenenter"",""1"",""3913""
","
","","","887.2000000476837","","","13","3706","2124","&#9776;","elianto","#3366ff99"," "," ","1","+10","[1739.1000000238419]","1","0","1","","","","","","","",""
"pit-trial","28","368708","0.0-2.0-8.1-3.1","battery-v0.2","","""event"",""trial"",""time""
""fullscreenenter"",""1"",""3913""
","
","
","""event"",""trial"",""time""
""fullscreenenter"",""1"",""3913""
","
","","","758.3999999761581","","","13","3706","2124","&#9776;","elianto","#3366ff99"," "," ","1","0","[1614.5999999046326]","1","0","1","","","","","","","",""
"pit-trial","29","372057","0.0-2.0-8.1-4.1","battery-v0.2","","""event"",""trial"",""time""
""fullscreenenter"",""1"",""3913""
","
","
","""event"",""trial"",""time""
""fullscreenenter"",""1"",""3913""
","
","","","486.60000002384186","","","13","3706","2124","&#9776;","elianto","#3366ff99"," "," ","1","+10","[1337.7999999523163]","1","0","1","","","","","","","",""
"pit-trial","30","375551","0.0-2.0-8.2-0.2","battery-v0.2","","""event"",""trial"",""time""
""fullscreenenter"",""1"",""3913""
","
","
","""event"",""trial"",""time""
""fullscreenenter"",""1"",""3913""
","
","","","630.7999999523163","","","13","3706","2124","&#9776;","elianto","#3366ff99"," "," ","1","+10","[1483.1000000238419]","1","0","1","","","","","","","",""
"pit-trial","31","378958","0.0-2.0-8.2-1.2","battery-v0.2","","""event"",""trial"",""time""
""fullscreenenter"",""1"",""3913""
","
","
","""event"",""trial"",""time""
""fullscreenenter"",""1"",""3913""
","
","","","543.2999999523163","","","13","3706","2124","&#9776;","elianto","#3366ff99"," "," ","1","+10","[1397.8999999761581]","1","0","1","","","","","","","",""
"pit-trial","32","382896","0.0-2.0-8.2-2.2","battery-v0.2","","""event"",""trial"",""time""
""fullscreenenter"",""1"",""3913""
","
","
","""event"",""trial"",""time""
""fullscreenenter"",""1"",""3913""
","
","","","1080.7999999523163","","","13","3706","2124","&#9776;","elianto","#3366ff99"," "," ","1","+10","[1931.1000000238419]","1","0","1","","","","","","","",""
"pit-trial","33","386016","0.0-2.0-8.2-3.2","battery-v0.2","","""event"",""trial"",""time""
""fullscreenenter"",""1"",""3913""
","
","
","""event"",""trial"",""time""
""fullscreenenter"",""1"",""3913""
","
","","","258.60000002384186","","","13","3706","2124","&#9776;","elianto","#3366ff99"," "," ","1","0","[1111.7000000476837]","1","0","1","","","","","","","",""
"pit-trial","34","389355","0.0-2.0-8.2-4.2","battery-v0.2","","""event"",""trial"",""time""
""fullscreenenter"",""1"",""3913""
","
","
","""event"",""trial"",""time""
""fullscreenenter"",""1"",""3913""
","
","","","474.10000002384186","","","13","3706","2124","&#9776;","elianto","#3366ff99"," "," ","1","+10","[1329.2999999523163]","1","0","1","","","","","","","",""
"call-function","35","389358","0.0-2.0-9.0","battery-v0.2","","""event"",""trial"",""time""
""fullscreenenter"",""1"",""3913""
","
","
","""event"",""trial"",""time""
""fullscreenenter"",""1"",""3913""
","
","","","","","","","","","","","","","","","","","","","","","","","","","","",""
"pit-instructions","36","435891","0.0-2.0-10.0","battery-v0.2","","""event"",""trial"",""time""
""fullscreenenter"",""1"",""3913""
","
","
","""event"",""trial"",""time""
""fullscreenenter"",""1"",""3913""
","
","","[{""page_index"":0,""viewing_time"":7623.800000071526},{""page_index"":1,""viewing_time"":7340.399999976158},{""page_index"":2,""viewing_time"":10660.199999928474},{""page_index"":3,""viewing_time"":11419.900000095367},{""page_index"":4,""viewing_time"":9486.899999976158}]","46531.800000071526","","","","","","","","","","","","","","","","","","","","","","","",""
"pit-trial","37","440770","0.0-2.0-11.0-0.0","battery-v0.2","","""event"",""trial"",""time""
""fullscreenenter"",""1"",""3913""
","
","
","""event"",""trial"",""time""
""fullscreenenter"",""1"",""3913""
","
","","","-1","","","13","3706","2124","&#9761;","elianto","#3366ff99","-1","-1","1","+10","[]","0","0","2","","","","","","","",""
"pit-trial","38","445641","0.0-2.0-11.0-1.0","battery-v0.2","","""event"",""trial"",""time""
""fullscreenenter"",""1"",""3913""
","
","
","""event"",""trial"",""time""
""fullscreenenter"",""1"",""3913""
","
","","","-1","","","13","3706","2124","&#9761;","elianto","#3366ff99","-1","-1","1","+10","[]","0","0","2","","","","","","","",""
"pit-trial","39","450503","0.0-2.0-11.0-2.0","battery-v0.2","","""event"",""trial"",""time""
""fullscreenenter"",""1"",""3913""
","
","
","""event"",""trial"",""time""
""fullscreenenter"",""1"",""3913""
","
","","","-1","","","13","3706","2124","&#9761;","elianto","#3366ff99","-1","-1","1","+10","[]","0","0","2","","","","","","","",""
"pit-trial","40","455387","0.0-2.0-11.0-3.0","battery-v0.2","","""event"",""trial"",""time""
""fullscreenenter"",""1"",""3913""
","
","
","""event"",""trial"",""time""
""fullscreenenter"",""1"",""3913""
","
","","","-1","","","13","3706","2124","&#9761;","elianto","#3366ff99","-1","-1","1","0","[]","0","0","2","","","","","","","",""
"pit-trial","41","460270","0.0-2.0-11.0-4.0","battery-v0.2","","""event"",""trial"",""time""
""fullscreenenter"",""1"",""3913""
","
","
","""event"",""trial"",""time""
""fullscreenenter"",""1"",""3913""
","
","","","-1","","","13","3706","2124","&#9761;","elianto","#3366ff99","-1","-1","1","+10","[]","0","0","2","","","","","","","",""
"pit-trial","42","465145","0.0-2.0-11.1-0.1","battery-v0.2","","""event"",""trial"",""time""
""fullscreenenter"",""1"",""3913""
","
","
","""event"",""trial"",""time""
""fullscreenenter"",""1"",""3913""
","
","","","-1","","","13","3706","2124","&#9761;","elianto","#3366ff99","-1","-1","1","+10","[]","0","0","2","","","","","","","",""
"pit-trial","43","470007","0.0-2.0-11.1-1.1","battery-v0.2","","""event"",""trial"",""time""
""fullscreenenter"",""1"",""3913""
","
","
","""event"",""trial"",""time""
""fullscreenenter"",""1"",""3913""
","
","","","-1","","","13","3706","2124","&#9761;","elianto","#3366ff99","-1","-1","1","+10","[]","0","0","2","","","","","","","",""
"pit-trial","44","474873","0.0-2.0-11.1-2.1","battery-v0.2","","""event"",""trial"",""time""
""fullscreenenter"",""1"",""3913""
","
","
","""event"",""trial"",""time""
""fullscreenenter"",""1"",""3913""
","
","","","-1","","","13","3706","2124","&#9761;","elianto","#3366ff99","-1","-1","1","+10","[]","0","0","2","","","","","","","",""
"pit-trial","45","479734","0.0-2.0-11.1-3.1","battery-v0.2","","""event"",""trial"",""time""
""fullscreenenter"",""1"",""3913""
","
","
","""event"",""trial"",""time""
""fullscreenenter"",""1"",""3913""
","
","","","-1","","","13","3706","2124","&#9761;","elianto","#3366ff99","-1","-1","1","0","[]","0","0","2","","","","","","","",""
"pit-trial","46","484599","0.0-2.0-11.1-4.1","battery-v0.2","","""event"",""trial"",""time""
""fullscreenenter"",""1"",""3913""
","
","
","""event"",""trial"",""time""
""fullscreenenter"",""1"",""3913""
","
","","","-1","","","13","3706","2124","&#9761;","elianto","#3366ff99","-1","-1","1","+10","[]","0","0","2","","","","","","","",""
"pit-trial","47","489481","0.0-2.0-11.2-0.2","battery-v0.2","","""event"",""trial"",""time""
""fullscreenenter"",""1"",""3913""
","
","
","""event"",""trial"",""time""
""fullscreenenter"",""1"",""3913""
","
","","","-1","","","13","3706","2124","&#9761;","elianto","#3366ff99","-1","-1","1","+10","[]","0","0","2","","","","","","","",""
"pit-trial","48","494342","0.0-2.0-11.2-1.2","battery-v0.2","","""event"",""trial"",""time""
""fullscreenenter"",""1"",""3913""
","
","
","""event"",""trial"",""time""
""fullscreenenter"",""1"",""3913""
","
","","","-1","","","13","3706","2124","&#9761;","elianto","#3366ff99","-1","-1","1","+10","[]","0","0","2","","","","","","","",""
"pit-trial","49","499208","0.0-2.0-11.2-2.2","battery-v0.2","","""event"",""trial"",""time""
""fullscreenenter"",""1"",""3913""
","
","
","""event"",""trial"",""time""
""fullscreenenter"",""1"",""3913""
","
","","","-1","","","13","3706","2124","&#9761;","elianto","#3366ff99","-1","-1","1","+10","[]","0","0","2","","","","","","","",""
"pit-trial","50","504077","0.0-2.0-11.2-3.2","battery-v0.2","","""event"",""trial"",""time""
""fullscreenenter"",""1"",""3913""
","
","
","""event"",""trial"",""time""
""fullscreenenter"",""1"",""3913""
","
","","","-1","","","13","3706","2124","&#9761;","elianto","#3366ff99","-1","-1","1","0","[]","0","0","2","","","","","","","",""
"pit-trial","51","508949","0.0-2.0-11.2-4.2","battery-v0.2","","""event"",""trial"",""time""
""fullscreenenter"",""1"",""3913""
","
","
","""event"",""trial"",""time""
""fullscreenenter"",""1"",""3913""
","
","","","-1","","","13","3706","2124","&#9761;","elianto","#3366ff99","-1","-1","1","+10","[]","0","0","2","","","","","","","",""
"pit-trial","52","513814","0.0-2.0-11.3-0.3","battery-v0.2","","""event"",""trial"",""time""
""fullscreenenter"",""1"",""3913""
","
","
","""event"",""trial"",""time""
""fullscreenenter"",""1"",""3913""
","
","","","-1","","","13","3706","2124","&#9761;","elianto","#3366ff99","-1","-1","1","+10","[]","0","0","2","","","","","","","",""
"pit-trial","53","518678","0.0-2.0-11.3-1.3","battery-v0.2","","""event"",""trial"",""time""
""fullscreenenter"",""1"",""3913""
","
","
","""event"",""trial"",""time""
""fullscreenenter"",""1"",""3913""
","
","","","-1","","","13","3706","2124","&#9761;","elianto","#3366ff99","-1","-1","1","+10","[]","0","0","2","","","","","","","",""
"pit-trial","54","523551","0.0-2.0-11.3-2.3","battery-v0.2","","""event"",""trial"",""time""
""fullscreenenter"",""1"",""3913""
","
","
","""event"",""trial"",""time""
""fullscreenenter"",""1"",""3913""
","
","","","-1","","","13","3706","2124","&#9761;","elianto","#3366ff99","-1","-1","1","+10","[]","0","0","2","","","","","","","",""
"pit-trial","55","528415","0.0-2.0-11.3-3.3","battery-v0.2","","""event"",""trial"",""time""
""fullscreenenter"",""1"",""3913""
","
","
","""event"",""trial"",""time""
""fullscreenenter"",""1"",""3913""
","
","","","-1","","","13","3706","2124","&#9761;","elianto","#3366ff99","-1","-1","1","0","[]","0","0","2","","","","","","","",""
"pit-trial","56","533285","0.0-2.0-11.3-4.3","battery-v0.2","","""event"",""trial"",""time""
""fullscreenenter"",""1"",""3913""
","
","
","""event"",""trial"",""time""
""fullscreenenter"",""1"",""3913""
","
","","","-1","","","13","3706","2124","&#9761;","elianto","#3366ff99","-1","-1","1","+10","[]","0","0","2","","","","","","","",""
"call-function","57","533287","0.0-2.0-12.0","battery-v0.2","","""event"",""trial"",""time""
""fullscreenenter"",""1"",""3913""
","
","
","""event"",""trial"",""time""
""fullscreenenter"",""1"",""3913""
","
","","","","","","","","","","","","","","","","","","","","","","","","","","",""
"pit-instructions","58","567681","0.0-2.0-13.0","battery-v0.2","","""event"",""trial"",""time""
""fullscreenenter"",""1"",""3913""
","
","
","""event"",""trial"",""time""
""fullscreenenter"",""1"",""3913""
","
","","[{""page_index"":0,""viewing_time"":6497.799999952316},{""page_index"":1,""viewing_time"":7787.399999976158},{""page_index"":2,""viewing_time"":3645.4000000953674},{""page_index"":3,""viewing_time"":10877.199999928474},{""page_index"":4,""viewing_time"":5584.5}]","34392.699999928474","","","","","","","","","","","","","","","","","","","","","","","",""
"pit-trial","59","572561","0.0-2.0-14.0-0.0","battery-v0.2","","""event"",""trial"",""time""
""fullscreenenter"",""1"",""3913""
","
","
","""event"",""trial"",""time""
""fullscreenenter"",""1"",""3913""
","
","","","-1","","","13","3706","2124","&#9826;","elianto","#f73b6a7A","-1","-1","1","0","[]","0","0","3","","","","","","","",""
"pit-trial","60","576220","0.0-2.0-14.0-1.0","battery-v0.2","","""event"",""trial"",""time""
""fullscreenenter"",""1"",""3913""
","
","
","""event"",""trial"",""time""
""fullscreenenter"",""1"",""3913""
","
","","","787","","","13","3706","2124","&#9826;","elianto","#f73b6a7A","-1"," ","0","-10","[1641.5999999046326]","1","0","3","","","","","","","",""
"pit-trial","61","579738","0.0-2.0-14.0-2.0","battery-v0.2","","""event"",""trial"",""time""
""fullscreenenter"",""1"",""3913""
","
","
","""event"",""trial"",""time""
""fullscreenenter"",""1"",""3913""
","
","","","643.7999999523163","","","13","3706","2124","&#9826;","elianto","#f73b6a7A","-1"," ","0","-10","[1499.4000000953674]","1","0","3","","","","","","","",""
"pit-trial","62","584617","0.0-2.0-14.0-3.0","battery-v0.2","","""event"",""trial"",""time""
""fullscreenenter"",""1"",""3913""
","
","
","""event"",""trial"",""time""
""fullscreenenter"",""1"",""3913""
","
","","","-1","","","13","3706","2124","&#9826;","elianto","#f73b6a7A","-1","-1","1","-10","[]","0","0","3","","","","","","","",""
"pit-trial","63","589496","0.0-2.0-14.0-4.0","battery-v0.2","","""event"",""trial"",""time""
""fullscreenenter"",""1"",""3913""
","
","
","""event"",""trial"",""time""
""fullscreenenter"",""1"",""3913""
","
","","","-1","","","13","3706","2124","&#9826;","elianto","#f73b6a7A","-1","-1","1","0","[]","0","0","3","","","","","","","",""
"pit-trial","64","594384","0.0-2.0-14.1-0.1","battery-v0.2","","""event"",""trial"",""time""
""fullscreenenter"",""1"",""3913""
","
","
","""event"",""trial"",""time""
""fullscreenenter"",""1"",""3913""
","
","","","-1","","","13","3706","2124","&#9826;","elianto","#f73b6a7A","-1","-1","1","0","[]","0","0","3","","","","","","","",""
"pit-trial","65","599249","0.0-2.0-14.1-1.1","battery-v0.2","","""event"",""trial"",""time""
""fullscreenenter"",""1"",""3913""
","
","
","""event"",""trial"",""time""
""fullscreenenter"",""1"",""3913""
","
","","","-1","","","13","3706","2124","&#9826;","elianto","#f73b6a7A","-1","-1","1","0","[]","0","0","3","","","","","","","",""
"pit-trial","66","604126","0.0-2.0-14.1-2.1","battery-v0.2","","""event"",""trial"",""time""
""fullscreenenter"",""1"",""3913""
","
","
","""event"",""trial"",""time""
""fullscreenenter"",""1"",""3913""
","
","","","-1","","","13","3706","2124","&#9826;","elianto","#f73b6a7A","-1","-1","1","0","[]","0","0","3","","","","","","","",""
"pit-trial","67","608990","0.0-2.0-14.1-3.1","battery-v0.2","","""event"",""trial"",""time""
""fullscreenenter"",""1"",""3913""
","
","
","""event"",""trial"",""time""
""fullscreenenter"",""1"",""3913""
","
","","","-1","","","13","3706","2124","&#9826;","elianto","#f73b6a7A","-1","-1","1","-10","[]","0","0","3","","","","","","","",""
"pit-trial","68","613856","0.0-2.0-14.1-4.1","battery-v0.2","","""event"",""trial"",""time""
""fullscreenenter"",""1"",""3913""
","
","
","""event"",""trial"",""time""
""fullscreenenter"",""1"",""3913""
","
","","","-1","","","13","3706","2124","&#9826;","elianto","#f73b6a7A","-1","-1","1","0","[]","0","0","3","","","","","","","",""
"pit-trial","69","618723","0.0-2.0-14.2-0.2","battery-v0.2","","""event"",""trial"",""time""
""fullscreenenter"",""1"",""3913""
","
","
","""event"",""trial"",""time""
""fullscreenenter"",""1"",""3913""
","
","","","-1","","","13","3706","2124","&#9826;","elianto","#f73b6a7A","-1","-1","1","0","[]","0","0","3","","","","","","","",""
"pit-trial","70","623592","0.0-2.0-14.2-1.2","battery-v0.2","","""event"",""trial"",""time""
""fullscreenenter"",""1"",""3913""
","
","
","""event"",""trial"",""time""
""fullscreenenter"",""1"",""3913""
","
","","","-1","","","13","3706","2124","&#9826;","elianto","#f73b6a7A","-1","-1","1","0","[]","0","0","3","","","","","","","",""
"pit-trial","71","628466","0.0-2.0-14.2-2.2","battery-v0.2","","""event"",""trial"",""time""
""fullscreenenter"",""1"",""3913""
","
","
","""event"",""trial"",""time""
""fullscreenenter"",""1"",""3913""
","
","","","-1","","","13","3706","2124","&#9826;","elianto","#f73b6a7A","-1","-1","1","0","[]","0","0","3","","","","","","","",""
"pit-trial","72","633327","0.0-2.0-14.2-3.2","battery-v0.2","","""event"",""trial"",""time""
""fullscreenenter"",""1"",""3913""
","
","
","""event"",""trial"",""time""
""fullscreenenter"",""1"",""3913""
","
","","","-1","","","13","3706","2124","&#9826;","elianto","#f73b6a7A","-1","-1","1","-10","[]","0","0","3","","","","","","","",""
"pit-trial","73","638195","0.0-2.0-14.2-4.2","battery-v0.2","","""event"",""trial"",""time""
""fullscreenenter"",""1"",""3913""
","
","
","""event"",""trial"",""time""
""fullscreenenter"",""1"",""3913""
","
","","","-1","","","13","3706","2124","&#9826;","elianto","#f73b6a7A","-1","-1","1","0","[]","0","0","3","","","","","","","",""
"pit-trial","74","643066","0.0-2.0-14.3-0.3","battery-v0.2","","""event"",""trial"",""time""
""fullscreenenter"",""1"",""3913""
","
","
","""event"",""trial"",""time""
""fullscreenenter"",""1"",""3913""
","
","","","-1","","","13","3706","2124","&#9826;","elianto","#f73b6a7A","-1","-1","1","0","[]","0","0","3","","","","","","","",""
"pit-trial","75","647937","0.0-2.0-14.3-1.3","battery-v0.2","","""event"",""trial"",""time""
""fullscreenenter"",""1"",""3913""
","
","
","""event"",""trial"",""time""
""fullscreenenter"",""1"",""3913""
","
","","","-1","","","13","3706","2124","&#9826;","elianto","#f73b6a7A","-1","-1","1","0","[]","0","0","3","","","","","","","",""
"pit-trial","76","652807","0.0-2.0-14.3-2.3","battery-v0.2","","""event"",""trial"",""time""
""fullscreenenter"",""1"",""3913""
","
","
","""event"",""trial"",""time""
""fullscreenenter"",""1"",""3913""
","
","","","-1","","","13","3706","2124","&#9826;","elianto","#f73b6a7A","-1","-1","1","0","[]","0","0","3","","","","","","","",""
"pit-trial","77","657677","0.0-2.0-14.3-3.3","battery-v0.2","","""event"",""trial"",""time""
""fullscreenenter"",""1"",""3913""
","
","
","""event"",""trial"",""time""
""fullscreenenter"",""1"",""3913""
","
","","","-1","","","13","3706","2124","&#9826;","elianto","#f73b6a7A","-1","-1","1","-10","[]","0","0","3","","","","","","","",""
"pit-trial","78","662546","0.0-2.0-14.3-4.3","battery-v0.2","","""event"",""trial"",""time""
""fullscreenenter"",""1"",""3913""
","
","
","""event"",""trial"",""time""
""fullscreenenter"",""1"",""3913""
","
","","","-1","","","13","3706","2124","&#9826;","elianto","#f73b6a7A","-1","-1","1","0","[]","0","0","3","","","","","","","",""
"call-function","79","662549","0.0-2.0-15.0","battery-v0.2","","""event"",""trial"",""time""
""fullscreenenter"",""1"",""3913""
","
","
","""event"",""trial"",""time""
""fullscreenenter"",""1"",""3913""
","
","","","","","","","","","","","","","","","","","","","","","","","","","","",""
"pit-instructions","80","765662","0.0-2.0-16.0","battery-v0.2","","""event"",""trial"",""time""
""fullscreenenter"",""1"",""3913""
","
","
","""event"",""trial"",""time""
""fullscreenenter"",""1"",""3913""
","
","","[{""page_index"":0,""viewing_time"":75456.5},{""page_index"":1,""viewing_time"":17281},{""page_index"":2,""viewing_time"":5081.299999952316},{""page_index"":3,""viewing_time"":5292}]","103111.59999990463","","","","","","","","","","","","","","","","","","","","","","","",""
"pit-trial","81","770544","0.0-2.0-17.0-0.0","battery-v0.2","","""event"",""trial"",""time""
""fullscreenenter"",""1"",""3913""
","
","
","""event"",""trial"",""time""
""fullscreenenter"",""1"",""3913""
","
","","","-1","","","13","3706","2124","&#9789;","elianto","#f73b6a7A"," ","-1","0","-10","[]","0","0","4","","","","","","","",""
"pit-trial","82","773647","0.0-2.0-17.0-1.0","battery-v0.2","","""event"",""trial"",""time""
""fullscreenenter"",""1"",""3913""
","
","
","""event"",""trial"",""time""
""fullscreenenter"",""1"",""3913""
","
","","","236.79999995231628","","","13","3706","2124","&#9789;","elianto","#f73b6a7A"," "," ","1","0","[1086.8000000715256]","1","0","4","","","","","","","",""
"pit-trial","83","777261","0.0-2.0-17.0-2.0","battery-v0.2","","""event"",""trial"",""time""
""fullscreenenter"",""1"",""3913""
","
","
","""event"",""trial"",""time""
""fullscreenenter"",""1"",""3913""
","
","","","743.5","","","13","3706","2124","&#9789;","elianto","#f73b6a7A"," "," ","1","0","[1600.1999999284744]","1","0","4","","","","","","","",""
"pit-trial","84","780299","0.0-2.0-17.0-3.0","battery-v0.2","","""event"",""trial"",""time""
""fullscreenenter"",""1"",""3913""
","
","
","""event"",""trial"",""time""
""fullscreenenter"",""1"",""3913""
","
","","","168","","","13","3706","2124","&#9789;","elianto","#f73b6a7A"," "," ","1","-10","[1019.1999999284744]","1","0","4","","","","","","","",""
"pit-trial","85","783425","0.0-2.0-17.0-4.0","battery-v0.2","","""event"",""trial"",""time""
""fullscreenenter"",""1"",""3913""
","
","
","""event"",""trial"",""time""
""fullscreenenter"",""1"",""3913""
","
","","","261.3000000715256","","","13","3706","2124","&#9789;","elianto","#f73b6a7A"," "," ","1","0","[1114.7000000476837]","1","0","4","","","","","","","",""
"pit-trial","86","787510","0.0-2.0-17.1-0.1","battery-v0.2","","""event"",""trial"",""time""
""fullscreenenter"",""1"",""3913""
","
","
","""event"",""trial"",""time""
""fullscreenenter"",""1"",""3913""
","
","","","1215","","","13","3706","2124","&#9789;","elianto","#f73b6a7A"," "," ","1","0","[831.4000000953674,2067.9000000953674]","2","0","4","","","","","","","",""
"pit-trial","87","791093","0.0-2.0-17.1-1.1","battery-v0.2","","""event"",""trial"",""time""
""fullscreenenter"",""1"",""3913""
","
","
","""event"",""trial"",""time""
""fullscreenenter"",""1"",""3913""
","
","","","712.3999999761581","","","13","3706","2124","&#9789;","elianto","#f73b6a7A"," "," ","1","0","[1562.3999999761581]","1","0","4","","","","","","","",""
"pit-trial","88","794973","0.0-2.0-17.1-2.1","battery-v0.2","","""event"",""trial"",""time""
""fullscreenenter"",""1"",""3913""
","
","
","""event"",""trial"",""time""
""fullscreenenter"",""1"",""3913""
","
","","","1015.3000000715256","","","13","3706","2124","&#9789;","elianto","#f73b6a7A"," "," ","1","0","[1867.3999999761581]","1","0","4","","","","","","","",""
"pit-trial","89","798607","0.0-2.0-17.1-3.1","battery-v0.2","","""event"",""trial"",""time""
""fullscreenenter"",""1"",""3913""
","
","
","""event"",""trial"",""time""
""fullscreenenter"",""1"",""3913""
","
","","","772.6999999284744","","","13","3706","2124","&#9789;","elianto","#f73b6a7A"," "," ","1","-10","[1623.7999999523163]","1","0","4","","","","","","","",""
"pit-trial","90","802274","0.0-2.0-17.1-4.1","battery-v0.2","","""event"",""trial"",""time""
""fullscreenenter"",""1"",""3913""
","
","
","""event"",""trial"",""time""
""fullscreenenter"",""1"",""3913""
","
","","","806.3000000715256","","","13","3706","2124","&#9789;","elianto","#f73b6a7A"," "," ","1","0","[1658]","1","0","4","","","","","","","",""
"pit-trial","91","805512","0.0-2.0-17.2-0.2","battery-v0.2","","""event"",""trial"",""time""
""fullscreenenter"",""1"",""3913""
","
","
","""event"",""trial"",""time""
""fullscreenenter"",""1"",""3913""
","
","","","378","","","13","3706","2124","&#9789;","elianto","#f73b6a7A"," "," ","1","0","[1229.6999999284744]","1","0","4","","","","","","","",""
"pit-trial","92","808760","0.0-2.0-17.2-1.2","battery-v0.2","","""event"",""trial"",""time""
""fullscreenenter"",""1"",""3913""
","
","
","""event"",""trial"",""time""
""fullscreenenter"",""1"",""3913""
","
","","","385.60000002384186","","","13","3706","2124","&#9789;","elianto","#f73b6a7A"," "," ","1","0","[1240.5999999046326]","1","0","4","","","","","","","",""
"pit-trial","93","812081","0.0-2.0-17.2-2.2","battery-v0.2","","""event"",""trial"",""time""
""fullscreenenter"",""1"",""3913""
","
","
","""event"",""trial"",""time""
""fullscreenenter"",""1"",""3913""
","
","","","462.6999999284744","","","13","3706","2124","&#9789;","elianto","#f73b6a7A"," "," ","1","0","[1314.6000000238419]","1","0","4","","","","","","","",""
"pit-trial","94","815514","0.0-2.0-17.2-3.2","battery-v0.2","","""event"",""trial"",""time""
""fullscreenenter"",""1"",""3913""
","
","
","""event"",""trial"",""time""
""fullscreenenter"",""1"",""3913""
","
","","","566.2000000476837","","","13","3706","2124","&#9789;","elianto","#f73b6a7A"," "," ","1","-10","[1421.7000000476837]","1","0","4","","","","","","","",""
"pit-trial","95","820377","0.0-2.0-17.2-4.2","battery-v0.2","","""event"",""trial"",""time""
""fullscreenenter"",""1"",""3913""
","
","
","""event"",""trial"",""time""
""fullscreenenter"",""1"",""3913""
","
","","","-1","","","13","3706","2124","&#9789;","elianto","#f73b6a7A"," ","-1","0","-10","[2862.600000023842]","1","0","4","","","","","","","",""
"pit-trial","96","823483","0.0-2.0-17.3-0.3","battery-v0.2","","""event"",""trial"",""time""
""fullscreenenter"",""1"",""3913""
","
","
","""event"",""trial"",""time""
""fullscreenenter"",""1"",""3913""
","
","","","235.39999997615814","","","13","3706","2124","&#9789;","elianto","#f73b6a7A"," "," ","1","0","[1088.6999999284744]","1","0","4","","","","","","","",""
"pit-trial","97","826633","0.0-2.0-17.3-1.3","battery-v0.2","","""event"",""trial"",""time""
""fullscreenenter"",""1"",""3913""
","
","
","""event"",""trial"",""time""
""fullscreenenter"",""1"",""3913""
","
","","","289.89999997615814","","","13","3706","2124","&#9789;","elianto","#f73b6a7A"," "," ","1","0","[1143.7000000476837]","1","0","4","","","","","","","",""
"pit-trial","98","829991","0.0-2.0-17.3-2.3","battery-v0.2","","""event"",""trial"",""time""
""fullscreenenter"",""1"",""3913""
","
","
","""event"",""trial"",""time""
""fullscreenenter"",""1"",""3913""
","
","","","495.59999990463257","","","13","3706","2124","&#9789;","elianto","#f73b6a7A"," "," ","1","0","[1348.2999999523163]","1","0","4","","","","","","","",""
"pit-trial","99","833143","0.0-2.0-17.3-3.3","battery-v0.2","","""event"",""trial"",""time""
""fullscreenenter"",""1"",""3913""
","
","
","""event"",""trial"",""time""
""fullscreenenter"",""1"",""3913""
","
","","","292.1999999284744","","","13","3706","2124","&#9789;","elianto","#f73b6a7A"," "," ","1","-10","[1143.8999999761581]","1","0","4","","","","","","","",""
"pit-trial","100","836703","0.0-2.0-17.3-4.3","battery-v0.2","","""event"",""trial"",""time""
""fullscreenenter"",""1"",""3913""
","
","
","""event"",""trial"",""time""
""fullscreenenter"",""1"",""3913""
","
","","","705.9000000953674","","","13","3706","2124","&#9789;","elianto","#f73b6a7A"," "," ","1","0","[1556.4000000953674]","1","0","4","","","","","","","",""
"call-function","101","836704","0.0-2.0-18.0","battery-v0.2","","""event"",""trial"",""time""
""fullscreenenter"",""1"",""3913""
","
","
","""event"",""trial"",""time""
""fullscreenenter"",""1"",""3913""
","
","","","","","","","","","","","","","","","","","","","","","","","","","","",""
"pit-instructions","102","913519","0.0-2.0-19.0","battery-v0.2","","""event"",""trial"",""time""
""fullscreenenter"",""1"",""3913""
","
","
","""event"",""trial"",""time""
""fullscreenenter"",""1"",""3913""
","
","","[{""page_index"":0,""viewing_time"":7610.5},{""page_index"":1,""viewing_time"":6676.299999952316},{""page_index"":2,""viewing_time"":10747.100000023842},{""page_index"":3,""viewing_time"":8922.600000023842},{""page_index"":4,""viewing_time"":8662.600000023842},{""page_index"":5,""viewing_time"":8249.899999976158},{""page_index"":6,""viewing_time"":11875.299999952316},{""page_index"":7,""viewing_time"":7833.899999976158},{""page_index"":8,""viewing_time"":6233.800000071526}]","76812.69999992847","","","","","","","","","","","","","","","","","","","","","","","",""
"pit-comprehension","103","920618","0.0-2.0-20.0-0.0","battery-v0.2","","""event"",""trial"",""time""
""fullscreenenter"",""1"",""3913""
","
","
","""event"",""trial"",""time""
""fullscreenenter"",""1"",""3913""
","
","","","7095.399999976158","[""SPACE""]","0","13","3706","2124","","","","","","","","","","","","","","","","","","",""
"pit-instructions","104","924494","0.0-2.0-20.0-1.0","battery-v0.2","","""event"",""trial"",""time""
""fullscreenenter"",""1"",""3913""
","
","
","""event"",""trial"",""time""
""fullscreenenter"",""1"",""3913""
","
","","[{""page_index"":0,""viewing_time"":3822.9000000953674}]","3823.3000000715256","","","","","","","","","","","","","","","","","","","","","","","",""
"pit-comprehension","105","934368","0.0-2.0-21.0-0.0","battery-v0.2","","""event"",""trial"",""time""
""fullscreenenter"",""1"",""3913""
","
","
","""event"",""trial"",""time""
""fullscreenenter"",""1"",""3913""
","
","","","9870.200000047684","[""10""]","0","13","3706","2124","","","","","","","","","","","","","","","","","","",""
"pit-instructions","106","936359","0.0-2.0-21.0-1.0","battery-v0.2","","""event"",""trial"",""time""
""fullscreenenter"",""1"",""3913""
","
","
","""event"",""trial"",""time""
""fullscreenenter"",""1"",""3913""
","
","","[{""page_index"":0,""viewing_time"":1952.5}]","1952.8000000715256","","","","","","","","","","","","","","","","","","","","","","","",""
"pit-comprehension","107","945531","0.0-2.0-22.0-0.0","battery-v0.2","","""event"",""trial"",""time""
""fullscreenenter"",""1"",""3913""
","
","
","""event"",""trial"",""time""
""fullscreenenter"",""1"",""3913""
","
","","","9168.699999928474","[""0""]","0","13","3706","2124","","","","","","","","","","","","","","","","","","",""
"pit-instructions","108","947942","0.0-2.0-22.0-1.0","battery-v0.2","","""event"",""trial"",""time""
""fullscreenenter"",""1"",""3913""
","
","
","""event"",""trial"",""time""
""fullscreenenter"",""1"",""3913""
","
","","[{""page_index"":0,""viewing_time"":2375.5}]","2376.1999999284744","","","","","","","","","","","","","","","","","","","","","","","",""
"pit-comprehension","109","959815","0.0-2.0-23.0-0.0","battery-v0.2","","""event"",""trial"",""time""
""fullscreenenter"",""1"",""3913""
","
","
","""event"",""trial"",""time""
""fullscreenenter"",""1"",""3913""
","
","","","11868.899999976158","[""True""]","0","13","3706","2124","","","","","","","","","","","","","","","","","","",""
"pit-instructions","110","961848","0.0-2.0-23.0-1.0","battery-v0.2","","""event"",""trial"",""time""
""fullscreenenter"",""1"",""3913""
","
","
","""event"",""trial"",""time""
""fullscreenenter"",""1"",""3913""
","
","","[{""page_index"":0,""viewing_time"":1991}]","1991.3999999761581","","","","","","","","","","","","","","","","","","","","","","","",""
"pit-comprehension","111","970960","0.0-2.0-24.0-0.0","battery-v0.2","","""event"",""trial"",""time""
""fullscreenenter"",""1"",""3913""
","
","
","""event"",""trial"",""time""
""fullscreenenter"",""1"",""3913""
","
","","","9109.5","[""True""]","0","13","3706","2124","","","","","","","","","","","","","","","","","","",""
"pit-instructions","112","972954","0.0-2.0-24.0-1.0","battery-v0.2","","""event"",""trial"",""time""
""fullscreenenter"",""1"",""3913""
","
","
","""event"",""trial"",""time""
""fullscreenenter"",""1"",""3913""
","
","","[{""page_index"":0,""viewing_time"":1943.5999999046326}]","1944.0999999046326","","","","","","","","","","","","","","","","","","","","","","","",""
"pit-comprehension","113","981905","0.0-2.0-25.0-0.0","battery-v0.2","","""event"",""trial"",""time""
""fullscreenenter"",""1"",""3913""
","
","
","""event"",""trial"",""time""
""fullscreenenter"",""1"",""3913""
","
","","","8950.799999952316","[""True""]","0","13","3706","2124","","","","","","","","","","","","","","","","","","",""
"pit-instructions","114","984407","0.0-2.0-25.0-1.0","battery-v0.2","","""event"",""trial"",""time""
""fullscreenenter"",""1"",""3913""
","
","
","""event"",""trial"",""time""
""fullscreenenter"",""1"",""3913""
","
","","[{""page_index"":0,""viewing_time"":2456.5}]","2456.7999999523163","","","","","","","","","","","","","","","","","","","","","","","",""
"pit-comprehension","115","991003","0.0-2.0-26.0-0.0","battery-v0.2","","""event"",""trial"",""time""
""fullscreenenter"",""1"",""3913""
","
","
","""event"",""trial"",""time""
""fullscreenenter"",""1"",""3913""
","
","","","6591.400000095367","[""False""]","0","13","3706","2124","","","","","","","","","","","","","","","","","","",""
"pit-instructions","116","994819","0.0-2.0-26.0-1.0","battery-v0.2","","""event"",""trial"",""time""
""fullscreenenter"",""1"",""3913""
","
","
","""event"",""trial"",""time""
""fullscreenenter"",""1"",""3913""
","
","","[{""page_index"":0,""viewing_time"":3771.5}]","3771.8000000715256","","","","","","","","","","","","","","","","","","","","","","","",""
"pit-instructions","117","1012862","0.0-3.0","battery-v0.2","","""event"",""trial"",""time""
""fullscreenenter"",""1"",""3913""
","
","
","""event"",""trial"",""time""
""fullscreenenter"",""1"",""3913""
","
","","[{""page_index"":0,""viewing_time"":4792.399999976158},{""page_index"":1,""viewing_time"":5118.699999928474},{""page_index"":2,""viewing_time"":8129}]","18040.399999976158","","","","","","","","","","","","","","","","","","","","","","","",""
"pit-trial","118","1016756","0.0-4.0","battery-v0.2","","""event"",""trial"",""time""
""fullscreenenter"",""1"",""3913""
","
","
","""event"",""trial"",""time""
""fullscreenenter"",""1"",""3913""
","
","","","1027","","","13","3706","2124","&#9728;","elianto","#f73b6a7A","-1"," ","0","-10","[1879.2000000476837]","1","1","","","3706","1","0","4","lose","no-go","0"
"pit-trial","119","1021631","0.0-5.0","battery-v0.2","","""event"",""trial"",""time""
""fullscreenenter"",""1"",""3913""
","
","
","""event"",""trial"",""time""
""fullscreenenter"",""1"",""3913""
","
","","","-1","","","13","3706","2124","&#9752;","elianto","#f73b6a7A"," ","-1","0","-10","[]","0","1","","","3706","2","3","3","lose","go","0"
"pit-trial","120","1026513","0.0-6.0","battery-v0.2","","""event"",""trial"",""time""
""fullscreenenter"",""1"",""3913""
","
","
","""event"",""trial"",""time""
""fullscreenenter"",""1"",""3913""
","
","","","-1","","","13","3706","2124","&#9730;","elianto","#3366ff99"," ","-1","0","0","[]","0","1","","","3706","3","1","1","win","go","0"
"pit-trial","121","1030558","0.0-7.0","battery-v0.2","","""event"",""trial"",""time""
""fullscreenenter"",""1"",""3913""
","
","
","""event"",""trial"",""time""
""fullscreenenter"",""1"",""3913""
","
","","","1188.7999999523163","","","13","3706","2124","&#9733;","elianto","#3366ff99","-1"," ","0","0","[2041.1000000238419]","1","1","","","3706","4","2","2","win","no-go","0"
"pit-trial","122","1035436","0.0-8.0","battery-v0.2","","""event"",""trial"",""time""
""fullscreenenter"",""1"",""3913""
","
","
","""event"",""trial"",""time""
""fullscreenenter"",""1"",""3913""
","
","","","-1","","","13","3706","2124","&#9730;","elianto","#3366ff99"," ","-1","0","0","[]","0","1","","","3706","5","1","1","win","go","0"
"pit-trial","123","1039238","0.0-9.0","battery-v0.2","","""event"",""trial"",""time""
""fullscreenenter"",""1"",""3913""
","
","
","""event"",""trial"",""time""
""fullscreenenter"",""1"",""3913""
","
","","","935.1000000238419","","","13","3706","2124","&#9733;","elianto","#3366ff99","-1"," ","0","0","[1793.1000000238419]","1","1","","","3706","6","2","2","win","no-go","0"
"pit-trial","124","1043012","0.0-10.0","battery-v0.2","","""event"",""trial"",""time""
""fullscreenenter"",""1"",""3913""
","
","
","""event"",""trial"",""time""
""fullscreenenter"",""1"",""3913""
","
","","","903.4000000953674","","","13","3706","2124","&#9752;","elianto","#f73b6a7A"," "," ","1","0","[1761.2000000476837]","1","1","","","3706","7","3","3","lose","go","0"
"pit-trial","125","1047879","0.0-11.0","battery-v0.2","","""event"",""trial"",""time""
""fullscreenenter"",""1"",""3913""
","
","
","""event"",""trial"",""time""
""fullscreenenter"",""1"",""3913""
","
","","","-1","","","13","3706","2124","&#9728;","elianto","#f73b6a7A","-1","-1","1","0","[]","0","1","","","3706","8","0","4","lose","no-go","0"
"pit-trial","126","1051838","0.0-12.0","battery-v0.2","","""event"",""trial"",""time""
""fullscreenenter"",""1"",""3913""
","
","
","""event"",""trial"",""time""
""fullscreenenter"",""1"",""3913""
","
","","","1102.9000000953674","","","13","3706","2124","&#9730;","elianto","#3366ff99"," "," ","1","+10","[1954.9000000953674]","1","1","","","3706","9","1","1","win","go","0"
"pit-trial","127","1056705","0.0-13.0","battery-v0.2","","""event"",""trial"",""time""
""fullscreenenter"",""1"",""3913""
","
","
","""event"",""trial"",""time""
""fullscreenenter"",""1"",""3913""
","
","","","-1","","","13","3706","2124","&#9752;","elianto","#f73b6a7A"," ","-1","0","-10","[]","0","1","","","3706","10","3","3","lose","go","0"
"pit-trial","128","1060440","0.0-14.0","battery-v0.2","","""event"",""trial"",""time""
""fullscreenenter"",""1"",""3913""
","
","
","""event"",""trial"",""time""
""fullscreenenter"",""1"",""3913""
","
","","","859.8999999761581","","","13","3706","2124","&#9728;","elianto","#f73b6a7A","-1"," ","0","0","[1716.5]","1","1","","","3706","11","0","4","lose","no-go","1"
"pit-trial","129","1065303","0.0-15.0","battery-v0.2","","""event"",""trial"",""time""
""fullscreenenter"",""1"",""3913""
","
","
","""event"",""trial"",""time""
""fullscreenenter"",""1"",""3913""
","
","","","-1","","","13","3706","2124","&#9733;","elianto","#3366ff99","-1","-1","1","+10","[]","0","1","","","3706","12","2","2","win","no-go","0"
"pit-trial","130","1070168","0.0-16.0","battery-v0.2","","""event"",""trial"",""time""
""fullscreenenter"",""1"",""3913""
","
","
","""event"",""trial"",""time""
""fullscreenenter"",""1"",""3913""
","
","","","-1","","","13","3706","2124","&#9733;","elianto","#3366ff99","-1","-1","1","+10","[]","0","1","","","3706","13","2","2","win","no-go","0"
"pit-trial","131","1074088","0.0-17.0","battery-v0.2","","""event"",""trial"",""time""
""fullscreenenter"",""1"",""3913""
","
","
","""event"",""trial"",""time""
""fullscreenenter"",""1"",""3913""
","
","","","1055.7000000476837","","","13","3706","2124","&#9752;","elianto","#f73b6a7A"," "," ","1","0","[1910.6000000238419]","1","1","","","3706","14","3","3","lose","go","0"
"pit-trial","132","1077999","0.0-18.0","battery-v0.2","","""event"",""trial"",""time""
""fullscreenenter"",""1"",""3913""
","
","
","""event"",""trial"",""time""
""fullscreenenter"",""1"",""3913""
","
","","","1054.5","","","13","3706","2124","&#9728;","elianto","#f73b6a7A","-1"," ","0","0","[1907.5]","1","1","","","3706","15","0","4","lose","no-go","1"
"pit-trial","133","1081704","0.0-19.0","battery-v0.2","","""event"",""trial"",""time""
""fullscreenenter"",""1"",""3913""
","
","
","""event"",""trial"",""time""
""fullscreenenter"",""1"",""3913""
","
","","","836.0999999046326","","","13","3706","2124","&#9730;","elianto","#3366ff99"," "," ","1","+10","[1692.5999999046326]","1","1","","","3706","16","1","1","win","go","0"
"pit-trial","134","1085297","0.0-20.0","battery-v0.2","","""event"",""trial"",""time""
""fullscreenenter"",""1"",""3913""
","
","
","""event"",""trial"",""time""
""fullscreenenter"",""1"",""3913""
","
","","","730.6000000238419","","","13","3706","2124","&#9752;","elianto","#f73b6a7A"," "," ","1","0","[1586]","1","1","","","3706","17","3","3","lose","go","0"
"pit-trial","135","1090159","0.0-21.0","battery-v0.2","","""event"",""trial"",""time""
""fullscreenenter"",""1"",""3913""
","
","
","""event"",""trial"",""time""
""fullscreenenter"",""1"",""3913""
","
","","","-1","","","13","3706","2124","&#9733;","elianto","#3366ff99","-1","-1","1","0","[]","0","1","","","3706","18","2","2","win","no-go","1"
"pit-trial","136","1093841","0.0-22.0","battery-v0.2","","""event"",""trial"",""time""
""fullscreenenter"",""1"",""3913""
","
","
","""event"",""trial"",""time""
""fullscreenenter"",""1"",""3913""
","
","","","818.7000000476837","","","13","3706","2124","&#9730;","elianto","#3366ff99"," "," ","1","+10","[1671.7000000476837]","1","1","","","3706","19","1","1","win","go","0"
"pit-trial","137","1097522","0.0-23.0","battery-v0.2","","""event"",""trial"",""time""
""fullscreenenter"",""1"",""3913""
","
","
","""event"",""trial"",""time""
""fullscreenenter"",""1"",""3913""
","
","","","816.3999999761581","","","13","3706","2124","&#9728;","elianto","#f73b6a7A","-1"," ","0","-10","[1670.2000000476837]","1","1","","","3706","20","0","4","lose","no-go","0"
"pit-instructions","138","1112702","0.0-24.0","battery-v0.2","","""event"",""trial"",""time""
""fullscreenenter"",""1"",""3913""
","
","
","""event"",""trial"",""time""
""fullscreenenter"",""1"",""3913""
","
","","[{""page_index"":0,""viewing_time"":7518.300000071526},{""page_index"":1,""viewing_time"":7659.199999928474}]","15178","","","","","","","","","","","","","","","","","","","","","","","",""
"pit-trial","139","1117584","0.0-25.0","battery-v0.2","","""event"",""trial"",""time""
""fullscreenenter"",""1"",""3913""
","
","
","""event"",""trial"",""time""
""fullscreenenter"",""1"",""3913""
","
","","","-1","","","13","3706","2124","d","elianto","#3366ff99"," ","-1","0","0","[]","0","2","","","3706","21","1","1","win","go","0"
"pit-trial","140","1121118","0.0-26.0","battery-v0.2","","""event"",""trial"",""time""
""fullscreenenter"",""1"",""3913""
","
","
","""event"",""trial"",""time""
""fullscreenenter"",""1"",""3913""
","
","","","656.2000000476837","","","13","3706","2124","w","elianto","#f73b6a7A"," "," ","1","0","[1509.6000000238419]","1","2","","","3706","22","3","3","lose","go","0"
"pit-trial","141","1125998","0.0-27.0","battery-v0.2","","""event"",""trial"",""time""
""fullscreenenter"",""1"",""3913""
","
","
","""event"",""trial"",""time""
""fullscreenenter"",""1"",""3913""
","
","","","-1","","","13","3706","2124","j","elianto","#f73b6a7A","-1","-1","1","0","[]","0","2","","","3706","23","0","4","lose","no-go","0"
"pit-trial","142","1130025","0.0-28.0","battery-v0.2","","""event"",""trial"",""time""
""fullscreenenter"",""1"",""3913""
","
","
","""event"",""trial"",""time""
""fullscreenenter"",""1"",""3913""
","
","","","1163.1000000238419","","","13","3706","2124","e","elianto","#f73b6a7A","-1"," ","0","-10","[2017.6999999284744]","1","2","","","3706","24","2","4","lose","no-go","0"
"pit-trial","143","1134907","0.0-29.0","battery-v0.2","","""event"",""trial"",""time""
""fullscreenenter"",""1"",""3913""
","
","
","""event"",""trial"",""time""
""fullscreenenter"",""1"",""3913""
","
","","","-1","","","13","3706","2124","d","elianto","#3366ff99"," ","-1","0","+10","[]","0","2","","","3706","25","1","1","win","go","1"
"pit-trial","144","1139782","0.0-30.0","battery-v0.2","","""event"",""trial"",""time""
""fullscreenenter"",""1"",""3913""
","
","
","""event"",""trial"",""time""
""fullscreenenter"",""1"",""3913""
","
","","","-1","","","13","3706","2124","j","elianto","#f73b6a7A","-1","-1","1","0","[]","0","2","","","3706","26","0","4","lose","no-go","0"
"pit-trial","145","1144647","0.0-31.0","battery-v0.2","","""event"",""trial"",""time""
""fullscreenenter"",""1"",""3913""
","
","
","""event"",""trial"",""time""
""fullscreenenter"",""1"",""3913""
","
","","","-1","","","13","3706","2124","w","elianto","#f73b6a7A"," ","-1","0","-10","[]","0","2","","","3706","27","3","3","lose","go","0"
"pit-trial","146","1148448","0.0-32.0","battery-v0.2","","""event"",""trial"",""time""
""fullscreenenter"",""1"",""3913""
","
","
","""event"",""trial"",""time""
""fullscreenenter"",""1"",""3913""
","
","","","941.1000000238419","","","13","3706","2124","e","elianto","#f73b6a7A","-1"," ","0","-10","[1791.3999999761581]","1","2","","","3706","28","2","4","lose","no-go","0"
"pit-trial","147","1153312","0.0-33.0","battery-v0.2","","""event"",""trial"",""time""
""fullscreenenter"",""1"",""3913""
","
","
","""event"",""trial"",""time""
""fullscreenenter"",""1"",""3913""
","
","","","-1","","","13","3706","2124","e","elianto","#f73b6a7A","-1","-1","1","0","[]","0","2","","","3706","29","2","4","lose","no-go","0"
"pit-trial","148","1156845","0.0-34.0","battery-v0.2","","""event"",""trial"",""time""
""fullscreenenter"",""1"",""3913""
","
","
","""event"",""trial"",""time""
""fullscreenenter"",""1"",""3913""
","
","","","674.7999999523163","","","13","3706","2124","w","elianto","#f73b6a7A"," "," ","1","0","[1525.5]","1","2","","","3706","30","3","3","lose","go","0"
"pit-trial","149","1161710","0.0-35.0","battery-v0.2","","""event"",""trial"",""time""
""fullscreenenter"",""1"",""3913""
","
","
","""event"",""trial"",""time""
""fullscreenenter"",""1"",""3913""
","
","","","-1","","","13","3706","2124","d","elianto","#3366ff99"," ","-1","0","0","[]","0","2","","","3706","31","1","1","win","go","0"
"pit-trial","150","1166574","0.0-36.0","battery-v0.2","","""event"",""trial"",""time""
""fullscreenenter"",""1"",""3913""
","
","
","""event"",""trial"",""time""
""fullscreenenter"",""1"",""3913""
","
","","","-1","","","13","3706","2124","j","elianto","#f73b6a7A","-1","-1","1","-10","[]","0","2","","","3706","32","0","4","lose","no-go","1"
"pit-trial","151","1170295","0.0-37.0","battery-v0.2","","""event"",""trial"",""time""
""fullscreenenter"",""1"",""3913""
","
","
","""event"",""trial"",""time""
""fullscreenenter"",""1"",""3913""
","
","","","861.8999999761581","","","13","3706","2124","d","elianto","#3366ff99"," "," ","1","+10","[1712.1000000238419]","1","2","","","3706","33","1","1","win","go","0"
"pit-trial","152","1173936","0.0-38.0","battery-v0.2","","""event"",""trial"",""time""
""fullscreenenter"",""1"",""3913""
","
","
","""event"",""trial"",""time""
""fullscreenenter"",""1"",""3913""
","
","","","776.7999999523163","","","13","3706","2124","j","elianto","#f73b6a7A","-1"," ","0","-10","[1631.2999999523163]","1","2","","","3706","34","0","4","lose","no-go","0"
"pit-trial","153","1177822","0.0-39.0","battery-v0.2","","""event"",""trial"",""time""
""fullscreenenter"",""1"",""3913""
","
","
","""event"",""trial"",""time""
""fullscreenenter"",""1"",""3913""
","
","","","1021.6000000238419","","","13","3706","2124","w","elianto","#f73b6a7A"," "," ","1","0","[1874.5]","1","2","","","3706","35","3","3","lose","go","0"
"pit-trial","154","1182699","0.0-40.0","battery-v0.2","","""event"",""trial"",""time""
""fullscreenenter"",""1"",""3913""
","
","
","""event"",""trial"",""time""
""fullscreenenter"",""1"",""3913""
","
","","","-1","","","13","3706","2124","e","elianto","#f73b6a7A","-1","-1","1","0","[]","0","2","","","3706","36","2","4","lose","no-go","0"
"pit-trial","155","1186527","0.0-41.0","battery-v0.2","","""event"",""trial"",""time""
""fullscreenenter"",""1"",""3913""
","
","
","""event"",""trial"",""time""
""fullscreenenter"",""1"",""3913""
","
","","","959.4000000953674","","","13","3706","2124","j","elianto","#f73b6a7A","-1"," ","0","-10","[1817.3000000715256]","1","2","","","3706","37","0","4","lose","no-go","0"
"pit-trial","156","1190584","0.0-42.0","battery-v0.2","","""event"",""trial"",""time""
""fullscreenenter"",""1"",""3913""
","
","
","""event"",""trial"",""time""
""fullscreenenter"",""1"",""3913""
","
","","","1192.7000000476837","","","13","3706","2124","w","elianto","#f73b6a7A"," "," ","1","0","[2046.8000000715256]","1","2","","","3706","38","3","3","lose","go","0"
"pit-trial","157","1194376","0.0-43.0","battery-v0.2","","""event"",""trial"",""time""
""fullscreenenter"",""1"",""3913""
","
","
","""event"",""trial"",""time""
""fullscreenenter"",""1"",""3913""
","
","","","933.6999999284744","","","13","3706","2124","d","elianto","#3366ff99"," "," ","1","+10","[1785.1999999284744]","1","2","","","3706","39","1","1","win","go","0"
"pit-trial","158","1199241","0.0-44.0","battery-v0.2","","""event"",""trial"",""time""
""fullscreenenter"",""1"",""3913""
","
","
","""event"",""trial"",""time""
""fullscreenenter"",""1"",""3913""
","
","","","-1","","","13","3706","2124","e","elianto","#f73b6a7A","-1","-1","1","-10","[]","0","2","","","3706","40","2","4","lose","no-go","1"
"pit-trial","159","1203096","0.0-45.0","battery-v0.2","","""event"",""trial"",""time""
""fullscreenenter"",""1"",""3913""
","
","
","""event"",""trial"",""time""
""fullscreenenter"",""1"",""3913""
","
","","","992.2000000476837","","","13","3706","2124","w","elianto","#f73b6a7A"," "," ","1","-10","[1842.8999999761581]","1","2","","","3706","41","3","3","lose","go","1"
"pit-trial","160","1207957","0.0-46.0","battery-v0.2","","""event"",""trial"",""time""
""fullscreenenter"",""1"",""3913""
","
","
","""event"",""trial"",""time""
""fullscreenenter"",""1"",""3913""
","
","","","-1","","","13","3706","2124","e","elianto","#f73b6a7A","-1","-1","1","0","[]","0","2","","","3706","42","2","4","lose","no-go","0"
"pit-trial","161","1211709","0.0-47.0","battery-v0.2","","""event"",""trial"",""time""
""fullscreenenter"",""1"",""3913""
","
","
","""event"",""trial"",""time""
""fullscreenenter"",""1"",""3913""
","
","","","891.3000000715256","","","13","3706","2124","j","elianto","#f73b6a7A","-1"," ","0","0","[1741.8999999761581]","1","2","","","3706","43","0","4","lose","no-go","1"
"pit-trial","162","1215737","0.0-48.0","battery-v0.2","","""event"",""trial"",""time""
""fullscreenenter"",""1"",""3913""
","
","
","""event"",""trial"",""time""
""fullscreenenter"",""1"",""3913""
","
","","","1153.1999999284744","","","13","3706","2124","d","elianto","#3366ff99"," "," ","1","+10","[2009]","1","2","","","3706","44","1","1","win","go","0"
"pit-trial","163","1219440","0.0-49.0","battery-v0.2","","""event"",""trial"",""time""
""fullscreenenter"",""1"",""3913""
","
","
","""event"",""trial"",""time""
""fullscreenenter"",""1"",""3913""
","
","","","842.3000000715256","","","13","3706","2124","w","elianto","#f73b6a7A"," "," ","1","0","[1699.5]","1","2","","","3706","45","3","3","lose","go","0"
"pit-trial","164","1223110","0.0-50.0","battery-v0.2","","""event"",""trial"",""time""
""fullscreenenter"",""1"",""3913""
","
","
","""event"",""trial"",""time""
""fullscreenenter"",""1"",""3913""
","
","","","795.3999999761581","","","13","3706","2124","j","elianto","#f73b6a7A","-1"," ","0","0","[1647.5]","1","2","","","3706","46","0","4","lose","no-go","1"
"pit-trial","165","1227980","0.0-51.0","battery-v0.2","","""event"",""trial"",""time""
""fullscreenenter"",""1"",""3913""
","
","
","""event"",""trial"",""time""
""fullscreenenter"",""1"",""3913""
","
","","","-1","","","13","3706","2124","e","elianto","#f73b6a7A","-1","-1","1","-10","[]","0","2","","","3706","47","2","4","lose","no-go","1"
"pit-trial","166","1231583","0.0-52.0","battery-v0.2","","""event"",""trial"",""time""
""fullscreenenter"",""1"",""3913""
","
","
","""event"",""trial"",""time""
""fullscreenenter"",""1"",""3913""
","
","","","731.1000000238419","","","13","3706","2124","s","elianto","#3366ff99","-1"," ","0","0","[1592.8000000715256]","1","2","","","3706","48","4","2","win","no-go","0"
"pit-trial","167","1235481","0.0-53.0","battery-v0.2","","""event"",""trial"",""time""
""fullscreenenter"",""1"",""3913""
","
","
","""event"",""trial"",""time""
""fullscreenenter"",""1"",""3913""
","
","","","1033.1999999284744","","","13","3706","2124","s","elianto","#3366ff99","-1"," ","0","0","[1890.5]","1","2","","","3706","49","4","2","win","no-go","0"
"pit-trial","168","1239705","0.0-54.0","battery-v0.2","","""event"",""trial"",""time""
""fullscreenenter"",""1"",""3913""
","
","
","""event"",""trial"",""time""
""fullscreenenter"",""1"",""3913""
","
","","","1356.1999999284744","","","13","3706","2124","d","elianto","#3366ff99"," "," ","1","+10","[2212.2999999523163]","1","2","","","3706","50","1","1","win","go","0"
"pit-trial","169","1244568","0.0-55.0","battery-v0.2","","""event"",""trial"",""time""
""fullscreenenter"",""1"",""3913""
","
","
","""event"",""trial"",""time""
""fullscreenenter"",""1"",""3913""
","
","","","-1","","","13","3706","2124","j","elianto","#f73b6a7A","-1","-1","1","0","[]","0","2","","","3706","51","0","4","lose","no-go","0"
"pit-trial","170","1248243","0.0-56.0","battery-v0.2","","""event"",""trial"",""time""
""fullscreenenter"",""1"",""3913""
","
","
","""event"",""trial"",""time""
""fullscreenenter"",""1"",""3913""
","
","","","802.6000000238419","","","13","3706","2124","w","elianto","#f73b6a7A"," "," ","1","0","[1657.9000000953674]","1","2","","","3706","52","3","3","lose","go","0"
"pit-trial","171","1252131","0.0-57.0","battery-v0.2","","""event"",""trial"",""time""
""fullscreenenter"",""1"",""3913""
","
","
","""event"",""trial"",""time""
""fullscreenenter"",""1"",""3913""
","
","","","1023.6000000238419","","","13","3706","2124","s","elianto","#3366ff99","-1"," ","0","0","[1874.2999999523163]","1","2","","","3706","53","4","2","win","no-go","0"
"pit-trial","172","1256992","0.0-58.0","battery-v0.2","","""event"",""trial"",""time""
""fullscreenenter"",""1"",""3913""
","
","
","""event"",""trial"",""time""
""fullscreenenter"",""1"",""3913""
","
","","","-1","","","13","3706","2124","j","elianto","#f73b6a7A","-1","-1","1","0","[]","0","2","","","3706","54","0","4","lose","no-go","0"
"pit-trial","173","1260776","0.0-59.0","battery-v0.2","","""event"",""trial"",""time""
""fullscreenenter"",""1"",""3913""
","
","
","""event"",""trial"",""time""
""fullscreenenter"",""1"",""3913""
","
","","","928","","","13","3706","2124","d","elianto","#3366ff99"," "," ","1","+10","[1778.1000000238419]","1","2","","","3706","55","1","1","win","go","0"
"pit-trial","174","1265642","0.0-60.0","battery-v0.2","","""event"",""trial"",""time""
""fullscreenenter"",""1"",""3913""
","
","
","""event"",""trial"",""time""
""fullscreenenter"",""1"",""3913""
","
","","","-1","","","13","3706","2124","e","elianto","#f73b6a7A","-1","-1","1","0","[]","0","2","","","3706","56","2","4","lose","no-go","0"
"pit-trial","175","1269289","0.0-61.0","battery-v0.2","","""event"",""trial"",""time""
""fullscreenenter"",""1"",""3913""
","
","
","""event"",""trial"",""time""
""fullscreenenter"",""1"",""3913""
","
","","","788.3999999761581","","","13","3706","2124","s","elianto","#3366ff99","-1"," ","0","0","[1639]","1","2","","","3706","57","4","2","win","no-go","0"
"pit-trial","176","1273447","0.0-62.0","battery-v0.2","","""event"",""trial"",""time""
""fullscreenenter"",""1"",""3913""
","
","
","""event"",""trial"",""time""
""fullscreenenter"",""1"",""3913""
","
","","","1298.3999999761581","","","13","3706","2124","w","elianto","#f73b6a7A"," "," ","1","0","[2150.5]","1","2","","","3706","58","3","3","lose","go","0"
"pit-trial","177","1278015","0.0-63.0","battery-v0.2","","""event"",""trial"",""time""
""fullscreenenter"",""1"",""3913""
","
","
","""event"",""trial"",""time""
""fullscreenenter"",""1"",""3913""
","
","","","1707.2999999523163","","","13","3706","2124","d","elianto","#3366ff99"," "," ","1","+10","[2563.7000000476837]","1","2","","","3706","59","1","1","win","go","0"
"pit-trial","178","1282128","0.0-64.0","battery-v0.2","","""event"",""trial"",""time""
""fullscreenenter"",""1"",""3913""
","
","
","""event"",""trial"",""time""
""fullscreenenter"",""1"",""3913""
","
","","","1245.3999999761581","","","13","3706","2124","j","elianto","#f73b6a7A","-1"," ","0","-10","[2101.8000000715256]","1","2","","","3706","60","0","4","lose","no-go","0"
"pit-trial","179","1286995","0.0-65.0","battery-v0.2","","""event"",""trial"",""time""
""fullscreenenter"",""1"",""3913""
","
","
","""event"",""trial"",""time""
""fullscreenenter"",""1"",""3913""
","
","","","-1","","","13","3706","2124","e","elianto","#f73b6a7A","-1","-1","1","0","[]","0","2","","","3706","61","2","4","lose","no-go","0"
"pit-trial","180","1291875","0.0-66.0","battery-v0.2","","""event"",""trial"",""time""
""fullscreenenter"",""1"",""3913""
","
","
","""event"",""trial"",""time""
""fullscreenenter"",""1"",""3913""
","
","","","-1","","","13","3706","2124","s","elianto","#3366ff99","-1","-1","1","+10","[]","0","2","","","3706","62","4","2","win","no-go","0"
"pit-trial","181","1295770","0.0-67.0","battery-v0.2","","""event"",""trial"",""time""
""fullscreenenter"",""1"",""3913""
","
","
","""event"",""trial"",""time""
""fullscreenenter"",""1"",""3913""
","
","","","1025.8999999761581","","","13","3706","2124","w","elianto","#f73b6a7A"," "," ","1","0","[1883.6000000238419]","1","2","","","3706","63","3","3","lose","go","0"
"pit-trial","182","1299998","0.0-68.0","battery-v0.2","","""event"",""trial"",""time""
""fullscreenenter"",""1"",""3913""
","
","
","""event"",""trial"",""time""
""fullscreenenter"",""1"",""3913""
","
","","","1362.1999999284744","","","13","3706","2124","d","elianto","#3366ff99"," "," ","1","+10","[2214]","1","2","","","3706","64","1","1","win","go","0"
"pit-trial","183","1304863","0.0-69.0","battery-v0.2","","""event"",""trial"",""time""
""fullscreenenter"",""1"",""3913""
","
","
","""event"",""trial"",""time""
""fullscreenenter"",""1"",""3913""
","
","","","-1","","","13","3706","2124","d","elianto","#3366ff99"," ","-1","0","0","[]","0","2","","","3706","65","1","1","win","go","0"
"pit-trial","184","1309728","0.0-70.0","battery-v0.2","","""event"",""trial"",""time""
""fullscreenenter"",""1"",""3913""
","
","
","""event"",""trial"",""time""
""fullscreenenter"",""1"",""3913""
","
","","","-1","","","13","3706","2124","e","elianto","#f73b6a7A","-1","-1","1","0","[]","0","2","","","3706","66","2","4","lose","no-go","0"
"pit-trial","185","1313762","0.0-71.0","battery-v0.2","","""event"",""trial"",""time""
""fullscreenenter"",""1"",""3913""
","
","
","""event"",""trial"",""time""
""fullscreenenter"",""1"",""3913""
","
","","","1172.1000000238419","","","13","3706","2124","w","elianto","#f73b6a7A"," "," ","1","0","[2026.2000000476837]","1","2","","","3706","67","3","3","lose","go","0"
"pit-trial","186","1317727","0.0-72.0","battery-v0.2","","""event"",""trial"",""time""
""fullscreenenter"",""1"",""3913""
","
","
","""event"",""trial"",""time""
""fullscreenenter"",""1"",""3913""
","
","","","1097.2999999523163","","","13","3706","2124","s","elianto","#3366ff99","-1"," ","0","+10","[1948]","1","2","","","3706","68","4","2","win","no-go","1"
"pit-trial","187","1321346","0.0-73.0","battery-v0.2","","""event"",""trial"",""time""
""fullscreenenter"",""1"",""3913""
","
","
","""event"",""trial"",""time""
""fullscreenenter"",""1"",""3913""
","
","","","755.4000000953674","","","13","3706","2124","w","elianto","#f73b6a7A"," "," ","1","0","[1612]","1","2","","","3706","69","3","3","lose","go","0"
"pit-trial","188","1326220","0.0-74.0","battery-v0.2","","""event"",""trial"",""time""
""fullscreenenter"",""1"",""3913""
","
","
","""event"",""trial"",""time""
""fullscreenenter"",""1"",""3913""
","
","","","-1","","","13","3706","2124","p","elianto","#3366ff99"," ","-1","0","0","[]","0","2","","","3706","70","5","1","win","go","0"
"pit-trial","189","1329922","0.0-75.0","battery-v0.2","","""event"",""trial"",""time""
""fullscreenenter"",""1"",""3913""
","
","
","""event"",""trial"",""time""
""fullscreenenter"",""1"",""3913""
","
","","","844.5","","","13","3706","2124","s","elianto","#3366ff99","-1"," ","0","0","[1694.8000000715256]","1","2","","","3706","71","4","2","win","no-go","0"
"pit-trial","190","1333906","0.0-76.0","battery-v0.2","","""event"",""trial"",""time""
""fullscreenenter"",""1"",""3913""
","
","
","""event"",""trial"",""time""
""fullscreenenter"",""1"",""3913""
","
","","","1126.8999999761581","","","13","3706","2124","d","elianto","#3366ff99"," "," ","1","+10","[1977.1999999284744]","1","2","","","3706","72","1","1","win","go","0"
"pit-trial","191","1337833","0.0-77.0","battery-v0.2","","""event"",""trial"",""time""
""fullscreenenter"",""1"",""3913""
","
","
","""event"",""trial"",""time""
""fullscreenenter"",""1"",""3913""
","
","","","1054.8000000715256","","","13","3706","2124","w","elianto","#f73b6a7A"," "," ","1","0","[1916.5]","1","2","","","3706","73","3","3","lose","go","0"
"pit-trial","192","1342708","0.0-78.0","battery-v0.2","","""event"",""trial"",""time""
""fullscreenenter"",""1"",""3913""
","
","
","""event"",""trial"",""time""
""fullscreenenter"",""1"",""3913""
","
","","","-1","","","13","3706","2124","s","elianto","#3366ff99","-1","-1","1","+10","[]","0","2","","","3706","74","4","2","win","no-go","0"
"pit-trial","193","1347579","0.0-79.0","battery-v0.2","","""event"",""trial"",""time""
""fullscreenenter"",""1"",""3913""
","
","
","""event"",""trial"",""time""
""fullscreenenter"",""1"",""3913""
","
","","","-1","","","13","3706","2124","p","elianto","#3366ff99"," ","-1","0","0","[]","0","2","","","3706","75","5","1","win","go","0"
"pit-trial","194","1351552","0.0-80.0","battery-v0.2","","""event"",""trial"",""time""
""fullscreenenter"",""1"",""3913""
","
","
","""event"",""trial"",""time""
""fullscreenenter"",""1"",""3913""
","
","","","1109.6000000238419","","","13","3706","2124","d","elianto","#3366ff99"," "," ","1","+10","[1963.5]","1","2","","","3706","76","1","1","win","go","0"
"pit-trial","195","1356420","0.0-81.0","battery-v0.2","","""event"",""trial"",""time""
""fullscreenenter"",""1"",""3913""
","
","
","""event"",""trial"",""time""
""fullscreenenter"",""1"",""3913""
","
","","","-1","","","13","3706","2124","g","elianto","#f73b6a7A","-1","-1","1","0","[]","0","2","","","3706","77","6","4","lose","no-go","0"
"pit-trial","196","1360258","0.0-82.0","battery-v0.2","","""event"",""trial"",""time""
""fullscreenenter"",""1"",""3913""
","
","
","""event"",""trial"",""time""
""fullscreenenter"",""1"",""3913""
","
","","","970.5999999046326","","","13","3706","2124","w","elianto","#f73b6a7A"," "," ","1","0","[1830.2999999523163]","1","2","","","3706","78","3","3","lose","go","0"
"pit-trial","197","1365131","0.0-83.0","battery-v0.2","","""event"",""trial"",""time""
""fullscreenenter"",""1"",""3913""
","
","
","""event"",""trial"",""time""
""fullscreenenter"",""1"",""3913""
","
","","","-1","","","13","3706","2124","p","elianto","#3366ff99"," ","-1","0","0","[]","0","2","","","3706","79","5","1","win","go","0"
"pit-trial","198","1369002","0.0-84.0","battery-v0.2","","""event"",""trial"",""time""
""fullscreenenter"",""1"",""3913""
","
","
","""event"",""trial"",""time""
""fullscreenenter"",""1"",""3913""
","
","","","1004.3999999761581","","","13","3706","2124","s","elianto","#3366ff99","-1"," ","0","0","[1859.2000000476837]","1","2","","","3706","80","4","2","win","no-go","0"
"pit-trial","199","1373867","0.0-85.0","battery-v0.2","","""event"",""trial"",""time""
""fullscreenenter"",""1"",""3913""
","
","
","""event"",""trial"",""time""
""fullscreenenter"",""1"",""3913""
","
","","","-1","","","13","3706","2124","a","elianto","#f73b6a7A"," ","-1","0","-10","[]","0","2","","","3706","81","7","3","lose","go","0"
"pit-trial","200","1377889","0.0-86.0","battery-v0.2","","""event"",""trial"",""time""
""fullscreenenter"",""1"",""3913""
","
","
","""event"",""trial"",""time""
""fullscreenenter"",""1"",""3913""
","
","","","1163.2999999523163","","","13","3706","2124","g","elianto","#f73b6a7A","-1"," ","0","-10","[2015.0999999046326]","1","2","","","3706","82","6","4","lose","no-go","0"
"pit-trial","201","1382307","0.0-87.0","battery-v0.2","","""event"",""trial"",""time""
""fullscreenenter"",""1"",""3913""
","
","
","""event"",""trial"",""time""
""fullscreenenter"",""1"",""3913""
","
","","","1557.8999999761581","","","13","3706","2124","p","elianto","#3366ff99"," "," ","1","+10","[2411]","1","2","","","3706","83","5","1","win","go","0"
"pit-trial","202","1387168","0.0-88.0","battery-v0.2","","""event"",""trial"",""time""
""fullscreenenter"",""1"",""3913""
","
","
","""event"",""trial"",""time""
""fullscreenenter"",""1"",""3913""
","
","","","-1","","","13","3706","2124","s","elianto","#3366ff99","-1","-1","1","0","[]","0","2","","","3706","84","4","2","win","no-go","1"
"pit-trial","203","1392046","0.0-89.0","battery-v0.2","","""event"",""trial"",""time""
""fullscreenenter"",""1"",""3913""
","
","
","""event"",""trial"",""time""
""fullscreenenter"",""1"",""3913""
","
","","","-1","","","13","3706","2124","p","elianto","#3366ff99"," ","-1","0","0","[]","0","2","","","3706","85","5","1","win","go","0"
"pit-trial","204","1396916","0.0-90.0","battery-v0.2","","""event"",""trial"",""time""
""fullscreenenter"",""1"",""3913""
","
","
","""event"",""trial"",""time""
""fullscreenenter"",""1"",""3913""
","
","","","-1","","","13","3706","2124","g","elianto","#f73b6a7A","-1","-1","1","0","[]","0","2","","","3706","86","6","4","lose","no-go","0"
"pit-trial","205","1401786","0.0-91.0","battery-v0.2","","""event"",""trial"",""time""
""fullscreenenter"",""1"",""3913""
","
","
","""event"",""trial"",""time""
""fullscreenenter"",""1"",""3913""
","
","","","-1","","","13","3706","2124","s","elianto","#3366ff99","-1","-1","1","+10","[]","0","2","","","3706","87","4","2","win","no-go","0"
"pit-trial","206","1405897","0.0-92.0","battery-v0.2","","""event"",""trial"",""time""
""fullscreenenter"",""1"",""3913""
","
","
","""event"",""trial"",""time""
""fullscreenenter"",""1"",""3913""
","
","","","1255.0999999046326","","","13","3706","2124","a","elianto","#f73b6a7A"," "," ","1","-10","[2105.1999999284744]","1","2","","","3706","88","7","3","lose","go","1"
"pit-trial","207","1409690","0.0-93.0","battery-v0.2","","""event"",""trial"",""time""
""fullscreenenter"",""1"",""3913""
","
","
","""event"",""trial"",""time""
""fullscreenenter"",""1"",""3913""
","
","","","927.2999999523163","","","13","3706","2124","p","elianto","#3366ff99"," "," ","1","+10","[1779.5]","1","2","","","3706","89","5","1","win","go","0"
"pit-trial","208","1414553","0.0-94.0","battery-v0.2","","""event"",""trial"",""time""
""fullscreenenter"",""1"",""3913""
","
","
","""event"",""trial"",""time""
""fullscreenenter"",""1"",""3913""
","
","","","-1","","","13","3706","2124","s","elianto","#3366ff99","-1","-1","1","+10","[]","0","2","","","3706","90","4","2","win","no-go","0"
"pit-trial","209","1419425","0.0-95.0","battery-v0.2","","""event"",""trial"",""time""
""fullscreenenter"",""1"",""3913""
","
","
","""event"",""trial"",""time""
""fullscreenenter"",""1"",""3913""
","
","","","-1","","","13","3706","2124","a","elianto","#f73b6a7A"," ","-1","0","-10","[]","0","2","","","3706","91","7","3","lose","go","0"
"pit-trial","210","1423083","0.0-96.0","battery-v0.2","","""event"",""trial"",""time""
""fullscreenenter"",""1"",""3913""
","
","
","""event"",""trial"",""time""
""fullscreenenter"",""1"",""3913""
","
","","","795.5999999046326","","","13","3706","2124","g","elianto","#f73b6a7A","-1"," ","0","-10","[1647.5]","1","2","","","3706","92","6","4","lose","no-go","0"
"pit-trial","211","1427963","0.0-97.0","battery-v0.2","","""event"",""trial"",""time""
""fullscreenenter"",""1"",""3913""
","
","
","""event"",""trial"",""time""
""fullscreenenter"",""1"",""3913""
","
","","","-1","","","13","3706","2124","l","elianto","#3366ff99","-1","-1","1","+10","[]","0","2","","","3706","93","8","2","win","no-go","0"
"pit-trial","212","1432835","0.0-98.0","battery-v0.2","","""event"",""trial"",""time""
""fullscreenenter"",""1"",""3913""
","
","
","""event"",""trial"",""time""
""fullscreenenter"",""1"",""3913""
","
","","","-1","","","13","3706","2124","a","elianto","#f73b6a7A"," ","-1","0","-10","[]","0","2","","","3706","94","7","3","lose","go","0"
"pit-trial","213","1437709","0.0-99.0","battery-v0.2","","""event"",""trial"",""time""
""fullscreenenter"",""1"",""3913""
","
","
","""event"",""trial"",""time""
""fullscreenenter"",""1"",""3913""
","
","","","-1","","","13","3706","2124","p","elianto","#3366ff99"," ","-1","0","0","[]","0","2","","","3706","95","5","1","win","go","0"
"pit-trial","214","1441552","0.0-100.0","battery-v0.2","","""event"",""trial"",""time""
""fullscreenenter"",""1"",""3913""
","
","
","""event"",""trial"",""time""
""fullscreenenter"",""1"",""3913""
","
","","","982.6000000238419","","","13","3706","2124","g","elianto","#f73b6a7A","-1"," ","0","-10","[1839.3000000715256]","1","2","","","3706","96","6","4","lose","no-go","0"
"pit-trial","215","1446017","0.0-101.0","battery-v0.2","","""event"",""trial"",""time""
""fullscreenenter"",""1"",""3913""
","
","
","""event"",""trial"",""time""
""fullscreenenter"",""1"",""3913""
","
","","","1606","","","13","3706","2124","a","elianto","#f73b6a7A"," "," ","1","-10","[2460.2999999523163]","1","2","","","3706","97","7","3","lose","go","1"
"pit-trial","216","1449666","0.0-102.0","battery-v0.2","","""event"",""trial"",""time""
""fullscreenenter"",""1"",""3913""
","
","
","""event"",""trial"",""time""
""fullscreenenter"",""1"",""3913""
","
","","","789.8000000715256","","","13","3706","2124","p","elianto","#3366ff99"," "," ","1","+10","[1640.7000000476837]","1","2","","","3706","98","5","1","win","go","0"
"pit-trial","217","1454530","0.0-103.0","battery-v0.2","","""event"",""trial"",""time""
""fullscreenenter"",""1"",""3913""
","
","
","""event"",""trial"",""time""
""fullscreenenter"",""1"",""3913""
","
","","","-1","","","13","3706","2124","l","elianto","#3366ff99","-1","-1","1","+10","[]","0","2","","","3706","99","8","2","win","no-go","0"
"pit-trial","218","1459394","0.0-104.0","battery-v0.2","","""event"",""trial"",""time""
""fullscreenenter"",""1"",""3913""
","
","
","""event"",""trial"",""time""
""fullscreenenter"",""1"",""3913""
","
","","","-1","","","13","3706","2124","g","elianto","#f73b6a7A","-1","-1","1","-10","[]","0","2","","","3706","100","6","4","lose","no-go","1"
"pit-trial","219","1463434","0.0-105.0","battery-v0.2","","""event"",""trial"",""time""
""fullscreenenter"",""1"",""3913""
","
","
","""event"",""trial"",""time""
""fullscreenenter"",""1"",""3913""
","
","","","1175.8000000715256","","","13","3706","2124","u","elianto","#3366ff99","-1"," ","0","+10","[2030]","1","2","","","3706","101","9","2","win","no-go","1"
"pit-trial","220","1468298","0.0-106.0","battery-v0.2","","""event"",""trial"",""time""
""fullscreenenter"",""1"",""3913""
","
","
","""event"",""trial"",""time""
""fullscreenenter"",""1"",""3913""
","
","","","-1","","","13","3706","2124","l","elianto","#3366ff99","-1","-1","1","+10","[]","0","2","","","3706","102","8","2","win","no-go","0"
"pit-trial","221","1473162","0.0-107.0","battery-v0.2","","""event"",""trial"",""time""
""fullscreenenter"",""1"",""3913""
","
","
","""event"",""trial"",""time""
""fullscreenenter"",""1"",""3913""
","
","","","-1","","","13","3706","2124","g","elianto","#f73b6a7A","-1","-1","1","0","[]","0","2","","","3706","103","6","4","lose","no-go","0"
"pit-trial","222","1478034","0.0-108.0","battery-v0.2","","""event"",""trial"",""time""
""fullscreenenter"",""1"",""3913""
","
","
","""event"",""trial"",""time""
""fullscreenenter"",""1"",""3913""
","
","","","-1","","","13","3706","2124","p","elianto","#3366ff99"," ","-1","0","0","[]","0","2","","","3706","104","5","1","win","go","0"
"pit-trial","223","1482906","0.0-109.0","battery-v0.2","","""event"",""trial"",""time""
""fullscreenenter"",""1"",""3913""
","
","
","""event"",""trial"",""time""
""fullscreenenter"",""1"",""3913""
","
","","","-1","","","13","3706","2124","l","elianto","#3366ff99","-1","-1","1","+10","[]","0","2","","","3706","105","8","2","win","no-go","0"
"pit-trial","224","1487768","0.0-110.0","battery-v0.2","","""event"",""trial"",""time""
""fullscreenenter"",""1"",""3913""
","
","
","""event"",""trial"",""time""
""fullscreenenter"",""1"",""3913""
","
","","","-1","","","13","3706","2124","u","elianto","#3366ff99","-1","-1","1","+10","[]","0","2","","","3706","106","9","2","win","no-go","0"
"pit-trial","225","1492633","0.0-111.0","battery-v0.2","","""event"",""trial"",""time""
""fullscreenenter"",""1"",""3913""
","
","
","""event"",""trial"",""time""
""fullscreenenter"",""1"",""3913""
","
","","","-1","","","13","3706","2124","g","elianto","#f73b6a7A","-1","-1","1","0","[]","0","2","","","3706","107","6","4","lose","no-go","0"
"pit-trial","226","1497497","0.0-112.0","battery-v0.2","","""event"",""trial"",""time""
""fullscreenenter"",""1"",""3913""
","
","
","""event"",""trial"",""time""
""fullscreenenter"",""1"",""3913""
","
","","","-1","","","13","3706","2124","p","elianto","#3366ff99"," ","-1","0","0","[]","0","2","","","3706","108","5","1","win","go","0"
"pit-trial","227","1502363","0.0-113.0","battery-v0.2","","""event"",""trial"",""time""
""fullscreenenter"",""1"",""3913""
","
","
","""event"",""trial"",""time""
""fullscreenenter"",""1"",""3913""
","
","","","-1","","","13","3706","2124","p","elianto","#3366ff99"," ","-1","0","0","[]","0","2","","","3706","109","5","1","win","go","0"
"pit-trial","228","1507223","0.0-114.0","battery-v0.2","","""event"",""trial"",""time""
""fullscreenenter"",""1"",""3913""
","
","
","""event"",""trial"",""time""
""fullscreenenter"",""1"",""3913""
","
","","","-1","","","13","3706","2124","g","elianto","#f73b6a7A","-1","-1","1","0","[]","0","2","","","3706","110","6","4","lose","no-go","0"
"pit-trial","229","1512090","0.0-115.0","battery-v0.2","","""event"",""trial"",""time""
""fullscreenenter"",""1"",""3913""
","
","
","""event"",""trial"",""time""
""fullscreenenter"",""1"",""3913""
","
","","","-1","","","13","3706","2124","l","elianto","#3366ff99","-1","-1","1","0","[]","0","2","","","3706","111","8","2","win","no-go","1"
"pit-trial","230","1516473","0.0-116.0","battery-v0.2","","""event"",""trial"",""time""
""fullscreenenter"",""1"",""3913""
","
","
","""event"",""trial"",""time""
""fullscreenenter"",""1"",""3913""
","
","","","1521.7999999523163","","","13","3706","2124","u","elianto","#3366ff99","-1"," ","0","0","[2376.9000000953674]","1","2","","","3706","112","9","2","win","no-go","0"
"pit-trial","231","1520202","0.0-117.0","battery-v0.2","","""event"",""trial"",""time""
""fullscreenenter"",""1"",""3913""
","
","
","""event"",""trial"",""time""
""fullscreenenter"",""1"",""3913""
","
","","","863.7999999523163","","","13","3706","2124","p","elianto","#3366ff99"," "," ","1","0","[1717.3000000715256]","1","2","","","3706","113","5","1","win","go","1"
"pit-trial","232","1525076","0.0-118.0","battery-v0.2","","""event"",""trial"",""time""
""fullscreenenter"",""1"",""3913""
","
","
","""event"",""trial"",""time""
""fullscreenenter"",""1"",""3913""
","
","","","-1","","","13","3706","2124","u","elianto","#3366ff99","-1","-1","1","+10","[]","0","2","","","3706","114","9","2","win","no-go","0"
"pit-trial","233","1528986","0.0-119.0","battery-v0.2","","""event"",""trial"",""time""
""fullscreenenter"",""1"",""3913""
","
","
","""event"",""trial"",""time""
""fullscreenenter"",""1"",""3913""
","
","","","1045.5","","","13","3706","2124","a","elianto","#f73b6a7A"," "," ","1","0","[1898]","1","2","","","3706","115","7","3","lose","go","0"
"pit-trial","234","1533858","0.0-120.0","battery-v0.2","","""event"",""trial"",""time""
""fullscreenenter"",""1"",""3913""
","
","
","""event"",""trial"",""time""
""fullscreenenter"",""1"",""3913""
","
","","","-1","","","13","3706","2124","l","elianto","#3366ff99","-1","-1","1","+10","[]","0","2","","","3706","116","8","2","win","no-go","0"
"pit-trial","235","1537474","0.0-121.0","battery-v0.2","","""event"",""trial"",""time""
""fullscreenenter"",""1"",""3913""
","
","
","""event"",""trial"",""time""
""fullscreenenter"",""1"",""3913""
","
","","","754.2999999523163","","","13","3706","2124","p","elianto","#3366ff99"," "," ","1","+10","[1607.7999999523163]","1","2","","","3706","117","5","1","win","go","0"
"pit-trial","236","1542339","0.0-122.0","battery-v0.2","","""event"",""trial"",""time""
""fullscreenenter"",""1"",""3913""
","
","
","""event"",""trial"",""time""
""fullscreenenter"",""1"",""3913""
","
","","","-1","","","13","3706","2124","g","elianto","#f73b6a7A","-1","-1","1","-10","[]","0","2","","","3706","118","6","4","lose","no-go","1"
"pit-trial","237","1547210","0.0-123.0","battery-v0.2","","""event"",""trial"",""time""
""fullscreenenter"",""1"",""3913""
","
","
","""event"",""trial"",""time""
""fullscreenenter"",""1"",""3913""
","
","","","-1","","","13","3706","2124","l","elianto","#3366ff99","-1","-1","1","+10","[]","0","2","","","3706","119","8","2","win","no-go","0"
"pit-trial","238","1552073","0.0-124.0","battery-v0.2","","""event"",""trial"",""time""
""fullscreenenter"",""1"",""3913""
","
","
","""event"",""trial"",""time""
""fullscreenenter"",""1"",""3913""
","
","","","-1","","","13","3706","2124","u","elianto","#3366ff99","-1","-1","1","+10","[]","0","2","","","3706","120","9","2","win","no-go","0"
"pit-trial","239","1555921","0.0-125.0","battery-v0.2","","""event"",""trial"",""time""
""fullscreenenter"",""1"",""3913""
","
","
","""event"",""trial"",""time""
""fullscreenenter"",""1"",""3913""
","
","","","987.5","","","13","3706","2124","a","elianto","#f73b6a7A"," "," ","1","0","[1841]","1","2","","","3706","121","7","3","lose","go","0"
"pit-trial","240","1560784","0.0-126.0","battery-v0.2","","""event"",""trial"",""time""
""fullscreenenter"",""1"",""3913""
","
","
","""event"",""trial"",""time""
""fullscreenenter"",""1"",""3913""
","
","","","-1","","","13","3706","2124","u","elianto","#3366ff99","-1","-1","1","+10","[]","0","2","","","3706","122","9","2","win","no-go","0"
"pit-trial","241","1565660","0.0-127.0","battery-v0.2","","""event"",""trial"",""time""
""fullscreenenter"",""1"",""3913""
","
","
","""event"",""trial"",""time""
""fullscreenenter"",""1"",""3913""
","
","","","-1","","","13","3706","2124","l","elianto","#3366ff99","-1","-1","1","0","[]","0","2","","","3706","123","8","2","win","no-go","1"
"pit-trial","242","1569433","0.0-128.0","battery-v0.2","","""event"",""trial"",""time""
""fullscreenenter"",""1"",""3913""
","
","
","""event"",""trial"",""time""
""fullscreenenter"",""1"",""3913""
","
","","","910.5999999046326","","","13","3706","2124","p","elianto","#3366ff99"," "," ","1","+10","[1762.5999999046326]","1","2","","","3706","124","5","1","win","go","0"
"pit-trial","243","1574298","0.0-129.0","battery-v0.2","","""event"",""trial"",""time""
""fullscreenenter"",""1"",""3913""
","
","
","""event"",""trial"",""time""
""fullscreenenter"",""1"",""3913""
","
","","","-1","","","13","3706","2124","u","elianto","#3366ff99","-1","-1","1","+10","[]","0","2","","","3706","125","9","2","win","no-go","0"
"pit-trial","244","1579163","0.0-130.0","battery-v0.2","","""event"",""trial"",""time""
""fullscreenenter"",""1"",""3913""
","
","
","""event"",""trial"",""time""
""fullscreenenter"",""1"",""3913""
","
","","","-1","","","13","3706","2124","g","elianto","#f73b6a7A","-1","-1","1","0","[]","0","2","","","3706","126","6","4","lose","no-go","0"
"pit-trial","245","1583017","0.0-131.0","battery-v0.2","","""event"",""trial"",""time""
""fullscreenenter"",""1"",""3913""
","
","
","""event"",""trial"",""time""
""fullscreenenter"",""1"",""3913""
","
","","","987","","","13","3706","2124","a","elianto","#f73b6a7A"," "," ","1","0","[1846.6000000238419]","1","2","","","3706","127","7","3","lose","go","0"
"pit-trial","246","1587899","0.0-132.0","battery-v0.2","","""event"",""trial"",""time""
""fullscreenenter"",""1"",""3913""
","
","
","""event"",""trial"",""time""
""fullscreenenter"",""1"",""3913""
","
","","","-1","","","13","3706","2124","l","elianto","#3366ff99","-1","-1","1","+10","[]","0","2","","","3706","128","8","2","win","no-go","0"
"pit-trial","247","1592771","0.0-133.0","battery-v0.2","","""event"",""trial"",""time""
""fullscreenenter"",""1"",""3913""
","
","
","""event"",""trial"",""time""
""fullscreenenter"",""1"",""3913""
","
","","","-1","","","13","3706","2124","u","elianto","#3366ff99","-1","-1","1","+10","[]","0","2","","","3706","129","9","2","win","no-go","0"
"pit-trial","248","1597641","0.0-134.0","battery-v0.2","","""event"",""trial"",""time""
""fullscreenenter"",""1"",""3913""
","
","
","""event"",""trial"",""time""
""fullscreenenter"",""1"",""3913""
","
","","","-1","","","13","3706","2124","g","elianto","#f73b6a7A","-1","-1","1","0","[]","0","2","","","3706","130","6","4","lose","no-go","0"
"pit-trial","249","1601112","0.0-135.0","battery-v0.2","","""event"",""trial"",""time""
""fullscreenenter"",""1"",""3913""
","
","
","""event"",""trial"",""time""
""fullscreenenter"",""1"",""3913""
","
","","","607.6000000238419","","","13","3706","2124","a","elianto","#f73b6a7A"," "," ","1","0","[1459.5]","1","2","","","3706","131","7","3","lose","go","0"
"pit-trial","250","1605977","0.0-136.0","battery-v0.2","","""event"",""trial"",""time""
""fullscreenenter"",""1"",""3913""
","
","
","""event"",""trial"",""time""
""fullscreenenter"",""1"",""3913""
","
","","","-1","","","13","3706","2124","l","elianto","#3366ff99","-1","-1","1","+10","[]","0","2","","","3706","132","8","2","win","no-go","0"
"pit-trial","251","1610850","0.0-137.0","battery-v0.2","","""event"",""trial"",""time""
""fullscreenenter"",""1"",""3913""
","
","
","""event"",""trial"",""time""
""fullscreenenter"",""1"",""3913""
","
","","","-1","","","13","3706","2124","u","elianto","#3366ff99","-1","-1","1","+10","[]","0","2","","","3706","133","9","2","win","no-go","0"
"pit-trial","252","1615713","0.0-138.0","battery-v0.2","","""event"",""trial"",""time""
""fullscreenenter"",""1"",""3913""
","
","
","""event"",""trial"",""time""
""fullscreenenter"",""1"",""3913""
","
","","","-1","","","13","3706","2124","l","elianto","#3366ff99","-1","-1","1","+10","[]","0","2","","","3706","134","8","2","win","no-go","0"
"pit-trial","253","1620575","0.0-139.0","battery-v0.2","","""event"",""trial"",""time""
""fullscreenenter"",""1"",""3913""
","
","
","""event"",""trial"",""time""
""fullscreenenter"",""1"",""3913""
","
","","","-1","","","13","3706","2124","g","elianto","#f73b6a7A","-1","-1","1","-10","[]","0","2","","","3706","135","6","4","lose","no-go","1"
"pit-trial","254","1624631","0.0-140.0","battery-v0.2","","""event"",""trial"",""time""
""fullscreenenter"",""1"",""3913""
","
","
","""event"",""trial"",""time""
""fullscreenenter"",""1"",""3913""
","
","","","1195.9000000953674","","","13","3706","2124","a","elianto","#f73b6a7A"," "," ","1","0","[2046.2000000476837]","1","2","","","3706","136","7","3","lose","go","0"
"pit-trial","255","1627858","0.0-141.0","battery-v0.2","","""event"",""trial"",""time""
""fullscreenenter"",""1"",""3913""
","
","
","""event"",""trial"",""time""
""fullscreenenter"",""1"",""3913""
","
","","","358.5","","","13","3706","2124","l","elianto","#3366ff99","-1"," ","0","+10","[1212.8999999761581]","1","2","","","3706","137","8","2","win","no-go","1"
"pit-trial","256","1631940","0.0-142.0","battery-v0.2","","""event"",""trial"",""time""
""fullscreenenter"",""1"",""3913""
","
","
","""event"",""trial"",""time""
""fullscreenenter"",""1"",""3913""
","
","","","1219.1000000238419","","","13","3706","2124","a","elianto","#f73b6a7A"," "," ","1","0","[2069.399999976158]","1","2","","","3706","138","7","3","lose","go","0"
"pit-trial","257","1636807","0.0-143.0","battery-v0.2","","""event"",""trial"",""time""
""fullscreenenter"",""1"",""3913""
","
","
","""event"",""trial"",""time""
""fullscreenenter"",""1"",""3913""
","
","","","-1","","","13","3706","2124","u","elianto","#3366ff99","-1","-1","1","+10","[]","0","2","","","3706","139","9","2","win","no-go","0"
"pit-trial","258","1640752","0.0-144.0","battery-v0.2","","""event"",""trial"",""time""
""fullscreenenter"",""1"",""3913""
","
","
","""event"",""trial"",""time""
""fullscreenenter"",""1"",""3913""
","
","","","1079.1999999284744","","","13","3706","2124","g","elianto","#f73b6a7A","-1"," ","0","-10","[1932.6000000238419]","1","2","","","3706","140","6","4","lose","no-go","0"
"pit-instructions","259","2282262","0.0-145.0","battery-v0.2","","""event"",""trial"",""time""
""fullscreenenter"",""1"",""3913""
","
","
","""event"",""trial"",""time""
""fullscreenenter"",""1"",""3913""
","
","","[{""page_index"":0,""viewing_time"":632364.3999999762},{""page_index"":1,""viewing_time"":9142.5}]","641507.7000000477","","","","","","","","","","","","","","","","","","","","","","","",""
"pit-trial","260","2287138","0.0-146.0","battery-v0.2","","""event"",""trial"",""time""
""fullscreenenter"",""1"",""3913""
","
","
","""event"",""trial"",""time""
""fullscreenenter"",""1"",""3913""
","
","","","-1","","","13","3706","2124","f","elianto","#3366ff99","-1","-1","1","+10","[]","0","3","","","3706","141","1","2","win","no-go","0"
"pit-trial","261","2292027","0.0-147.0","battery-v0.2","","""event"",""trial"",""time""
""fullscreenenter"",""1"",""3913""
","
","
","""event"",""trial"",""time""
""fullscreenenter"",""1"",""3913""
","
","","","-1","","","13","3706","2124","n","elianto","#f73b6a7A"," ","-1","0","-10","[]","0","3","","","3706","142","0","3","lose","go","0"
"pit-trial","262","2296909","0.0-148.0","battery-v0.2","","""event"",""trial"",""time""
""fullscreenenter"",""1"",""3913""
","
","
","""event"",""trial"",""time""
""fullscreenenter"",""1"",""3913""
","
","","","-1","","","13","3706","2124","t","elianto","#f73b6a7A"," ","-1","0","-10","[]","0","3","","","3706","143","2","3","lose","go","0"
"pit-trial","263","2301788","0.0-149.0","battery-v0.2","","""event"",""trial"",""time""
""fullscreenenter"",""1"",""3913""
","
","
","""event"",""trial"",""time""
""fullscreenenter"",""1"",""3913""
","
","","","-1","","","13","3706","2124","b","elianto","#f73b6a7A","-1","-1","1","0","[]","0","3","","","3706","144","3","4","lose","no-go","0"
"pit-trial","264","2306675","0.0-150.0","battery-v0.2","","""event"",""trial"",""time""
""fullscreenenter"",""1"",""3913""
","
","
","""event"",""trial"",""time""
""fullscreenenter"",""1"",""3913""
","
","","","-1","","","13","3706","2124","t","elianto","#f73b6a7A"," ","-1","0","-10","[]","0","3","","","3706","145","2","3","lose","go","0"
"pit-trial","265","2310319","0.0-151.0","battery-v0.2","","""event"",""trial"",""time""
""fullscreenenter"",""1"",""3913""
","
","
","""event"",""trial"",""time""
""fullscreenenter"",""1"",""3913""
","
","","","786.1000000238419","","","13","3706","2124","f","elianto","#3366ff99","-1"," ","0","0","[1639.6000000238419]","1","3","","","3706","146","1","2","win","no-go","0"
"pit-trial","266","2314006","0.0-152.0","battery-v0.2","","""event"",""trial"",""time""
""fullscreenenter"",""1"",""3913""
","
","
","""event"",""trial"",""time""
""fullscreenenter"",""1"",""3913""
","
","","","821.5","","","13","3706","2124","b","elianto","#f73b6a7A","-1"," ","0","-10","[1676.5]","1","3","","","3706","147","3","4","lose","no-go","0"
"pit-trial","267","2318874","0.0-153.0","battery-v0.2","","""event"",""trial"",""time""
""fullscreenenter"",""1"",""3913""
","
","
","""event"",""trial"",""time""
""fullscreenenter"",""1"",""3913""
","
","","","-1","","","13","3706","2124","n","elianto","#f73b6a7A"," ","-1","0","-10","[]","0","3","","","3706","148","0","3","lose","go","0"
"pit-trial","268","2322648","0.0-154.0","battery-v0.2","","""event"",""trial"",""time""
""fullscreenenter"",""1"",""3913""
","
","
","""event"",""trial"",""time""
""fullscreenenter"",""1"",""3913""
","
