"trial_type","trial_index","time_elapsed","internal_node_id","task_version","subject_id","interactions","blur_events","focus_events","fullscreenenter_events","fullscreenexit_events","success","view_history","rt","responses","num_errors","age","subject","participantId","rune","rune_set","hex","correct","choice","accuracy","outcome","keys","total_keys","block","practice","value","sub","trial","stimulus","robot","valence","action","sham"
"pavlovia","0","13","0.0-0.0","battery-v0.2","","""event"",""trial"",""time""
""fullscreenenter"",""1"",""3111""
","
","
","""event"",""trial"",""time""
""fullscreenenter"",""1"",""3111""
","
","","","","","","","","","","","","","","","","","","","","","","","","","","",""
"fullscreen","1","4061","0.0-1.0","battery-v0.2","","""event"",""trial"",""time""
""fullscreenenter"",""1"",""3111""
","
","
","""event"",""trial"",""time""
""fullscreenenter"",""1"",""3111""
","
","true","","","","","","","","","","","","","","","","","","","","","","","","","",""
"pit-instructions","2","13265","0.0-2.0-0.0","battery-v0.2","","""event"",""trial"",""time""
""fullscreenenter"",""1"",""3111""
","
","
","""event"",""trial"",""time""
""fullscreenenter"",""1"",""3111""
","
","","[{""page_index"":0,""viewing_time"":9191.300000011921}]","9192.099999964237","","","","","","","","","","","","","","","","","","","","","","","",""
"pit-comprehension","3","16516","0.0-2.0-1.0-0.0","battery-v0.2","","""event"",""trial"",""time""
""fullscreenenter"",""1"",""3111""
","
","
","""event"",""trial"",""time""
""fullscreenenter"",""1"",""3111""
","
","","","3239","[""shark""]","0","20","5516","2267","","","","","","","","","","","","","","","","","","",""
"pit-instructions","4","18045","0.0-2.0-1.0-1.0","battery-v0.2","","""event"",""trial"",""time""
""fullscreenenter"",""1"",""3111""
","
","
","""event"",""trial"",""time""
""fullscreenenter"",""1"",""3111""
","
","","[{""page_index"":0,""viewing_time"":1508.300000011921}]","1509.1000000238419","","","","","","","","","","","","","","","","","","","","","","","",""
"pit-comprehension","5","21115","0.0-2.0-2.0-0.0","battery-v0.2","","""event"",""trial"",""time""
""fullscreenenter"",""1"",""3111""
","
","
","""event"",""trial"",""time""
""fullscreenenter"",""1"",""3111""
","
","","","3057.5","[""tiger""]","0","20","5516","2267","","","","","","","","","","","","","","","","","","",""
"pit-instructions","6","25416","0.0-2.0-2.0-1.0","battery-v0.2","","""event"",""trial"",""time""
""fullscreenenter"",""1"",""3111""
","
","
","""event"",""trial"",""time""
""fullscreenenter"",""1"",""3111""
","
","","[{""page_index"":0,""viewing_time"":4291.199999988079}]","4292.100000023842","","","","","","","","","","","","","","","","","","","","","","","",""
"pit-instructions","7","133157","0.0-2.0-3.0","battery-v0.2","","""event"",""trial"",""time""
""fullscreenenter"",""1"",""3111""
","
","
","""event"",""trial"",""time""
""fullscreenenter"",""1"",""3111""
","
","","[{""page_index"":0,""viewing_time"":11573.699999988079},{""page_index"":1,""viewing_time"":6010.100000023842},{""page_index"":2,""viewing_time"":6135.199999988079},{""page_index"":3,""viewing_time"":6309.300000011921},{""page_index"":4,""viewing_time"":6451.399999976158},{""page_index"":5,""viewing_time"":7490.300000011921},{""page_index"":6,""viewing_time"":10320.300000011921},{""page_index"":7,""viewing_time"":7969.899999976158},{""page_index"":8,""viewing_time"":6086.900000035763},{""page_index"":9,""viewing_time"":9603},{""page_index"":10,""viewing_time"":8106.099999964237},{""page_index"":11,""viewing_time"":8523.699999988079},{""page_index"":12,""viewing_time"":6500.900000035763},{""page_index"":13,""viewing_time"":6647.5}]","107729.10000002384","","","","","","","","","","","","","","","","","","","","","","","",""
"pit-trial","8","136648","0.0-2.0-4.0-0.0","battery-v0.2","","""event"",""trial"",""time""
""fullscreenenter"",""1"",""3111""
","
","
","""event"",""trial"",""time""
""fullscreenenter"",""1"",""3111""
","
","","","609.9000000357628","","","20","5516","2267","&#9784;","elianto","#FFFFF080"," "," ","1","&#10004","[1464.199999988079]","1","0","0","","","","","","","",""
"pit-trial","9","140049","0.0-2.0-4.1-0.1","battery-v0.2","","""event"",""trial"",""time""
""fullscreenenter"",""1"",""3111""
","
","
","""event"",""trial"",""time""
""fullscreenenter"",""1"",""3111""
","
","","","534","","","20","5516","2267","&#9784;","elianto","#FFFFF080"," "," ","1","&#10004","[1387.5]","1","0","0","","","","","","","",""
"pit-trial","10","143358","0.0-2.0-4.2-0.2","battery-v0.2","","""event"",""trial"",""time""
""fullscreenenter"",""1"",""3111""
","
","
","""event"",""trial"",""time""
""fullscreenenter"",""1"",""3111""
","
","","","428","","","20","5516","2267","&#9784;","elianto","#FFFFF080"," "," ","1","&#10004","[1282.5]","1","0","0","","","","","","","",""
"pit-trial","11","146722","0.0-2.0-4.3-0.3","battery-v0.2","","""event"",""trial"",""time""
""fullscreenenter"",""1"",""3111""
","
","
","""event"",""trial"",""time""
""fullscreenenter"",""1"",""3111""
","
","","","489.5","","","20","5516","2267","&#9784;","elianto","#FFFFF080"," "," ","1","&#10004","[1344.6000000238419]","1","0","0","","","","","","","",""
"pit-trial","12","150179","0.0-2.0-4.4-0.4","battery-v0.2","","""event"",""trial"",""time""
""fullscreenenter"",""1"",""3111""
","
","
","""event"",""trial"",""time""
""fullscreenenter"",""1"",""3111""
","
","","","587.5999999642372","","","20","5516","2267","&#9784;","elianto","#FFFFF080"," "," ","1","&#10004","[1439.5999999642372]","1","0","0","","","","","","","",""
"pit-instructions","13","182108","0.0-2.0-5.0","battery-v0.2","","""event"",""trial"",""time""
""fullscreenenter"",""1"",""3111""
","
","
","""event"",""trial"",""time""
""fullscreenenter"",""1"",""3111""
","
","","[{""page_index"":0,""viewing_time"":13061.5},{""page_index"":1,""viewing_time"":5598.699999988079},{""page_index"":2,""viewing_time"":5900.5},{""page_index"":3,""viewing_time"":7361.899999976158}]","31923.399999976158","","","","","","","","","","","","","","","","","","","","","","","",""
"pit-trial","14","186983","0.0-2.0-6.0-0.0","battery-v0.2","","""event"",""trial"",""time""
""fullscreenenter"",""1"",""3111""
","
","
","""event"",""trial"",""time""
""fullscreenenter"",""1"",""3111""
","
","","","-1","","","20","5516","2267","&#9854;","elianto","#FFFFF080","-1","-1","1","&#10004","[]","0","0","1","","","","","","","",""
"pit-trial","15","191867","0.0-2.0-6.1-0.1","battery-v0.2","","""event"",""trial"",""time""
""fullscreenenter"",""1"",""3111""
","
","
","""event"",""trial"",""time""
""fullscreenenter"",""1"",""3111""
","
","","","-1","","","20","5516","2267","&#9854;","elianto","#FFFFF080","-1","-1","1","&#10004","[]","0","0","1","","","","","","","",""
"pit-trial","16","196756","0.0-2.0-6.2-0.2","battery-v0.2","","""event"",""trial"",""time""
""fullscreenenter"",""1"",""3111""
","
","
","""event"",""trial"",""time""
""fullscreenenter"",""1"",""3111""
","
","","","-1","","","20","5516","2267","&#9854;","elianto","#FFFFF080","-1","-1","1","&#10004","[]","0","0","1","","","","","","","",""
"pit-trial","17","201638","0.0-2.0-6.3-0.3","battery-v0.2","","""event"",""trial"",""time""
""fullscreenenter"",""1"",""3111""
","
","
","""event"",""trial"",""time""
""fullscreenenter"",""1"",""3111""
","
","","","-1","","","20","5516","2267","&#9854;","elianto","#FFFFF080","-1","-1","1","&#10004","[]","0","0","1","","","","","","","",""
"pit-trial","18","206505","0.0-2.0-6.4-0.4","battery-v0.2","","""event"",""trial"",""time""
""fullscreenenter"",""1"",""3111""
","
","
","""event"",""trial"",""time""
""fullscreenenter"",""1"",""3111""
","
","","","-1","","","20","5516","2267","&#9854;","elianto","#FFFFF080","-1","-1","1","&#10004","[]","0","0","1","","","","","","","",""
"pit-instructions","19","356859","0.0-2.0-7.0","battery-v0.2","","""event"",""trial"",""time""
""fullscreenenter"",""1"",""3111""
","
","
","""event"",""trial"",""time""
""fullscreenenter"",""1"",""3111""
","
","","[{""page_index"":0,""viewing_time"":6125.900000035763},{""page_index"":1,""viewing_time"":7034.300000011921},{""page_index"":2,""viewing_time"":6220.299999952316},{""page_index"":3,""viewing_time"":10881.5},{""page_index"":4,""viewing_time"":7269.200000047684},{""page_index"":5,""viewing_time"":6399.199999988079},{""page_index"":6,""viewing_time"":4759.699999988079},{""page_index"":7,""viewing_time"":8116.899999976158},{""page_index"":8,""viewing_time"":9083.900000035763},{""page_index"":9,""viewing_time"":8430.899999976158},{""page_index"":10,""viewing_time"":7893.900000035763},{""page_index"":11,""viewing_time"":5831},{""page_index"":12,""viewing_time"":10605.799999952316},{""page_index"":13,""viewing_time"":9035},{""page_index"":14,""viewing_time"":8073.400000035763},{""page_index"":15,""viewing_time"":7029.599999964237},{""page_index"":16,""viewing_time"":19627.5},{""page_index"":17,""viewing_time"":7925.700000047684}]","150344.60000002384","","","","","","","","","","","","","","","","","","","","","","","",""
"pit-trial","20","360389","0.0-2.0-8.0-0.0","battery-v0.2","","""event"",""trial"",""time""
""fullscreenenter"",""1"",""3111""
","
","
","""event"",""trial"",""time""
""fullscreenenter"",""1"",""3111""
","
","","","646.5999999642372","","","20","5516","2267","&#9776;","elianto","#3366ff99"," "," ","1","+10","[1502]","1","0","1","","","","","","","",""
"pit-trial","21","363830","0.0-2.0-8.0-1.0","battery-v0.2","","""event"",""trial"",""time""
""fullscreenenter"",""1"",""3111""
","
","
","""event"",""trial"",""time""
""fullscreenenter"",""1"",""3111""
","
","","","569.3999999761581","","","20","5516","2267","&#9776;","elianto","#3366ff99"," "," ","1","+10","[1422.9000000357628]","1","0","1","","","","","","","",""
"pit-trial","22","367173","0.0-2.0-8.0-2.0","battery-v0.2","","""event"",""trial"",""time""
""fullscreenenter"",""1"",""3111""
","
","
","""event"",""trial"",""time""
""fullscreenenter"",""1"",""3111""
","
","","","468.5","","","20","5516","2267","&#9776;","elianto","#3366ff99"," "," ","1","+10","[1321.5]","1","0","1","","","","","","","",""
"pit-trial","23","370435","0.0-2.0-8.0-3.0","battery-v0.2","","""event"",""trial"",""time""
""fullscreenenter"",""1"",""3111""
","
","
","""event"",""trial"",""time""
""fullscreenenter"",""1"",""3111""
","
","","","384.69999998807907","","","20","5516","2267","&#9776;","elianto","#3366ff99"," "," ","1","0","[1239.6000000238419]","1","0","1","","","","","","","",""
"pit-trial","24","373997","0.0-2.0-8.0-4.0","battery-v0.2","","""event"",""trial"",""time""
""fullscreenenter"",""1"",""3111""
","
","
","""event"",""trial"",""time""
""fullscreenenter"",""1"",""3111""
","
","","","690.8999999761581","","","20","5516","2267","&#9776;","elianto","#3366ff99"," "," ","1","+10","[1543.300000011921]","1","0","1","","","","","","","",""
"pit-trial","25","377415","0.0-2.0-8.1-0.1","battery-v0.2","","""event"",""trial"",""time""
""fullscreenenter"",""1"",""3111""
","
","
","""event"",""trial"",""time""
""fullscreenenter"",""1"",""3111""
","
","","","549.5","","","20","5516","2267","&#9776;","elianto","#3366ff99"," "," ","1","+10","[1404.5]","1","0","1","","","","","","","",""
"pit-trial","26","380748","0.0-2.0-8.1-1.1","battery-v0.2","","""event"",""trial"",""time""
""fullscreenenter"",""1"",""3111""
","
","
","""event"",""trial"",""time""
""fullscreenenter"",""1"",""3111""
","
","","","464.4000000357628","","","20","5516","2267","&#9776;","elianto","#3366ff99"," "," ","1","+10","[1323.199999988079]","1","0","1","","","","","","","",""
"pit-trial","27","384099","0.0-2.0-8.1-2.1","battery-v0.2","","""event"",""trial"",""time""
""fullscreenenter"",""1"",""3111""
","
","
","""event"",""trial"",""time""
""fullscreenenter"",""1"",""3111""
","
","","","478.10000002384186","","","20","5516","2267","&#9776;","elianto","#3366ff99"," "," ","1","+10","[1329.699999988079]","1","0","1","","","","","","","",""
"pit-trial","28","387338","0.0-2.0-8.1-3.1","battery-v0.2","","""event"",""trial"",""time""
""fullscreenenter"",""1"",""3111""
","
","
","""event"",""trial"",""time""
""fullscreenenter"",""1"",""3111""
","
","","","375.5999999642372","","","20","5516","2267","&#9776;","elianto","#3366ff99"," "," ","1","0","[1226.800000011921]","1","0","1","","","","","","","",""
"pit-trial","29","390575","0.0-2.0-8.1-4.1","battery-v0.2","","""event"",""trial"",""time""
""fullscreenenter"",""1"",""3111""
","
","
","""event"",""trial"",""time""
""fullscreenenter"",""1"",""3111""
","
","","","378.0999999642372","","","20","5516","2267","&#9776;","elianto","#3366ff99"," "," ","1","+10","[1230.1000000238419]","1","0","1","","","","","","","",""
"pit-trial","30","393844","0.0-2.0-8.2-0.2","battery-v0.2","","""event"",""trial"",""time""
""fullscreenenter"",""1"",""3111""
","
","
","""event"",""trial"",""time""
""fullscreenenter"",""1"",""3111""
","
","","","402.30000001192093","","","20","5516","2267","&#9776;","elianto","#3366ff99"," "," ","1","+10","[1253.9000000357628]","1","0","1","","","","","","","",""
"pit-trial","31","397194","0.0-2.0-8.2-1.2","battery-v0.2","","""event"",""trial"",""time""
""fullscreenenter"",""1"",""3111""
","
","
","""event"",""trial"",""time""
""fullscreenenter"",""1"",""3111""
","
","","","478.89999997615814","","","20","5516","2267","&#9776;","elianto","#3366ff99"," "," ","1","+10","[1335.8999999761581]","1","0","1","","","","","","","",""
"pit-trial","32","400565","0.0-2.0-8.2-2.2","battery-v0.2","","""event"",""trial"",""time""
""fullscreenenter"",""1"",""3111""
","
","
","""event"",""trial"",""time""
""fullscreenenter"",""1"",""3111""
","
","","","497.69999998807907","","","20","5516","2267","&#9776;","elianto","#3366ff99"," "," ","1","+10","[1356]","1","0","1","","","","","","","",""
"pit-trial","33","403860","0.0-2.0-8.2-3.2","battery-v0.2","","""event"",""trial"",""time""
""fullscreenenter"",""1"",""3111""
","
","
","""event"",""trial"",""time""
""fullscreenenter"",""1"",""3111""
","
","","","431.2999999523163","","","20","5516","2267","&#9776;","elianto","#3366ff99"," "," ","1","0","[1282.300000011921]","1","0","1","","","","","","","",""
"pit-trial","34","407496","0.0-2.0-8.2-4.2","battery-v0.2","","""event"",""trial"",""time""
""fullscreenenter"",""1"",""3111""
","
","
","""event"",""trial"",""time""
""fullscreenenter"",""1"",""3111""
","
","","","770.1999999880791","","","20","5516","2267","&#9776;","elianto","#3366ff99"," "," ","1","+10","[1628.0999999642372]","1","0","1","","","","","","","",""
"call-function","35","407501","0.0-2.0-9.0","battery-v0.2","","""event"",""trial"",""time""
""fullscreenenter"",""1"",""3111""
","
","
","""event"",""trial"",""time""
""fullscreenenter"",""1"",""3111""
","
","","","","","","","","","","","","","","","","","","","","","","","","","","",""
"pit-instructions","36","514878","0.0-2.0-10.0","battery-v0.2","","""event"",""trial"",""time""
""fullscreenenter"",""1"",""3111""
","
","
","""event"",""trial"",""time""
""fullscreenenter"",""1"",""3111""
","
","","[{""page_index"":0,""viewing_time"":10364},{""page_index"":1,""viewing_time"":48997.30000001192},{""page_index"":2,""viewing_time"":9827.699999988079},{""page_index"":3,""viewing_time"":28133.700000047684},{""page_index"":4,""viewing_time"":10050.199999988079}]","107374","","","","","","","","","","","","","","","","","","","","","","","",""
"pit-trial","37","519753","0.0-2.0-11.0-0.0","battery-v0.2","","""event"",""trial"",""time""
""fullscreenenter"",""1"",""3111""
","
","
","""event"",""trial"",""time""
""fullscreenenter"",""1"",""3111""
","
","","","-1","","","20","5516","2267","&#9761;","elianto","#3366ff99","-1","-1","1","+10","[]","0","0","2","","","","","","","",""
"pit-trial","38","524638","0.0-2.0-11.0-1.0","battery-v0.2","","""event"",""trial"",""time""
""fullscreenenter"",""1"",""3111""
","
","
","""event"",""trial"",""time""
""fullscreenenter"",""1"",""3111""
","
","","","-1","","","20","5516","2267","&#9761;","elianto","#3366ff99","-1","-1","1","+10","[]","0","0","2","","","","","","","",""
"pit-trial","39","529532","0.0-2.0-11.0-2.0","battery-v0.2","","""event"",""trial"",""time""
""fullscreenenter"",""1"",""3111""
","
","
","""event"",""trial"",""time""
""fullscreenenter"",""1"",""3111""
","
","","","-1","","","20","5516","2267","&#9761;","elianto","#3366ff99","-1","-1","1","+10","[]","0","0","2","","","","","","","",""
"pit-trial","40","534422","0.0-2.0-11.0-3.0","battery-v0.2","","""event"",""trial"",""time""
""fullscreenenter"",""1"",""3111""
","
","
","""event"",""trial"",""time""
""fullscreenenter"",""1"",""3111""
","
","","","-1","","","20","5516","2267","&#9761;","elianto","#3366ff99","-1","-1","1","0","[]","0","0","2","","","","","","","",""
"pit-trial","41","539291","0.0-2.0-11.0-4.0","battery-v0.2","","""event"",""trial"",""time""
""fullscreenenter"",""1"",""3111""
","
","
","""event"",""trial"",""time""
""fullscreenenter"",""1"",""3111""
","
","","","-1","","","20","5516","2267","&#9761;","elianto","#3366ff99","-1","-1","1","+10","[]","0","0","2","","","","","","","",""
"pit-trial","42","544169","0.0-2.0-11.1-0.1","battery-v0.2","","""event"",""trial"",""time""
""fullscreenenter"",""1"",""3111""
","
","
","""event"",""trial"",""time""
""fullscreenenter"",""1"",""3111""
","
","","","-1","","","20","5516","2267","&#9761;","elianto","#3366ff99","-1","-1","1","+10","[]","0","0","2","","","","","","","",""
"pit-trial","43","549043","0.0-2.0-11.1-1.1","battery-v0.2","","""event"",""trial"",""time""
""fullscreenenter"",""1"",""3111""
","
","
","""event"",""trial"",""time""
""fullscreenenter"",""1"",""3111""
","
","","","-1","","","20","5516","2267","&#9761;","elianto","#3366ff99","-1","-1","1","+10","[]","0","0","2","","","","","","","",""
"pit-trial","44","553923","0.0-2.0-11.1-2.1","battery-v0.2","","""event"",""trial"",""time""
""fullscreenenter"",""1"",""3111""
","
","
","""event"",""trial"",""time""
""fullscreenenter"",""1"",""3111""
","
","","","-1","","","20","5516","2267","&#9761;","elianto","#3366ff99","-1","-1","1","+10","[]","0","0","2","","","","","","","",""
"pit-trial","45","558807","0.0-2.0-11.1-3.1","battery-v0.2","","""event"",""trial"",""time""
""fullscreenenter"",""1"",""3111""
","
","
","""event"",""trial"",""time""
""fullscreenenter"",""1"",""3111""
","
","","","-1","","","20","5516","2267","&#9761;","elianto","#3366ff99","-1","-1","1","0","[]","0","0","2","","","","","","","",""
"pit-trial","46","563694","0.0-2.0-11.1-4.1","battery-v0.2","","""event"",""trial"",""time""
""fullscreenenter"",""1"",""3111""
","
","
","""event"",""trial"",""time""
""fullscreenenter"",""1"",""3111""
","
","","","-1","","","20","5516","2267","&#9761;","elianto","#3366ff99","-1","-1","1","+10","[]","0","0","2","","","","","","","",""
"pit-trial","47","568569","0.0-2.0-11.2-0.2","battery-v0.2","","""event"",""trial"",""time""
""fullscreenenter"",""1"",""3111""
","
","
","""event"",""trial"",""time""
""fullscreenenter"",""1"",""3111""
","
","","","-1","","","20","5516","2267","&#9761;","elianto","#3366ff99","-1","-1","1","+10","[]","0","0","2","","","","","","","",""
"pit-trial","48","573431","0.0-2.0-11.2-1.2","battery-v0.2","","""event"",""trial"",""time""
""fullscreenenter"",""1"",""3111""
","
","
","""event"",""trial"",""time""
""fullscreenenter"",""1"",""3111""
","
","","","-1","","","20","5516","2267","&#9761;","elianto","#3366ff99","-1","-1","1","+10","[]","0","0","2","","","","","","","",""
"pit-trial","49","578311","0.0-2.0-11.2-2.2","battery-v0.2","","""event"",""trial"",""time""
""fullscreenenter"",""1"",""3111""
","
","
","""event"",""trial"",""time""
""fullscreenenter"",""1"",""3111""
","
","","","-1","","","20","5516","2267","&#9761;","elianto","#3366ff99","-1","-1","1","+10","[]","0","0","2","","","","","","","",""
"pit-trial","50","583184","0.0-2.0-11.2-3.2","battery-v0.2","","""event"",""trial"",""time""
""fullscreenenter"",""1"",""3111""
","
","
","""event"",""trial"",""time""
""fullscreenenter"",""1"",""3111""
","
","","","-1","","","20","5516","2267","&#9761;","elianto","#3366ff99","-1","-1","1","0","[]","0","0","2","","","","","","","",""
"pit-trial","51","588056","0.0-2.0-11.2-4.2","battery-v0.2","","""event"",""trial"",""time""
""fullscreenenter"",""1"",""3111""
","
","
","""event"",""trial"",""time""
""fullscreenenter"",""1"",""3111""
","
","","","-1","","","20","5516","2267","&#9761;","elianto","#3366ff99","-1","-1","1","+10","[]","0","0","2","","","","","","","",""
"pit-trial","52","592934","0.0-2.0-11.3-0.3","battery-v0.2","","""event"",""trial"",""time""
""fullscreenenter"",""1"",""3111""
","
","
","""event"",""trial"",""time""
""fullscreenenter"",""1"",""3111""
","
","","","-1","","","20","5516","2267","&#9761;","elianto","#3366ff99","-1","-1","1","+10","[]","0","0","2","","","","","","","",""
"pit-trial","53","597805","0.0-2.0-11.3-1.3","battery-v0.2","","""event"",""trial"",""time""
""fullscreenenter"",""1"",""3111""
","
","
","""event"",""trial"",""time""
""fullscreenenter"",""1"",""3111""
","
","","","-1","","","20","5516","2267","&#9761;","elianto","#3366ff99","-1","-1","1","+10","[]","0","0","2","","","","","","","",""
"pit-trial","54","602676","0.0-2.0-11.3-2.3","battery-v0.2","","""event"",""trial"",""time""
""fullscreenenter"",""1"",""3111""
","
","
","""event"",""trial"",""time""
""fullscreenenter"",""1"",""3111""
","
","","","-1","","","20","5516","2267","&#9761;","elianto","#3366ff99","-1","-1","1","+10","[]","0","0","2","","","","","","","",""
"pit-trial","55","607546","0.0-2.0-11.3-3.3","battery-v0.2","","""event"",""trial"",""time""
""fullscreenenter"",""1"",""3111""
","
","
","""event"",""trial"",""time""
""fullscreenenter"",""1"",""3111""
","
","","","-1","","","20","5516","2267","&#9761;","elianto","#3366ff99","-1","-1","1","0","[]","0","0","2","","","","","","","",""
"pit-trial","56","612427","0.0-2.0-11.3-4.3","battery-v0.2","","""event"",""trial"",""time""
""fullscreenenter"",""1"",""3111""
","
","
","""event"",""trial"",""time""
""fullscreenenter"",""1"",""3111""
","
","","","-1","","","20","5516","2267","&#9761;","elianto","#3366ff99","-1","-1","1","+10","[]","0","0","2","","","","","","","",""
"call-function","57","612430","0.0-2.0-12.0","battery-v0.2","","""event"",""trial"",""time""
""fullscreenenter"",""1"",""3111""
","
","
","""event"",""trial"",""time""
""fullscreenenter"",""1"",""3111""
","
","","","","","","","","","","","","","","","","","","","","","","","","","","",""
"pit-instructions","58","666980","0.0-2.0-13.0","battery-v0.2","","""event"",""trial"",""time""
""fullscreenenter"",""1"",""3111""
","
","
","""event"",""trial"",""time""
""fullscreenenter"",""1"",""3111""
","
","","[{""page_index"":0,""viewing_time"":9570.600000023842},{""page_index"":1,""viewing_time"":12770.399999976158},{""page_index"":2,""viewing_time"":9842.100000023842},{""page_index"":3,""viewing_time"":14288},{""page_index"":4,""viewing_time"":8084.199999988079}]","54556.5","","","","","","","","","","","","","","","","","","","","","","","",""
"pit-trial","59","670799","0.0-2.0-14.0-0.0","battery-v0.2","","""event"",""trial"",""time""
""fullscreenenter"",""1"",""3111""
","
","
","""event"",""trial"",""time""
""fullscreenenter"",""1"",""3111""
","
","","","936.0999999642372","","","20","5516","2267","&#9826;","elianto","#f73b6a7A","-1"," ","0","-10","[1793.800000011921]","1","0","3","","","","","","","",""
"pit-trial","60","675695","0.0-2.0-14.0-1.0","battery-v0.2","","""event"",""trial"",""time""
""fullscreenenter"",""1"",""3111""
","
","
","""event"",""trial"",""time""
""fullscreenenter"",""1"",""3111""
","
","","","-1","","","20","5516","2267","&#9826;","elianto","#f73b6a7A","-1","-1","1","0","[]","0","0","3","","","","","","","",""
"pit-trial","61","680563","0.0-2.0-14.0-2.0","battery-v0.2","","""event"",""trial"",""time""
""fullscreenenter"",""1"",""3111""
","
","
","""event"",""trial"",""time""
""fullscreenenter"",""1"",""3111""
","
","","","-1","","","20","5516","2267","&#9826;","elianto","#f73b6a7A","-1","-1","1","0","[]","0","0","3","","","","","","","",""
"pit-trial","62","685444","0.0-2.0-14.0-3.0","battery-v0.2","","""event"",""trial"",""time""
""fullscreenenter"",""1"",""3111""
","
","
","""event"",""trial"",""time""
""fullscreenenter"",""1"",""3111""
","
","","","-1","","","20","5516","2267","&#9826;","elianto","#f73b6a7A","-1","-1","1","-10","[]","0","0","3","","","","","","","",""
"pit-trial","63","690319","0.0-2.0-14.0-4.0","battery-v0.2","","""event"",""trial"",""time""
""fullscreenenter"",""1"",""3111""
","
","
","""event"",""trial"",""time""
""fullscreenenter"",""1"",""3111""
","
","","","-1","","","20","5516","2267","&#9826;","elianto","#f73b6a7A","-1","-1","1","0","[]","0","0","3","","","","","","","",""
"pit-trial","64","695192","0.0-2.0-14.1-0.1","battery-v0.2","","""event"",""trial"",""time""
""fullscreenenter"",""1"",""3111""
","
","
","""event"",""trial"",""time""
""fullscreenenter"",""1"",""3111""
","
","","","-1","","","20","5516","2267","&#9826;","elianto","#f73b6a7A","-1","-1","1","0","[]","0","0","3","","","","","","","",""
"pit-trial","65","700057","0.0-2.0-14.1-1.1","battery-v0.2","","""event"",""trial"",""time""
""fullscreenenter"",""1"",""3111""
","
","
","""event"",""trial"",""time""
""fullscreenenter"",""1"",""3111""
","
","","","-1","","","20","5516","2267","&#9826;","elianto","#f73b6a7A","-1","-1","1","0","[]","0","0","3","","","","","","","",""
"pit-trial","66","704925","0.0-2.0-14.1-2.1","battery-v0.2","","""event"",""trial"",""time""
""fullscreenenter"",""1"",""3111""
","
","
","""event"",""trial"",""time""
""fullscreenenter"",""1"",""3111""
","
","","","-1","","","20","5516","2267","&#9826;","elianto","#f73b6a7A","-1","-1","1","0","[]","0","0","3","","","","","","","",""
"pit-trial","67","709795","0.0-2.0-14.1-3.1","battery-v0.2","","""event"",""trial"",""time""
""fullscreenenter"",""1"",""3111""
","
","
","""event"",""trial"",""time""
""fullscreenenter"",""1"",""3111""
","
","","","-1","","","20","5516","2267","&#9826;","elianto","#f73b6a7A","-1","-1","1","-10","[]","0","0","3","","","","","","","",""
"pit-trial","68","714667","0.0-2.0-14.1-4.1","battery-v0.2","","""event"",""trial"",""time""
""fullscreenenter"",""1"",""3111""
","
","
","""event"",""trial"",""time""
""fullscreenenter"",""1"",""3111""
","
","","","-1","","","20","5516","2267","&#9826;","elianto","#f73b6a7A","-1","-1","1","0","[]","0","0","3","","","","","","","",""
"pit-trial","69","719553","0.0-2.0-14.2-0.2","battery-v0.2","","""event"",""trial"",""time""
""fullscreenenter"",""1"",""3111""
","
","
","""event"",""trial"",""time""
""fullscreenenter"",""1"",""3111""
","
","","","-1","","","20","5516","2267","&#9826;","elianto","#f73b6a7A","-1","-1","1","0","[]","0","0","3","","","","","","","",""
"pit-trial","70","724430","0.0-2.0-14.2-1.2","battery-v0.2","","""event"",""trial"",""time""
""fullscreenenter"",""1"",""3111""
","
","
","""event"",""trial"",""time""
""fullscreenenter"",""1"",""3111""
","
","","","-1","","","20","5516","2267","&#9826;","elianto","#f73b6a7A","-1","-1","1","0","[]","0","0","3","","","","","","","",""
"pit-trial","71","729298","0.0-2.0-14.2-2.2","battery-v0.2","","""event"",""trial"",""time""
""fullscreenenter"",""1"",""3111""
","
","
","""event"",""trial"",""time""
""fullscreenenter"",""1"",""3111""
","
","","","-1","","","20","5516","2267","&#9826;","elianto","#f73b6a7A","-1","-1","1","0","[]","0","0","3","","","","","","","",""
"pit-trial","72","734165","0.0-2.0-14.2-3.2","battery-v0.2","","""event"",""trial"",""time""
""fullscreenenter"",""1"",""3111""
","
","
","""event"",""trial"",""time""
""fullscreenenter"",""1"",""3111""
","
","","","-1","","","20","5516","2267","&#9826;","elianto","#f73b6a7A","-1","-1","1","-10","[]","0","0","3","","","","","","","",""
"pit-trial","73","739040","0.0-2.0-14.2-4.2","battery-v0.2","","""event"",""trial"",""time""
""fullscreenenter"",""1"",""3111""
","
","
","""event"",""trial"",""time""
""fullscreenenter"",""1"",""3111""
","
","","","-1","","","20","5516","2267","&#9826;","elianto","#f73b6a7A","-1","-1","1","0","[]","0","0","3","","","","","","","",""
"pit-trial","74","743904","0.0-2.0-14.3-0.3","battery-v0.2","","""event"",""trial"",""time""
""fullscreenenter"",""1"",""3111""
","
","
","""event"",""trial"",""time""
""fullscreenenter"",""1"",""3111""
","
","","","-1","","","20","5516","2267","&#9826;","elianto","#f73b6a7A","-1","-1","1","0","[]","0","0","3","","","","","","","",""
"pit-trial","75","748775","0.0-2.0-14.3-1.3","battery-v0.2","","""event"",""trial"",""time""
""fullscreenenter"",""1"",""3111""
","
","
","""event"",""trial"",""time""
""fullscreenenter"",""1"",""3111""
","
","","","-1","","","20","5516","2267","&#9826;","elianto","#f73b6a7A","-1","-1","1","0","[]","0","0","3","","","","","","","",""
"pit-trial","76","753644","0.0-2.0-14.3-2.3","battery-v0.2","","""event"",""trial"",""time""
""fullscreenenter"",""1"",""3111""
","
","
","""event"",""trial"",""time""
""fullscreenenter"",""1"",""3111""
","
","","","-1","","","20","5516","2267","&#9826;","elianto","#f73b6a7A","-1","-1","1","0","[]","0","0","3","","","","","","","",""
"pit-trial","77","758520","0.0-2.0-14.3-3.3","battery-v0.2","","""event"",""trial"",""time""
""fullscreenenter"",""1"",""3111""
","
","
","""event"",""trial"",""time""
""fullscreenenter"",""1"",""3111""
","
","","","-1","","","20","5516","2267","&#9826;","elianto","#f73b6a7A","-1","-1","1","-10","[]","0","0","3","","","","","","","",""
"pit-trial","78","763393","0.0-2.0-14.3-4.3","battery-v0.2","","""event"",""trial"",""time""
""fullscreenenter"",""1"",""3111""
","
","
","""event"",""trial"",""time""
""fullscreenenter"",""1"",""3111""
","
","","","-1","","","20","5516","2267","&#9826;","elianto","#f73b6a7A","-1","-1","1","0","[]","0","0","3","","","","","","","",""
"call-function","79","763397","0.0-2.0-15.0","battery-v0.2","","""event"",""trial"",""time""
""fullscreenenter"",""1"",""3111""
","
","
","""event"",""trial"",""time""
""fullscreenenter"",""1"",""3111""
","
","","","","","","","","","","","","","","","","","","","","","","","","","","",""
"pit-instructions","80","803917","0.0-2.0-16.0","battery-v0.2","","""event"",""trial"",""time""
""fullscreenenter"",""1"",""3111""
","
","
","""event"",""trial"",""time""
""fullscreenenter"",""1"",""3111""
","
","","[{""page_index"":0,""viewing_time"":13387.399999976158},{""page_index"":1,""viewing_time"":13698.399999976158},{""page_index"":2,""viewing_time"":6242.400000035763},{""page_index"":3,""viewing_time"":7191.699999988079}]","40520.799999952316","","","","","","","","","","","","","","","","","","","","","","","",""
"pit-trial","81","807181","0.0-2.0-17.0-0.0","battery-v0.2","","""event"",""trial"",""time""
""fullscreenenter"",""1"",""3111""
","
","
","""event"",""trial"",""time""
""fullscreenenter"",""1"",""3111""
","
","","","390","","","20","5516","2267","&#9789;","elianto","#f73b6a7A"," "," ","1","0","[1248.300000011921]","1","0","4","","","","","","","",""
"pit-trial","82","810318","0.0-2.0-17.0-1.0","battery-v0.2","","""event"",""trial"",""time""
""fullscreenenter"",""1"",""3111""
","
","
","""event"",""trial"",""time""
""fullscreenenter"",""1"",""3111""
","
","","","270","","","20","5516","2267","&#9789;","elianto","#f73b6a7A"," "," ","1","0","[1123.5999999642372]","1","0","4","","","","","","","",""
"pit-trial","83","813412","0.0-2.0-17.0-2.0","battery-v0.2","","""event"",""trial"",""time""
""fullscreenenter"",""1"",""3111""
","
","
","""event"",""trial"",""time""
""fullscreenenter"",""1"",""3111""
","
","","","218.4000000357628","","","20","5516","2267","&#9789;","elianto","#f73b6a7A"," "," ","1","0","[1069.7999999523163]","1","0","4","","","","","","","",""
"pit-trial","84","816520","0.0-2.0-17.0-3.0","battery-v0.2","","""event"",""trial"",""time""
""fullscreenenter"",""1"",""3111""
","
","
","""event"",""trial"",""time""
""fullscreenenter"",""1"",""3111""
","
","","","242.10000002384186","","","20","5516","2267","&#9789;","elianto","#f73b6a7A"," "," ","1","-10","[1094.199999988079]","1","0","4","","","","","","","",""
"pit-trial","85","819699","0.0-2.0-17.0-4.0","battery-v0.2","","""event"",""trial"",""time""
""fullscreenenter"",""1"",""3111""
","
","
","""event"",""trial"",""time""
""fullscreenenter"",""1"",""3111""
","
","","","297.69999998807907","","","20","5516","2267","&#9789;","elianto","#f73b6a7A"," "," ","1","0","[1154.3999999761581]","1","0","4","","","","","","","",""
"pit-trial","86","822709","0.0-2.0-17.1-0.1","battery-v0.2","","""event"",""trial"",""time""
""fullscreenenter"",""1"",""3111""
","
","
","""event"",""trial"",""time""
""fullscreenenter"",""1"",""3111""
","
","","","131.60000002384186","","","20","5516","2267","&#9789;","elianto","#f73b6a7A"," "," ","1","0","[987.5]","1","0","4","","","","","","","",""
"pit-trial","87","825693","0.0-2.0-17.1-1.1","battery-v0.2","","""event"",""trial"",""time""
""fullscreenenter"",""1"",""3111""
","
","
","""event"",""trial"",""time""
""fullscreenenter"",""1"",""3111""
","
","","","122.5","","","20","5516","2267","&#9789;","elianto","#f73b6a7A"," "," ","1","0","[974.1999999880791]","1","0","4","","","","","","","",""
"pit-trial","88","828943","0.0-2.0-17.1-2.1","battery-v0.2","","""event"",""trial"",""time""
""fullscreenenter"",""1"",""3111""
","
","
","""event"",""trial"",""time""
""fullscreenenter"",""1"",""3111""
","
","","","375.4000000357628","","","20","5516","2267","&#9789;","elianto","#f73b6a7A"," "," ","1","0","[1227.5]","1","0","4","","","","","","","",""
"pit-trial","89","832046","0.0-2.0-17.1-3.1","battery-v0.2","","""event"",""trial"",""time""
""fullscreenenter"",""1"",""3111""
","
","
","""event"",""trial"",""time""
""fullscreenenter"",""1"",""3111""
","
","","","231.5999999642372","","","20","5516","2267","&#9789;","elianto","#f73b6a7A"," "," ","1","-10","[1081.9000000357628]","1","0","4","","","","","","","",""
"pit-trial","90","835098","0.0-2.0-17.1-4.1","battery-v0.2","","""event"",""trial"",""time""
""fullscreenenter"",""1"",""3111""
","
","
","""event"",""trial"",""time""
""fullscreenenter"",""1"",""3111""
","
","","","189.4000000357628","","","20","5516","2267","&#9789;","elianto","#f73b6a7A"," "," ","1","0","[1041.5]","1","0","4","","","","","","","",""
"pit-trial","91","838206","0.0-2.0-17.2-0.2","battery-v0.2","","""event"",""trial"",""time""
""fullscreenenter"",""1"",""3111""
","
","
","""event"",""trial"",""time""
""fullscreenenter"",""1"",""3111""
","
","","","239.80000001192093","","","20","5516","2267","&#9789;","elianto","#f73b6a7A"," "," ","1","0","[1090.699999988079]","1","0","4","","","","","","","",""
"pit-trial","92","841272","0.0-2.0-17.2-1.2","battery-v0.2","","""event"",""trial"",""time""
""fullscreenenter"",""1"",""3111""
","
","
","""event"",""trial"",""time""
""fullscreenenter"",""1"",""3111""
","
","","","200.30000001192093","","","20","5516","2267","&#9789;","elianto","#f73b6a7A"," "," ","1","0","[1056.7000000476837]","1","0","4","","","","","","","",""
"pit-trial","93","844379","0.0-2.0-17.2-2.2","battery-v0.2","","""event"",""trial"",""time""
""fullscreenenter"",""1"",""3111""
","
","
","""event"",""trial"",""time""
""fullscreenenter"",""1"",""3111""
","
","","","242.5","","","20","5516","2267","&#9789;","elianto","#f73b6a7A"," "," ","1","0","[1094.3999999761581]","1","0","4","","","","","","","",""
"pit-trial","94","847437","0.0-2.0-17.2-3.2","battery-v0.2","","""event"",""trial"",""time""
""fullscreenenter"",""1"",""3111""
","
","
","""event"",""trial"",""time""
""fullscreenenter"",""1"",""3111""
","
","","","188.60000002384186","","","20","5516","2267","&#9789;","elianto","#f73b6a7A"," "," ","1","-10","[1044.9000000357628]","1","0","4","","","","","","","",""
"pit-trial","95","850481","0.0-2.0-17.2-4.2","battery-v0.2","","""event"",""trial"",""time""
""fullscreenenter"",""1"",""3111""
","
","
","""event"",""trial"",""time""
""fullscreenenter"",""1"",""3111""
","
","","","176.19999998807907","","","20","5516","2267","&#9789;","elianto","#f73b6a7A"," "," ","1","0","[1031.8999999761581]","1","0","4","","","","","","","",""
"pit-trial","96","853562","0.0-2.0-17.3-0.3","battery-v0.2","","""event"",""trial"",""time""
""fullscreenenter"",""1"",""3111""
","
","
","""event"",""trial"",""time""
""fullscreenenter"",""1"",""3111""
","
","","","212.70000004768372","","","20","5516","2267","&#9789;","elianto","#f73b6a7A"," "," ","1","0","[1064.1000000238419]","1","0","4","","","","","","","",""
"pit-trial","97","856582","0.0-2.0-17.3-1.3","battery-v0.2","","""event"",""trial"",""time""
""fullscreenenter"",""1"",""3111""
","
","
","""event"",""trial"",""time""
""fullscreenenter"",""1"",""3111""
","
","","","156.80000001192093","","","20","5516","2267","&#9789;","elianto","#f73b6a7A"," "," ","1","0","[1008.3999999761581]","1","0","4","","","","","","","",""
"pit-trial","98","859581","0.0-2.0-17.3-2.3","battery-v0.2","","""event"",""trial"",""time""
""fullscreenenter"",""1"",""3111""
","
","
","""event"",""trial"",""time""
""fullscreenenter"",""1"",""3111""
","
","","","129.30000001192093","","","20","5516","2267","&#9789;","elianto","#f73b6a7A"," "," ","1","0","[981.3000000119209]","1","0","4","","","","","","","",""
"pit-trial","99","862606","0.0-2.0-17.3-3.3","battery-v0.2","","""event"",""trial"",""time""
""fullscreenenter"",""1"",""3111""
","
","
","""event"",""trial"",""time""
""fullscreenenter"",""1"",""3111""
","
","","","153.79999995231628","","","20","5516","2267","&#9789;","elianto","#f73b6a7A"," "," ","1","-10","[1004.4000000357628]","1","0","4","","","","","","","",""
"pit-trial","100","865653","0.0-2.0-17.3-4.3","battery-v0.2","","""event"",""trial"",""time""
""fullscreenenter"",""1"",""3111""
","
","
","""event"",""trial"",""time""
""fullscreenenter"",""1"",""3111""
","
","","","178.69999998807907","","","20","5516","2267","&#9789;","elianto","#f73b6a7A"," "," ","1","0","[1035.199999988079]","1","0","4","","","","","","","",""
"call-function","101","865656","0.0-2.0-18.0","battery-v0.2","","""event"",""trial"",""time""
""fullscreenenter"",""1"",""3111""
","
","
","""event"",""trial"",""time""
""fullscreenenter"",""1"",""3111""
","
","","","","","","","","","","","","","","","","","","","","","","","","","","",""
"pit-instructions","102","960370","0.0-2.0-19.0","battery-v0.2","","""event"",""trial"",""time""
""fullscreenenter"",""1"",""3111""
","
","
","""event"",""trial"",""time""
""fullscreenenter"",""1"",""3111""
","
","","[{""page_index"":0,""viewing_time"":12535.5},{""page_index"":1,""viewing_time"":14072},{""page_index"":2,""viewing_time"":9597.099999964237},{""page_index"":3,""viewing_time"":15157.5},{""page_index"":4,""viewing_time"":9228.699999988079},{""page_index"":5,""viewing_time"":8970.5},{""page_index"":6,""viewing_time"":4302.800000011921},{""page_index"":7,""viewing_time"":14228},{""page_index"":8,""viewing_time"":6619.400000035763}]","94712.29999995232","","","","","","","","","","","","","","","","","","","","","","","",""
"pit-comprehension","103","965144","0.0-2.0-20.0-0.0","battery-v0.2","","""event"",""trial"",""time""
""fullscreenenter"",""1"",""3111""
","
","
","""event"",""trial"",""time""
""fullscreenenter"",""1"",""3111""
","
","","","4765.699999988079","[""SPACE""]","0","20","5516","2267","","","","","","","","","","","","","","","","","","",""
"pit-instructions","104","974475","0.0-2.0-20.0-1.0","battery-v0.2","","""event"",""trial"",""time""
""fullscreenenter"",""1"",""3111""
","
","
","""event"",""trial"",""time""
""fullscreenenter"",""1"",""3111""
","
","","[{""page_index"":0,""viewing_time"":9248.900000035763}]","9249.700000047684","","","","","","","","","","","","","","","","","","","","","","","",""
"pit-comprehension","105","985306","0.0-2.0-21.0-0.0","battery-v0.2","","""event"",""trial"",""time""
""fullscreenenter"",""1"",""3111""
","
","
","""event"",""trial"",""time""
""fullscreenenter"",""1"",""3111""
","
","","","10820.300000011921","[""10""]","0","20","5516","2267","","","","","","","","","","","","","","","","","","",""
"pit-instructions","106","989390","0.0-2.0-21.0-1.0","battery-v0.2","","""event"",""trial"",""time""
""fullscreenenter"",""1"",""3111""
","
","
","""event"",""trial"",""time""
""fullscreenenter"",""1"",""3111""
","
","","[{""page_index"":0,""viewing_time"":4003.5}]","4004.300000011921","","","","","","","","","","","","","","","","","","","","","","","",""
"pit-comprehension","107","999409","0.0-2.0-22.0-0.0","battery-v0.2","","""event"",""trial"",""time""
""fullscreenenter"",""1"",""3111""
","
","
","""event"",""trial"",""time""
""fullscreenenter"",""1"",""3111""
","
","","","10009.5","[""0""]","0","20","5516","2267","","","","","","","","","","","","","","","","","","",""
"pit-instructions","108","1001628","0.0-2.0-22.0-1.0","battery-v0.2","","""event"",""trial"",""time""
""fullscreenenter"",""1"",""3111""
","
","
","""event"",""trial"",""time""
""fullscreenenter"",""1"",""3111""
","
","","[{""page_index"":0,""viewing_time"":2139.7000000476837}]","2140.5","","","","","","","","","","","","","","","","","","","","","","","",""
"pit-comprehension","109","1010398","0.0-2.0-23.0-0.0","battery-v0.2","","""event"",""trial"",""time""
""fullscreenenter"",""1"",""3111""
","
","
","""event"",""trial"",""time""
""fullscreenenter"",""1"",""3111""
","
","","","8759.600000023842","[""True""]","0","20","5516","2267","","","","","","","","","","","","","","","","","","",""
"pit-instructions","110","1013245","0.0-2.0-23.0-1.0","battery-v0.2","","""event"",""trial"",""time""
""fullscreenenter"",""1"",""3111""
","
","
","""event"",""trial"",""time""
""fullscreenenter"",""1"",""3111""
","
","","[{""page_index"":0,""viewing_time"":2767.199999988079}]","2767.900000035763","","","","","","","","","","","","","","","","","","","","","","","",""
"pit-comprehension","111","1021558","0.0-2.0-24.0-0.0","battery-v0.2","","""event"",""trial"",""time""
""fullscreenenter"",""1"",""3111""
","
","
","""event"",""trial"",""time""
""fullscreenenter"",""1"",""3111""
","
","","","8302.600000023842","[""True""]","0","20","5516","2267","","","","","","","","","","","","","","","","","","",""
"pit-instructions","112","1024469","0.0-2.0-24.0-1.0","battery-v0.2","","""event"",""trial"",""time""
""fullscreenenter"",""1"",""3111""
","
","
","""event"",""trial"",""time""
""fullscreenenter"",""1"",""3111""
","
","","[{""page_index"":0,""viewing_time"":2822.699999988079}]","2823.199999988079","","","","","","","","","","","","","","","","","","","","","","","",""
"pit-comprehension","113","1031080","0.0-2.0-25.0-0.0","battery-v0.2","","""event"",""trial"",""time""
""fullscreenenter"",""1"",""3111""
","
","
","""event"",""trial"",""time""
""fullscreenenter"",""1"",""3111""
","
","","","6605","[""True""]","0","20","5516","2267","","","","","","","","","","","","","","","","","","",""
"pit-instructions","114","1034698","0.0-2.0-25.0-1.0","battery-v0.2","","""event"",""trial"",""time""
""fullscreenenter"",""1"",""3111""
","
","
","""event"",""trial"",""time""
""fullscreenenter"",""1"",""3111""
","
","","[{""page_index"":0,""viewing_time"":3539.300000011921}]","3540.099999964237","","","","","","","","","","","","","","","","","","","","","","","",""
"pit-comprehension","115","1039486","0.0-2.0-26.0-0.0","battery-v0.2","","""event"",""trial"",""time""
""fullscreenenter"",""1"",""3111""
","
","
","""event"",""trial"",""time""
""fullscreenenter"",""1"",""3111""
","
","","","4780.5","[""False""]","0","20","5516","2267","","","","","","","","","","","","","","","","","","",""
"pit-instructions","116","1041788","0.0-2.0-26.0-1.0","battery-v0.2","","""event"",""trial"",""time""
""fullscreenenter"",""1"",""3111""
","
","
","""event"",""trial"",""time""
""fullscreenenter"",""1"",""3111""
","
","","[{""page_index"":0,""viewing_time"":2222.5}]","2223.400000035763","","","","","","","","","","","","","","","","","","","","","","","",""
"pit-instructions","117","1066857","0.0-3.0","battery-v0.2","","""event"",""trial"",""time""
""fullscreenenter"",""1"",""3111""
","
","
","""event"",""trial"",""time""
""fullscreenenter"",""1"",""3111""
","
","","[{""page_index"":0,""viewing_time"":9714.5},{""page_index"":1,""viewing_time"":5840.900000035763},{""page_index"":2,""viewing_time"":9507.399999976158}]","25063.5","","","","","","","","","","","","","","","","","","","","","","","",""
"pit-trial","118","1070524","0.0-4.0","battery-v0.2","","""event"",""trial"",""time""
""fullscreenenter"",""1"",""3111""
","
","
","""event"",""trial"",""time""
""fullscreenenter"",""1"",""3111""
","
","","","784.1000000238419","","","20","5516","2267","&#9752;","elianto","#f73b6a7A"," "," ","1","-10","[1642.800000011921]","1","1","","","5516","1","3","3","lose","go","1"
"pit-trial","119","1074057","0.0-5.0","battery-v0.2","","""event"",""trial"",""time""
""fullscreenenter"",""1"",""3111""
","
","
","""event"",""trial"",""time""
""fullscreenenter"",""1"",""3111""
","
","","","666.3999999761581","","","20","5516","2267","&#9733;","elianto","#3366ff99","-1"," ","0","0","[1516.9000000357628]","1","1","","","5516","2","2","2","win","no-go","0"
"pit-trial","120","1077937","0.0-6.0","battery-v0.2","","""event"",""trial"",""time""
""fullscreenenter"",""1"",""3111""
","
","
","""event"",""trial"",""time""
""fullscreenenter"",""1"",""3111""
","
","","","1017.1999999880791","","","20","5516","2267","&#9728;","elianto","#f73b6a7A","-1"," ","0","0","[1869.5]","1","1","","","5516","3","0","4","lose","no-go","1"
"pit-trial","121","1081676","0.0-7.0","battery-v0.2","","""event"",""trial"",""time""
""fullscreenenter"",""1"",""3111""
","
","
","""event"",""trial"",""time""
""fullscreenenter"",""1"",""3111""
","
","","","863.8000000119209","","","20","5516","2267","&#9730;","elianto","#3366ff99"," "," ","1","+10","[1722.5]","1","1","","","5516","4","1","1","win","go","0"
"pit-trial","122","1086544","0.0-8.0","battery-v0.2","","""event"",""trial"",""time""
""fullscreenenter"",""1"",""3111""
","
","
","""event"",""trial"",""time""
""fullscreenenter"",""1"",""3111""
","
","","","-1","","","20","5516","2267","&#9730;","elianto","#3366ff99"," ","-1","0","0","[3770.100000023842]","1","1","","","5516","5","1","1","win","go","0"
"pit-trial","123","1091428","0.0-9.0","battery-v0.2","","""event"",""trial"",""time""
""fullscreenenter"",""1"",""3111""
","
","
","""event"",""trial"",""time""
""fullscreenenter"",""1"",""3111""
","
","","","-1","","","20","5516","2267","&#9752;","elianto","#f73b6a7A"," ","-1","0","-10","[]","0","1","","","5516","6","3","3","lose","go","0"
"pit-trial","124","1095067","0.0-10.0","battery-v0.2","","""event"",""trial"",""time""
""fullscreenenter"",""1"",""3111""
","
","
","""event"",""trial"",""time""
""fullscreenenter"",""1"",""3111""
","
","","","762.1999999880791","","","20","5516","2267","&#9728;","elianto","#f73b6a7A","-1"," ","0","-10","[1613.6000000238419]","1","1","","","5516","7","0","4","lose","no-go","0"
"pit-trial","125","1098781","0.0-11.0","battery-v0.2","","""event"",""trial"",""time""
""fullscreenenter"",""1"",""3111""
","
","
","""event"",""trial"",""time""
""fullscreenenter"",""1"",""3111""
","
","","","848","","","20","5516","2267","&#9733;","elianto","#3366ff99","-1"," ","0","0","[1701.7999999523163]","1","1","","","5516","8","2","2","win","no-go","0"
"pit-trial","126","1103661","0.0-12.0","battery-v0.2","","""event"",""trial"",""time""
""fullscreenenter"",""1"",""3111""
","
","
","""event"",""trial"",""time""
""fullscreenenter"",""1"",""3111""
","
","","","-1","","","20","5516","2267","&#9733;","elianto","#3366ff99","-1","-1","1","+10","[]","0","1","","","5516","9","2","2","win","no-go","0"
"pit-trial","127","1108538","0.0-13.0","battery-v0.2","","""event"",""trial"",""time""
""fullscreenenter"",""1"",""3111""
","
","
","""event"",""trial"",""time""
""fullscreenenter"",""1"",""3111""
","
","","","-1","","","20","5516","2267","&#9728;","elianto","#f73b6a7A","-1","-1","1","0","[]","0","1","","","5516","10","0","4","lose","no-go","0"
"pit-trial","128","1112351","0.0-14.0","battery-v0.2","","""event"",""trial"",""time""
""fullscreenenter"",""1"",""3111""
","
","
","""event"",""trial"",""time""
""fullscreenenter"",""1"",""3111""
","
","","","949.5999999642372","","","20","5516","2267","&#9730;","elianto","#3366ff99"," "," ","1","+10","[1806.7000000476837]","1","1","","","5516","11","1","1","win","go","0"
"pit-trial","129","1116686","0.0-15.0","battery-v0.2","","""event"",""trial"",""time""
""fullscreenenter"",""1"",""3111""
","
","
","""event"",""trial"",""time""
""fullscreenenter"",""1"",""3111""
","
","","","1467","","","20","5516","2267","&#9752;","elianto","#f73b6a7A"," "," ","1","0","[2318.7999999523163]","1","1","","","5516","12","3","3","lose","go","0"
"pit-trial","130","1120318","0.0-16.0","battery-v0.2","","""event"",""trial"",""time""
""fullscreenenter"",""1"",""3111""
","
","
","""event"",""trial"",""time""
""fullscreenenter"",""1"",""3111""
","
","","","763.1000000238419","","","20","5516","2267","&#9730;","elianto","#3366ff99"," "," ","1","0","[1618.8999999761581]","1","1","","","5516","13","1","1","win","go","1"
"pit-trial","131","1124599","0.0-17.0","battery-v0.2","","""event"",""trial"",""time""
""fullscreenenter"",""1"",""3111""
","
","
","""event"",""trial"",""time""
""fullscreenenter"",""1"",""3111""
","
","","","1416.800000011921","","","20","5516","2267","&#9752;","elianto","#f73b6a7A"," "," ","1","0","[2268.100000023842]","1","1","","","5516","14","3","3","lose","go","0"
"pit-trial","132","1129470","0.0-18.0","battery-v0.2","","""event"",""trial"",""time""
""fullscreenenter"",""1"",""3111""
","
","
","""event"",""trial"",""time""
""fullscreenenter"",""1"",""3111""
","
","","","-1","","","20","5516","2267","&#9733;","elianto","#3366ff99","-1","-1","1","+10","[]","0","1","","","5516","15","2","2","win","no-go","0"
"pit-trial","133","1134352","0.0-19.0","battery-v0.2","","""event"",""trial"",""time""
""fullscreenenter"",""1"",""3111""
","
","
","""event"",""trial"",""time""
""fullscreenenter"",""1"",""3111""
","
","","","-1","","","20","5516","2267","&#9728;","elianto","#f73b6a7A","-1","-1","1","0","[]","0","1","","","5516","16","0","4","lose","no-go","0"
"pit-trial","134","1138146","0.0-20.0","battery-v0.2","","""event"",""trial"",""time""
""fullscreenenter"",""1"",""3111""
","
","
","""event"",""trial"",""time""
""fullscreenenter"",""1"",""3111""
","
","","","931","","","20","5516","2267","&#9733;","elianto","#3366ff99","-1"," ","0","0","[1782.5]","1","1","","","5516","17","2","2","win","no-go","0"
"pit-trial","135","1141806","0.0-21.0","battery-v0.2","","""event"",""trial"",""time""
""fullscreenenter"",""1"",""3111""
","
","
","""event"",""trial"",""time""
""fullscreenenter"",""1"",""3111""
","
","","","788.2000000476837","","","20","5516","2267","&#9730;","elianto","#3366ff99"," "," ","1","+10","[1645.199999988079]","1","1","","","5516","18","1","1","win","go","0"
"pit-trial","136","1146364","0.0-22.0","battery-v0.2","","""event"",""trial"",""time""
""fullscreenenter"",""1"",""3111""
","
","
","""event"",""trial"",""time""
""fullscreenenter"",""1"",""3111""
","
","","","1687","","","20","5516","2267","&#9752;","elianto","#f73b6a7A"," "," ","1","0","[2544.800000011921]","1","1","","","5516","19","3","3","lose","go","0"
"pit-trial","137","1151239","0.0-23.0","battery-v0.2","","""event"",""trial"",""time""
""fullscreenenter"",""1"",""3111""
","
","
","""event"",""trial"",""time""
""fullscreenenter"",""1"",""3111""
","
","","","-1","","","20","5516","2267","&#9728;","elianto","#f73b6a7A","-1","-1","1","0","[]","0","1","","","5516","20","0","4","lose","no-go","0"
"pit-instructions","138","1167260","0.0-24.0","battery-v0.2","","""event"",""trial"",""time""
""fullscreenenter"",""1"",""3111""
","
","
","""event"",""trial"",""time""
""fullscreenenter"",""1"",""3111""
","
","","[{""page_index"":0,""viewing_time"":5723.099999964237},{""page_index"":1,""viewing_time"":10293.700000047684}]","16017.5","","","","","","","","","","","","","","","","","","","","","","","",""
"pit-trial","139","1170806","0.0-25.0","battery-v0.2","","""event"",""trial"",""time""
""fullscreenenter"",""1"",""3111""
","
","
","""event"",""trial"",""time""
""fullscreenenter"",""1"",""3111""
","
","","","658.1999999880791","","","20","5516","2267","n","elianto","#f73b6a7A","-1"," ","0","0","[1512.199999988079]","1","2","","","5516","21","0","4","lose","no-go","1"
"pit-trial","140","1174509","0.0-26.0","battery-v0.2","","""event"",""trial"",""time""
""fullscreenenter"",""1"",""3111""
","
","
","""event"",""trial"",""time""
""fullscreenenter"",""1"",""3111""
","
","","","815.2000000476837","","","20","5516","2267","f","elianto","#3366ff99"," "," ","1","0","[1676.5]","1","2","","","5516","22","1","1","win","go","1"
"pit-trial","141","1179389","0.0-27.0","battery-v0.2","","""event"",""trial"",""time""
""fullscreenenter"",""1"",""3111""
","
","
","""event"",""trial"",""time""
""fullscreenenter"",""1"",""3111""
","
","","","-1","","","20","5516","2267","t","elianto","#f73b6a7A","-1","-1","1","0","[]","0","2","","","5516","23","2","4","lose","no-go","0"
"pit-trial","142","1183227","0.0-28.0","battery-v0.2","","""event"",""trial"",""time""
""fullscreenenter"",""1"",""3111""
","
","
","""event"",""trial"",""time""
""fullscreenenter"",""1"",""3111""
","
","","","977.1000000238419","","","20","5516","2267","b","elianto","#f73b6a7A"," "," ","1","-10","[1829.3999999761581]","1","2","","","5516","24","3","3","lose","go","1"
"pit-trial","143","1188119","0.0-29.0","battery-v0.2","","""event"",""trial"",""time""
""fullscreenenter"",""1"",""3111""
","
","
","""event"",""trial"",""time""
""fullscreenenter"",""1"",""3111""
","
","","","-1","","","20","5516","2267","t","elianto","#f73b6a7A","-1","-1","1","0","[]","0","2","","","5516","25","2","4","lose","no-go","0"
"pit-trial","144","1192984","0.0-30.0","battery-v0.2","","""event"",""trial"",""time""
""fullscreenenter"",""1"",""3111""
","
","
","""event"",""trial"",""time""
""fullscreenenter"",""1"",""3111""
","
","","","-1","","","20","5516","2267","b","elianto","#f73b6a7A"," ","-1","0","-10","[]","0","2","","","5516","26","3","3","lose","go","0"
"pit-trial","145","1196680","0.0-31.0","battery-v0.2","","""event"",""trial"",""time""
""fullscreenenter"",""1"",""3111""
","
","
","""event"",""trial"",""time""
""fullscreenenter"",""1"",""3111""
","
","","","832.6000000238419","","","20","5516","2267","f","elianto","#3366ff99"," "," ","1","+10","[1689.6000000238419]","1","2","","","5516","27","1","1","win","go","0"
"pit-trial","146","1201554","0.0-32.0","battery-v0.2","","""event"",""trial"",""time""
""fullscreenenter"",""1"",""3111""
","
","
","""event"",""trial"",""time""
""fullscreenenter"",""1"",""3111""
","
","","","-1","","","20","5516","2267","n","elianto","#f73b6a7A","-1","-1","1","0","[]","0","2","","","5516","28","0","4","lose","no-go","0"
"pit-trial","147","1205109","0.0-33.0","battery-v0.2","","""event"",""trial"",""time""
""fullscreenenter"",""1"",""3111""
","
","
","""event"",""trial"",""time""
""fullscreenenter"",""1"",""3111""
","
","","","681.3000000119209","","","20","5516","2267","f","elianto","#3366ff99"," "," ","1","+10","[1538.9000000357628]","1","2","","","5516","29","1","1","win","go","0"
"pit-trial","148","1209980","0.0-34.0","battery-v0.2","","""event"",""trial"",""time""
""fullscreenenter"",""1"",""3111""
","
","
","""event"",""trial"",""time""
""fullscreenenter"",""1"",""3111""
","
","","","-1","","","20","5516","2267","t","elianto","#f73b6a7A","-1","-1","1","0","[]","0","2","","","5516","30","2","4","lose","no-go","0"
"pit-trial","149","1214853","0.0-35.0","battery-v0.2","","""event"",""trial"",""time""
""fullscreenenter"",""1"",""3111""
","
","
","""event"",""trial"",""time""
""fullscreenenter"",""1"",""3111""
","
","","","-1","","","20","5516","2267","b","elianto","#f73b6a7A"," ","-1","0","-10","[]","0","2","","","5516","31","3","3","lose","go","0"
"pit-trial","150","1219350","0.0-36.0","battery-v0.2","","""event"",""trial"",""time""
""fullscreenenter"",""1"",""3111""
","
","
","""event"",""trial"",""time""
""fullscreenenter"",""1"",""3111""
","
","","","1629.1000000238419","","","20","5516","2267","n","elianto","#f73b6a7A","-1"," ","0","-10","[2480.2999999523163]","1","2","","","5516","32","0","4","lose","no-go","0"
"pit-trial","151","1224218","0.0-37.0","battery-v0.2","","""event"",""trial"",""time""
""fullscreenenter"",""1"",""3111""
","
","
","""event"",""trial"",""time""
""fullscreenenter"",""1"",""3111""
","
","","","-1","","","20","5516","2267","n","elianto","#f73b6a7A","-1","-1","1","0","[]","0","2","","","5516","33","0","4","lose","no-go","0"
"pit-trial","152","1227787","0.0-38.0","battery-v0.2","","""event"",""trial"",""time""
""fullscreenenter"",""1"",""3111""
","
","
","""event"",""trial"",""time""
""fullscreenenter"",""1"",""3111""
","
","","","704.5","","","20","5516","2267","f","elianto","#3366ff99"," "," ","1","+10","[1555.199999988079]","1","2","","","5516","34","1","1","win","go","0"
"pit-trial","153","1231373","0.0-39.0","battery-v0.2","","""event"",""trial"",""time""
""fullscreenenter"",""1"",""3111""
","
","
","""event"",""trial"",""time""
""fullscreenenter"",""1"",""3111""
","
","","","714.4000000357628","","","20","5516","2267","b","elianto","#f73b6a7A"," "," ","1","-10","[1570.5]","1","2","","","5516","35","3","3","lose","go","1"
"pit-trial","154","1235730","0.0-40.0","battery-v0.2","","""event"",""trial"",""time""
""fullscreenenter"",""1"",""3111""
","
","
","""event"",""trial"",""time""
""fullscreenenter"",""1"",""3111""
","
","","","1492.6000000238419","","","20","5516","2267","t","elianto","#f73b6a7A","-1"," ","0","-10","[2342.899999976158]","1","2","","","5516","36","2","4","lose","no-go","0"
"pit-trial","155","1240604","0.0-41.0","battery-v0.2","","""event"",""trial"",""time""
""fullscreenenter"",""1"",""3111""
","
","
","""event"",""trial"",""time""
""fullscreenenter"",""1"",""3111""
","
","","","-1","","","20","5516","2267","n","elianto","#f73b6a7A","-1","-1","1","0","[]","0","2","","","5516","37","0","4","lose","no-go","0"
"pit-trial","156","1245476","0.0-42.0","battery-v0.2","","""event"",""trial"",""time""
""fullscreenenter"",""1"",""3111""
","
","
","""event"",""trial"",""time""
""fullscreenenter"",""1"",""3111""
","
","","","-1","","","20","5516","2267","t","elianto","#f73b6a7A","-1","-1","1","-10","[]","0","2","","","5516","38","2","4","lose","no-go","1"
"pit-trial","157","1249778","0.0-43.0","battery-v0.2","","""event"",""trial"",""time""
""fullscreenenter"",""1"",""3111""
","
","
","""event"",""trial"",""time""
""fullscreenenter"",""1"",""3111""
","
","","","1436.1000000238419","","","20","5516","2267","b","elianto","#f73b6a7A"," "," ","1","0","[2286.699999988079]","1","2","","","5516","39","3","3","lose","go","0"
"pit-trial","158","1253370","0.0-44.0","battery-v0.2","","""event"",""trial"",""time""
""fullscreenenter"",""1"",""3111""
","
","
","""event"",""trial"",""time""
""fullscreenenter"",""1"",""3111""
","
","","","731.1000000238419","","","20","5516","2267","f","elianto","#3366ff99"," "," ","1","0","[1582]","1","2","","","5516","40","1","1","win","go","1"
"pit-trial","159","1258242","0.0-45.0","battery-v0.2","","""event"",""trial"",""time""
""fullscreenenter"",""1"",""3111""
","
","
","""event"",""trial"",""time""
""fullscreenenter"",""1"",""3111""
","
","","","-1","","","20","5516","2267","n","elianto","#f73b6a7A","-1","-1","1","0","[]","0","2","","","5516","41","0","4","lose","no-go","0"
"pit-trial","160","1262006","0.0-46.0","battery-v0.2","","""event"",""trial"",""time""
""fullscreenenter"",""1"",""3111""
","
","
","""event"",""trial"",""time""
""fullscreenenter"",""1"",""3111""
","
","","","893.8000000119209","","","20","5516","2267","b","elianto","#f73b6a7A"," "," ","1","-10","[1750.2999999523163]","1","2","","","5516","42","3","3","lose","go","1"
"pit-trial","161","1265622","0.0-47.0","battery-v0.2","","""event"",""trial"",""time""
""fullscreenenter"",""1"",""3111""
","
","
","""event"",""trial"",""time""
""fullscreenenter"",""1"",""3111""
","
","","","749.1000000238419","","","20","5516","2267","f","elianto","#3366ff99"," "," ","1","+10","[1605.699999988079]","1","2","","","5516","43","1","1","win","go","0"
"pit-trial","162","1270493","0.0-48.0","battery-v0.2","","""event"",""trial"",""time""
""fullscreenenter"",""1"",""3111""
","
","
","""event"",""trial"",""time""
""fullscreenenter"",""1"",""3111""
","
","","","-1","","","20","5516","2267","t","elianto","#f73b6a7A","-1","-1","1","0","[]","0","2","","","5516","44","2","4","lose","no-go","0"
"pit-trial","163","1274360","0.0-49.0","battery-v0.2","","""event"",""trial"",""time""
""fullscreenenter"",""1"",""3111""
","
","
","""event"",""trial"",""time""
""fullscreenenter"",""1"",""3111""
","
","","","998.1999999880791","","","20","5516","2267","c","elianto","#3366ff99","-1"," ","0","0","[1855.3999999761581]","1","2","","","5516","45","4","2","win","no-go","0"
"pit-trial","164","1279231","0.0-50.0","battery-v0.2","","""event"",""trial"",""time""
""fullscreenenter"",""1"",""3111""
","
","
","""event"",""trial"",""time""
""fullscreenenter"",""1"",""3111""
","
","","","-1","","","20","5516","2267","t","elianto","#f73b6a7A","-1","-1","1","0","[]","0","2","","","5516","46","2","4","lose","no-go","0"
"pit-trial","165","1284099","0.0-51.0","battery-v0.2","","""event"",""trial"",""time""
""fullscreenenter"",""1"",""3111""
","
","
","""event"",""trial"",""time""
""fullscreenenter"",""1"",""3111""
","
","","","-1","","","20","5516","2267","b","elianto","#f73b6a7A"," ","-1","0","-10","[]","0","2","","","5516","47","3","3","lose","go","0"
"pit-trial","166","1288969","0.0-52.0","battery-v0.2","","""event"",""trial"",""time""
""fullscreenenter"",""1"",""3111""
","
","
","""event"",""trial"",""time""
""fullscreenenter"",""1"",""3111""
","
","","","-1","","","20","5516","2267","n","elianto","#f73b6a7A","-1","-1","1","0","[]","0","2","","","5516","48","0","4","lose","no-go","0"
"pit-trial","167","1292732","0.0-53.0","battery-v0.2","","""event"",""trial"",""time""
""fullscreenenter"",""1"",""3111""
","
","
","""event"",""trial"",""time""
""fullscreenenter"",""1"",""3111""
","
","","","891.2000000476837","","","20","5516","2267","f","elianto","#3366ff99"," "," ","1","+10","[1747.6000000238419]","1","2","","","5516","49","1","1","win","go","0"
"pit-trial","168","1297605","0.0-54.0","battery-v0.2","","""event"",""trial"",""time""
""fullscreenenter"",""1"",""3111""
","
","
","""event"",""trial"",""time""
""fullscreenenter"",""1"",""3111""
","
","","","-1","","","20","5516","2267","b","elianto","#f73b6a7A"," ","-1","0","-10","[]","0","2","","","5516","50","3","3","lose","go","0"
"pit-trial","169","1301122","0.0-55.0","battery-v0.2","","""event"",""trial"",""time""
""fullscreenenter"",""1"",""3111""
","
","
","""event"",""trial"",""time""
""fullscreenenter"",""1"",""3111""
","
","","","650.5","","","20","5516","2267","c","elianto","#3366ff99","-1"," ","0","0","[1506.5]","1","2","","","5516","51","4","2","win","no-go","0"
"pit-trial","170","1305995","0.0-56.0","battery-v0.2","","""event"",""trial"",""time""
""fullscreenenter"",""1"",""3111""
","
","
","""event"",""trial"",""time""
""fullscreenenter"",""1"",""3111""
","
","","","-1","","","20","5516","2267","n","elianto","#f73b6a7A","-1","-1","1","0","[]","0","2","","","5516","52","0","4","lose","no-go","0"
"pit-trial","171","1310870","0.0-57.0","battery-v0.2","","""event"",""trial"",""time""
""fullscreenenter"",""1"",""3111""
","
","
","""event"",""trial"",""time""
""fullscreenenter"",""1"",""3111""
","
","","","-1","","","20","5516","2267","t","elianto","#f73b6a7A","-1","-1","1","0","[]","0","2","","","5516","53","2","4","lose","no-go","0"
"pit-trial","172","1315743","0.0-58.0","battery-v0.2","","""event"",""trial"",""time""
""fullscreenenter"",""1"",""3111""
","
","
","""event"",""trial"",""time""
""fullscreenenter"",""1"",""3111""
","
","","","-1","","","20","5516","2267","n","elianto","#f73b6a7A","-1","-1","1","0","[]","0","2","","","5516","54","0","4","lose","no-go","0"
"pit-trial","173","1319628","0.0-59.0","battery-v0.2","","""event"",""trial"",""time""
""fullscreenenter"",""1"",""3111""
","
","
","""event"",""trial"",""time""
""fullscreenenter"",""1"",""3111""
","
","","","1010","","","20","5516","2267","c","elianto","#3366ff99","-1"," ","0","0","[1866.8999999761581]","1","2","","","5516","55","4","2","win","no-go","0"
"pit-trial","174","1323505","0.0-60.0","battery-v0.2","","""event"",""trial"",""time""
""fullscreenenter"",""1"",""3111""
","
","
","""event"",""trial"",""time""
""fullscreenenter"",""1"",""3111""
","
","","","1013.8000000119209","","","20","5516","2267","f","elianto","#3366ff99"," "," ","1","+10","[1863.8999999761581]","1","2","","","5516","56","1","1","win","go","0"
"pit-trial","175","1326951","0.0-61.0","battery-v0.2","","""event"",""trial"",""time""
""fullscreenenter"",""1"",""3111""
","
","
","""event"",""trial"",""time""
""fullscreenenter"",""1"",""3111""
","
","","","586.7999999523163","","","20","5516","2267","f","elianto","#3366ff99"," "," ","1","+10","[1437.4000000357628]","1","2","","","5516","57","1","1","win","go","0"
"pit-trial","176","1331826","0.0-62.0","battery-v0.2","","""event"",""trial"",""time""
""fullscreenenter"",""1"",""3111""
","
","
","""event"",""trial"",""time""
""fullscreenenter"",""1"",""3111""
","
","","","-1","","","20","5516","2267","c","elianto","#3366ff99","-1","-1","1","+10","[]","0","2","","","5516","58","4","2","win","no-go","0"
"pit-trial","177","1336155","0.0-63.0","battery-v0.2","","""event"",""trial"",""time""
""fullscreenenter"",""1"",""3111""
","
","
","""event"",""trial"",""time""
""fullscreenenter"",""1"",""3111""
","
","","","1467.8999999761581","","","20","5516","2267","b","elianto","#f73b6a7A"," "," ","1","0","[2322.099999964237]","1","2","","","5516","59","3","3","lose","go","0"
"pit-trial","178","1341025","0.0-64.0","battery-v0.2","","""event"",""trial"",""time""
""fullscreenenter"",""1"",""3111""
","
","
","""event"",""trial"",""time""
""fullscreenenter"",""1"",""3111""
","
","","","-1","","","20","5516","2267","n","elianto","#f73b6a7A","-1","-1","1","0","[]","0","2","","","5516","60","0","4","lose","no-go","0"
"pit-trial","179","1344615","0.0-65.0","battery-v0.2","","""event"",""trial"",""time""
""fullscreenenter"",""1"",""3111""
","
","
","""event"",""trial"",""time""
""fullscreenenter"",""1"",""3111""
","
","","","730","","","20","5516","2267","f","elianto","#3366ff99"," "," ","1","+10","[1580.5]","1","2","","","5516","61","1","1","win","go","0"
"pit-trial","180","1349363","0.0-66.0","battery-v0.2","","""event"",""trial"",""time""
""fullscreenenter"",""1"",""3111""
","
","
","""event"",""trial"",""time""
""fullscreenenter"",""1"",""3111""
","
","","","1874.199999988079","","","20","5516","2267","b","elianto","#f73b6a7A"," "," ","1","0","[2730.900000035763]","1","2","","","5516","62","3","3","lose","go","0"
"pit-trial","181","1354246","0.0-67.0","battery-v0.2","","""event"",""trial"",""time""
""fullscreenenter"",""1"",""3111""
","
","
","""event"",""trial"",""time""
""fullscreenenter"",""1"",""3111""
","
","","","-1","","","20","5516","2267","t","elianto","#f73b6a7A","-1","-1","1","0","[]","0","2","","","5516","63","2","4","lose","no-go","0"
"pit-trial","182","1357679","0.0-68.0","battery-v0.2","","""event"",""trial"",""time""
""fullscreenenter"",""1"",""3111""
","
","
","""event"",""trial"",""time""
""fullscreenenter"",""1"",""3111""
","
","","","568.5","","","20","5516","2267","c","elianto","#3366ff99","-1"," ","0","0","[1423]","1","2","","","5516","64","4","2","win","no-go","0"
"pit-trial","183","1362548","0.0-69.0","battery-v0.2","","""event"",""trial"",""time""
""fullscreenenter"",""1"",""3111""
","
","
","""event"",""trial"",""time""
""fullscreenenter"",""1"",""3111""
","
","","","-1","","","20","5516","2267","t","elianto","#f73b6a7A","-1","-1","1","-10","[]","0","2","","","5516","65","2","4","lose","no-go","1"
"pit-trial","184","1367416","0.0-70.0","battery-v0.2","","""event"",""trial"",""time""
""fullscreenenter"",""1"",""3111""
","
","
","""event"",""trial"",""time""
""fullscreenenter"",""1"",""3111""
","
","","","-1","","","20","5516","2267","c","elianto","#3366ff99","-1","-1","1","+10","[]","0","2","","","5516","66","4","2","win","no-go","0"
"pit-trial","185","1371117","0.0-71.0","battery-v0.2","","""event"",""trial"",""time""
""fullscreenenter"",""1"",""3111""
","
","
","""event"",""trial"",""time""
""fullscreenenter"",""1"",""3111""
","
","","","831.6999999880791","","","20","5516","2267","f","elianto","#3366ff99"," "," ","1","+10","[1682.800000011921]","1","2","","","5516","67","1","1","win","go","0"
"pit-trial","186","1375028","0.0-72.0","battery-v0.2","","""event"",""trial"",""time""
""fullscreenenter"",""1"",""3111""
","
","
","""event"",""trial"",""time""
""fullscreenenter"",""1"",""3111""
","
","","","1044.300000011921","","","20","5516","2267","b","elianto","#f73b6a7A"," "," ","1","-10","[1895.1000000238419]","1","2","","","5516","68","3","3","lose","go","1"
"pit-trial","187","1379143","0.0-73.0","battery-v0.2","","""event"",""trial"",""time""
""fullscreenenter"",""1"",""3111""
","
","
","""event"",""trial"",""time""
""fullscreenenter"",""1"",""3111""
","
","","","1246.5","","","20","5516","2267","f","elianto","#3366ff99"," "," ","1","+10","[2102.400000035763]","1","2","","","5516","69","1","1","win","go","0"
"pit-trial","188","1384007","0.0-74.0","battery-v0.2","","""event"",""trial"",""time""
""fullscreenenter"",""1"",""3111""
","
","
","""event"",""trial"",""time""
""fullscreenenter"",""1"",""3111""
","
","","","-1","","","20","5516","2267","c","elianto","#3366ff99","-1","-1","1","+10","[4608.100000023842]","1","2","","","5516","70","4","2","win","no-go","0"
"pit-trial","189","1387669","0.0-75.0","battery-v0.2","","""event"",""trial"",""time""
""fullscreenenter"",""1"",""3111""
","
","
","""event"",""trial"",""time""
""fullscreenenter"",""1"",""3111""
","
","","","792.5999999642372","","","20","5516","2267","z","elianto","#3366ff99"," "," ","1","+10","[1649.5]","1","2","","","5516","71","5","1","win","go","0"
"pit-trial","190","1391499","0.0-76.0","battery-v0.2","","""event"",""trial"",""time""
""fullscreenenter"",""1"",""3111""
","
","
","""event"",""trial"",""time""
""fullscreenenter"",""1"",""3111""
","
","","","965.3000000119209","","","20","5516","2267","b","elianto","#f73b6a7A"," "," ","1","-10","[1815.699999988079]","1","2","","","5516","72","3","3","lose","go","1"
"pit-trial","191","1394949","0.0-77.0","battery-v0.2","","""event"",""trial"",""time""
""fullscreenenter"",""1"",""3111""
","
","
","""event"",""trial"",""time""
""fullscreenenter"",""1"",""3111""
","
","","","582.1999999880791","","","20","5516","2267","f","elianto","#3366ff99"," "," ","1","+10","[1436.5999999642372]","1","2","","","5516","73","1","1","win","go","0"
"pit-trial","192","1398470","0.0-78.0","battery-v0.2","","""event"",""trial"",""time""
""fullscreenenter"",""1"",""3111""
","
","
","""event"",""trial"",""time""
""fullscreenenter"",""1"",""3111""
","
","","","652.8000000119209","","","20","5516","2267","z","elianto","#3366ff99"," "," ","1","+10","[1506.1000000238419]","1","2","","","5516","74","5","1","win","go","0"
"pit-trial","193","1403084","0.0-79.0","battery-v0.2","","""event"",""trial"",""time""
""fullscreenenter"",""1"",""3111""
","
","
","""event"",""trial"",""time""
""fullscreenenter"",""1"",""3111""
","
","","","1749.7000000476837","","","20","5516","2267","b","elianto","#f73b6a7A"," "," ","1","0","[2600.099999964237]","1","2","","","5516","75","3","3","lose","go","0"
"pit-trial","194","1407953","0.0-80.0","battery-v0.2","","""event"",""trial"",""time""
""fullscreenenter"",""1"",""3111""
","
","
","""event"",""trial"",""time""
""fullscreenenter"",""1"",""3111""
","
","","","-1","","","20","5516","2267","c","elianto","#3366ff99","-1","-1","1","+10","[]","0","2","","","5516","76","4","2","win","no-go","0"
"pit-trial","195","1411751","0.0-81.0","battery-v0.2","","""event"",""trial"",""time""
""fullscreenenter"",""1"",""3111""
","
","
","""event"",""trial"",""time""
""fullscreenenter"",""1"",""3111""
","
","","","923.9000000357628","","","20","5516","2267","h","elianto","#f73b6a7A","-1"," ","0","-10","[1779.3999999761581]","1","2","","","5516","77","6","4","lose","no-go","0"
"pit-trial","196","1415510","0.0-82.0","battery-v0.2","","""event"",""trial"",""time""
""fullscreenenter"",""1"",""3111""
","
","
","""event"",""trial"",""time""
""fullscreenenter"",""1"",""3111""
","
","","","894.8000000119209","","","20","5516","2267","b","elianto","#f73b6a7A"," "," ","1","0","[1745.699999988079]","1","2","","","5516","78","3","3","lose","go","0"
"pit-trial","197","1420378","0.0-83.0","battery-v0.2","","""event"",""trial"",""time""
""fullscreenenter"",""1"",""3111""
","
","
","""event"",""trial"",""time""
""fullscreenenter"",""1"",""3111""
","
","","","-1","","","20","5516","2267","c","elianto","#3366ff99","-1","-1","1","+10","[]","0","2","","","5516","79","4","2","win","no-go","0"
"pit-trial","198","1424465","0.0-84.0","battery-v0.2","","""event"",""trial"",""time""
""fullscreenenter"",""1"",""3111""
","
","
","""event"",""trial"",""time""
""fullscreenenter"",""1"",""3111""
","
","","","1227","","","20","5516","2267","z","elianto","#3366ff99"," "," ","1","+10","[2078.300000011921]","1","2","","","5516","80","5","1","win","go","0"
"pit-trial","199","1429339","0.0-85.0","battery-v0.2","","""event"",""trial"",""time""
""fullscreenenter"",""1"",""3111""
","
","
","""event"",""trial"",""time""
""fullscreenenter"",""1"",""3111""
","
","","","-1","","","20","5516","2267","c","elianto","#3366ff99","-1","-1","1","+10","[]","0","2","","","5516","81","4","2","win","no-go","0"
"pit-trial","200","1433000","0.0-86.0","battery-v0.2","","""event"",""trial"",""time""
""fullscreenenter"",""1"",""3111""
","
","
","""event"",""trial"",""time""
""fullscreenenter"",""1"",""3111""
","
","","","794.1999999880791","","","20","5516","2267","z","elianto","#3366ff99"," "," ","1","+10","[1656]","1","2","","","5516","82","5","1","win","go","0"
"pit-trial","201","1436767","0.0-87.0","battery-v0.2","","""event"",""trial"",""time""
""fullscreenenter"",""1"",""3111""
","
","
","""event"",""trial"",""time""
""fullscreenenter"",""1"",""3111""
","
","","","900.4000000357628","","","20","5516","2267","h","elianto","#f73b6a7A","-1"," ","0","-10","[1756.0999999642372]","1","2","","","5516","83","6","4","lose","no-go","0"
"pit-trial","202","1441010","0.0-88.0","battery-v0.2","","""event"",""trial"",""time""
""fullscreenenter"",""1"",""3111""
","
","
","""event"",""trial"",""time""
""fullscreenenter"",""1"",""3111""
","
","","","1381.2999999523163","","","20","5516","2267","y","elianto","#f73b6a7A"," "," ","1","0","[2231.899999976158]","1","2","","","5516","84","7","3","lose","go","0"
"pit-trial","203","1445888","0.0-89.0","battery-v0.2","","""event"",""trial"",""time""
""fullscreenenter"",""1"",""3111""
","
","
","""event"",""trial"",""time""
""fullscreenenter"",""1"",""3111""
","
","","","-1","","","20","5516","2267","c","elianto","#3366ff99","-1","-1","1","+10","[]","0","2","","","5516","85","4","2","win","no-go","0"
"pit-trial","204","1450772","0.0-90.0","battery-v0.2","","""event"",""trial"",""time""
""fullscreenenter"",""1"",""3111""
","
","
","""event"",""trial"",""time""
""fullscreenenter"",""1"",""3111""
","
","","","-1","","","20","5516","2267","h","elianto","#f73b6a7A","-1","-1","1","0","[]","0","2","","","5516","86","6","4","lose","no-go","0"
"pit-trial","205","1455111","0.0-91.0","battery-v0.2","","""event"",""trial"",""time""
""fullscreenenter"",""1"",""3111""
","
","
","""event"",""trial"",""time""
""fullscreenenter"",""1"",""3111""
","
","","","1460.300000011921","","","20","5516","2267","y","elianto","#f73b6a7A"," "," ","1","0","[2317.7000000476837]","1","2","","","5516","87","7","3","lose","go","0"
"pit-trial","206","1459980","0.0-92.0","battery-v0.2","","""event"",""trial"",""time""
""fullscreenenter"",""1"",""3111""
","
","
","""event"",""trial"",""time""
""fullscreenenter"",""1"",""3111""
","
","","","-1","","","20","5516","2267","z","elianto","#3366ff99"," ","-1","0","0","[3402.100000023842]","1","2","","","5516","88","5","1","win","go","0"
"pit-trial","207","1463565","0.0-93.0","battery-v0.2","","""event"",""trial"",""time""
""fullscreenenter"",""1"",""3111""
","
","
","""event"",""trial"",""time""
""fullscreenenter"",""1"",""3111""
","
","","","721.1999999880791","","","20","5516","2267","z","elianto","#3366ff99"," "," ","1","+10","[1573]","1","2","","","5516","89","5","1","win","go","0"
"pit-trial","208","1468431","0.0-94.0","battery-v0.2","","""event"",""trial"",""time""
""fullscreenenter"",""1"",""3111""
","
","
","""event"",""trial"",""time""
""fullscreenenter"",""1"",""3111""
","
","","","-1","","","20","5516","2267","h","elianto","#f73b6a7A","-1","-1","1","0","[]","0","2","","","5516","90","6","4","lose","no-go","0"
"pit-trial","209","1473301","0.0-95.0","battery-v0.2","","""event"",""trial"",""time""
""fullscreenenter"",""1"",""3111""
","
","
","""event"",""trial"",""time""
""fullscreenenter"",""1"",""3111""
","
","","","-1","","","20","5516","2267","c","elianto","#3366ff99","-1","-1","1","+10","[]","0","2","","","5516","91","4","2","win","no-go","0"
"pit-trial","210","1477556","0.0-96.0","battery-v0.2","","""event"",""trial"",""time""
""fullscreenenter"",""1"",""3111""
","
","
","""event"",""trial"",""time""
""fullscreenenter"",""1"",""3111""
","
","","","1391.9000000357628","","","20","5516","2267","y","elianto","#f73b6a7A"," "," ","1","0","[2243.699999988079]","1","2","","","5516","92","7","3","lose","go","0"
"pit-trial","211","1481200","0.0-97.0","battery-v0.2","","""event"",""trial"",""time""
""fullscreenenter"",""1"",""3111""
","
","
","""event"",""trial"",""time""
""fullscreenenter"",""1"",""3111""
","
","","","778.1999999880791","","","20","5516","2267","z","elianto","#3366ff99"," "," ","1","0","[1631.7999999523163]","1","2","","","5516","93","5","1","win","go","1"
"pit-trial","212","1485019","0.0-98.0","battery-v0.2","","""event"",""trial"",""time""
""fullscreenenter"",""1"",""3111""
","
","
","""event"",""trial"",""time""
""fullscreenenter"",""1"",""3111""
","
","","","950.5999999642372","","","20","5516","2267","r","elianto","#3366ff99","-1"," ","0","0","[1802.4000000357628]","1","2","","","5516","94","8","2","win","no-go","0"
"pit-trial","213","1489644","0.0-99.0","battery-v0.2","","""event"",""trial"",""time""
""fullscreenenter"",""1"",""3111""
","
","
","""event"",""trial"",""time""
""fullscreenenter"",""1"",""3111""
","
","","","1762","","","20","5516","2267","h","elianto","#f73b6a7A","-1"," ","0","-10","[2612.2000000476837]","1","2","","","5516","95","6","4","lose","no-go","0"
"pit-trial","214","1494522","0.0-100.0","battery-v0.2","","""event"",""trial"",""time""
""fullscreenenter"",""1"",""3111""
","
","
","""event"",""trial"",""time""
""fullscreenenter"",""1"",""3111""
","
","","","-1","","","20","5516","2267","y","elianto","#f73b6a7A"," ","-1","0","-10","[]","0","2","","","5516","96","7","3","lose","go","0"
"pit-trial","215","1499395","0.0-101.0","battery-v0.2","","""event"",""trial"",""time""
""fullscreenenter"",""1"",""3111""
","
","
","""event"",""trial"",""time""
""fullscreenenter"",""1"",""3111""
","
","","","-1","","","20","5516","2267","r","elianto","#3366ff99","-1","-1","1","+10","[]","0","2","","","5516","97","8","2","win","no-go","0"
"pit-trial","216","1504269","0.0-102.0","battery-v0.2","","""event"",""trial"",""time""
""fullscreenenter"",""1"",""3111""
","
","
","""event"",""trial"",""time""
""fullscreenenter"",""1"",""3111""
","
","","","-1","","","20","5516","2267","h","elianto","#f73b6a7A","-1","-1","1","0","[]","0","2","","","5516","98","6","4","lose","no-go","0"
"pit-trial","217","1508107","0.0-103.0","battery-v0.2","","""event"",""trial"",""time""
""fullscreenenter"",""1"",""3111""
","
","
","""event"",""trial"",""time""
""fullscreenenter"",""1"",""3111""
","
","","","975.3000000119209","","","20","5516","2267","z","elianto","#3366ff99"," "," ","1","+10","[1825.7000000476837]","1","2","","","5516","99","5","1","win","go","0"
"pit-trial","218","1511773","0.0-104.0","battery-v0.2","","""event"",""trial"",""time""
""fullscreenenter"",""1"",""3111""
","
","
","""event"",""trial"",""time""
""fullscreenenter"",""1"",""3111""
","
","","","794.6000000238419","","","20","5516","2267","y","elianto","#f73b6a7A"," "," ","1","0","[1645.0999999642372]","1","2","","","5516","100","7","3","lose","go","0"
"pit-trial","219","1516652","0.0-105.0","battery-v0.2","","""event"",""trial"",""time""
""fullscreenenter"",""1"",""3111""
","
","
","""event"",""trial"",""time""
""fullscreenenter"",""1"",""3111""
","
","","","-1","","","20","5516","2267","h","elianto","#f73b6a7A","-1","-1","1","0","[]","0","2","","","5516","101","6","4","lose","no-go","0"
"pit-trial","220","1520655","0.0-106.0","battery-v0.2","","""event"",""trial"",""time""
""fullscreenenter"",""1"",""3111""
","
","
","""event"",""trial"",""time""
""fullscreenenter"",""1"",""3111""
","
","","","1137.800000011921","","","20","5516","2267","r","elianto","#3366ff99","-1"," ","0","0","[1993.300000011921]","1","2","","","5516","102","8","2","win","no-go","0"
"pit-trial","221","1524489","0.0-107.0","battery-v0.2","","""event"",""trial"",""time""
""fullscreenenter"",""1"",""3111""
","
","
","""event"",""trial"",""time""
""fullscreenenter"",""1"",""3111""
","
","","","966.1000000238419","","","20","5516","2267","m","elianto","#3366ff99","-1"," ","0","0","[1818.199999988079]","1","2","","","5516","103","9","2","win","no-go","0"
"pit-trial","222","1528323","0.0-108.0","battery-v0.2","","""event"",""trial"",""time""
""fullscreenenter"",""1"",""3111""
","
","
","""event"",""trial"",""time""
""fullscreenenter"",""1"",""3111""
","
","","","969.9000000357628","","","20","5516","2267","z","elianto","#3366ff99"," "," ","1","+10","[1820]","1","2","","","5516","104","5","1","win","go","0"
"pit-trial","223","1533199","0.0-109.0","battery-v0.2","","""event"",""trial"",""time""
""fullscreenenter"",""1"",""3111""
","
","
","""event"",""trial"",""time""
""fullscreenenter"",""1"",""3111""
","
","","","-1","","","20","5516","2267","m","elianto","#3366ff99","-1","-1","1","0","[]","0","2","","","5516","105","9","2","win","no-go","1"
"pit-trial","224","1538065","0.0-110.0","battery-v0.2","","""event"",""trial"",""time""
""fullscreenenter"",""1"",""3111""
","
","
","""event"",""trial"",""time""
""fullscreenenter"",""1"",""3111""
","
","","","-1","","","20","5516","2267","r","elianto","#3366ff99","-1","-1","1","+10","[]","0","2","","","5516","106","8","2","win","no-go","0"
"pit-trial","225","1541659","0.0-111.0","battery-v0.2","","""event"",""trial"",""time""
""fullscreenenter"",""1"",""3111""
","
","
","""event"",""trial"",""time""
""fullscreenenter"",""1"",""3111""
","
","","","725","","","20","5516","2267","z","elianto","#3366ff99"," "," ","1","0","[1576.699999988079]","1","2","","","5516","107","5","1","win","go","1"
"pit-trial","226","1546535","0.0-112.0","battery-v0.2","","""event"",""trial"",""time""
""fullscreenenter"",""1"",""3111""
","
","
","""event"",""trial"",""time""
""fullscreenenter"",""1"",""3111""
","
","","","-1","","","20","5516","2267","h","elianto","#f73b6a7A","-1","-1","1","0","[]","0","2","","","5516","108","6","4","lose","no-go","0"
"pit-trial","227","1550318","0.0-113.0","battery-v0.2","","""event"",""trial"",""time""
""fullscreenenter"",""1"",""3111""
","
","
","""event"",""trial"",""time""
""fullscreenenter"",""1"",""3111""
","
","","","917.6999999880791","","","20","5516","2267","m","elianto","#3366ff99","-1"," ","0","0","[1768.7999999523163]","1","2","","","5516","109","9","2","win","no-go","0"
"pit-trial","228","1554370","0.0-114.0","battery-v0.2","","""event"",""trial"",""time""
""fullscreenenter"",""1"",""3111""
","
","
","""event"",""trial"",""time""
""fullscreenenter"",""1"",""3111""
","
","","","1181.2999999523163","","","20","5516","2267","z","elianto","#3366ff99"," "," ","1","+10","[2039.199999988079]","1","2","","","5516","110","5","1","win","go","0"
"pit-trial","229","1559244","0.0-115.0","battery-v0.2","","""event"",""trial"",""time""
""fullscreenenter"",""1"",""3111""
","
","
","""event"",""trial"",""time""
""fullscreenenter"",""1"",""3111""
","
","","","-1","","","20","5516","2267","h","elianto","#f73b6a7A","-1","-1","1","-10","[]","0","2","","","5516","111","6","4","lose","no-go","1"
"pit-trial","230","1563454","0.0-116.0","battery-v0.2","","""event"",""trial"",""time""
""fullscreenenter"",""1"",""3111""
","
","
","""event"",""trial"",""time""
""fullscreenenter"",""1"",""3111""
","
","","","1338.1000000238419","","","20","5516","2267","r","elianto","#3366ff99","-1"," ","0","+10","[2194.399999976158]","1","2","","","5516","112","8","2","win","no-go","1"
"pit-trial","231","1568328","0.0-117.0","battery-v0.2","","""event"",""trial"",""time""
""fullscreenenter"",""1"",""3111""
","
","
","""event"",""trial"",""time""
""fullscreenenter"",""1"",""3111""
","
","","","-1","","","20","5516","2267","y","elianto","#f73b6a7A"," ","-1","0","0","[]","0","2","","","5516","113","7","3","lose","go","1"
"pit-trial","232","1572166","0.0-118.0","battery-v0.2","","""event"",""trial"",""time""
""fullscreenenter"",""1"",""3111""
","
","
","""event"",""trial"",""time""
""fullscreenenter"",""1"",""3111""
","
","","","971.3000000119209","","","20","5516","2267","z","elianto","#3366ff99"," "," ","1","+10","[1822.2000000476837]","1","2","","","5516","114","5","1","win","go","0"
"pit-trial","233","1577050","0.0-119.0","battery-v0.2","","""event"",""trial"",""time""
""fullscreenenter"",""1"",""3111""
","
","
","""event"",""trial"",""time""
""fullscreenenter"",""1"",""3111""
","
","","","-1","","","20","5516","2267","m","elianto","#3366ff99","-1","-1","1","+10","[]","0","2","","","5516","115","9","2","win","no-go","0"
"pit-trial","234","1581920","0.0-120.0","battery-v0.2","","""event"",""trial"",""time""
""fullscreenenter"",""1"",""3111""
","
","
","""event"",""trial"",""time""
""fullscreenenter"",""1"",""3111""
","
","","","-1","","","20","5516","2267","r","elianto","#3366ff99","-1","-1","1","+10","[]","0","2","","","5516","116","8","2","win","no-go","0"
"pit-trial","235","1586793","0.0-121.0","battery-v0.2","","""event"",""trial"",""time""
""fullscreenenter"",""1"",""3111""
","
","
","""event"",""trial"",""time""
""fullscreenenter"",""1"",""3111""
","
","","","-1","","","20","5516","2267","h","elianto","#f73b6a7A","-1","-1","1","-10","[]","0","2","","","5516","117","6","4","lose","no-go","1"
"pit-trial","236","1590246","0.0-122.0","battery-v0.2","","""event"",""trial"",""time""
""fullscreenenter"",""1"",""3111""
","
","
","""event"",""trial"",""time""
""fullscreenenter"",""1"",""3111""
","
","","","590.1000000238419","","","20","5516","2267","z","elianto","#3366ff99"," "," ","1","+10","[1441.1000000238419]","1","2","","","5516","118","5","1","win","go","0"
"pit-trial","237","1595118","0.0-123.0","battery-v0.2","","""event"",""trial"",""time""
""fullscreenenter"",""1"",""3111""
","
","
","""event"",""trial"",""time""
""fullscreenenter"",""1"",""3111""
","
","","","-1","","","20","5516","2267","m","elianto","#3366ff99","-1","-1","1","0","[]","0","2","","","5516","119","9","2","win","no-go","1"
"pit-trial","238","1599991","0.0-124.0","battery-v0.2","","""event"",""trial"",""time""
""fullscreenenter"",""1"",""3111""
","
","
","""event"",""trial"",""time""
""fullscreenenter"",""1"",""3111""
","
","","","-1","","","20","5516","2267","r","elianto","#3366ff99","-1","-1","1","+10","[3756.899999976158]","1","2","","","5516","120","8","2","win","no-go","0"
"pit-trial","239","1604867","0.0-125.0","battery-v0.2","","""event"",""trial"",""time""
""fullscreenenter"",""1"",""3111""
","
","
","""event"",""trial"",""time""
""fullscreenenter"",""1"",""3111""
","
","","","-1","","","20","5516","2267","m","elianto","#3366ff99","-1","-1","1","+10","[]","0","2","","","5516","121","9","2","win","no-go","0"
"pit-trial","240","1609028","0.0-126.0","battery-v0.2","","""event"",""trial"",""time""
""fullscreenenter"",""1"",""3111""
","
","
","""event"",""trial"",""time""
""fullscreenenter"",""1"",""3111""
","
","","","1296.6000000238419","","","20","5516","2267","z","elianto","#3366ff99"," "," ","1","+10","[2147.600000023842]","1","2","","","5516","122","5","1","win","go","0"
"pit-trial","241","1613906","0.0-127.0","battery-v0.2","","""event"",""trial"",""time""
""fullscreenenter"",""1"",""3111""
","
","
","""event"",""trial"",""time""
""fullscreenenter"",""1"",""3111""
","
","","","-1","","","20","5516","2267","y","elianto","#f73b6a7A"," ","-1","0","-10","[]","0","2","","","5516","123","7","3","lose","go","0"
"pit-trial","242","1618780","0.0-128.0","battery-v0.2","","""event"",""trial"",""time""
""fullscreenenter"",""1"",""3111""
","
","
","""event"",""trial"",""time""
""fullscreenenter"",""1"",""3111""
","
","","","-1","","","20","5516","2267","r","elianto","#3366ff99","-1","-1","1","+10","[]","0","2","","","5516","124","8","2","win","no-go","0"
"pit-trial","243","1623644","0.0-129.0","battery-v0.2","","""event"",""trial"",""time""
""fullscreenenter"",""1"",""3111""
","
","
","""event"",""trial"",""time""
""fullscreenenter"",""1"",""3111""
","
","","","-1","","","20","5516","2267","m","elianto","#3366ff99","-1","-1","1","+10","[]","0","2","","","5516","125","9","2","win","no-go","0"
"pit-trial","244","1628514","0.0-130.0","battery-v0.2","","""event"",""trial"",""time""
""fullscreenenter"",""1"",""3111""
","
","
","""event"",""trial"",""time""
""fullscreenenter"",""1"",""3111""
","
","","","-1","","","20","5516","2267","h","elianto","#f73b6a7A","-1","-1","1","0","[3202.800000011921]","1","2","","","5516","126","6","4","lose","no-go","0"
"pit-trial","245","1633383","0.0-131.0","battery-v0.2","","""event"",""trial"",""time""
""fullscreenenter"",""1"",""3111""
","
","
","""event"",""trial"",""time""
""fullscreenenter"",""1"",""3111""
","
","","","-1","","","20","5516","2267","r","elianto","#3366ff99","-1","-1","1","+10","[]","0","2","","","5516","127","8","2","win","no-go","0"
"pit-trial","246","1638258","0.0-132.0","battery-v0.2","","""event"",""trial"",""time""
""fullscreenenter"",""1"",""3111""
","
","
","""event"",""trial"",""time""
""fullscreenenter"",""1"",""3111""
","
","","","-1","","","20","5516","2267","y","elianto","#f73b6a7A"," ","-1","0","-10","[]","0","2","","","5516","128","7","3","lose","go","0"
"pit-trial","247","1642222","0.0-133.0","battery-v0.2","","""event"",""trial"",""time""
""fullscreenenter"",""1"",""3111""
","
","
","""event"",""trial"",""time""
""fullscreenenter"",""1"",""3111""
","
","","","1099","","","20","5516","2267","y","elianto","#f73b6a7A"," "," ","1","0","[1949.199999988079]","1","2","","","5516","129","7","3","lose","go","0"
"pit-trial","248","1647095","0.0-134.0","battery-v0.2","","""event"",""trial"",""time""
""fullscreenenter"",""1"",""3111""
","
","
","""event"",""trial"",""time""
""fullscreenenter"",""1"",""3111""
","
","","","-1","","","20","5516","2267","h","elianto","#f73b6a7A","-1","-1","1","0","[]","0","2","","","5516","130","6","4","lose","no-go","0"
"pit-trial","249","1650940","0.0-135.0","battery-v0.2","","""event"",""trial"",""time""
""fullscreenenter"",""1"",""3111""
","
","
","""event"",""trial"",""time""
""fullscreenenter"",""1"",""3111""
","
","","","976.3000000119209","","","20","5516","2267","r","elianto","#3366ff99","-1"," ","0","0","[1832.7000000476837]","1","2","","","5516","131","8","2","win","no-go","0"
"pit-trial","250","1655811","0.0-136.0","battery-v0.2","","""event"",""trial"",""time""
""fullscreenenter"",""1"",""3111""
","
","
","""event"",""trial"",""time""
""fullscreenenter"",""1"",""3111""
","
","","","-1","","","20","5516","2267","m","elianto","#3366ff99","-1","-1","1","+10","[]","0","2","","","5516","132","9","2","win","no-go","0"
"pit-trial","251","1659877","0.0-137.0","battery-v0.2","","""event"",""trial"",""time""
""fullscreenenter"",""1"",""3111""
","
","
","""event"",""trial"",""time""
""fullscreenenter"",""1"",""3111""
","
","","","1198.3999999761581","","","20","5516","2267","m","elianto","#3366ff99","-1"," ","0","+10","[2049.400000035763]","1","2","","","5516","133","9","2","win","no-go","1"
"pit-trial","252","1664748","0.0-138.0","battery-v0.2","","""event"",""trial"",""time""
""fullscreenenter"",""1"",""3111""
","
","
","""event"",""trial"",""time""
""fullscreenenter"",""1"",""3111""
","
","","","-1","","","20","5516","2267","h","elianto","#f73b6a7A","-1","-1","1","0","[]","0","2","","","5516","134","6","4","lose","no-go","0"
"pit-trial","253","1669620","0.0-139.0","battery-v0.2","","""event"",""trial"",""time""
""fullscreenenter"",""1"",""3111""
","
","
","""event"",""trial"",""time""
""fullscreenenter"",""1"",""3111""
","
","","","-1","","","20","5516","2267","r","elianto","#3366ff99","-1","-1","1","+10","[]","0","2","","","5516","135","8","2","win","no-go","0"
"pit-trial","254","1673364","0.0-140.0","battery-v0.2","","""event"",""trial"",""time""
""fullscreenenter"",""1"",""3111""
","
","
","""event"",""trial"",""time""
""fullscreenenter"",""1"",""3111""
","
","","","872.8000000119209","","","20","5516","2267","y","elianto","#f73b6a7A"," "," ","1","0","[1726.3999999761581]","1","2","","","5516","136","7","3","lose","go","0"
"pit-trial","255","1678253","0.0-141.0","battery-v0.2","","""event"",""trial"",""time""
""fullscreenenter"",""1"",""3111""
","
","
","""event"",""trial"",""time""
""fullscreenenter"",""1"",""3111""
","
","","","-1","","","20","5516","2267","h","elianto","#f73b6a7A","-1","-1","1","0","[773.9000000357628]","1","2","","","5516","137","6","4","lose","no-go","0"
"pit-trial","256","1682260","0.0-142.0","battery-v0.2","","""event"",""trial"",""time""
""fullscreenenter"",""1"",""3111""
","
","
","""event"",""trial"",""time""
""fullscreenenter"",""1"",""3111""
","
","","","1137.199999988079","","","20","5516","2267","y","elianto","#f73b6a7A"," "," ","1","-10","[1991.199999988079]","1","2","","","5516","138","7","3","lose","go","1"
"pit-trial","257","1687129","0.0-143.0","battery-v0.2","","""event"",""trial"",""time""
""fullscreenenter"",""1"",""3111""
","
","
","""event"",""trial"",""time""
""fullscreenenter"",""1"",""3111""
","
","","","-1","","","20","5516","2267","m","elianto","#3366ff99","-1","-1","1","+10","[]","0","2","","","5516","139","9","2","win","no-go","0"
"pit-trial","258","1692000","0.0-144.0","battery-v0.2","","""event"",""trial"",""time""
""fullscreenenter"",""1"",""3111""
","
","
","""event"",""trial"",""time""
""fullscreenenter"",""1"",""3111""
","
","","","-1","","","20","5516","2267","r","elianto","#3366ff99","-1","-1","1","+10","[]","0","2","","","5516","140","8","2","win","no-go","0"
"pit-instructions","259","1964626","0.0-145.0","battery-v0.2","","""event"",""trial"",""time""
""fullscreenenter"",""1"",""3111""
","
","
","""event"",""trial"",""time""
""fullscreenenter"",""1"",""3111""
","
","","[{""page_index"":0,""viewing_time"":260640},{""page_index"":1,""viewing_time"":11982.600000023842}]","272623.3000000119","","","","","","","","","","","","","","","","","","","","","","","",""
"pit-trial","260","1968160","0.0-146.0","battery-v0.2","","""event"",""trial"",""time""
""fullscreenenter"",""1"",""3111""
","
","
","""event"",""trial"",""time""
""fullscreenenter"",""1"",""3111""
","
","","","655","","","20","5516","2267","e","elianto","#f73b6a7A"," "," ","1","-10","[1509]","1","3","","","5516","141","2","3","lose","go","1"
"pit-trial","261","1971891","0.0-147.0","battery-v0.2","","""event"",""trial"",""time""
""fullscreenenter"",""1"",""3111""
","
","
","""event"",""trial"",""time""
""fullscreenenter"",""1"",""3111""
","
","","","860.4000000357628","","","20","5516","2267","d","elianto","#3366ff99","-1"," ","0","0","[1714]","1","3","","","5516","142","1","2","win","no-go","0"
"pit-trial","262","1976125","0.0-148.0","battery-v0.2","","""event"",""trial"",""time""
""fullscreenenter"",""1"",""3111""
","
","
","""event"",""trial"",""time""
""fullscreenenter"",""1"",""3111""
","
","","","1352.199999988079","","","20","5516","2267","w","elianto","#f73b6a7A","-1"," ","0","0","[2208.199999988079]","1","3","","","5516","143","3","4","lose","no-go","1"
"pit-trial","263","1981005","0.0-149.0","battery-v0.2","","""event"",""trial"",""time""
""fullscreenenter"",""1"",""3111""
","
","
","""event"",""trial"",""time""
""fullscreenenter"",""1"",""3111""
","
","","","-1","","","20","5516","2267","j","elianto","#f73b6a7A"," ","-1","0","-10","[2879.599999964237]","1","3","","","5516","144","0","3","lose","go","0"
"pit-trial","264","1985876","0.0-150.0","battery-v0.2","","""event"",""trial"",""time""
""fullscreenenter"",""1"",""3111""
","
","
","""event"",""trial"",""time""
""fullscreenenter"",""1"",""3111""
","
","","","-1","","","20","5516","2267","j","elianto","#f73b6a7A"," ","-1","0","-10","[]","0","3","","","5516","145","0","3","lose","go","0"
"pit-trial","265","1990034","0.0-151.0","battery-v0.2","","""event"",""trial"",""time""
""fullscreenenter"",""1"",""3111""
","
","
","""event"",""trial"",""time""
""fullscreenenter"",""1"",""3111""
","
","","","1292.199999988079","","","20","5516","2267","w","elianto","#f73b6a7A","-1"," ","0","-10","[2143.2999999523163]","1","3","","","5516","146","3","4","lose","no-go","0"
"pit-trial","266","1994919","0.0-152.0","battery-v0.2","","""event"",""trial"",""time""
""fullscreenenter"",""1"",""3111""
","
","
","""event"",""trial"",""time""
""fullscreenenter"",""1"",""3111""
","
","","","-1","","","20","5516","2267","e","elianto","#f73b6a7A"," ","-1","0","-10","[]","0","3","","","5516","147","2","3","lose","go","0"
"pit-trial","267","1999788","0.0-153.0","battery-v0.2","","""event"",""trial"",""time""
""fullscreenenter"",""1"",""3111""
","
","
","""event"",""trial"",""time""
""fullscreenenter"",""1"",""3111""
","
","","","-1","","","20","5516","2267","d","elianto","#3366ff99","-1","-1","1","+10","[]","0","3","","","5516","148","1","2","win","no-go","0"
"pit-trial","268","2004660","0.0-154.0","battery-v0.2","","""event"",""trial"",""time""
""fullscreenenter"",""1"",""3111""
","
","
","""event"",""trial"",""time""
""fullscreenenter"",""1"",""3111""
","
