"trial_type","trial_index","time_elapsed","internal_node_id","task_version","subject_id","interactions","blur_events","focus_events","fullscreenenter_events","fullscreenexit_events","success","view_history","rt","responses","num_errors","age","subject","participantId","rune","rune_set","hex","correct","choice","accuracy","outcome","keys","total_keys","block","practice","value","sub","trial","stimulus","robot","valence","action","sham"
"pavlovia","0","116","0.0-0.0","battery-v0.2","","""event"",""trial"",""time""
""fullscreenenter"",""1"",""3027""
","
","
","""event"",""trial"",""time""
""fullscreenenter"",""1"",""3027""
","
","","","","","","","","","","","","","","","","","","","","","","","","","","",""
"fullscreen","1","3993","0.0-1.0","battery-v0.2","","""event"",""trial"",""time""
""fullscreenenter"",""1"",""3027""
","
","
","""event"",""trial"",""time""
""fullscreenenter"",""1"",""3027""
","
","true","","","","","","","","","","","","","","","","","","","","","","","","","",""
"pit-instructions","2","9307","0.0-2.0-0.0","battery-v0.2","","""event"",""trial"",""time""
""fullscreenenter"",""1"",""3027""
","
","
","""event"",""trial"",""time""
""fullscreenenter"",""1"",""3027""
","
","","[{""page_index"":0,""viewing_time"":5308.10000000149}]","5309.800000000745","","","","","","","","","","","","","","","","","","","","","","","",""
"pit-comprehension","3","12401","0.0-2.0-1.0-0.0","battery-v0.2","","""event"",""trial"",""time""
""fullscreenenter"",""1"",""3027""
","
","
","""event"",""trial"",""time""
""fullscreenenter"",""1"",""3027""
","
","","","3086.699999999255","[""shark""]","0","10","4101","1045","","","","","","","","","","","","","","","","","","",""
"pit-instructions","4","16098","0.0-2.0-1.0-1.0","battery-v0.2","","""event"",""trial"",""time""
""fullscreenenter"",""1"",""3027""
","
","
","""event"",""trial"",""time""
""fullscreenenter"",""1"",""3027""
","
","","[{""page_index"":0,""viewing_time"":3669.10000000149}]","3669.699999999255","","","","","","","","","","","","","","","","","","","","","","","",""
"pit-comprehension","5","19867","0.0-2.0-2.0-0.0","battery-v0.2","","""event"",""trial"",""time""
""fullscreenenter"",""1"",""3027""
","
","
","""event"",""trial"",""time""
""fullscreenenter"",""1"",""3027""
","
","","","3760.10000000149","[""tiger""]","0","10","4101","1045","","","","","","","","","","","","","","","","","","",""
"pit-instructions","6","21461","0.0-2.0-2.0-1.0","battery-v0.2","","""event"",""trial"",""time""
""fullscreenenter"",""1"",""3027""
","
","
","""event"",""trial"",""time""
""fullscreenenter"",""1"",""3027""
","
","","[{""page_index"":0,""viewing_time"":1586.3999999985099}]","1586.8999999985099","","","","","","","","","","","","","","","","","","","","","","","",""
"pit-instructions","7","130371","0.0-2.0-3.0","battery-v0.2","","""event"",""trial"",""time""
""fullscreenenter"",""1"",""3027""
","
","
","""event"",""trial"",""time""
""fullscreenenter"",""1"",""3027""
","
","","[{""page_index"":0,""viewing_time"":14666.89999999851},{""page_index"":1,""viewing_time"":7330.10000000149},{""page_index"":2,""viewing_time"":10036.599999997765},{""page_index"":3,""viewing_time"":7289},{""page_index"":4,""viewing_time"":5634.10000000149},{""page_index"":5,""viewing_time"":5660.89999999851},{""page_index"":6,""viewing_time"":6922.10000000149},{""page_index"":7,""viewing_time"":7136.60000000149},{""page_index"":8,""viewing_time"":6069.79999999702},{""page_index"":9,""viewing_time"":9804.300000000745},{""page_index"":10,""viewing_time"":8377.800000000745},{""page_index"":11,""viewing_time"":7357.800000000745},{""page_index"":12,""viewing_time"":7551.800000000745},{""page_index"":13,""viewing_time"":5093.29999999702}]","108931.59999999776","","","","","","","","","","","","","","","","","","","","","","","",""
"pit-trial","8","133959","0.0-2.0-4.0-0.0","battery-v0.2","","""event"",""trial"",""time""
""fullscreenenter"",""1"",""3027""
","
","
","""event"",""trial"",""time""
""fullscreenenter"",""1"",""3027""
","
","","","732.3000000007451","","","10","4101","1045","&#9784;","elianto","#FFFFF080"," "," ","1","&#10004","[1582.800000000745]","1","0","0","","","","","","","",""
"pit-trial","9","138584","0.0-2.0-4.1-0.1","battery-v0.2","","""event"",""trial"",""time""
""fullscreenenter"",""1"",""3027""
","
","
","""event"",""trial"",""time""
""fullscreenenter"",""1"",""3027""
","
","","","1765.800000000745","","","10","4101","1045","&#9784;","elianto","#FFFFF080"," "," ","1","&#10004","[2617.5]","1","0","0","","","","","","","",""
"pit-trial","10","142647","0.0-2.0-4.2-0.2","battery-v0.2","","""event"",""trial"",""time""
""fullscreenenter"",""1"",""3027""
","
","
","""event"",""trial"",""time""
""fullscreenenter"",""1"",""3027""
","
","","","1202.8999999985099","","","10","4101","1045","&#9784;","elianto","#FFFFF080"," "," ","1","&#10004","[2055.39999999851]","1","0","0","","","","","","","",""
"pit-trial","11","146262","0.0-2.0-4.3-0.3","battery-v0.2","","""event"",""trial"",""time""
""fullscreenenter"",""1"",""3027""
","
","
","""event"",""trial"",""time""
""fullscreenenter"",""1"",""3027""
","
","","","751.6000000014901","","","10","4101","1045","&#9784;","elianto","#FFFFF080"," "," ","1","&#10004","[1608.300000000745]","1","0","0","","","","","","","",""
"pit-trial","12","149779","0.0-2.0-4.4-0.4","battery-v0.2","","""event"",""trial"",""time""
""fullscreenenter"",""1"",""3027""
","
","
","""event"",""trial"",""time""
""fullscreenenter"",""1"",""3027""
","
","","","662.8000000007451","","","10","4101","1045","&#9784;","elianto","#FFFFF080"," "," ","1","&#10004","[1513.6000000014901]","1","0","0","","","","","","","",""
"pit-instructions","13","172027","0.0-2.0-5.0","battery-v0.2","","""event"",""trial"",""time""
""fullscreenenter"",""1"",""3027""
","
","
","""event"",""trial"",""time""
""fullscreenenter"",""1"",""3027""
","
","","[{""page_index"":0,""viewing_time"":4741.800000000745},{""page_index"":1,""viewing_time"":6117.89999999851},{""page_index"":2,""viewing_time"":5948.800000000745},{""page_index"":3,""viewing_time"":5440}]","22249.099999997765","","","","","","","","","","","","","","","","","","","","","","","",""
"pit-trial","14","176887","0.0-2.0-6.0-0.0","battery-v0.2","","""event"",""trial"",""time""
""fullscreenenter"",""1"",""3027""
","
","
","""event"",""trial"",""time""
""fullscreenenter"",""1"",""3027""
","
","","","-1","","","10","4101","1045","&#9854;","elianto","#FFFFF080","-1","-1","1","&#10004","[]","0","0","1","","","","","","","",""
"pit-trial","15","181745","0.0-2.0-6.1-0.1","battery-v0.2","","""event"",""trial"",""time""
""fullscreenenter"",""1"",""3027""
","
","
","""event"",""trial"",""time""
""fullscreenenter"",""1"",""3027""
","
","","","-1","","","10","4101","1045","&#9854;","elianto","#FFFFF080","-1","-1","1","&#10004","[]","0","0","1","","","","","","","",""
"pit-trial","16","186603","0.0-2.0-6.2-0.2","battery-v0.2","","""event"",""trial"",""time""
""fullscreenenter"",""1"",""3027""
","
","
","""event"",""trial"",""time""
""fullscreenenter"",""1"",""3027""
","
","","","-1","","","10","4101","1045","&#9854;","elianto","#FFFFF080","-1","-1","1","&#10004","[]","0","0","1","","","","","","","",""
"pit-trial","17","191458","0.0-2.0-6.3-0.3","battery-v0.2","","""event"",""trial"",""time""
""fullscreenenter"",""1"",""3027""
","
","
","""event"",""trial"",""time""
""fullscreenenter"",""1"",""3027""
","
","","","-1","","","10","4101","1045","&#9854;","elianto","#FFFFF080","-1","-1","1","&#10004","[]","0","0","1","","","","","","","",""
"pit-trial","18","196320","0.0-2.0-6.4-0.4","battery-v0.2","","""event"",""trial"",""time""
""fullscreenenter"",""1"",""3027""
","
","
","""event"",""trial"",""time""
""fullscreenenter"",""1"",""3027""
","
","","","-1","","","10","4101","1045","&#9854;","elianto","#FFFFF080","-1","-1","1","&#10004","[]","0","0","1","","","","","","","",""
"pit-instructions","19","318548","0.0-2.0-7.0","battery-v0.2","","""event"",""trial"",""time""
""fullscreenenter"",""1"",""3027""
","
","
","""event"",""trial"",""time""
""fullscreenenter"",""1"",""3027""
","
","","[{""page_index"":0,""viewing_time"":6534.70000000298},{""page_index"":1,""viewing_time"":6739.89999999851},{""page_index"":2,""viewing_time"":7303.800000000745},{""page_index"":3,""viewing_time"":6293.699999999255},{""page_index"":4,""viewing_time"":5923.5},{""page_index"":5,""viewing_time"":5900.199999999255},{""page_index"":6,""viewing_time"":5418.199999999255},{""page_index"":7,""viewing_time"":7173.400000002235},{""page_index"":8,""viewing_time"":7968.599999997765},{""page_index"":9,""viewing_time"":6331.400000002235},{""page_index"":10,""viewing_time"":7864.89999999851},{""page_index"":11,""viewing_time"":5167.900000002235},{""page_index"":12,""viewing_time"":7664.29999999702},{""page_index"":13,""viewing_time"":7437},{""page_index"":14,""viewing_time"":7559.10000000149},{""page_index"":15,""viewing_time"":6395},{""page_index"":16,""viewing_time"":6249.800000000745},{""page_index"":17,""viewing_time"":8327.099999997765}]","122253.20000000298","","","","","","","","","","","","","","","","","","","","","","","",""
"pit-trial","20","322243","0.0-2.0-8.0-0.0","battery-v0.2","","""event"",""trial"",""time""
""fullscreenenter"",""1"",""3027""
","
","
","""event"",""trial"",""time""
""fullscreenenter"",""1"",""3027""
","
","","","835","","","10","4101","1045","&#9776;","elianto","#3366ff99"," "," ","1","+10","[1690.199999999255]","1","0","1","","","","","","","",""
"pit-trial","21","325684","0.0-2.0-8.0-1.0","battery-v0.2","","""event"",""trial"",""time""
""fullscreenenter"",""1"",""3027""
","
","
","""event"",""trial"",""time""
""fullscreenenter"",""1"",""3027""
","
","","","583","","","10","4101","1045","&#9776;","elianto","#3366ff99"," "," ","1","+10","[1433.800000000745]","1","0","1","","","","","","","",""
"pit-trial","22","329178","0.0-2.0-8.0-2.0","battery-v0.2","","""event"",""trial"",""time""
""fullscreenenter"",""1"",""3027""
","
","
","""event"",""trial"",""time""
""fullscreenenter"",""1"",""3027""
","
","","","639.8000000007451","","","10","4101","1045","&#9776;","elianto","#3366ff99"," "," ","1","+10","[1490.6000000014901]","1","0","1","","","","","","","",""
"pit-trial","23","332592","0.0-2.0-8.0-3.0","battery-v0.2","","""event"",""trial"",""time""
""fullscreenenter"",""1"",""3027""
","
","
","""event"",""trial"",""time""
""fullscreenenter"",""1"",""3027""
","
","","","560.4000000022352","","","10","4101","1045","&#9776;","elianto","#3366ff99"," "," ","1","0","[1412]","1","0","1","","","","","","","",""
"pit-trial","24","336055","0.0-2.0-8.0-4.0","battery-v0.2","","""event"",""trial"",""time""
""fullscreenenter"",""1"",""3027""
","
","
","""event"",""trial"",""time""
""fullscreenenter"",""1"",""3027""
","
","","","606.7999999970198","","","10","4101","1045","&#9776;","elianto","#3366ff99"," "," ","1","+10","[1460.300000000745,2852.60000000149]","2","0","1","","","","","","","",""
"pit-trial","25","339807","0.0-2.0-8.1-0.1","battery-v0.2","","""event"",""trial"",""time""
""fullscreenenter"",""1"",""3027""
","
","
","""event"",""trial"",""time""
""fullscreenenter"",""1"",""3027""
","
","","","896","","","10","4101","1045","&#9776;","elianto","#3366ff99"," "," ","1","+10","[1747.199999999255,3499.099999997765,3699]","3","0","1","","","","","","","",""
"pit-trial","26","342735","0.0-2.0-8.1-1.1","battery-v0.2","","""event"",""trial"",""time""
""fullscreenenter"",""1"",""3027""
","
","
","""event"",""trial"",""time""
""fullscreenenter"",""1"",""3027""
","
","","","73.5","","","10","4101","1045","&#9776;","elianto","#3366ff99"," "," ","1","+10","[140.30000000074506,347.80000000074506,532.1000000014901,741.7000000029802,925.1000000014901,1124.6000000014901,1291.800000000745,1539.800000000745,1796.1000000014901,2011.9000000022352,2227.900000002235,2476]","12","0","1","","","","","","","",""
"pit-trial","27","346549","0.0-2.0-8.1-2.1","battery-v0.2","","""event"",""trial"",""time""
""fullscreenenter"",""1"",""3027""
","
","
","""event"",""trial"",""time""
""fullscreenenter"",""1"",""3027""
","
","","","960.2999999970198","","","10","4101","1045","&#9776;","elianto","#3366ff99"," "," ","1","+10","[1811.5]","1","0","1","","","","","","","",""
"pit-trial","28","349960","0.0-2.0-8.1-3.1","battery-v0.2","","""event"",""trial"",""time""
""fullscreenenter"",""1"",""3027""
","
","
","""event"",""trial"",""time""
""fullscreenenter"",""1"",""3027""
","
","","","553.6999999992549","","","10","4101","1045","&#9776;","elianto","#3366ff99"," "," ","1","0","[1404.699999999255]","1","0","1","","","","","","","",""
"pit-trial","29","354167","0.0-2.0-8.1-4.1","battery-v0.2","","""event"",""trial"",""time""
""fullscreenenter"",""1"",""3027""
","
","
","""event"",""trial"",""time""
""fullscreenenter"",""1"",""3027""
","
","","","1350","","","10","4101","1045","&#9776;","elianto","#3366ff99"," "," ","1","+10","[2200.89999999851]","1","0","1","","","","","","","",""
"pit-trial","30","357684","0.0-2.0-8.2-0.2","battery-v0.2","","""event"",""trial"",""time""
""fullscreenenter"",""1"",""3027""
","
","
","""event"",""trial"",""time""
""fullscreenenter"",""1"",""3027""
","
","","","660.5999999977648","","","10","4101","1045","&#9776;","elianto","#3366ff99"," "," ","1","+10","[1510.8999999985099]","1","0","1","","","","","","","",""
"pit-trial","31","361329","0.0-2.0-8.2-1.2","battery-v0.2","","""event"",""trial"",""time""
""fullscreenenter"",""1"",""3027""
","
","
","""event"",""trial"",""time""
""fullscreenenter"",""1"",""3027""
","
","","","790.3000000007451","","","10","4101","1045","&#9776;","elianto","#3366ff99"," "," ","1","+10","[1641.800000000745]","1","0","1","","","","","","","",""
"pit-trial","32","364779","0.0-2.0-8.2-2.2","battery-v0.2","","""event"",""trial"",""time""
""fullscreenenter"",""1"",""3027""
","
","
","""event"",""trial"",""time""
""fullscreenenter"",""1"",""3027""
","
","","","593.5","","","10","4101","1045","&#9776;","elianto","#3366ff99"," "," ","1","+10","[1444.6000000014901]","1","0","1","","","","","","","",""
"pit-trial","33","368003","0.0-2.0-8.2-3.2","battery-v0.2","","""event"",""trial"",""time""
""fullscreenenter"",""1"",""3027""
","
","
","""event"",""trial"",""time""
""fullscreenenter"",""1"",""3027""
","
","","","366.3999999985099","","","10","4101","1045","&#9776;","elianto","#3366ff99"," "," ","1","0","[1217.699999999255]","1","0","1","","","","","","","",""
"pit-trial","34","371607","0.0-2.0-8.2-4.2","battery-v0.2","","""event"",""trial"",""time""
""fullscreenenter"",""1"",""3027""
","
","
","""event"",""trial"",""time""
""fullscreenenter"",""1"",""3027""
","
","","","749.6999999992549","","","10","4101","1045","&#9776;","elianto","#3366ff99"," "," ","1","+10","[1600.800000000745]","1","0","1","","","","","","","",""
"call-function","35","371610","0.0-2.0-9.0","battery-v0.2","","""event"",""trial"",""time""
""fullscreenenter"",""1"",""3027""
","
","
","""event"",""trial"",""time""
""fullscreenenter"",""1"",""3027""
","
","","","","","","","","","","","","","","","","","","","","","","","","","","",""
"pit-instructions","36","414418","0.0-2.0-10.0","battery-v0.2","","""event"",""trial"",""time""
""fullscreenenter"",""1"",""3027""
","
","
","""event"",""trial"",""time""
""fullscreenenter"",""1"",""3027""
","
","","[{""page_index"":0,""viewing_time"":5779.10000000149},{""page_index"":1,""viewing_time"":7307.800000000745},{""page_index"":2,""viewing_time"":11826},{""page_index"":3,""viewing_time"":9719.300000000745},{""page_index"":4,""viewing_time"":8185}]","42817.900000002235","","","","","","","","","","","","","","","","","","","","","","","",""
"pit-trial","37","419275","0.0-2.0-11.0-0.0","battery-v0.2","","""event"",""trial"",""time""
""fullscreenenter"",""1"",""3027""
","
","
","""event"",""trial"",""time""
""fullscreenenter"",""1"",""3027""
","
","","","-1","","","10","4101","1045","&#9761;","elianto","#3366ff99","-1","-1","1","+10","[]","0","0","2","","","","","","","",""
"pit-trial","38","424132","0.0-2.0-11.0-1.0","battery-v0.2","","""event"",""trial"",""time""
""fullscreenenter"",""1"",""3027""
","
","
","""event"",""trial"",""time""
""fullscreenenter"",""1"",""3027""
","
","","","-1","","","10","4101","1045","&#9761;","elianto","#3366ff99","-1","-1","1","+10","[]","0","0","2","","","","","","","",""
"pit-trial","39","428990","0.0-2.0-11.0-2.0","battery-v0.2","","""event"",""trial"",""time""
""fullscreenenter"",""1"",""3027""
","
","
","""event"",""trial"",""time""
""fullscreenenter"",""1"",""3027""
","
","","","-1","","","10","4101","1045","&#9761;","elianto","#3366ff99","-1","-1","1","+10","[]","0","0","2","","","","","","","",""
"pit-trial","40","433848","0.0-2.0-11.0-3.0","battery-v0.2","","""event"",""trial"",""time""
""fullscreenenter"",""1"",""3027""
","
","
","""event"",""trial"",""time""
""fullscreenenter"",""1"",""3027""
","
","","","-1","","","10","4101","1045","&#9761;","elianto","#3366ff99","-1","-1","1","0","[]","0","0","2","","","","","","","",""
"pit-trial","41","438708","0.0-2.0-11.0-4.0","battery-v0.2","","""event"",""trial"",""time""
""fullscreenenter"",""1"",""3027""
","
","
","""event"",""trial"",""time""
""fullscreenenter"",""1"",""3027""
","
","","","-1","","","10","4101","1045","&#9761;","elianto","#3366ff99","-1","-1","1","+10","[]","0","0","2","","","","","","","",""
"pit-trial","42","443564","0.0-2.0-11.1-0.1","battery-v0.2","","""event"",""trial"",""time""
""fullscreenenter"",""1"",""3027""
","
","
","""event"",""trial"",""time""
""fullscreenenter"",""1"",""3027""
","
","","","-1","","","10","4101","1045","&#9761;","elianto","#3366ff99","-1","-1","1","+10","[]","0","0","2","","","","","","","",""
"pit-trial","43","448421","0.0-2.0-11.1-1.1","battery-v0.2","","""event"",""trial"",""time""
""fullscreenenter"",""1"",""3027""
","
","
","""event"",""trial"",""time""
""fullscreenenter"",""1"",""3027""
","
","","","-1","","","10","4101","1045","&#9761;","elianto","#3366ff99","-1","-1","1","+10","[]","0","0","2","","","","","","","",""
"pit-trial","44","453279","0.0-2.0-11.1-2.1","battery-v0.2","","""event"",""trial"",""time""
""fullscreenenter"",""1"",""3027""
","
","
","""event"",""trial"",""time""
""fullscreenenter"",""1"",""3027""
","
","","","-1","","","10","4101","1045","&#9761;","elianto","#3366ff99","-1","-1","1","+10","[]","0","0","2","","","","","","","",""
"pit-trial","45","458138","0.0-2.0-11.1-3.1","battery-v0.2","","""event"",""trial"",""time""
""fullscreenenter"",""1"",""3027""
","
","
","""event"",""trial"",""time""
""fullscreenenter"",""1"",""3027""
","
","","","-1","","","10","4101","1045","&#9761;","elianto","#3366ff99","-1","-1","1","0","[]","0","0","2","","","","","","","",""
"pit-trial","46","462996","0.0-2.0-11.1-4.1","battery-v0.2","","""event"",""trial"",""time""
""fullscreenenter"",""1"",""3027""
","
","
","""event"",""trial"",""time""
""fullscreenenter"",""1"",""3027""
","
","","","-1","","","10","4101","1045","&#9761;","elianto","#3366ff99","-1","-1","1","+10","[]","0","0","2","","","","","","","",""
"pit-trial","47","467851","0.0-2.0-11.2-0.2","battery-v0.2","","""event"",""trial"",""time""
""fullscreenenter"",""1"",""3027""
","
","
","""event"",""trial"",""time""
""fullscreenenter"",""1"",""3027""
","
","","","-1","","","10","4101","1045","&#9761;","elianto","#3366ff99","-1","-1","1","+10","[]","0","0","2","","","","","","","",""
"pit-trial","48","472712","0.0-2.0-11.2-1.2","battery-v0.2","","""event"",""trial"",""time""
""fullscreenenter"",""1"",""3027""
","
","
","""event"",""trial"",""time""
""fullscreenenter"",""1"",""3027""
","
","","","-1","","","10","4101","1045","&#9761;","elianto","#3366ff99","-1","-1","1","+10","[]","0","0","2","","","","","","","",""
"pit-trial","49","477567","0.0-2.0-11.2-2.2","battery-v0.2","","""event"",""trial"",""time""
""fullscreenenter"",""1"",""3027""
","
","
","""event"",""trial"",""time""
""fullscreenenter"",""1"",""3027""
","
","","","-1","","","10","4101","1045","&#9761;","elianto","#3366ff99","-1","-1","1","+10","[]","0","0","2","","","","","","","",""
"pit-trial","50","482424","0.0-2.0-11.2-3.2","battery-v0.2","","""event"",""trial"",""time""
""fullscreenenter"",""1"",""3027""
","
","
","""event"",""trial"",""time""
""fullscreenenter"",""1"",""3027""
","
","","","-1","","","10","4101","1045","&#9761;","elianto","#3366ff99","-1","-1","1","0","[]","0","0","2","","","","","","","",""
"pit-trial","51","487282","0.0-2.0-11.2-4.2","battery-v0.2","","""event"",""trial"",""time""
""fullscreenenter"",""1"",""3027""
","
","
","""event"",""trial"",""time""
""fullscreenenter"",""1"",""3027""
","
","","","-1","","","10","4101","1045","&#9761;","elianto","#3366ff99","-1","-1","1","+10","[]","0","0","2","","","","","","","",""
"pit-trial","52","492139","0.0-2.0-11.3-0.3","battery-v0.2","","""event"",""trial"",""time""
""fullscreenenter"",""1"",""3027""
","
","
","""event"",""trial"",""time""
""fullscreenenter"",""1"",""3027""
","
","","","-1","","","10","4101","1045","&#9761;","elianto","#3366ff99","-1","-1","1","+10","[]","0","0","2","","","","","","","",""
"pit-trial","53","496997","0.0-2.0-11.3-1.3","battery-v0.2","","""event"",""trial"",""time""
""fullscreenenter"",""1"",""3027""
","
","
","""event"",""trial"",""time""
""fullscreenenter"",""1"",""3027""
","
","","","-1","","","10","4101","1045","&#9761;","elianto","#3366ff99","-1","-1","1","+10","[]","0","0","2","","","","","","","",""
"pit-trial","54","501857","0.0-2.0-11.3-2.3","battery-v0.2","","""event"",""trial"",""time""
""fullscreenenter"",""1"",""3027""
","
","
","""event"",""trial"",""time""
""fullscreenenter"",""1"",""3027""
","
","","","-1","","","10","4101","1045","&#9761;","elianto","#3366ff99","-1","-1","1","+10","[]","0","0","2","","","","","","","",""
"pit-trial","55","506712","0.0-2.0-11.3-3.3","battery-v0.2","","""event"",""trial"",""time""
""fullscreenenter"",""1"",""3027""
","
","
","""event"",""trial"",""time""
""fullscreenenter"",""1"",""3027""
","
","","","-1","","","10","4101","1045","&#9761;","elianto","#3366ff99","-1","-1","1","0","[]","0","0","2","","","","","","","",""
"pit-trial","56","511570","0.0-2.0-11.3-4.3","battery-v0.2","","""event"",""trial"",""time""
""fullscreenenter"",""1"",""3027""
","
","
","""event"",""trial"",""time""
""fullscreenenter"",""1"",""3027""
","
","","","-1","","","10","4101","1045","&#9761;","elianto","#3366ff99","-1","-1","1","+10","[]","0","0","2","","","","","","","",""
"call-function","57","511573","0.0-2.0-12.0","battery-v0.2","","""event"",""trial"",""time""
""fullscreenenter"",""1"",""3027""
","
","
","""event"",""trial"",""time""
""fullscreenenter"",""1"",""3027""
","
","","","","","","","","","","","","","","","","","","","","","","","","","","",""
"pit-instructions","58","548559","0.0-2.0-13.0","battery-v0.2","","""event"",""trial"",""time""
""fullscreenenter"",""1"",""3027""
","
","
","""event"",""trial"",""time""
""fullscreenenter"",""1"",""3027""
","
","","[{""page_index"":0,""viewing_time"":6105.89999999851},{""page_index"":1,""viewing_time"":8059.900000002235},{""page_index"":2,""viewing_time"":5753.800000000745},{""page_index"":3,""viewing_time"":11351.099999997765},{""page_index"":4,""viewing_time"":5723.800000000745}]","36995.10000000149","","","","","","","","","","","","","","","","","","","","","","","",""
"pit-trial","59","553416","0.0-2.0-14.0-0.0","battery-v0.2","","""event"",""trial"",""time""
""fullscreenenter"",""1"",""3027""
","
","
","""event"",""trial"",""time""
""fullscreenenter"",""1"",""3027""
","
","","","-1","","","10","4101","1045","&#9826;","elianto","#f73b6a7A","-1","-1","1","0","[2895.199999999255]","1","0","3","","","","","","","",""
"pit-trial","60","556874","0.0-2.0-14.0-1.0","battery-v0.2","","""event"",""trial"",""time""
""fullscreenenter"",""1"",""3027""
","
","
","""event"",""trial"",""time""
""fullscreenenter"",""1"",""3027""
","
","","","602.9000000022352","","","10","4101","1045","&#9826;","elianto","#f73b6a7A","-1"," ","0","-10","[1453.199999999255]","1","0","3","","","","","","","",""
"pit-trial","61","560501","0.0-2.0-14.0-2.0","battery-v0.2","","""event"",""trial"",""time""
""fullscreenenter"",""1"",""3027""
","
","
","""event"",""trial"",""time""
""fullscreenenter"",""1"",""3027""
","
","","","774.3000000007451","","","10","4101","1045","&#9826;","elianto","#f73b6a7A","-1"," ","0","-10","[1625.1000000014901]","1","0","3","","","","","","","",""
"pit-trial","62","563949","0.0-2.0-14.0-3.0","battery-v0.2","","""event"",""trial"",""time""
""fullscreenenter"",""1"",""3027""
","
","
","""event"",""trial"",""time""
""fullscreenenter"",""1"",""3027""
","
","","","594.1999999992549","","","10","4101","1045","&#9826;","elianto","#f73b6a7A","-1"," ","0","0","[1445.300000000745]","1","0","3","","","","","","","",""
"pit-trial","63","567461","0.0-2.0-14.0-4.0","battery-v0.2","","""event"",""trial"",""time""
""fullscreenenter"",""1"",""3027""
","
","
","""event"",""trial"",""time""
""fullscreenenter"",""1"",""3027""
","
","","","658.5","","","10","4101","1045","&#9826;","elianto","#f73b6a7A","-1"," ","0","-10","[1509]","1","0","3","","","","","","","",""
"pit-trial","64","572317","0.0-2.0-14.1-0.1","battery-v0.2","","""event"",""trial"",""time""
""fullscreenenter"",""1"",""3027""
","
","
","""event"",""trial"",""time""
""fullscreenenter"",""1"",""3027""
","
","","","-1","","","10","4101","1045","&#9826;","elianto","#f73b6a7A","-1","-1","1","0","[]","0","0","3","","","","","","","",""
"pit-trial","65","577178","0.0-2.0-14.1-1.1","battery-v0.2","","""event"",""trial"",""time""
""fullscreenenter"",""1"",""3027""
","
","
","""event"",""trial"",""time""
""fullscreenenter"",""1"",""3027""
","
","","","-1","","","10","4101","1045","&#9826;","elianto","#f73b6a7A","-1","-1","1","0","[]","0","0","3","","","","","","","",""
"pit-trial","66","582034","0.0-2.0-14.1-2.1","battery-v0.2","","""event"",""trial"",""time""
""fullscreenenter"",""1"",""3027""
","
","
","""event"",""trial"",""time""
""fullscreenenter"",""1"",""3027""
","
","","","-1","","","10","4101","1045","&#9826;","elianto","#f73b6a7A","-1","-1","1","0","[]","0","0","3","","","","","","","",""
"pit-trial","67","586894","0.0-2.0-14.1-3.1","battery-v0.2","","""event"",""trial"",""time""
""fullscreenenter"",""1"",""3027""
","
","
","""event"",""trial"",""time""
""fullscreenenter"",""1"",""3027""
","
","","","-1","","","10","4101","1045","&#9826;","elianto","#f73b6a7A","-1","-1","1","-10","[]","0","0","3","","","","","","","",""
"pit-trial","68","591749","0.0-2.0-14.1-4.1","battery-v0.2","","""event"",""trial"",""time""
""fullscreenenter"",""1"",""3027""
","
","
","""event"",""trial"",""time""
""fullscreenenter"",""1"",""3027""
","
","","","-1","","","10","4101","1045","&#9826;","elianto","#f73b6a7A","-1","-1","1","0","[]","0","0","3","","","","","","","",""
"pit-trial","69","596607","0.0-2.0-14.2-0.2","battery-v0.2","","""event"",""trial"",""time""
""fullscreenenter"",""1"",""3027""
","
","
","""event"",""trial"",""time""
""fullscreenenter"",""1"",""3027""
","
","","","-1","","","10","4101","1045","&#9826;","elianto","#f73b6a7A","-1","-1","1","0","[]","0","0","3","","","","","","","",""
"pit-trial","70","601464","0.0-2.0-14.2-1.2","battery-v0.2","","""event"",""trial"",""time""
""fullscreenenter"",""1"",""3027""
","
","
","""event"",""trial"",""time""
""fullscreenenter"",""1"",""3027""
","
","","","-1","","","10","4101","1045","&#9826;","elianto","#f73b6a7A","-1","-1","1","0","[]","0","0","3","","","","","","","",""
"pit-trial","71","606322","0.0-2.0-14.2-2.2","battery-v0.2","","""event"",""trial"",""time""
""fullscreenenter"",""1"",""3027""
","
","
","""event"",""trial"",""time""
""fullscreenenter"",""1"",""3027""
","
","","","-1","","","10","4101","1045","&#9826;","elianto","#f73b6a7A","-1","-1","1","0","[]","0","0","3","","","","","","","",""
"pit-trial","72","611180","0.0-2.0-14.2-3.2","battery-v0.2","","""event"",""trial"",""time""
""fullscreenenter"",""1"",""3027""
","
","
","""event"",""trial"",""time""
""fullscreenenter"",""1"",""3027""
","
","","","-1","","","10","4101","1045","&#9826;","elianto","#f73b6a7A","-1","-1","1","-10","[]","0","0","3","","","","","","","",""
"pit-trial","73","616037","0.0-2.0-14.2-4.2","battery-v0.2","","""event"",""trial"",""time""
""fullscreenenter"",""1"",""3027""
","
","
","""event"",""trial"",""time""
""fullscreenenter"",""1"",""3027""
","
","","","-1","","","10","4101","1045","&#9826;","elianto","#f73b6a7A","-1","-1","1","0","[]","0","0","3","","","","","","","",""
"pit-trial","74","620895","0.0-2.0-14.3-0.3","battery-v0.2","","""event"",""trial"",""time""
""fullscreenenter"",""1"",""3027""
","
","
","""event"",""trial"",""time""
""fullscreenenter"",""1"",""3027""
","
","","","-1","","","10","4101","1045","&#9826;","elianto","#f73b6a7A","-1","-1","1","0","[]","0","0","3","","","","","","","",""
"pit-trial","75","625752","0.0-2.0-14.3-1.3","battery-v0.2","","""event"",""trial"",""time""
""fullscreenenter"",""1"",""3027""
","
","
","""event"",""trial"",""time""
""fullscreenenter"",""1"",""3027""
","
","","","-1","","","10","4101","1045","&#9826;","elianto","#f73b6a7A","-1","-1","1","0","[]","0","0","3","","","","","","","",""
"pit-trial","76","630609","0.0-2.0-14.3-2.3","battery-v0.2","","""event"",""trial"",""time""
""fullscreenenter"",""1"",""3027""
","
","
","""event"",""trial"",""time""
""fullscreenenter"",""1"",""3027""
","
","","","-1","","","10","4101","1045","&#9826;","elianto","#f73b6a7A","-1","-1","1","0","[]","0","0","3","","","","","","","",""
"pit-trial","77","635469","0.0-2.0-14.3-3.3","battery-v0.2","","""event"",""trial"",""time""
""fullscreenenter"",""1"",""3027""
","
","
","""event"",""trial"",""time""
""fullscreenenter"",""1"",""3027""
","
","","","-1","","","10","4101","1045","&#9826;","elianto","#f73b6a7A","-1","-1","1","-10","[]","0","0","3","","","","","","","",""
"pit-trial","78","640325","0.0-2.0-14.3-4.3","battery-v0.2","","""event"",""trial"",""time""
""fullscreenenter"",""1"",""3027""
","
","
","""event"",""trial"",""time""
""fullscreenenter"",""1"",""3027""
","
","","","-1","","","10","4101","1045","&#9826;","elianto","#f73b6a7A","-1","-1","1","0","[]","0","0","3","","","","","","","",""
"call-function","79","640327","0.0-2.0-15.0","battery-v0.2","","""event"",""trial"",""time""
""fullscreenenter"",""1"",""3027""
","
","
","""event"",""trial"",""time""
""fullscreenenter"",""1"",""3027""
","
","","","","","","","","","","","","","","","","","","","","","","","","","","",""
"pit-instructions","80","693093","0.0-2.0-16.0","battery-v0.2","","""event"",""trial"",""time""
""fullscreenenter"",""1"",""3027""
","
","
","""event"",""trial"",""time""
""fullscreenenter"",""1"",""3027""
","
","","[{""page_index"":0,""viewing_time"":7348.5},{""page_index"":1,""viewing_time"":10734.5},{""page_index"":2,""viewing_time"":6689.599999997765},{""page_index"":3,""viewing_time"":28004.900000002235}]","52778.29999999702","","","","","","","","","","","","","","","","","","","","","","","",""
"pit-trial","81","697952","0.0-2.0-17.0-0.0","battery-v0.2","","""event"",""trial"",""time""
""fullscreenenter"",""1"",""3027""
","
","
","""event"",""trial"",""time""
""fullscreenenter"",""1"",""3027""
","
","","","-1","","","10","4101","1045","&#9789;","elianto","#f73b6a7A"," ","-1","0","-10","[3317.89999999851,3445.699999999255]","2","0","4","","","","","","","",""
"pit-trial","82","701365","0.0-2.0-17.0-1.0","battery-v0.2","","""event"",""trial"",""time""
""fullscreenenter"",""1"",""3027""
","
","
","""event"",""trial"",""time""
""fullscreenenter"",""1"",""3027""
","
","","","558","","","10","4101","1045","&#9789;","elianto","#f73b6a7A"," "," ","1","0","[1410.199999999255]","1","0","4","","","","","","","",""
"pit-trial","83","704830","0.0-2.0-17.0-2.0","battery-v0.2","","""event"",""trial"",""time""
""fullscreenenter"",""1"",""3027""
","
","
","""event"",""trial"",""time""
""fullscreenenter"",""1"",""3027""
","
","","","609.4000000022352","","","10","4101","1045","&#9789;","elianto","#f73b6a7A"," "," ","1","0","[1460]","1","0","4","","","","","","","",""
"pit-trial","84","709688","0.0-2.0-17.0-3.0","battery-v0.2","","""event"",""trial"",""time""
""fullscreenenter"",""1"",""3027""
","
","
","""event"",""trial"",""time""
""fullscreenenter"",""1"",""3027""
","
","","","-1","","","10","4101","1045","&#9789;","elianto","#f73b6a7A"," ","-1","0","0","[]","0","0","4","","","","","","","",""
"pit-trial","85","713715","0.0-2.0-17.0-4.0","battery-v0.2","","""event"",""trial"",""time""
""fullscreenenter"",""1"",""3027""
","
","
","""event"",""trial"",""time""
""fullscreenenter"",""1"",""3027""
","
","","","1173","","","10","4101","1045","&#9789;","elianto","#f73b6a7A"," "," ","1","0","[2023.5999999977648]","1","0","4","","","","","","","",""
"pit-trial","86","717401","0.0-2.0-17.1-0.1","battery-v0.2","","""event"",""trial"",""time""
""fullscreenenter"",""1"",""3027""
","
","
","""event"",""trial"",""time""
""fullscreenenter"",""1"",""3027""
","
","","","828.8000000007451","","","10","4101","1045","&#9789;","elianto","#f73b6a7A"," "," ","1","0","[1681.5]","1","0","4","","","","","","","",""
"pit-trial","87","720993","0.0-2.0-17.1-1.1","battery-v0.2","","""event"",""trial"",""time""
""fullscreenenter"",""1"",""3027""
","
","
","""event"",""trial"",""time""
""fullscreenenter"",""1"",""3027""
","
","","","738.1999999992549","","","10","4101","1045","&#9789;","elianto","#f73b6a7A"," "," ","1","0","[1588.5999999977648]","1","0","4","","","","","","","",""
"pit-trial","88","724736","0.0-2.0-17.1-2.1","battery-v0.2","","""event"",""trial"",""time""
""fullscreenenter"",""1"",""3027""
","
","
","""event"",""trial"",""time""
""fullscreenenter"",""1"",""3027""
","
","","","888.9000000022352","","","10","4101","1045","&#9789;","elianto","#f73b6a7A"," "," ","1","0","[1739.6000000014901]","1","0","4","","","","","","","",""
"pit-trial","89","728595","0.0-2.0-17.1-3.1","battery-v0.2","","""event"",""trial"",""time""
""fullscreenenter"",""1"",""3027""
","
","
","""event"",""trial"",""time""
""fullscreenenter"",""1"",""3027""
","
","","","1001.8000000007451","","","10","4101","1045","&#9789;","elianto","#f73b6a7A"," "," ","1","-10","[1852.8999999985099]","1","0","4","","","","","","","",""
"pit-trial","90","733452","0.0-2.0-17.1-4.1","battery-v0.2","","""event"",""trial"",""time""
""fullscreenenter"",""1"",""3027""
","
","
","""event"",""trial"",""time""
""fullscreenenter"",""1"",""3027""
","
","","","-1","","","10","4101","1045","&#9789;","elianto","#f73b6a7A"," ","-1","0","-10","[2935.599999997765]","1","0","4","","","","","","","",""
"pit-trial","91","736790","0.0-2.0-17.2-0.2","battery-v0.2","","""event"",""trial"",""time""
""fullscreenenter"",""1"",""3027""
","
","
","""event"",""trial"",""time""
""fullscreenenter"",""1"",""3027""
","
","","","482.9000000022352","","","10","4101","1045","&#9789;","elianto","#f73b6a7A"," "," ","1","0","[1332.800000000745]","1","0","4","","","","","","","",""
"pit-trial","92","739709","0.0-2.0-17.2-1.2","battery-v0.2","","""event"",""trial"",""time""
""fullscreenenter"",""1"",""3027""
","
","
","""event"",""trial"",""time""
""fullscreenenter"",""1"",""3027""
","
","","","59.5","","","10","4101","1045","&#9789;","elianto","#f73b6a7A"," "," ","1","0","[135.40000000223517,362.4000000022352,685.2000000029802,914.5,1275,1538.4000000022352,1810.300000000745,2498.5,2866.5]","9","0","4","","","","","","","",""
"pit-trial","93","742771","0.0-2.0-17.2-2.2","battery-v0.2","","""event"",""trial"",""time""
""fullscreenenter"",""1"",""3027""
","
","
","""event"",""trial"",""time""
""fullscreenenter"",""1"",""3027""
","
","","","208.30000000074506","","","10","4101","1045","&#9789;","elianto","#f73b6a7A"," "," ","1","0","[674.8000000007451,1059.4000000022352,1474.5,1834.699999999255,2554.5,2938.5]","6","0","4","","","","","","","",""
"pit-trial","94","746098","0.0-2.0-17.2-3.2","battery-v0.2","","""event"",""trial"",""time""
""fullscreenenter"",""1"",""3027""
","
","
","""event"",""trial"",""time""
""fullscreenenter"",""1"",""3027""
","
","","","473.69999999925494","","","10","4101","1045","&#9789;","elianto","#f73b6a7A"," "," ","1","-10","[276.6000000014901,612,1324.1000000014901,1715.699999999255,2043.9000000022352,2428.300000000745,2827.699999999255]","7","0","4","","","","","","","",""
"pit-trial","95","749099","0.0-2.0-17.2-4.2","battery-v0.2","","""event"",""trial"",""time""
""fullscreenenter"",""1"",""3027""
","
","
","""event"",""trial"",""time""
""fullscreenenter"",""1"",""3027""
","
","","","142.30000000074506","","","10","4101","1045","&#9789;","elianto","#f73b6a7A"," "," ","1","0","[460.1000000014901,724.1000000014901,996.1999999992549,1267.9000000022352,1483.6000000014901,1747.6000000014901,2027.699999999255,2276.400000002235,2571.699999999255,2835.5]","10","0","4","","","","","","","",""
"pit-trial","96","751990","0.0-2.0-17.3-0.3","battery-v0.2","","""event"",""trial"",""time""
""fullscreenenter"",""1"",""3027""
","
","
","""event"",""trial"",""time""
""fullscreenenter"",""1"",""3027""
","
","","","34.30000000074506","","","10","4101","1045","&#9789;","elianto","#f73b6a7A"," "," ","1","0","[106.10000000149012,347.5,609.5,884.5,1172.3999999985099,1449.3999999985099,1729.300000000745,2009.300000000745,2273.39999999851,2553.300000000745,2841.39999999851]","11","0","4","","","","","","","",""
"pit-trial","97","755570","0.0-2.0-17.3-1.3","battery-v0.2","","""event"",""trial"",""time""
""fullscreenenter"",""1"",""3027""
","
","
","""event"",""trial"",""time""
""fullscreenenter"",""1"",""3027""
","
","","","722.5","","","10","4101","1045","&#9789;","elianto","#f73b6a7A"," "," ","1","0","[216,498.19999999925494,788.5,1575.5,2143.5,3023.599999997765]","6","0","4","","","","","","","",""
"pit-trial","98","758518","0.0-2.0-17.3-2.3","battery-v0.2","","""event"",""trial"",""time""
""fullscreenenter"",""1"",""3027""
","
","
","""event"",""trial"",""time""
""fullscreenenter"",""1"",""3027""
","
","","","92.19999999925494","","","10","4101","1045","&#9789;","elianto","#f73b6a7A"," "," ","1","0","[50.099999997764826,306.19999999925494,609.3999999985099,945.5999999977648,1481.800000000745,1801.5999999977648,2089.5,2361.5,2601.599999997765,2857.5]","10","0","4","","","","","","","",""
"pit-trial","99","761623","0.0-2.0-17.3-3.3","battery-v0.2","","""event"",""trial"",""time""
""fullscreenenter"",""1"",""3027""
","
","
","""event"",""trial"",""time""
""fullscreenenter"",""1"",""3027""
","
","","","250.40000000223517","","","10","4101","1045","&#9789;","elianto","#f73b6a7A"," "," ","1","-10","[557,821.1000000014901,1101.4000000022352,1205,1404.6000000014901,1636.6000000014901,1908.699999999255,2196.60000000149,2484.5,2700.5,2964.699999999255]","11","0","4","","","","","","","",""
"pit-trial","100","764693","0.0-2.0-17.3-4.3","battery-v0.2","","""event"",""trial"",""time""
""fullscreenenter"",""1"",""3027""
","
","
","""event"",""trial"",""time""
""fullscreenenter"",""1"",""3027""
","
","","","216.80000000074506","","","10","4101","1045","&#9789;","elianto","#f73b6a7A"," "," ","1","0","[147.20000000298023,507.80000000074506,819.2000000029802,1067.7000000029802,1395.2000000029802,1698.800000000745,2027,2346.800000000745,3043]","9","0","4","","","","","","","",""
"call-function","101","764696","0.0-2.0-18.0","battery-v0.2","","""event"",""trial"",""time""
""fullscreenenter"",""1"",""3027""
","
","
","""event"",""trial"",""time""
""fullscreenenter"",""1"",""3027""
","
","","","","","","","","","","","","","","","","","","","","","","","","","","",""
"pit-instructions","102","846007","0.0-2.0-19.0","battery-v0.2","","""event"",""trial"",""time""
""fullscreenenter"",""1"",""3027""
","
","
","""event"",""trial"",""time""
""fullscreenenter"",""1"",""3027""
","
","","[{""page_index"":0,""viewing_time"":7263.89999999851},{""page_index"":1,""viewing_time"":6958.20000000298},{""page_index"":2,""viewing_time"":20577.099999997765},{""page_index"":3,""viewing_time"":8087.300000000745},{""page_index"":4,""viewing_time"":9281.300000000745},{""page_index"":5,""viewing_time"":8327.599999997765},{""page_index"":6,""viewing_time"":9296.5},{""page_index"":7,""viewing_time"":7390},{""page_index"":8,""viewing_time"":4147.70000000298}]","81330.30000000075","","","","","","","","","","","","","","","","","","","","","","","",""
"pit-comprehension","103","851703","0.0-2.0-20.0-0.0","battery-v0.2","","""event"",""trial"",""time""
""fullscreenenter"",""1"",""3027""
","
","
","""event"",""trial"",""time""
""fullscreenenter"",""1"",""3027""
","
","","","5691.5","[""SPACE""]","0","10","4101","1045","","","","","","","","","","","","","","","","","","",""
"pit-instructions","104","854605","0.0-2.0-20.0-1.0","battery-v0.2","","""event"",""trial"",""time""
""fullscreenenter"",""1"",""3027""
","
","
","""event"",""trial"",""time""
""fullscreenenter"",""1"",""3027""
","
","","[{""page_index"":0,""viewing_time"":2823.5}]","2824.10000000149","","","","","","","","","","","","","","","","","","","","","","","",""
"pit-comprehension","105","862795","0.0-2.0-21.0-0.0","battery-v0.2","","""event"",""trial"",""time""
""fullscreenenter"",""1"",""3027""
","
","
","""event"",""trial"",""time""
""fullscreenenter"",""1"",""3027""
","
","","","8184.300000000745","[""10""]","0","10","4101","1045","","","","","","","","","","","","","","","","","","",""
"pit-instructions","106","864520","0.0-2.0-21.0-1.0","battery-v0.2","","""event"",""trial"",""time""
""fullscreenenter"",""1"",""3027""
","
","
","""event"",""trial"",""time""
""fullscreenenter"",""1"",""3027""
","
","","[{""page_index"":0,""viewing_time"":1634.9000000022352}]","1635.6000000014901","","","","","","","","","","","","","","","","","","","","","","","",""
"pit-comprehension","107","872513","0.0-2.0-22.0-0.0","battery-v0.2","","""event"",""trial"",""time""
""fullscreenenter"",""1"",""3027""
","
","
","""event"",""trial"",""time""
""fullscreenenter"",""1"",""3027""
","
","","","7989.5","[""0""]","0","10","4101","1045","","","","","","","","","","","","","","","","","","",""
"pit-instructions","108","875881","0.0-2.0-22.0-1.0","battery-v0.2","","""event"",""trial"",""time""
""fullscreenenter"",""1"",""3027""
","
","
","""event"",""trial"",""time""
""fullscreenenter"",""1"",""3027""
","
","","[{""page_index"":0,""viewing_time"":3291.10000000149}]","3291.5","","","","","","","","","","","","","","","","","","","","","","","",""
"pit-comprehension","109","887721","0.0-2.0-23.0-0.0","battery-v0.2","","""event"",""trial"",""time""
""fullscreenenter"",""1"",""3027""
","
","
","""event"",""trial"",""time""
""fullscreenenter"",""1"",""3027""
","
","","","11837.10000000149","[""True""]","0","10","4101","1045","","","","","","","","","","","","","","","","","","",""
"pit-instructions","110","892120","0.0-2.0-23.0-1.0","battery-v0.2","","""event"",""trial"",""time""
""fullscreenenter"",""1"",""3027""
","
","
","""event"",""trial"",""time""
""fullscreenenter"",""1"",""3027""
","
","","[{""page_index"":0,""viewing_time"":4319.599999997765}]","4320.199999999255","","","","","","","","","","","","","","","","","","","","","","","",""
"pit-comprehension","111","900919","0.0-2.0-24.0-0.0","battery-v0.2","","""event"",""trial"",""time""
""fullscreenenter"",""1"",""3027""
","
","
","""event"",""trial"",""time""
""fullscreenenter"",""1"",""3027""
","
","","","8796.199999999255","[""True""]","0","10","4101","1045","","","","","","","","","","","","","","","","","","",""
"pit-instructions","112","903598","0.0-2.0-24.0-1.0","battery-v0.2","","""event"",""trial"",""time""
""fullscreenenter"",""1"",""3027""
","
","
","""event"",""trial"",""time""
""fullscreenenter"",""1"",""3027""
","
","","[{""page_index"":0,""viewing_time"":2595.10000000149}]","2595.699999999255","","","","","","","","","","","","","","","","","","","","","","","",""
"pit-comprehension","113","910813","0.0-2.0-25.0-0.0","battery-v0.2","","""event"",""trial"",""time""
""fullscreenenter"",""1"",""3027""
","
","
","""event"",""trial"",""time""
""fullscreenenter"",""1"",""3027""
","
","","","7211","[""True""]","0","10","4101","1045","","","","","","","","","","","","","","","","","","",""
"pit-instructions","114","912142","0.0-2.0-25.0-1.0","battery-v0.2","","""event"",""trial"",""time""
""fullscreenenter"",""1"",""3027""
","
","
","""event"",""trial"",""time""
""fullscreenenter"",""1"",""3027""
","
","","[{""page_index"":0,""viewing_time"":1243.699999999255}]","1244.5","","","","","","","","","","","","","","","","","","","","","","","",""
"pit-comprehension","115","918530","0.0-2.0-26.0-0.0","battery-v0.2","","""event"",""trial"",""time""
""fullscreenenter"",""1"",""3027""
","
","
","""event"",""trial"",""time""
""fullscreenenter"",""1"",""3027""
","
","","","6383","[""False""]","0","10","4101","1045","","","","","","","","","","","","","","","","","","",""
"pit-instructions","116","920282","0.0-2.0-26.0-1.0","battery-v0.2","","""event"",""trial"",""time""
""fullscreenenter"",""1"",""3027""
","
","
","""event"",""trial"",""time""
""fullscreenenter"",""1"",""3027""
","
","","[{""page_index"":0,""viewing_time"":1664}]","1664.800000000745","","","","","","","","","","","","","","","","","","","","","","","",""
"pit-instructions","117","941619","0.0-3.0","battery-v0.2","","""event"",""trial"",""time""
""fullscreenenter"",""1"",""3027""
","
","
","""event"",""trial"",""time""
""fullscreenenter"",""1"",""3027""
","
","","[{""page_index"":0,""viewing_time"":6155.800000000745},{""page_index"":1,""viewing_time"":5289.300000000745},{""page_index"":2,""viewing_time"":9893.5}]","21339.300000000745","","","","","","","","","","","","","","","","","","","","","","","",""
"pit-trial","118","945237","0.0-4.0","battery-v0.2","","""event"",""trial"",""time""
""fullscreenenter"",""1"",""3027""
","
","
","""event"",""trial"",""time""
""fullscreenenter"",""1"",""3027""
","
","","","754.5999999977648","","","10","4101","1045","&#9728;","elianto","#f73b6a7A","-1"," ","0","-10","[1607.699999999255]","1","1","","","4101","1","0","4","lose","no-go","0"
"pit-trial","119","948922","0.0-5.0","battery-v0.2","","""event"",""trial"",""time""
""fullscreenenter"",""1"",""3027""
","
","
","""event"",""trial"",""time""
""fullscreenenter"",""1"",""3027""
","
","","","830.1999999992549","","","10","4101","1045","&#9730;","elianto","#3366ff99"," "," ","1","+10","[1680.699999999255]","1","1","","","4101","2","1","1","win","go","0"
"pit-trial","120","952840","0.0-6.0","battery-v0.2","","""event"",""trial"",""time""
""fullscreenenter"",""1"",""3027""
","
","
","""event"",""trial"",""time""
""fullscreenenter"",""1"",""3027""
","
","","","1062","","","10","4101","1045","&#9733;","elianto","#3366ff99","-1"," ","0","0","[1912.3999999985099]","1","1","","","4101","3","2","2","win","no-go","0"
"pit-trial","121","956589","0.0-7.0","battery-v0.2","","""event"",""trial"",""time""
""fullscreenenter"",""1"",""3027""
","
","
","""event"",""trial"",""time""
""fullscreenenter"",""1"",""3027""
","
","","","891.8999999985099","","","10","4101","1045","&#9752;","elianto","#f73b6a7A"," "," ","1","0","[1746.3999999985099]","1","1","","","4101","4","3","3","lose","go","0"
"pit-trial","122","961444","0.0-8.0","battery-v0.2","","""event"",""trial"",""time""
""fullscreenenter"",""1"",""3027""
","
","
","""event"",""trial"",""time""
""fullscreenenter"",""1"",""3027""
","
","","","-1","","","10","4101","1045","&#9733;","elianto","#3366ff99","-1","-1","1","+10","[]","0","1","","","4101","5","2","2","win","no-go","0"
"pit-trial","123","966304","0.0-9.0","battery-v0.2","","""event"",""trial"",""time""
""fullscreenenter"",""1"",""3027""
","
","
","""event"",""trial"",""time""
""fullscreenenter"",""1"",""3027""
","
","","","-1","","","10","4101","1045","&#9752;","elianto","#f73b6a7A"," ","-1","0","-10","[]","0","1","","","4101","6","3","3","lose","go","0"
"pit-trial","124","970031","0.0-10.0","battery-v0.2","","""event"",""trial"",""time""
""fullscreenenter"",""1"",""3027""
","
","
","""event"",""trial"",""time""
""fullscreenenter"",""1"",""3027""
","
","","","873.8000000007451","","","10","4101","1045","&#9730;","elianto","#3366ff99"," "," ","1","+10","[1724.7000000029802]","1","1","","","4101","7","1","1","win","go","0"
"pit-trial","125","974042","0.0-11.0","battery-v0.2","","""event"",""trial"",""time""
""fullscreenenter"",""1"",""3027""
","
","
","""event"",""trial"",""time""
""fullscreenenter"",""1"",""3027""
","
","","","1150.300000000745","","","10","4101","1045","&#9728;","elianto","#f73b6a7A","-1"," ","0","-10","[2004.800000000745]","1","1","","","4101","8","0","4","lose","no-go","0"
"pit-trial","126","978898","0.0-12.0","battery-v0.2","","""event"",""trial"",""time""
""fullscreenenter"",""1"",""3027""
","
","
","""event"",""trial"",""time""
""fullscreenenter"",""1"",""3027""
","
","","","-1","","","10","4101","1045","&#9733;","elianto","#3366ff99","-1","-1","1","+10","[]","0","1","","","4101","9","2","2","win","no-go","0"
"pit-trial","127","983756","0.0-13.0","battery-v0.2","","""event"",""trial"",""time""
""fullscreenenter"",""1"",""3027""
","
","
","""event"",""trial"",""time""
""fullscreenenter"",""1"",""3027""
","
","","","-1","","","10","4101","1045","&#9728;","elianto","#f73b6a7A","-1","-1","1","-10","[]","0","1","","","4101","10","0","4","lose","no-go","1"
"pit-trial","128","987778","0.0-14.0","battery-v0.2","","""event"",""trial"",""time""
""fullscreenenter"",""1"",""3027""
","
","
","""event"",""trial"",""time""
""fullscreenenter"",""1"",""3027""
","
","","","1164.800000000745","","","10","4101","1045","&#9752;","elianto","#f73b6a7A"," "," ","1","0","[2015.699999999255]","1","1","","","4101","11","3","3","lose","go","0"
"pit-trial","129","991789","0.0-15.0","battery-v0.2","","""event"",""trial"",""time""
""fullscreenenter"",""1"",""3027""
","
","
","""event"",""trial"",""time""
""fullscreenenter"",""1"",""3027""
","
","","","1157.699999999255","","","10","4101","1045","&#9730;","elianto","#3366ff99"," "," ","1","+10","[2008.5]","1","1","","","4101","12","1","1","win","go","0"
"pit-trial","130","996646","0.0-16.0","battery-v0.2","","""event"",""trial"",""time""
""fullscreenenter"",""1"",""3027""
","
","
","""event"",""trial"",""time""
""fullscreenenter"",""1"",""3027""
","
","","","-1","","","10","4101","1045","&#9728;","elianto","#f73b6a7A","-1","-1","1","0","[]","0","1","","","4101","13","0","4","lose","no-go","0"
"pit-trial","131","1000436","0.0-17.0","battery-v0.2","","""event"",""trial"",""time""
""fullscreenenter"",""1"",""3027""
","
","
","""event"",""trial"",""time""
""fullscreenenter"",""1"",""3027""
","
","","","935.5","","","10","4101","1045","&#9752;","elianto","#f73b6a7A"," "," ","1","0","[1787.3999999985099]","1","1","","","4101","14","3","3","lose","go","0"
"pit-trial","132","1004388","0.0-18.0","battery-v0.2","","""event"",""trial"",""time""
""fullscreenenter"",""1"",""3027""
","
","
","""event"",""trial"",""time""
""fullscreenenter"",""1"",""3027""
","
","","","1097.800000000745","","","10","4101","1045","&#9730;","elianto","#3366ff99"," "," ","1","0","[1949]","1","1","","","4101","15","1","1","win","go","1"
"pit-trial","133","1008149","0.0-19.0","battery-v0.2","","""event"",""trial"",""time""
""fullscreenenter"",""1"",""3027""
","
","
","""event"",""trial"",""time""
""fullscreenenter"",""1"",""3027""
","
","","","904.2999999970198","","","10","4101","1045","&#9733;","elianto","#3366ff99","-1"," ","0","+10","[1755.5999999977648,2699.800000000745]","2","1","","","4101","16","2","2","win","no-go","1"
"pit-trial","134","1012011","0.0-20.0","battery-v0.2","","""event"",""trial"",""time""
""fullscreenenter"",""1"",""3027""
","
","
","""event"",""trial"",""time""
""fullscreenenter"",""1"",""3027""
","
","","","1006.6000000014901","","","10","4101","1045","&#9752;","elianto","#f73b6a7A"," "," ","1","0","[1857.300000000745]","1","1","","","4101","17","3","3","lose","go","0"
"pit-trial","135","1015673","0.0-21.0","battery-v0.2","","""event"",""trial"",""time""
""fullscreenenter"",""1"",""3027""
","
","
","""event"",""trial"",""time""
""fullscreenenter"",""1"",""3027""
","
","","","806.1999999992549","","","10","4101","1045","&#9730;","elianto","#3366ff99"," "," ","1","+10","[1656.9000000022352]","1","1","","","4101","18","1","1","win","go","0"
"pit-trial","136","1019175","0.0-22.0","battery-v0.2","","""event"",""trial"",""time""
""fullscreenenter"",""1"",""3027""
","
","
","""event"",""trial"",""time""
""fullscreenenter"",""1"",""3027""
","
","","","648.1000000014901","","","10","4101","1045","&#9733;","elianto","#3366ff99","-1"," ","0","0","[1499]","1","1","","","4101","19","2","2","win","no-go","0"
"pit-trial","137","1024033","0.0-23.0","battery-v0.2","","""event"",""trial"",""time""
""fullscreenenter"",""1"",""3027""
","
","
","""event"",""trial"",""time""
""fullscreenenter"",""1"",""3027""
","
","","","-1","","","10","4101","1045","&#9728;","elianto","#f73b6a7A","-1","-1","1","0","[]","0","1","","","4101","20","0","4","lose","no-go","0"
"pit-instructions","138","1039184","0.0-24.0","battery-v0.2","","""event"",""trial"",""time""
""fullscreenenter"",""1"",""3027""
","
","
","""event"",""trial"",""time""
""fullscreenenter"",""1"",""3027""
","
","","[{""page_index"":0,""viewing_time"":6715.800000000745},{""page_index"":1,""viewing_time"":8435.89999999851}]","15152.400000002235","","","","","","","","","","","","","","","","","","","","","","","",""
"pit-trial","139","1042681","0.0-25.0","battery-v0.2","","""event"",""trial"",""time""
""fullscreenenter"",""1"",""3027""
","
","
","""event"",""trial"",""time""
""fullscreenenter"",""1"",""3027""
","
","","","635.6000000014901","","","10","4101","1045","b","elianto","#f73b6a7A"," "," ","1","0","[1489.5999999977648]","1","2","","","4101","21","3","3","lose","go","0"
"pit-trial","140","1046430","0.0-26.0","battery-v0.2","","""event"",""trial"",""time""
""fullscreenenter"",""1"",""3027""
","
","
","""event"",""trial"",""time""
""fullscreenenter"",""1"",""3027""
","
","","","895.1000000014901","","","10","4101","1045","f","elianto","#3366ff99"," "," ","1","0","[1745.7000000029802]","1","2","","","4101","22","1","1","win","go","1"
"pit-trial","141","1050446","0.0-27.0","battery-v0.2","","""event"",""trial"",""time""
""fullscreenenter"",""1"",""3027""
","
","
","""event"",""trial"",""time""
""fullscreenenter"",""1"",""3027""
","
","","","1160.699999999255","","","10","4101","1045","t","elianto","#f73b6a7A","-1"," ","0","-10","[2011.199999999255]","1","2","","","4101","23","2","4","lose","no-go","0"
"pit-trial","142","1054224","0.0-28.0","battery-v0.2","","""event"",""trial"",""time""
""fullscreenenter"",""1"",""3027""
","
","
","""event"",""trial"",""time""
""fullscreenenter"",""1"",""3027""
","
","","","920.0999999977648","","","10","4101","1045","n","elianto","#f73b6a7A","-1"," ","0","-10","[1770.5]","1","2","","","4101","24","0","4","lose","no-go","0"
"pit-trial","143","1059081","0.0-29.0","battery-v0.2","","""event"",""trial"",""time""
""fullscreenenter"",""1"",""3027""
","
","
","""event"",""trial"",""time""
""fullscreenenter"",""1"",""3027""
","
","","","-1","","","10","4101","1045","f","elianto","#3366ff99"," ","-1","0","0","[]","0","2","","","4101","25","1","1","win","go","0"
"pit-trial","144","1062807","0.0-30.0","battery-v0.2","","""event"",""trial"",""time""
""fullscreenenter"",""1"",""3027""
","
","
","""event"",""trial"",""time""
""fullscreenenter"",""1"",""3027""
","
","","","872.8000000007451","","","10","4101","1045","b","elianto","#f73b6a7A"," "," ","1","0","[1723.2000000029802]","1","2","","","4101","26","3","3","lose","go","0"
"pit-trial","145","1067666","0.0-31.0","battery-v0.2","","""event"",""trial"",""time""
""fullscreenenter"",""1"",""3027""
","
","
","""event"",""trial"",""time""
""fullscreenenter"",""1"",""3027""
","
","","","-1","","","10","4101","1045","n","elianto","#f73b6a7A","-1","-1","1","-10","[]","0","2","","","4101","27","0","4","lose","no-go","1"
"pit-trial","146","1071647","0.0-32.0","battery-v0.2","","""event"",""trial"",""time""
""fullscreenenter"",""1"",""3027""
","
","
","""event"",""trial"",""time""
""fullscreenenter"",""1"",""3027""
","
","","","1127.800000000745","","","10","4101","1045","t","elianto","#f73b6a7A","-1"," ","0","0","[1978.199999999255,2409.699999999255]","2","2","","","4101","28","2","4","lose","no-go","1"
"pit-trial","147","1075385","0.0-33.0","battery-v0.2","","""event"",""trial"",""time""
""fullscreenenter"",""1"",""3027""
","
","
","""event"",""trial"",""time""
""fullscreenenter"",""1"",""3027""
","
","","","882","","","10","4101","1045","t","elianto","#f73b6a7A","-1"," ","0","-10","[340.0999999977648,1732.300000000745]","2","2","","","4101","29","2","4","lose","no-go","0"
"pit-trial","148","1079033","0.0-34.0","battery-v0.2","","""event"",""trial"",""time""
""fullscreenenter"",""1"",""3027""
","
","
","""event"",""trial"",""time""
""fullscreenenter"",""1"",""3027""
","
","","","791.0999999977648","","","10","4101","1045","n","elianto","#f73b6a7A","-1"," ","0","-10","[1641.5]","1","2","","","4101","30","0","4","lose","no-go","0"
"pit-trial","149","1083893","0.0-35.0","battery-v0.2","","""event"",""trial"",""time""
""fullscreenenter"",""1"",""3027""
","
","
","""event"",""trial"",""time""
""fullscreenenter"",""1"",""3027""
","
","","","-1","","","10","4101","1045","b","elianto","#f73b6a7A"," ","-1","0","-10","[]","0","2","","","4101","31","3","3","lose","go","0"
"pit-trial","150","1088750","0.0-36.0","battery-v0.2","","""event"",""trial"",""time""
""fullscreenenter"",""1"",""3027""
","
","
","""event"",""trial"",""time""
""fullscreenenter"",""1"",""3027""
","
","","","-1","","","10","4101","1045","f","elianto","#3366ff99"," ","-1","0","+10","[]","0","2","","","4101","32","1","1","win","go","1"
"pit-trial","151","1093608","0.0-37.0","battery-v0.2","","""event"",""trial"",""time""
""fullscreenenter"",""1"",""3027""
","
","
","""event"",""trial"",""time""
""fullscreenenter"",""1"",""3027""
","
","","","-1","","","10","4101","1045","t","elianto","#f73b6a7A","-1","-1","1","0","[]","0","2","","","4101","33","2","4","lose","no-go","0"
"pit-trial","152","1098465","0.0-38.0","battery-v0.2","","""event"",""trial"",""time""
""fullscreenenter"",""1"",""3027""
","
","
","""event"",""trial"",""time""
""fullscreenenter"",""1"",""3027""
","
","","","-1","","","10","4101","1045","f","elianto","#3366ff99"," ","-1","0","0","[]","0","2","","","4101","34","1","1","win","go","0"
"pit-trial","153","1103322","0.0-39.0","battery-v0.2","","""event"",""trial"",""time""
""fullscreenenter"",""1"",""3027""
","
","
","""event"",""trial"",""time""
""fullscreenenter"",""1"",""3027""
","
","","","-1","","","10","4101","1045","b","elianto","#f73b6a7A"," ","-1","0","-10","[]","0","2","","","4101","35","3","3","lose","go","0"
"pit-trial","154","1108181","0.0-40.0","battery-v0.2","","""event"",""trial"",""time""
""fullscreenenter"",""1"",""3027""
","
","
","""event"",""trial"",""time""
""fullscreenenter"",""1"",""3027""
","
","","","-1","","","10","4101","1045","n","elianto","#f73b6a7A","-1","-1","1","0","[]","0","2","","","4101","36","0","4","lose","no-go","0"
"pit-trial","155","1113038","0.0-41.0","battery-v0.2","","""event"",""trial"",""time""
""fullscreenenter"",""1"",""3027""
","
","
","""event"",""trial"",""time""
""fullscreenenter"",""1"",""3027""
","
","","","-1","","","10","4101","1045","f","elianto","#3366ff99"," ","-1","0","0","[]","0","2","","","4101","37","1","1","win","go","0"
"pit-trial","156","1117896","0.0-42.0","battery-v0.2","","""event"",""trial"",""time""
""fullscreenenter"",""1"",""3027""
","
","
","""event"",""trial"",""time""
""fullscreenenter"",""1"",""3027""
","
","","","-1","","","10","4101","1045","t","elianto","#f73b6a7A","-1","-1","1","0","[]","0","2","","","4101","38","2","4","lose","no-go","0"
"pit-trial","157","1122753","0.0-43.0","battery-v0.2","","""event"",""trial"",""time""
""fullscreenenter"",""1"",""3027""
","
","
","""event"",""trial"",""time""
""fullscreenenter"",""1"",""3027""
","
","","","-1","","","10","4101","1045","b","elianto","#f73b6a7A"," ","-1","0","-10","[]","0","2","","","4101","39","3","3","lose","go","0"
"pit-trial","158","1127611","0.0-44.0","battery-v0.2","","""event"",""trial"",""time""
""fullscreenenter"",""1"",""3027""
","
","
","""event"",""trial"",""time""
""fullscreenenter"",""1"",""3027""
","
","","","-1","","","10","4101","1045","n","elianto","#f73b6a7A","-1","-1","1","0","[]","0","2","","","4101","40","0","4","lose","no-go","0"
"pit-trial","159","1132468","0.0-45.0","battery-v0.2","","""event"",""trial"",""time""
""fullscreenenter"",""1"",""3027""
","
","
","""event"",""trial"",""time""
""fullscreenenter"",""1"",""3027""
","
","","","-1","","","10","4101","1045","b","elianto","#f73b6a7A"," ","-1","0","-10","[]","0","2","","","4101","41","3","3","lose","go","0"
"pit-trial","160","1137326","0.0-46.0","battery-v0.2","","""event"",""trial"",""time""
""fullscreenenter"",""1"",""3027""
","
","
","""event"",""trial"",""time""
""fullscreenenter"",""1"",""3027""
","
","","","-1","","","10","4101","1045","t","elianto","#f73b6a7A","-1","-1","1","-10","[]","0","2","","","4101","42","2","4","lose","no-go","1"
"pit-trial","161","1142183","0.0-47.0","battery-v0.2","","""event"",""trial"",""time""
""fullscreenenter"",""1"",""3027""
","
","
","""event"",""trial"",""time""
""fullscreenenter"",""1"",""3027""
","
","","","-1","","","10","4101","1045","n","elianto","#f73b6a7A","-1","-1","1","0","[]","0","2","","","4101","43","0","4","lose","no-go","0"
"pit-trial","162","1147041","0.0-48.0","battery-v0.2","","""event"",""trial"",""time""
""fullscreenenter"",""1"",""3027""
","
","
","""event"",""trial"",""time""
""fullscreenenter"",""1"",""3027""
","
","","","-1","","","10","4101","1045","f","elianto","#3366ff99"," ","-1","0","0","[]","0","2","","","4101","44","1","1","win","go","0"
"pit-trial","163","1151899","0.0-49.0","battery-v0.2","","""event"",""trial"",""time""
""fullscreenenter"",""1"",""3027""
","
","
","""event"",""trial"",""time""
""fullscreenenter"",""1"",""3027""
","
","","","-1","","","10","4101","1045","b","elianto","#f73b6a7A"," ","-1","0","-10","[]","0","2","","","4101","45","3","3","lose","go","0"
"pit-trial","164","1156756","0.0-50.0","battery-v0.2","","""event"",""trial"",""time""
""fullscreenenter"",""1"",""3027""
","
","
","""event"",""trial"",""time""
""fullscreenenter"",""1"",""3027""
","
","","","-1","","","10","4101","1045","n","elianto","#f73b6a7A","-1","-1","1","0","[]","0","2","","","4101","46","0","4","lose","no-go","0"
"pit-trial","165","1161614","0.0-51.0","battery-v0.2","","""event"",""trial"",""time""
""fullscreenenter"",""1"",""3027""
","
","
","""event"",""trial"",""time""
""fullscreenenter"",""1"",""3027""
","
","","","-1","","","10","4101","1045","t","elianto","#f73b6a7A","-1","-1","1","0","[]","0","2","","","4101","47","2","4","lose","no-go","0"
"pit-trial","166","1166471","0.0-52.0","battery-v0.2","","""event"",""trial"",""time""
""fullscreenenter"",""1"",""3027""
","
","
","""event"",""trial"",""time""
""fullscreenenter"",""1"",""3027""
","
","","","-1","","","10","4101","1045","c","elianto","#3366ff99","-1","-1","1","+10","[]","0","2","","","4101","48","4","2","win","no-go","0"
"pit-trial","167","1171329","0.0-53.0","battery-v0.2","","""event"",""trial"",""time""
""fullscreenenter"",""1"",""3027""
","
","
","""event"",""trial"",""time""
""fullscreenenter"",""1"",""3027""
","
","","","-1","","","10","4101","1045","f","elianto","#3366ff99"," ","-1","0","0","[]","0","2","","","4101","49","1","1","win","go","0"
"pit-trial","168","1176187","0.0-54.0","battery-v0.2","","""event"",""trial"",""time""
""fullscreenenter"",""1"",""3027""
","
","
","""event"",""trial"",""time""
""fullscreenenter"",""1"",""3027""
","
","","","-1","","","10","4101","1045","n","elianto","#f73b6a7A","-1","-1","1","0","[]","0","2","","","4101","50","0","4","lose","no-go","0"
"pit-trial","169","1181044","0.0-55.0","battery-v0.2","","""event"",""trial"",""time""
""fullscreenenter"",""1"",""3027""
","
","
","""event"",""trial"",""time""
""fullscreenenter"",""1"",""3027""
","
","","","-1","","","10","4101","1045","b","elianto","#f73b6a7A"," ","-1","0","-10","[]","0","2","","","4101","51","3","3","lose","go","0"
"pit-trial","170","1185902","0.0-56.0","battery-v0.2","","""event"",""trial"",""time""
""fullscreenenter"",""1"",""3027""
","
","
","""event"",""trial"",""time""
""fullscreenenter"",""1"",""3027""
","
","","","-1","","","10","4101","1045","c","elianto","#3366ff99","-1","-1","1","0","[]","0","2","","","4101","52","4","2","win","no-go","1"
"pit-trial","171","1190759","0.0-57.0","battery-v0.2","","""event"",""trial"",""time""
""fullscreenenter"",""1"",""3027""
","
","
","""event"",""trial"",""time""
""fullscreenenter"",""1"",""3027""
","
","","","-1","","","10","4101","1045","n","elianto","#f73b6a7A","-1","-1","1","-10","[]","0","2","","","4101","53","0","4","lose","no-go","1"
"pit-trial","172","1195616","0.0-58.0","battery-v0.2","","""event"",""trial"",""time""
""fullscreenenter"",""1"",""3027""
","
","
","""event"",""trial"",""time""
""fullscreenenter"",""1"",""3027""
","
","","","-1","","","10","4101","1045","t","elianto","#f73b6a7A","-1","-1","1","0","[]","0","2","","","4101","54","2","4","lose","no-go","0"
"pit-trial","173","1200474","0.0-59.0","battery-v0.2","","""event"",""trial"",""time""
""fullscreenenter"",""1"",""3027""
","
","
","""event"",""trial"",""time""
""fullscreenenter"",""1"",""3027""
","
","","","-1","","","10","4101","1045","f","elianto","#3366ff99"," ","-1","0","0","[]","0","2","","","4101","55","1","1","win","go","0"
"pit-trial","174","1205332","0.0-60.0","battery-v0.2","","""event"",""trial"",""time""
""fullscreenenter"",""1"",""3027""
","
","
","""event"",""trial"",""time""
""fullscreenenter"",""1"",""3027""
","
","","","-1","","","10","4101","1045","c","elianto","#3366ff99","-1","-1","1","+10","[]","0","2","","","4101","56","4","2","win","no-go","0"
"pit-trial","175","1210189","0.0-61.0","battery-v0.2","","""event"",""trial"",""time""
""fullscreenenter"",""1"",""3027""
","
","
","""event"",""trial"",""time""
""fullscreenenter"",""1"",""3027""
","
","","","-1","","","10","4101","1045","n","elianto","#f73b6a7A","-1","-1","1","0","[]","0","2","","","4101","57","0","4","lose","no-go","0"
"pit-trial","176","1215047","0.0-62.0","battery-v0.2","","""event"",""trial"",""time""
""fullscreenenter"",""1"",""3027""
","
","
","""event"",""trial"",""time""
""fullscreenenter"",""1"",""3027""
","
","","","-1","","","10","4101","1045","c","elianto","#3366ff99","-1","-1","1","+10","[]","0","2","","","4101","58","4","2","win","no-go","0"
"pit-trial","177","1219907","0.0-63.0","battery-v0.2","","""event"",""trial"",""time""
""fullscreenenter"",""1"",""3027""
","
","
","""event"",""trial"",""time""
""fullscreenenter"",""1"",""3027""
","
","","","-1","","","10","4101","1045","b","elianto","#f73b6a7A"," ","-1","0","-10","[]","0","2","","","4101","59","3","3","lose","go","0"
"pit-trial","178","1224762","0.0-64.0","battery-v0.2","","""event"",""trial"",""time""
""fullscreenenter"",""1"",""3027""
","
","
","""event"",""trial"",""time""
""fullscreenenter"",""1"",""3027""
","
","","","-1","","","10","4101","1045","f","elianto","#3366ff99"," ","-1","0","0","[]","0","2","","","4101","60","1","1","win","go","0"
"pit-trial","179","1229620","0.0-65.0","battery-v0.2","","""event"",""trial"",""time""
""fullscreenenter"",""1"",""3027""
","
","
","""event"",""trial"",""time""
""fullscreenenter"",""1"",""3027""
","
","","","-1","","","10","4101","1045","t","elianto","#f73b6a7A","-1","-1","1","0","[]","0","2","","","4101","61","2","4","lose","no-go","0"
"pit-trial","180","1234477","0.0-66.0","battery-v0.2","","""event"",""trial"",""time""
""fullscreenenter"",""1"",""3027""
","
","
","""event"",""trial"",""time""
""fullscreenenter"",""1"",""3027""
","
","","","-1","","","10","4101","1045","c","elianto","#3366ff99","-1","-1","1","+10","[]","0","2","","","4101","62","4","2","win","no-go","0"
"pit-trial","181","1239335","0.0-67.0","battery-v0.2","","""event"",""trial"",""time""
""fullscreenenter"",""1"",""3027""
","
","
","""event"",""trial"",""time""
""fullscreenenter"",""1"",""3027""
","
","","","-1","","","10","4101","1045","b","elianto","#f73b6a7A"," ","-1","0","-10","[]","0","2","","","4101","63","3","3","lose","go","0"
"pit-trial","182","1244192","0.0-68.0","battery-v0.2","","""event"",""trial"",""time""
""fullscreenenter"",""1"",""3027""
","
","
","""event"",""trial"",""time""
""fullscreenenter"",""1"",""3027""
","
","","","-1","","","10","4101","1045","f","elianto","#3366ff99"," ","-1","0","0","[]","0","2","","","4101","64","1","1","win","go","0"
"pit-trial","183","1249049","0.0-69.0","battery-v0.2","","""event"",""trial"",""time""
""fullscreenenter"",""1"",""3027""
","
","
","""event"",""trial"",""time""
""fullscreenenter"",""1"",""3027""
","
","","","-1","","","10","4101","1045","c","elianto","#3366ff99","-1","-1","1","+10","[]","0","2","","","4101","65","4","2","win","no-go","0"
"pit-trial","184","1253908","0.0-70.0","battery-v0.2","","""event"",""trial"",""time""
""fullscreenenter"",""1"",""3027""
","
","
","""event"",""trial"",""time""
""fullscreenenter"",""1"",""3027""
","
","","","-1","","","10","4101","1045","f","elianto","#3366ff99"," ","-1","0","+10","[]","0","2","","","4101","66","1","1","win","go","1"
"pit-trial","185","1258765","0.0-71.0","battery-v0.2","","""event"",""trial"",""time""
""fullscreenenter"",""1"",""3027""
","
","
","""event"",""trial"",""time""
""fullscreenenter"",""1"",""3027""
","
","","","-1","","","10","4101","1045","t","elianto","#f73b6a7A","-1","-1","1","0","[]","0","2","","","4101","67","2","4","lose","no-go","0"
"pit-trial","186","1263622","0.0-72.0","battery-v0.2","","""event"",""trial"",""time""
""fullscreenenter"",""1"",""3027""
","
","
","""event"",""trial"",""time""
""fullscreenenter"",""1"",""3027""
","
","","","-1","","","10","4101","1045","b","elianto","#f73b6a7A"," ","-1","0","-10","[]","0","2","","","4101","68","3","3","lose","go","0"
"pit-trial","187","1268480","0.0-73.0","battery-v0.2","","""event"",""trial"",""time""
""fullscreenenter"",""1"",""3027""
","
","
","""event"",""trial"",""time""
""fullscreenenter"",""1"",""3027""
","
","","","-1","","","10","4101","1045","b","elianto","#f73b6a7A"," ","-1","0","0","[]","0","2","","","4101","69","3","3","lose","go","1"
"pit-trial","188","1273340","0.0-74.0","battery-v0.2","","""event"",""trial"",""time""
""fullscreenenter"",""1"",""3027""
","
","
","""event"",""trial"",""time""
""fullscreenenter"",""1"",""3027""
","
","","","-1","","","10","4101","1045","c","elianto","#3366ff99","-1","-1","1","0","[]","0","2","","","4101","70","4","2","win","no-go","1"
"pit-trial","189","1278198","0.0-75.0","battery-v0.2","","""event"",""trial"",""time""
""fullscreenenter"",""1"",""3027""
","
","
","""event"",""trial"",""time""
""fullscreenenter"",""1"",""3027""
","
","","","-1","","","10","4101","1045","f","elianto","#3366ff99"," ","-1","0","0","[]","0","2","","","4101","71","1","1","win","go","0"
"pit-trial","190","1283052","0.0-76.0","battery-v0.2","","""event"",""trial"",""time""
""fullscreenenter"",""1"",""3027""
","
","
","""event"",""trial"",""time""
""fullscreenenter"",""1"",""3027""
","
","","","-1","","","10","4101","1045","z","elianto","#3366ff99"," ","-1","0","0","[]","0","2","","","4101","72","5","1","win","go","0"
"pit-trial","191","1287910","0.0-77.0","battery-v0.2","","""event"",""trial"",""time""
""fullscreenenter"",""1"",""3027""
","
","
","""event"",""trial"",""time""
""fullscreenenter"",""1"",""3027""
","
","","","-1","","","10","4101","1045","c","elianto","#3366ff99","-1","-1","1","+10","[]","0","2","","","4101","73","4","2","win","no-go","0"
"pit-trial","192","1292768","0.0-78.0","battery-v0.2","","""event"",""trial"",""time""
""fullscreenenter"",""1"",""3027""
","
","
","""event"",""trial"",""time""
""fullscreenenter"",""1"",""3027""
","
","","","-1","","","10","4101","1045","b","elianto","#f73b6a7A"," ","-1","0","0","[]","0","2","","","4101","74","3","3","lose","go","1"
"pit-trial","193","1297625","0.0-79.0","battery-v0.2","","""event"",""trial"",""time""
""fullscreenenter"",""1"",""3027""
","
","
","""event"",""trial"",""time""
""fullscreenenter"",""1"",""3027""
","
","","","-1","","","10","4101","1045","f","elianto","#3366ff99"," ","-1","0","+10","[]","0","2","","","4101","75","1","1","win","go","1"
"pit-trial","194","1302483","0.0-80.0","battery-v0.2","","""event"",""trial"",""time""
""fullscreenenter"",""1"",""3027""
","
","
","""event"",""trial"",""time""
""fullscreenenter"",""1"",""3027""
","
","","","-1","","","10","4101","1045","z","elianto","#3366ff99"," ","-1","0","0","[]","0","2","","","4101","76","5","1","win","go","0"
"pit-trial","195","1307343","0.0-81.0","battery-v0.2","","""event"",""trial"",""time""
""fullscreenenter"",""1"",""3027""
","
","
","""event"",""trial"",""time""
""fullscreenenter"",""1"",""3027""
","
","","","-1","","","10","4101","1045","b","elianto","#f73b6a7A"," ","-1","0","-10","[]","0","2","","","4101","77","3","3","lose","go","0"
"pit-trial","196","1312200","0.0-82.0","battery-v0.2","","""event"",""trial"",""time""
""fullscreenenter"",""1"",""3027""
","
","
","""event"",""trial"",""time""
""fullscreenenter"",""1"",""3027""
","
","","","-1","","","10","4101","1045","z","elianto","#3366ff99"," ","-1","0","+10","[]","0","2","","","4101","78","5","1","win","go","1"
"pit-trial","197","1317056","0.0-83.0","battery-v0.2","","""event"",""trial"",""time""
""fullscreenenter"",""1"",""3027""
","
","
","""event"",""trial"",""time""
""fullscreenenter"",""1"",""3027""
","
","","","-1","","","10","4101","1045","c","elianto","#3366ff99","-1","-1","1","0","[]","0","2","","","4101","79","4","2","win","no-go","1"
"pit-trial","198","1321915","0.0-84.0","battery-v0.2","","""event"",""trial"",""time""
""fullscreenenter"",""1"",""3027""
","
","
","""event"",""trial"",""time""
""fullscreenenter"",""1"",""3027""
","
","","","-1","","","10","4101","1045","h","elianto","#f73b6a7A","-1","-1","1","-10","[]","0","2","","","4101","80","6","4","lose","no-go","1"
"pit-trial","199","1326772","0.0-85.0","battery-v0.2","","""event"",""trial"",""time""
""fullscreenenter"",""1"",""3027""
","
","
","""event"",""trial"",""time""
""fullscreenenter"",""1"",""3027""
","
","","","-1","","","10","4101","1045","y","elianto","#f73b6a7A"," ","-1","0","-10","[]","0","2","","","4101","81","7","3","lose","go","0"
"pit-trial","200","1331628","0.0-86.0","battery-v0.2","","""event"",""trial"",""time""
""fullscreenenter"",""1"",""3027""
","
","
","""event"",""trial"",""time""
""fullscreenenter"",""1"",""3027""
","
","","","-1","","","10","4101","1045","c","elianto","#3366ff99","-1","-1","1","+10","[]","0","2","","","4101","82","4","2","win","no-go","0"
"pit-trial","201","1336489","0.0-87.0","battery-v0.2","","""event"",""trial"",""time""
""fullscreenenter"",""1"",""3027""
","
","
","""event"",""trial"",""time""
""fullscreenenter"",""1"",""3027""
","
","","","-1","","","10","4101","1045","h","elianto","#f73b6a7A","-1","-1","1","0","[]","0","2","","","4101","83","6","4","lose","no-go","0"
"pit-trial","202","1341343","0.0-88.0","battery-v0.2","","""event"",""trial"",""time""
""fullscreenenter"",""1"",""3027""
","
","
","""event"",""trial"",""time""
""fullscreenenter"",""1"",""3027""
","
","","","-1","","","10","4101","1045","z","elianto","#3366ff99"," ","-1","0","0","[]","0","2","","","4101","84","5","1","win","go","0"
"pit-trial","203","1346201","0.0-89.0","battery-v0.2","","""event"",""trial"",""time""
""fullscreenenter"",""1"",""3027""
","
","
","""event"",""trial"",""time""
""fullscreenenter"",""1"",""3027""
","
","","","-1","","","10","4101","1045","y","elianto","#f73b6a7A"," ","-1","0","-10","[]","0","2","","","4101","85","7","3","lose","go","0"
"pit-trial","204","1351059","0.0-90.0","battery-v0.2","","""event"",""trial"",""time""
""fullscreenenter"",""1"",""3027""
","
","
","""event"",""trial"",""time""
""fullscreenenter"",""1"",""3027""
","
","","","-1","","","10","4101","1045","c","elianto","#3366ff99","-1","-1","1","+10","[]","0","2","","","4101","86","4","2","win","no-go","0"
"pit-trial","205","1355916","0.0-91.0","battery-v0.2","","""event"",""trial"",""time""
""fullscreenenter"",""1"",""3027""
","
","
","""event"",""trial"",""time""
""fullscreenenter"",""1"",""3027""
","
","","","-1","","","10","4101","1045","h","elianto","#f73b6a7A","-1","-1","1","-10","[]","0","2","","","4101","87","6","4","lose","no-go","1"
"pit-trial","206","1360774","0.0-92.0","battery-v0.2","","""event"",""trial"",""time""
""fullscreenenter"",""1"",""3027""
","
","
","""event"",""trial"",""time""
""fullscreenenter"",""1"",""3027""
","
","","","-1","","","10","4101","1045","z","elianto","#3366ff99"," ","-1","0","0","[]","0","2","","","4101","88","5","1","win","go","0"
"pit-trial","207","1365631","0.0-93.0","battery-v0.2","","""event"",""trial"",""time""
""fullscreenenter"",""1"",""3027""
","
","
","""event"",""trial"",""time""
""fullscreenenter"",""1"",""3027""
","
","","","-1","","","10","4101","1045","h","elianto","#f73b6a7A","-1","-1","1","-10","[]","0","2","","","4101","89","6","4","lose","no-go","1"
"pit-trial","208","1370489","0.0-94.0","battery-v0.2","","""event"",""trial"",""time""
""fullscreenenter"",""1"",""3027""
","
","
","""event"",""trial"",""time""
""fullscreenenter"",""1"",""3027""
","
","","","-1","","","10","4101","1045","z","elianto","#3366ff99"," ","-1","0","0","[]","0","2","","","4101","90","5","1","win","go","0"
"pit-trial","209","1375346","0.0-95.0","battery-v0.2","","""event"",""trial"",""time""
""fullscreenenter"",""1"",""3027""
","
","
","""event"",""trial"",""time""
""fullscreenenter"",""1"",""3027""
","
","","","-1","","","10","4101","1045","c","elianto","#3366ff99","-1","-1","1","+10","[]","0","2","","","4101","91","4","2","win","no-go","0"
"pit-trial","210","1380205","0.0-96.0","battery-v0.2","","""event"",""trial"",""time""
""fullscreenenter"",""1"",""3027""
","
","
","""event"",""trial"",""time""
""fullscreenenter"",""1"",""3027""
","
","","","-1","","","10","4101","1045","y","elianto","#f73b6a7A"," ","-1","0","-10","[]","0","2","","","4101","92","7","3","lose","go","0"
"pit-trial","211","1385062","0.0-97.0","battery-v0.2","","""event"",""trial"",""time""
""fullscreenenter"",""1"",""3027""
","
","
","""event"",""trial"",""time""
""fullscreenenter"",""1"",""3027""
","
","","","-1","","","10","4101","1045","z","elianto","#3366ff99"," ","-1","0","+10","[]","0","2","","","4101","93","5","1","win","go","1"
"pit-trial","212","1389919","0.0-98.0","battery-v0.2","","""event"",""trial"",""time""
""fullscreenenter"",""1"",""3027""
","
","
","""event"",""trial"",""time""
""fullscreenenter"",""1"",""3027""
","
","","","-1","","","10","4101","1045","h","elianto","#f73b6a7A","-1","-1","1","-10","[]","0","2","","","4101","94","6","4","lose","no-go","1"
"pit-trial","213","1394777","0.0-99.0","battery-v0.2","","""event"",""trial"",""time""
""fullscreenenter"",""1"",""3027""
","
","
","""event"",""trial"",""time""
""fullscreenenter"",""1"",""3027""
","
","","","-1","","","10","4101","1045","y","elianto","#f73b6a7A"," ","-1","0","-10","[]","0","2","","","4101","95","7","3","lose","go","0"
"pit-trial","214","1399634","0.0-100.0","battery-v0.2","","""event"",""trial"",""time""
""fullscreenenter"",""1"",""3027""
","
","
","""event"",""trial"",""time""
""fullscreenenter"",""1"",""3027""
","
","","","-1","","","10","4101","1045","r","elianto","#3366ff99","-1","-1","1","+10","[]","0","2","","","4101","96","8","2","win","no-go","0"
"pit-trial","215","1404492","0.0-101.0","battery-v0.2","","""event"",""trial"",""time""
""fullscreenenter"",""1"",""3027""
","
","
","""event"",""trial"",""time""
""fullscreenenter"",""1"",""3027""
","
","","","-1","","","10","4101","1045","h","elianto","#f73b6a7A","-1","-1","1","-10","[]","0","2","","","4101","97","6","4","lose","no-go","1"
"pit-trial","216","1409352","0.0-102.0","battery-v0.2","","""event"",""trial"",""time""
""fullscreenenter"",""1"",""3027""
","
","
","""event"",""trial"",""time""
""fullscreenenter"",""1"",""3027""
","
","","","-1","","","10","4101","1045","y","elianto","#f73b6a7A"," ","-1","0","0","[]","0","2","","","4101","98","7","3","lose","go","1"
"pit-trial","217","1414207","0.0-103.0","battery-v0.2","","""event"",""trial"",""time""
""fullscreenenter"",""1"",""3027""
","
","
","""event"",""trial"",""time""
""fullscreenenter"",""1"",""3027""
","
","","","-1","","","10","4101","1045","z","elianto","#3366ff99"," ","-1","0","+10","[]","0","2","","","4101","99","5","1","win","go","1"
"pit-trial","218","1419064","0.0-104.0","battery-v0.2","","""event"",""trial"",""time""
""fullscreenenter"",""1"",""3027""
","
","
","""event"",""trial"",""time""
""fullscreenenter"",""1"",""3027""
","
","","","-1","","","10","4101","1045","r","elianto","#3366ff99","-1","-1","1","+10","[]","0","2","","","4101","100","8","2","win","no-go","0"
"pit-trial","219","1423922","0.0-105.0","battery-v0.2","","""event"",""trial"",""time""
""fullscreenenter"",""1"",""3027""
","
","
","""event"",""trial"",""time""
""fullscreenenter"",""1"",""3027""
","
","","","-1","","","10","4101","1045","z","elianto","#3366ff99"," ","-1","0","+10","[]","0","2","","","4101","101","5","1","win","go","1"
"pit-trial","220","1428780","0.0-106.0","battery-v0.2","","""event"",""trial"",""time""
""fullscreenenter"",""1"",""3027""
","
","
","""event"",""trial"",""time""
""fullscreenenter"",""1"",""3027""
","
","","","-1","","","10","4101","1045","m","elianto","#3366ff99","-1","-1","1","+10","[]","0","2","","","4101","102","9","2","win","no-go","0"
"pit-trial","221","1433637","0.0-107.0","battery-v0.2","","""event"",""trial"",""time""
""fullscreenenter"",""1"",""3027""
","
","
","""event"",""trial"",""time""
""fullscreenenter"",""1"",""3027""
","
","","","-1","","","10","4101","1045","r","elianto","#3366ff99","-1","-1","1","+10","[]","0","2","","","4101","103","8","2","win","no-go","0"
"pit-trial","222","1438495","0.0-108.0","battery-v0.2","","""event"",""trial"",""time""
""fullscreenenter"",""1"",""3027""
","
","
","""event"",""trial"",""time""
""fullscreenenter"",""1"",""3027""
","
","","","-1","","","10","4101","1045","h","elianto","#f73b6a7A","-1","-1","1","0","[]","0","2","","","4101","104","6","4","lose","no-go","0"
"pit-trial","223","1443352","0.0-109.0","battery-v0.2","","""event"",""trial"",""time""
""fullscreenenter"",""1"",""3027""
","
","
","""event"",""trial"",""time""
""fullscreenenter"",""1"",""3027""
","
","","","-1","","","10","4101","1045","h","elianto","#f73b6a7A","-1","-1","1","-10","[]","0","2","","","4101","105","6","4","lose","no-go","1"
"pit-trial","224","1448210","0.0-110.0","battery-v0.2","","""event"",""trial"",""time""
""fullscreenenter"",""1"",""3027""
","
","
","""event"",""trial"",""time""
""fullscreenenter"",""1"",""3027""
","
","","","-1","","","10","4101","1045","r","elianto","#3366ff99","-1","-1","1","+10","[]","0","2","","","4101","106","8","2","win","no-go","0"
"pit-trial","225","1453067","0.0-111.0","battery-v0.2","","""event"",""trial"",""time""
""fullscreenenter"",""1"",""3027""
","
","
","""event"",""trial"",""time""
""fullscreenenter"",""1"",""3027""
","
","","","-1","","","10","4101","1045","z","elianto","#3366ff99"," ","-1","0","0","[]","0","2","","","4101","107","5","1","win","go","0"
"pit-trial","226","1457925","0.0-112.0","battery-v0.2","","""event"",""trial"",""time""
""fullscreenenter"",""1"",""3027""
","
","
","""event"",""trial"",""time""
""fullscreenenter"",""1"",""3027""
","
","","","-1","","","10","4101","1045","m","elianto","#3366ff99","-1","-1","1","0","[]","0","2","","","4101","108","9","2","win","no-go","1"
"pit-trial","227","1462783","0.0-113.0","battery-v0.2","","""event"",""trial"",""time""
""fullscreenenter"",""1"",""3027""
","
","
","""event"",""trial"",""time""
""fullscreenenter"",""1"",""3027""
","
","","","-1","","","10","4101","1045","m","elianto","#3366ff99","-1","-1","1","+10","[]","0","2","","","4101","109","9","2","win","no-go","0"
"pit-trial","228","1467640","0.0-114.0","battery-v0.2","","""event"",""trial"",""time""
""fullscreenenter"",""1"",""3027""
","
","
","""event"",""trial"",""time""
""fullscreenenter"",""1"",""3027""
","
","","","-1","","","10","4101","1045","z","elianto","#3366ff99"," ","-1","0","+10","[]","0","2","","","4101","110","5","1","win","go","1"
"pit-trial","229","1472498","0.0-115.0","battery-v0.2","","""event"",""trial"",""time""
""fullscreenenter"",""1"",""3027""
","
","
","""event"",""trial"",""time""
""fullscreenenter"",""1"",""3027""
","
","","","-1","","","10","4101","1045","r","elianto","#3366ff99","-1","-1","1","+10","[]","0","2","","","4101","111","8","2","win","no-go","0"
"pit-trial","230","1477355","0.0-116.0","battery-v0.2","","""event"",""trial"",""time""
""fullscreenenter"",""1"",""3027""
","
","
","""event"",""trial"",""time""
""fullscreenenter"",""1"",""3027""
","
","","","-1","","","10","4101","1045","h","elianto","#f73b6a7A","-1","-1","1","0","[]","0","2","","","4101","112","6","4","lose","no-go","0"
"pit-trial","231","1482213","0.0-117.0","battery-v0.2","","""event"",""trial"",""time""
""fullscreenenter"",""1"",""3027""
","
","
","""event"",""trial"",""time""
""fullscreenenter"",""1"",""3027""
","
","","","-1","","","10","4101","1045","r","elianto","#3366ff99","-1","-1","1","+10","[]","0","2","","","4101","113","8","2","win","no-go","0"
"pit-trial","232","1487070","0.0-118.0","battery-v0.2","","""event"",""trial"",""time""
""fullscreenenter"",""1"",""3027""
","
","
","""event"",""trial"",""time""
""fullscreenenter"",""1"",""3027""
","
","","","-1","","","10","4101","1045","z","elianto","#3366ff99"," ","-1","0","0","[]","0","2","","","4101","114","5","1","win","go","0"
"pit-trial","233","1491928","0.0-119.0","battery-v0.2","","""event"",""trial"",""time""
""fullscreenenter"",""1"",""3027""
","
","
","""event"",""trial"",""time""
""fullscreenenter"",""1"",""3027""
","
","","","-1","","","10","4101","1045","y","elianto","#f73b6a7A"," ","-1","0","0","[]","0","2","","","4101","115","7","3","lose","go","1"
"pit-trial","234","1496786","0.0-120.0","battery-v0.2","","""event"",""trial"",""time""
""fullscreenenter"",""1"",""3027""
","
","
","""event"",""trial"",""time""
""fullscreenenter"",""1"",""3027""
","
","","","-1","","","10","4101","1045","m","elianto","#3366ff99","-1","-1","1","+10","[]","0","2","","","4101","116","9","2","win","no-go","0"
"pit-trial","235","1501643","0.0-121.0","battery-v0.2","","""event"",""trial"",""time""
""fullscreenenter"",""1"",""3027""
","
","
","""event"",""trial"",""time""
""fullscreenenter"",""1"",""3027""
","
","","","-1","","","10","4101","1045","r","elianto","#3366ff99","-1","-1","1","+10","[]","0","2","","","4101","117","8","2","win","no-go","0"
"pit-trial","236","1506501","0.0-122.0","battery-v0.2","","""event"",""trial"",""time""
""fullscreenenter"",""1"",""3027""
","
","
","""event"",""trial"",""time""
""fullscreenenter"",""1"",""3027""
","
","","","-1","","","10","4101","1045","m","elianto","#3366ff99","-1","-1","1","0","[]","0","2","","","4101","118","9","2","win","no-go","1"
"pit-trial","237","1511359","0.0-123.0","battery-v0.2","","""event"",""trial"",""time""
""fullscreenenter"",""1"",""3027""
","
","
","""event"",""trial"",""time""
""fullscreenenter"",""1"",""3027""
","
","","","-1","","","10","4101","1045","z","elianto","#3366ff99"," ","-1","0","+10","[]","0","2","","","4101","119","5","1","win","go","1"
"pit-trial","238","1516218","0.0-124.0","battery-v0.2","","""event"",""trial"",""time""
""fullscreenenter"",""1"",""3027""
","
","
","""event"",""trial"",""time""
""fullscreenenter"",""1"",""3027""
","
","","","-1","","","10","4101","1045","h","elianto","#f73b6a7A","-1","-1","1","0","[]","0","2","","","4101","120","6","4","lose","no-go","0"
"pit-trial","239","1521076","0.0-125.0","battery-v0.2","","""event"",""trial"",""time""
""fullscreenenter"",""1"",""3027""
","
","
","""event"",""trial"",""time""
""fullscreenenter"",""1"",""3027""
","
","","","-1","","","10","4101","1045","m","elianto","#3366ff99","-1","-1","1","0","[]","0","2","","","4101","121","9","2","win","no-go","1"
"pit-trial","240","1525931","0.0-126.0","battery-v0.2","","""event"",""trial"",""time""
""fullscreenenter"",""1"",""3027""
","
","
","""event"",""trial"",""time""
""fullscreenenter"",""1"",""3027""
","
","","","-1","","","10","4101","1045","r","elianto","#3366ff99","-1","-1","1","0","[]","0","2","","","4101","122","8","2","win","no-go","1"
"pit-trial","241","1530789","0.0-127.0","battery-v0.2","","""event"",""trial"",""time""
""fullscreenenter"",""1"",""3027""
","
","
","""event"",""trial"",""time""
""fullscreenenter"",""1"",""3027""
","
","","","-1","","","10","4101","1045","z","elianto","#3366ff99"," ","-1","0","0","[]","0","2","","","4101","123","5","1","win","go","0"
"pit-trial","242","1535646","0.0-128.0","battery-v0.2","","""event"",""trial"",""time""
""fullscreenenter"",""1"",""3027""
","
","
","""event"",""trial"",""time""
""fullscreenenter"",""1"",""3027""
","
","","","-1","","","10","4101","1045","y","elianto","#f73b6a7A"," ","-1","0","-10","[]","0","2","","","4101","124","7","3","lose","go","0"
"pit-trial","243","1540504","0.0-129.0","battery-v0.2","","""event"",""trial"",""time""
""fullscreenenter"",""1"",""3027""
","
","
","""event"",""trial"",""time""
""fullscreenenter"",""1"",""3027""
","
","","","-1","","","10","4101","1045","y","elianto","#f73b6a7A"," ","-1","0","-10","[]","0","2","","","4101","125","7","3","lose","go","0"
"pit-trial","244","1545364","0.0-130.0","battery-v0.2","","""event"",""trial"",""time""
""fullscreenenter"",""1"",""3027""
","
","
","""event"",""trial"",""time""
""fullscreenenter"",""1"",""3027""
","
","","","-1","","","10","4101","1045","r","elianto","#3366ff99","-1","-1","1","+10","[]","0","2","","","4101","126","8","2","win","no-go","0"
"pit-trial","245","1550219","0.0-131.0","battery-v0.2","","""event"",""trial"",""time""
""fullscreenenter"",""1"",""3027""
","
","
","""event"",""trial"",""time""
""fullscreenenter"",""1"",""3027""
","
","","","-1","","","10","4101","1045","m","elianto","#3366ff99","-1","-1","1","+10","[]","0","2","","","4101","127","9","2","win","no-go","0"
"pit-trial","246","1555077","0.0-132.0","battery-v0.2","","""event"",""trial"",""time""
""fullscreenenter"",""1"",""3027""
","
","
","""event"",""trial"",""time""
""fullscreenenter"",""1"",""3027""
","
","","","-1","","","10","4101","1045","h","elianto","#f73b6a7A","-1","-1","1","0","[]","0","2","","","4101","128","6","4","lose","no-go","0"
"pit-trial","247","1559934","0.0-133.0","battery-v0.2","","""event"",""trial"",""time""
""fullscreenenter"",""1"",""3027""
","
","
","""event"",""trial"",""time""
""fullscreenenter"",""1"",""3027""
","
","","","-1","","","10","4101","1045","y","elianto","#f73b6a7A"," ","-1","0","-10","[]","0","2","","","4101","129","7","3","lose","go","0"
"pit-trial","248","1564792","0.0-134.0","battery-v0.2","","""event"",""trial"",""time""
""fullscreenenter"",""1"",""3027""
","
","
","""event"",""trial"",""time""
""fullscreenenter"",""1"",""3027""
","
","","","-1","","","10","4101","1045","r","elianto","#3366ff99","-1","-1","1","+10","[]","0","2","","","4101","130","8","2","win","no-go","0"
"pit-trial","249","1569652","0.0-135.0","battery-v0.2","","""event"",""trial"",""time""
""fullscreenenter"",""1"",""3027""
","
","
","""event"",""trial"",""time""
""fullscreenenter"",""1"",""3027""
","
","","","-1","","","10","4101","1045","h","elianto","#f73b6a7A","-1","-1","1","0","[]","0","2","","","4101","131","6","4","lose","no-go","0"
"pit-trial","250","1574507","0.0-136.0","battery-v0.2","","""event"",""trial"",""time""
""fullscreenenter"",""1"",""3027""
","
","
","""event"",""trial"",""time""
""fullscreenenter"",""1"",""3027""
","
","","","-1","","","10","4101","1045","m","elianto","#3366ff99","-1","-1","1","+10","[4335.699999999255]","1","2","","","4101","132","9","2","win","no-go","0"
"pit-trial","251","1578540","0.0-137.0","battery-v0.2","","""event"",""trial"",""time""
""fullscreenenter"",""1"",""3027""
","
","
","""event"",""trial"",""time""
""fullscreenenter"",""1"",""3027""
","
","","","1180.3999999985099","","","10","4101","1045","y","elianto","#f73b6a7A"," "," ","1","0","[23.199999999254942,2030.7999999970198,3350.699999999255,3591.199999999255]","4","2","","","4101","133","7","3","lose","go","0"
"pit-trial","252","1581506","0.0-138.0","battery-v0.2","","""event"",""trial"",""time""
""fullscreenenter"",""1"",""3027""
","
","
","""event"",""trial"",""time""
""fullscreenenter"",""1"",""3027""
","
","","","110.29999999701977","","","10","4101","1045","h","elianto","#f73b6a7A","-1"," ","0","0","[961.0999999977648,1252.5,1628.3999999985099,2020.199999999255,2372.199999999255,2716.300000000745]","6","2","","","4101","134","6","4","lose","no-go","1"
"pit-trial","253","1586363","0.0-139.0","battery-v0.2","","""event"",""trial"",""time""
""fullscreenenter"",""1"",""3027""
","
","
","""event"",""trial"",""time""
""fullscreenenter"",""1"",""3027""
","
","","","-1","","","10","4101","1045","r","elianto","#3366ff99","-1","-1","1","+10","[126.60000000149012]","1","2","","","4101","135","8","2","win","no-go","0"
"pit-trial","254","1590658","0.0-140.0","battery-v0.2","","""event"",""trial"",""time""
""fullscreenenter"",""1"",""3027""
","
","
","""event"",""trial"",""time""
""fullscreenenter"",""1"",""3027""
","
","","","1440.5","","","10","4101","1045","m","elianto","#3366ff99","-1"," ","0","0","[2291.39999999851,2443.39999999851,2691.39999999851,3235.5,3563.39999999851,3939.300000000745,4099.300000000745]","7","2","","","4101","136","9","2","win","no-go","0"
"pit-trial","255","1593530","0.0-141.0","battery-v0.2","","""event"",""trial"",""time""
""fullscreenenter"",""1"",""3027""
","
","
","""event"",""trial"",""time""
""fullscreenenter"",""1"",""3027""
","
","","","17.600000001490116","","","10","4101","1045","r","elianto","#3366ff99","-1"," ","0","+10","[5.199999999254942,196.39999999850988,372.3999999985099,524.5,675.8000000007451,811.8000000007451,868.8000000007451,971.8999999985099,1212.199999999255,1571.699999999255,1787.800000000745,1963.699999999255,2171.89999999851,2356.5]","14","2","","","4101","137","8","2","win","no-go","1"
"pit-trial","256","1598388","0.0-142.0","battery-v0.2","","""event"",""trial"",""time""
""fullscreenenter"",""1"",""3027""
","
","
","""event"",""trial"",""time""
""fullscreenenter"",""1"",""3027""
","
","","","-1","","","10","4101","1045","h","elianto","#f73b6a7A","-1","-1","1","0","[]","0","2","","","4101","138","6","4","lose","no-go","0"
"pit-trial","257","1603246","0.0-143.0","battery-v0.2","","""event"",""trial"",""time""
""fullscreenenter"",""1"",""3027""
","
","
","""event"",""trial"",""time""
""fullscreenenter"",""1"",""3027""
","
","","","-1","","","10","4101","1045","y","elianto","#f73b6a7A"," ","-1","0","-10","[]","0","2","","","4101","139","7","3","lose","go","0"
"pit-trial","258","1608103","0.0-144.0","battery-v0.2","","""event"",""trial"",""time""
""fullscreenenter"",""1"",""3027""
""blur"",""259"",""1833773""
""focus"",""259"",""2001979""
","""event"",""trial"",""time""
""blur"",""259"",""1833773""
","""event"",""trial"",""time""
""focus"",""259"",""2001979""
","""event"",""trial"",""time""
""fullscreenenter"",""1"",""3027""
","
","","","-1","","","10","4101","1045","m","elianto","#3366ff99","-1","-1","1","0","[]","0","2","","","4101","140","9","2","win","no-go","1"
"pit-instructions","259","2013932","0.0-145.0","battery-v0.2","","""event"",""trial"",""time""
""fullscreenenter"",""1"",""3027""
""blur"",""259"",""1833773""
""focus"",""259"",""2001979""
","""event"",""trial"",""time""
""blur"",""259"",""1833773""
","""event"",""trial"",""time""
""focus"",""259"",""2001979""
","""event"",""trial"",""time""
""fullscreenenter"",""1"",""3027""
","
","","[{""page_index"":0,""viewing_time"":396721.3999999985},{""page_index"":1,""viewing_time"":9204.5}]","405926.6000000015","","","","","","","","","","","","","","","","","","","","","","","",""
"pit-trial","260","2018793","0.0-146.0","battery-v0.2","","""event"",""trial"",""time""
""fullscreenenter"",""1"",""3027""
""blur"",""259"",""1833773""
""focus"",""259"",""2001979""
","""event"",""trial"",""time""
""blur"",""259"",""1833773""
","""event"",""trial"",""time""
""focus"",""259"",""2001979""
","""event"",""trial"",""time""
""fullscreenenter"",""1"",""3027""
","
","","","-1","","","10","4101","1045","u","elianto","#f73b6a7A"," ","-1","0","-10","[]","0","3","","","4101","141","0","3","lose","go","0"
"pit-trial","261","2023652","0.0-147.0","battery-v0.2","","""event"",""trial"",""time""
""fullscreenenter"",""1"",""3027""
""blur"",""259"",""1833773""
""focus"",""259"",""2001979""
","""event"",""trial"",""time""
""blur"",""259"",""1833773""
","""event"",""trial"",""time""
""focus"",""259"",""2001979""
","""event"",""trial"",""time""
""fullscreenenter"",""1"",""3027""
","
","","","-1","","","10","4101","1045","l","elianto","#3366ff99","-1","-1","1","+10","[]","0","3","","","4101","142","1","2","win","no-go","0"
"pit-trial","262","2028508","0.0-148.0","battery-v0.2","","""event"",""trial"",""time""
""fullscreenenter"",""1"",""3027""
""blur"",""259"",""1833773""
""focus"",""259"",""2001979""
","""event"",""trial"",""time""
""blur"",""259"",""1833773""
","""event"",""trial"",""time""
""focus"",""259"",""2001979""
","""event"",""trial"",""time""
""fullscreenenter"",""1"",""3027""
","
","","","-1","","","10","4101","1045","a","elianto","#f73b6a7A"," ","-1","0","-10","[]","0","3","","","4101","143","2","3","lose","go","0"
"pit-trial","263","2033366","0.0-149.0","battery-v0.2","","""event"",""trial"",""time""
""fullscreenenter"",""1"",""3027""
""blur"",""259"",""1833773""
""focus"",""259"",""2001979""
","""event"",""trial"",""time""
""blur"",""259"",""1833773""
","""event"",""trial"",""time""
""focus"",""259"",""2001979""
","""event"",""trial"",""time""
""fullscreenenter"",""1"",""3027""
","
","","","-1","","","10","4101","1045","g","elianto","#f73b6a7A","-1","-1","1","-10","[]","0","3","","","4101","144","3","4","lose","no-go","1"
"pit-trial","264","2038223","0.0-150.0","battery-v0.2","","""event"",""trial"",""time""
""fullscreenenter"",""1"",""3027""
""blur"",""259"",""1833773""
""focus"",""259"",""2001979""
