"trial_type","trial_index","time_elapsed","internal_node_id","task_version","subject_id","interactions","blur_events","focus_events","fullscreenenter_events","fullscreenexit_events","success","view_history","rt","responses","num_errors","age","subject","participantId","rune","rune_set","hex","correct","choice","accuracy","outcome","keys","total_keys","block","practice","value","sub","trial","stimulus","robot","valence","action","sham"
"pavlovia","0","11","0.0-0.0","battery-v0.2","","""event"",""trial"",""time""
""fullscreenenter"",""1"",""1788""
","
","
","""event"",""trial"",""time""
""fullscreenenter"",""1"",""1788""
","
","","","","","","","","","","","","","","","","","","","","","","","","","","",""
"fullscreen","1","2754","0.0-1.0","battery-v0.2","","""event"",""trial"",""time""
""fullscreenenter"",""1"",""1788""
""blur"",""2"",""4726""
""focus"",""2"",""6616""
","""event"",""trial"",""time""
""blur"",""2"",""4726""
","""event"",""trial"",""time""
""focus"",""2"",""6616""
","""event"",""trial"",""time""
""fullscreenenter"",""1"",""1788""
","
","true","","","","","","","","","","","","","","","","","","","","","","","","","",""
"pit-instructions","2","6690","0.0-2.0-0.0","battery-v0.2","","""event"",""trial"",""time""
""fullscreenenter"",""1"",""1788""
""blur"",""2"",""4726""
""focus"",""2"",""6616""
","""event"",""trial"",""time""
""blur"",""2"",""4726""
","""event"",""trial"",""time""
""focus"",""2"",""6616""
","""event"",""trial"",""time""
""fullscreenenter"",""1"",""1788""
","
","","[{""page_index"":0,""viewing_time"":3923.399999976158}]","3925.399999976158","","","","","","","","","","","","","","","","","","","","","","","",""
"pit-comprehension","3","9764","0.0-2.0-1.0-0.0","battery-v0.2","","""event"",""trial"",""time""
""fullscreenenter"",""1"",""1788""
""blur"",""2"",""4726""
""focus"",""2"",""6616""
","""event"",""trial"",""time""
""blur"",""2"",""4726""
","""event"",""trial"",""time""
""focus"",""2"",""6616""
","""event"",""trial"",""time""
""fullscreenenter"",""1"",""1788""
","
","","","3064.7000000476837","[""shark""]","0","18","10575","4772","","","","","","","","","","","","","","","","","","",""
"pit-instructions","4","12120","0.0-2.0-1.0-1.0","battery-v0.2","","""event"",""trial"",""time""
""fullscreenenter"",""1"",""1788""
""blur"",""2"",""4726""
""focus"",""2"",""6616""
","""event"",""trial"",""time""
""blur"",""2"",""4726""
","""event"",""trial"",""time""
""focus"",""2"",""6616""
","""event"",""trial"",""time""
""fullscreenenter"",""1"",""1788""
","
","","[{""page_index"":0,""viewing_time"":2342.1999999284744}]","2343.1999999284744","","","","","","","","","","","","","","","","","","","","","","","",""
"pit-comprehension","5","15068","0.0-2.0-2.0-0.0","battery-v0.2","","""event"",""trial"",""time""
""fullscreenenter"",""1"",""1788""
""blur"",""2"",""4726""
""focus"",""2"",""6616""
","""event"",""trial"",""time""
""blur"",""2"",""4726""
","""event"",""trial"",""time""
""focus"",""2"",""6616""
","""event"",""trial"",""time""
""fullscreenenter"",""1"",""1788""
","
","","","2942.8000000715256","[""tiger""]","0","18","10575","4772","","","","","","","","","","","","","","","","","","",""
"pit-instructions","6","18953","0.0-2.0-2.0-1.0","battery-v0.2","","""event"",""trial"",""time""
""fullscreenenter"",""1"",""1788""
""blur"",""2"",""4726""
""focus"",""2"",""6616""
""blur"",""7"",""22258""
""focus"",""7"",""30561""
","""event"",""trial"",""time""
""blur"",""2"",""4726""
""blur"",""7"",""22258""
","""event"",""trial"",""time""
""focus"",""2"",""6616""
""focus"",""7"",""30561""
","""event"",""trial"",""time""
""fullscreenenter"",""1"",""1788""
","
","","[{""page_index"":0,""viewing_time"":3880.100000023842}]","3880.8000000715256","","","","","","","","","","","","","","","","","","","","","","","",""
"pit-instructions","7","117577","0.0-2.0-3.0","battery-v0.2","","""event"",""trial"",""time""
""fullscreenenter"",""1"",""1788""
""blur"",""2"",""4726""
""focus"",""2"",""6616""
""blur"",""7"",""22258""
""focus"",""7"",""30561""
","""event"",""trial"",""time""
""blur"",""2"",""4726""
""blur"",""7"",""22258""
","""event"",""trial"",""time""
""focus"",""2"",""6616""
""focus"",""7"",""30561""
","""event"",""trial"",""time""
""fullscreenenter"",""1"",""1788""
","
","","[{""page_index"":0,""viewing_time"":12068.699999928474},{""page_index"":1,""viewing_time"":6202.200000047684},{""page_index"":2,""viewing_time"":6214.199999928474},{""page_index"":3,""viewing_time"":6042.900000095367},{""page_index"":4,""viewing_time"":5651},{""page_index"":5,""viewing_time"":5575.5},{""page_index"":6,""viewing_time"":6270.399999976158},{""page_index"":7,""viewing_time"":6880.199999928474},{""page_index"":8,""viewing_time"":6262.600000023842},{""page_index"":9,""viewing_time"":10233.200000047684},{""page_index"":10,""viewing_time"":7668.100000023842},{""page_index"":11,""viewing_time"":7976.5},{""page_index"":12,""viewing_time"":6176.5},{""page_index"":13,""viewing_time"":5396.799999952316}]","98619.69999992847","","","","","","","","","","","","","","","","","","","","","","","",""
"pit-trial","8","121022","0.0-2.0-4.0-0.0","battery-v0.2","","""event"",""trial"",""time""
""fullscreenenter"",""1"",""1788""
""blur"",""2"",""4726""
""focus"",""2"",""6616""
""blur"",""7"",""22258""
""focus"",""7"",""30561""
","""event"",""trial"",""time""
""blur"",""2"",""4726""
""blur"",""7"",""22258""
","""event"",""trial"",""time""
""focus"",""2"",""6616""
""focus"",""7"",""30561""
","""event"",""trial"",""time""
""fullscreenenter"",""1"",""1788""
","
","","","579.8999999761581","","","18","10575","4772","&#9784;","elianto","#FFFFF080"," "," ","1","&#10004","[1431]","1","0","0","","","","","","","",""
"pit-trial","9","124285","0.0-2.0-4.1-0.1","battery-v0.2","","""event"",""trial"",""time""
""fullscreenenter"",""1"",""1788""
""blur"",""2"",""4726""
""focus"",""2"",""6616""
""blur"",""7"",""22258""
""focus"",""7"",""30561""
","""event"",""trial"",""time""
""blur"",""2"",""4726""
""blur"",""7"",""22258""
","""event"",""trial"",""time""
""focus"",""2"",""6616""
""focus"",""7"",""30561""
","""event"",""trial"",""time""
""fullscreenenter"",""1"",""1788""
","
","","","386","","","18","10575","4772","&#9784;","elianto","#FFFFF080"," "," ","1","&#10004","[1240.5]","1","0","0","","","","","","","",""
"pit-trial","10","127532","0.0-2.0-4.2-0.2","battery-v0.2","","""event"",""trial"",""time""
""fullscreenenter"",""1"",""1788""
""blur"",""2"",""4726""
""focus"",""2"",""6616""
""blur"",""7"",""22258""
""focus"",""7"",""30561""
","""event"",""trial"",""time""
""blur"",""2"",""4726""
""blur"",""7"",""22258""
","""event"",""trial"",""time""
""focus"",""2"",""6616""
""focus"",""7"",""30561""
","""event"",""trial"",""time""
""fullscreenenter"",""1"",""1788""
","
","","","365.2999999523163","","","18","10575","4772","&#9784;","elianto","#FFFFF080"," "," ","1","&#10004","[1226]","1","0","0","","","","","","","",""
"pit-trial","11","130768","0.0-2.0-4.3-0.3","battery-v0.2","","""event"",""trial"",""time""
""fullscreenenter"",""1"",""1788""
""blur"",""2"",""4726""
""focus"",""2"",""6616""
""blur"",""7"",""22258""
""focus"",""7"",""30561""
","""event"",""trial"",""time""
""blur"",""2"",""4726""
""blur"",""7"",""22258""
","""event"",""trial"",""time""
""focus"",""2"",""6616""
""focus"",""7"",""30561""
","""event"",""trial"",""time""
""fullscreenenter"",""1"",""1788""
","
","","","362.2999999523163","","","18","10575","4772","&#9784;","elianto","#FFFFF080"," "," ","1","&#10004","[1215.2000000476837]","1","0","0","","","","","","","",""
"pit-trial","12","134117","0.0-2.0-4.4-0.4","battery-v0.2","","""event"",""trial"",""time""
""fullscreenenter"",""1"",""1788""
""blur"",""2"",""4726""
""focus"",""2"",""6616""
""blur"",""7"",""22258""
""focus"",""7"",""30561""
","""event"",""trial"",""time""
""blur"",""2"",""4726""
""blur"",""7"",""22258""
","""event"",""trial"",""time""
""focus"",""2"",""6616""
""focus"",""7"",""30561""
","""event"",""trial"",""time""
""fullscreenenter"",""1"",""1788""
","
","","","467","","","18","10575","4772","&#9784;","elianto","#FFFFF080"," "," ","1","&#10004","[1325.5999999046326]","1","0","0","","","","","","","",""
"pit-instructions","13","154670","0.0-2.0-5.0","battery-v0.2","","""event"",""trial"",""time""
""fullscreenenter"",""1"",""1788""
""blur"",""2"",""4726""
""focus"",""2"",""6616""
""blur"",""7"",""22258""
""focus"",""7"",""30561""
","""event"",""trial"",""time""
""blur"",""2"",""4726""
""blur"",""7"",""22258""
","""event"",""trial"",""time""
""focus"",""2"",""6616""
""focus"",""7"",""30561""
","""event"",""trial"",""time""
""fullscreenenter"",""1"",""1788""
","
","","[{""page_index"":0,""viewing_time"":4630.899999976158},{""page_index"":1,""viewing_time"":6101.199999928474},{""page_index"":2,""viewing_time"":4728.300000071526},{""page_index"":3,""viewing_time"":5084}]","20545.299999952316","","","","","","","","","","","","","","","","","","","","","","","",""
"pit-trial","14","159546","0.0-2.0-6.0-0.0","battery-v0.2","","""event"",""trial"",""time""
""fullscreenenter"",""1"",""1788""
""blur"",""2"",""4726""
""focus"",""2"",""6616""
""blur"",""7"",""22258""
""focus"",""7"",""30561""
","""event"",""trial"",""time""
""blur"",""2"",""4726""
""blur"",""7"",""22258""
","""event"",""trial"",""time""
""focus"",""2"",""6616""
""focus"",""7"",""30561""
","""event"",""trial"",""time""
""fullscreenenter"",""1"",""1788""
","
","","","-1","","","18","10575","4772","&#9854;","elianto","#FFFFF080","-1","-1","1","&#10004","[]","0","0","1","","","","","","","",""
"pit-trial","15","164426","0.0-2.0-6.1-0.1","battery-v0.2","","""event"",""trial"",""time""
""fullscreenenter"",""1"",""1788""
""blur"",""2"",""4726""
""focus"",""2"",""6616""
""blur"",""7"",""22258""
""focus"",""7"",""30561""
","""event"",""trial"",""time""
""blur"",""2"",""4726""
""blur"",""7"",""22258""
","""event"",""trial"",""time""
""focus"",""2"",""6616""
""focus"",""7"",""30561""
","""event"",""trial"",""time""
""fullscreenenter"",""1"",""1788""
","
","","","-1","","","18","10575","4772","&#9854;","elianto","#FFFFF080","-1","-1","1","&#10004","[]","0","0","1","","","","","","","",""
"pit-trial","16","169295","0.0-2.0-6.2-0.2","battery-v0.2","","""event"",""trial"",""time""
""fullscreenenter"",""1"",""1788""
""blur"",""2"",""4726""
""focus"",""2"",""6616""
""blur"",""7"",""22258""
""focus"",""7"",""30561""
""blur"",""17"",""170985""
","""event"",""trial"",""time""
""blur"",""2"",""4726""
""blur"",""7"",""22258""
""blur"",""17"",""170985""
","""event"",""trial"",""time""
""focus"",""2"",""6616""
""focus"",""7"",""30561""
","""event"",""trial"",""time""
""fullscreenenter"",""1"",""1788""
","
","","","-1","","","18","10575","4772","&#9854;","elianto","#FFFFF080","-1","-1","1","&#10004","[]","0","0","1","","","","","","","",""
"pit-trial","17","174160","0.0-2.0-6.3-0.3","battery-v0.2","","""event"",""trial"",""time""
""fullscreenenter"",""1"",""1788""
""blur"",""2"",""4726""
""focus"",""2"",""6616""
""blur"",""7"",""22258""
""focus"",""7"",""30561""
""blur"",""17"",""170985""
","""event"",""trial"",""time""
""blur"",""2"",""4726""
""blur"",""7"",""22258""
""blur"",""17"",""170985""
","""event"",""trial"",""time""
""focus"",""2"",""6616""
""focus"",""7"",""30561""
","""event"",""trial"",""time""
""fullscreenenter"",""1"",""1788""
","
","","","-1","","","18","10575","4772","&#9854;","elianto","#FFFFF080","-1","-1","1","&#10004","[]","0","0","1","","","","","","","",""
"pit-trial","18","179030","0.0-2.0-6.4-0.4","battery-v0.2","","""event"",""trial"",""time""
""fullscreenenter"",""1"",""1788""
""blur"",""2"",""4726""
""focus"",""2"",""6616""
""blur"",""7"",""22258""
""focus"",""7"",""30561""
""blur"",""17"",""170985""
""focus"",""19"",""191188""
""blur"",""19"",""251107""
""focus"",""19"",""258236""
""blur"",""19"",""299430""
""focus"",""19"",""302354""
""blur"",""19"",""309327""
""focus"",""19"",""311701""
""blur"",""19"",""349882""
""focus"",""19"",""358429""
","""event"",""trial"",""time""
""blur"",""2"",""4726""
""blur"",""7"",""22258""
""blur"",""17"",""170985""
""blur"",""19"",""251107""
""blur"",""19"",""299430""
""blur"",""19"",""309327""
""blur"",""19"",""349882""
","""event"",""trial"",""time""
""focus"",""2"",""6616""
""focus"",""7"",""30561""
""focus"",""19"",""191188""
""focus"",""19"",""258236""
""focus"",""19"",""302354""
""focus"",""19"",""311701""
""focus"",""19"",""358429""
","""event"",""trial"",""time""
""fullscreenenter"",""1"",""1788""
","
","","","-1","","","18","10575","4772","&#9854;","elianto","#FFFFF080","-1","-1","1","&#10004","[]","0","0","1","","","","","","","",""
"pit-instructions","19","372574","0.0-2.0-7.0","battery-v0.2","","""event"",""trial"",""time""
""fullscreenenter"",""1"",""1788""
""blur"",""2"",""4726""
""focus"",""2"",""6616""
""blur"",""7"",""22258""
""focus"",""7"",""30561""
""blur"",""17"",""170985""
""focus"",""19"",""191188""
""blur"",""19"",""251107""
""focus"",""19"",""258236""
""blur"",""19"",""299430""
""focus"",""19"",""302354""
""blur"",""19"",""309327""
""focus"",""19"",""311701""
""blur"",""19"",""349882""
""focus"",""19"",""358429""
","""event"",""trial"",""time""
""blur"",""2"",""4726""
""blur"",""7"",""22258""
""blur"",""17"",""170985""
""blur"",""19"",""251107""
""blur"",""19"",""299430""
""blur"",""19"",""309327""
""blur"",""19"",""349882""
","""event"",""trial"",""time""
""focus"",""2"",""6616""
""focus"",""7"",""30561""
""focus"",""19"",""191188""
""focus"",""19"",""258236""
""focus"",""19"",""302354""
""focus"",""19"",""311701""
""focus"",""19"",""358429""
","""event"",""trial"",""time""
""fullscreenenter"",""1"",""1788""
","
","","[{""page_index"":0,""viewing_time"":12804},{""page_index"":1,""viewing_time"":10766.399999976158},{""page_index"":2,""viewing_time"":11783.5},{""page_index"":3,""viewing_time"":19105.799999952316},{""page_index"":4,""viewing_time"":5267.300000071526},{""page_index"":5,""viewing_time"":5441.299999952316},{""page_index"":6,""viewing_time"":4091.7000000476837},{""page_index"":7,""viewing_time"":10031.899999976158},{""page_index"":8,""viewing_time"":11364.700000047684},{""page_index"":9,""viewing_time"":19628.899999976158},{""page_index"":10,""viewing_time"":6982.100000023842},{""page_index"":11,""viewing_time"":6155.899999976158},{""page_index"":12,""viewing_time"":9321.699999928474},{""page_index"":13,""viewing_time"":7961.900000095367},{""page_index"":14,""viewing_time"":26919},{""page_index"":15,""viewing_time"":11850},{""page_index"":16,""viewing_time"":6506.599999904633},{""page_index"":17,""viewing_time"":7554.700000047684}]","193538.19999992847","","","","","","","","","","","","","","","","","","","","","","","",""
"pit-trial","20","376078","0.0-2.0-8.0-0.0","battery-v0.2","","""event"",""trial"",""time""
""fullscreenenter"",""1"",""1788""
""blur"",""2"",""4726""
""focus"",""2"",""6616""
""blur"",""7"",""22258""
""focus"",""7"",""30561""
""blur"",""17"",""170985""
""focus"",""19"",""191188""
""blur"",""19"",""251107""
""focus"",""19"",""258236""
""blur"",""19"",""299430""
""focus"",""19"",""302354""
""blur"",""19"",""309327""
""focus"",""19"",""311701""
""blur"",""19"",""349882""
""focus"",""19"",""358429""
","""event"",""trial"",""time""
""blur"",""2"",""4726""
""blur"",""7"",""22258""
""blur"",""17"",""170985""
""blur"",""19"",""251107""
""blur"",""19"",""299430""
""blur"",""19"",""309327""
""blur"",""19"",""349882""
","""event"",""trial"",""time""
""focus"",""2"",""6616""
""focus"",""7"",""30561""
""focus"",""19"",""191188""
""focus"",""19"",""258236""
""focus"",""19"",""302354""
""focus"",""19"",""311701""
""focus"",""19"",""358429""
","""event"",""trial"",""time""
""fullscreenenter"",""1"",""1788""
","
","","","632.1000000238419","","","18","10575","4772","&#9776;","elianto","#3366ff99"," "," ","1","+10","[1491.2000000476837]","1","0","1","","","","","","","",""
"pit-trial","21","379772","0.0-2.0-8.0-1.0","battery-v0.2","","""event"",""trial"",""time""
""fullscreenenter"",""1"",""1788""
""blur"",""2"",""4726""
""focus"",""2"",""6616""
""blur"",""7"",""22258""
""focus"",""7"",""30561""
""blur"",""17"",""170985""
""focus"",""19"",""191188""
""blur"",""19"",""251107""
""focus"",""19"",""258236""
""blur"",""19"",""299430""
""focus"",""19"",""302354""
""blur"",""19"",""309327""
""focus"",""19"",""311701""
""blur"",""19"",""349882""
""focus"",""19"",""358429""
","""event"",""trial"",""time""
""blur"",""2"",""4726""
""blur"",""7"",""22258""
""blur"",""17"",""170985""
""blur"",""19"",""251107""
""blur"",""19"",""299430""
""blur"",""19"",""309327""
""blur"",""19"",""349882""
","""event"",""trial"",""time""
""focus"",""2"",""6616""
""focus"",""7"",""30561""
""focus"",""19"",""191188""
""focus"",""19"",""258236""
""focus"",""19"",""302354""
""focus"",""19"",""311701""
""focus"",""19"",""358429""
","""event"",""trial"",""time""
""fullscreenenter"",""1"",""1788""
","
","","","826.5","","","18","10575","4772","&#9776;","elianto","#3366ff99"," "," ","1","+10","[1681.8999999761581]","1","0","1","","","","","","","",""
"pit-trial","22","383100","0.0-2.0-8.0-2.0","battery-v0.2","","""event"",""trial"",""time""
""fullscreenenter"",""1"",""1788""
""blur"",""2"",""4726""
""focus"",""2"",""6616""
""blur"",""7"",""22258""
""focus"",""7"",""30561""
""blur"",""17"",""170985""
""focus"",""19"",""191188""
""blur"",""19"",""251107""
""focus"",""19"",""258236""
""blur"",""19"",""299430""
""focus"",""19"",""302354""
""blur"",""19"",""309327""
""focus"",""19"",""311701""
""blur"",""19"",""349882""
""focus"",""19"",""358429""
","""event"",""trial"",""time""
""blur"",""2"",""4726""
""blur"",""7"",""22258""
""blur"",""17"",""170985""
""blur"",""19"",""251107""
""blur"",""19"",""299430""
""blur"",""19"",""309327""
""blur"",""19"",""349882""
","""event"",""trial"",""time""
""focus"",""2"",""6616""
""focus"",""7"",""30561""
""focus"",""19"",""191188""
""focus"",""19"",""258236""
""focus"",""19"",""302354""
""focus"",""19"",""311701""
""focus"",""19"",""358429""
","""event"",""trial"",""time""
""fullscreenenter"",""1"",""1788""
","
","","","468.89999997615814","","","18","10575","4772","&#9776;","elianto","#3366ff99"," "," ","1","+10","[1322.1000000238419]","1","0","1","","","","","","","",""
"pit-trial","23","386473","0.0-2.0-8.0-3.0","battery-v0.2","","""event"",""trial"",""time""
""fullscreenenter"",""1"",""1788""
""blur"",""2"",""4726""
""focus"",""2"",""6616""
""blur"",""7"",""22258""
""focus"",""7"",""30561""
""blur"",""17"",""170985""
""focus"",""19"",""191188""
""blur"",""19"",""251107""
""focus"",""19"",""258236""
""blur"",""19"",""299430""
""focus"",""19"",""302354""
""blur"",""19"",""309327""
""focus"",""19"",""311701""
""blur"",""19"",""349882""
""focus"",""19"",""358429""
","""event"",""trial"",""time""
""blur"",""2"",""4726""
""blur"",""7"",""22258""
""blur"",""17"",""170985""
""blur"",""19"",""251107""
""blur"",""19"",""299430""
""blur"",""19"",""309327""
""blur"",""19"",""349882""
","""event"",""trial"",""time""
""focus"",""2"",""6616""
""focus"",""7"",""30561""
""focus"",""19"",""191188""
""focus"",""19"",""258236""
""focus"",""19"",""302354""
""focus"",""19"",""311701""
""focus"",""19"",""358429""
","""event"",""trial"",""time""
""fullscreenenter"",""1"",""1788""
","
","","","494.60000002384186","","","18","10575","4772","&#9776;","elianto","#3366ff99"," "," ","1","0","[1347.2000000476837]","1","0","1","","","","","","","",""
"pit-trial","24","389800","0.0-2.0-8.0-4.0","battery-v0.2","","""event"",""trial"",""time""
""fullscreenenter"",""1"",""1788""
""blur"",""2"",""4726""
""focus"",""2"",""6616""
""blur"",""7"",""22258""
""focus"",""7"",""30561""
""blur"",""17"",""170985""
""focus"",""19"",""191188""
""blur"",""19"",""251107""
""focus"",""19"",""258236""
""blur"",""19"",""299430""
""focus"",""19"",""302354""
""blur"",""19"",""309327""
""focus"",""19"",""311701""
""blur"",""19"",""349882""
""focus"",""19"",""358429""
","""event"",""trial"",""time""
""blur"",""2"",""4726""
""blur"",""7"",""22258""
""blur"",""17"",""170985""
""blur"",""19"",""251107""
""blur"",""19"",""299430""
""blur"",""19"",""309327""
""blur"",""19"",""349882""
","""event"",""trial"",""time""
""focus"",""2"",""6616""
""focus"",""7"",""30561""
""focus"",""19"",""191188""
""focus"",""19"",""258236""
""focus"",""19"",""302354""
""focus"",""19"",""311701""
""focus"",""19"",""358429""
","""event"",""trial"",""time""
""fullscreenenter"",""1"",""1788""
","
","","","461.7999999523163","","","18","10575","4772","&#9776;","elianto","#3366ff99"," "," ","1","+10","[1312]","1","0","1","","","","","","","",""
"pit-trial","25","393137","0.0-2.0-8.1-0.1","battery-v0.2","","""event"",""trial"",""time""
""fullscreenenter"",""1"",""1788""
""blur"",""2"",""4726""
""focus"",""2"",""6616""
""blur"",""7"",""22258""
""focus"",""7"",""30561""
""blur"",""17"",""170985""
""focus"",""19"",""191188""
""blur"",""19"",""251107""
""focus"",""19"",""258236""
""blur"",""19"",""299430""
""focus"",""19"",""302354""
""blur"",""19"",""309327""
""focus"",""19"",""311701""
""blur"",""19"",""349882""
""focus"",""19"",""358429""
","""event"",""trial"",""time""
""blur"",""2"",""4726""
""blur"",""7"",""22258""
""blur"",""17"",""170985""
""blur"",""19"",""251107""
""blur"",""19"",""299430""
""blur"",""19"",""309327""
""blur"",""19"",""349882""
","""event"",""trial"",""time""
""focus"",""2"",""6616""
""focus"",""7"",""30561""
""focus"",""19"",""191188""
""focus"",""19"",""258236""
""focus"",""19"",""302354""
""focus"",""19"",""311701""
""focus"",""19"",""358429""
","""event"",""trial"",""time""
""fullscreenenter"",""1"",""1788""
","
","","","463.2999999523163","","","18","10575","4772","&#9776;","elianto","#3366ff99"," "," ","1","+10","[1321.7999999523163]","1","0","1","","","","","","","",""
"pit-trial","26","396419","0.0-2.0-8.1-1.1","battery-v0.2","","""event"",""trial"",""time""
""fullscreenenter"",""1"",""1788""
""blur"",""2"",""4726""
""focus"",""2"",""6616""
""blur"",""7"",""22258""
""focus"",""7"",""30561""
""blur"",""17"",""170985""
""focus"",""19"",""191188""
""blur"",""19"",""251107""
""focus"",""19"",""258236""
""blur"",""19"",""299430""
""focus"",""19"",""302354""
""blur"",""19"",""309327""
""focus"",""19"",""311701""
""blur"",""19"",""349882""
""focus"",""19"",""358429""
","""event"",""trial"",""time""
""blur"",""2"",""4726""
""blur"",""7"",""22258""
""blur"",""17"",""170985""
""blur"",""19"",""251107""
""blur"",""19"",""299430""
""blur"",""19"",""309327""
""blur"",""19"",""349882""
","""event"",""trial"",""time""
""focus"",""2"",""6616""
""focus"",""7"",""30561""
""focus"",""19"",""191188""
""focus"",""19"",""258236""
""focus"",""19"",""302354""
""focus"",""19"",""311701""
""focus"",""19"",""358429""
","""event"",""trial"",""time""
""fullscreenenter"",""1"",""1788""
","
","","","419.2999999523163","","","18","10575","4772","&#9776;","elianto","#3366ff99"," "," ","1","+10","[1270.2999999523163]","1","0","1","","","","","","","",""
"pit-trial","27","399704","0.0-2.0-8.1-2.1","battery-v0.2","","""event"",""trial"",""time""
""fullscreenenter"",""1"",""1788""
""blur"",""2"",""4726""
""focus"",""2"",""6616""
""blur"",""7"",""22258""
""focus"",""7"",""30561""
""blur"",""17"",""170985""
""focus"",""19"",""191188""
""blur"",""19"",""251107""
""focus"",""19"",""258236""
""blur"",""19"",""299430""
""focus"",""19"",""302354""
""blur"",""19"",""309327""
""focus"",""19"",""311701""
""blur"",""19"",""349882""
""focus"",""19"",""358429""
","""event"",""trial"",""time""
""blur"",""2"",""4726""
""blur"",""7"",""22258""
""blur"",""17"",""170985""
""blur"",""19"",""251107""
""blur"",""19"",""299430""
""blur"",""19"",""309327""
""blur"",""19"",""349882""
","""event"",""trial"",""time""
""focus"",""2"",""6616""
""focus"",""7"",""30561""
""focus"",""19"",""191188""
""focus"",""19"",""258236""
""focus"",""19"",""302354""
""focus"",""19"",""311701""
""focus"",""19"",""358429""
","""event"",""trial"",""time""
""fullscreenenter"",""1"",""1788""
","
","","","425","","","18","10575","4772","&#9776;","elianto","#3366ff99"," "," ","1","+10","[1278.1000000238419]","1","0","1","","","","","","","",""
"pit-trial","28","402941","0.0-2.0-8.1-3.1","battery-v0.2","","""event"",""trial"",""time""
""fullscreenenter"",""1"",""1788""
""blur"",""2"",""4726""
""focus"",""2"",""6616""
""blur"",""7"",""22258""
""focus"",""7"",""30561""
""blur"",""17"",""170985""
""focus"",""19"",""191188""
""blur"",""19"",""251107""
""focus"",""19"",""258236""
""blur"",""19"",""299430""
""focus"",""19"",""302354""
""blur"",""19"",""309327""
""focus"",""19"",""311701""
""blur"",""19"",""349882""
""focus"",""19"",""358429""
","""event"",""trial"",""time""
""blur"",""2"",""4726""
""blur"",""7"",""22258""
""blur"",""17"",""170985""
""blur"",""19"",""251107""
""blur"",""19"",""299430""
""blur"",""19"",""309327""
""blur"",""19"",""349882""
","""event"",""trial"",""time""
""focus"",""2"",""6616""
""focus"",""7"",""30561""
""focus"",""19"",""191188""
""focus"",""19"",""258236""
""focus"",""19"",""302354""
""focus"",""19"",""311701""
""focus"",""19"",""358429""
","""event"",""trial"",""time""
""fullscreenenter"",""1"",""1788""
","
","","","372.7999999523163","","","18","10575","4772","&#9776;","elianto","#3366ff99"," "," ","1","0","[1223.2999999523163]","1","0","1","","","","","","","",""
"pit-trial","29","406004","0.0-2.0-8.1-4.1","battery-v0.2","","""event"",""trial"",""time""
""fullscreenenter"",""1"",""1788""
""blur"",""2"",""4726""
""focus"",""2"",""6616""
""blur"",""7"",""22258""
""focus"",""7"",""30561""
""blur"",""17"",""170985""
""focus"",""19"",""191188""
""blur"",""19"",""251107""
""focus"",""19"",""258236""
""blur"",""19"",""299430""
""focus"",""19"",""302354""
""blur"",""19"",""309327""
""focus"",""19"",""311701""
""blur"",""19"",""349882""
""focus"",""19"",""358429""
","""event"",""trial"",""time""
""blur"",""2"",""4726""
""blur"",""7"",""22258""
""blur"",""17"",""170985""
""blur"",""19"",""251107""
""blur"",""19"",""299430""
""blur"",""19"",""309327""
""blur"",""19"",""349882""
","""event"",""trial"",""time""
""focus"",""2"",""6616""
""focus"",""7"",""30561""
""focus"",""19"",""191188""
""focus"",""19"",""258236""
""focus"",""19"",""302354""
""focus"",""19"",""311701""
""focus"",""19"",""358429""
","""event"",""trial"",""time""
""fullscreenenter"",""1"",""1788""
","
","","","208","","","18","10575","4772","&#9776;","elianto","#3366ff99"," "," ","1","+10","[1059.1999999284744]","1","0","1","","","","","","","",""
"pit-trial","30","409126","0.0-2.0-8.2-0.2","battery-v0.2","","""event"",""trial"",""time""
""fullscreenenter"",""1"",""1788""
""blur"",""2"",""4726""
""focus"",""2"",""6616""
""blur"",""7"",""22258""
""focus"",""7"",""30561""
""blur"",""17"",""170985""
""focus"",""19"",""191188""
""blur"",""19"",""251107""
""focus"",""19"",""258236""
""blur"",""19"",""299430""
""focus"",""19"",""302354""
""blur"",""19"",""309327""
""focus"",""19"",""311701""
""blur"",""19"",""349882""
""focus"",""19"",""358429""
","""event"",""trial"",""time""
""blur"",""2"",""4726""
""blur"",""7"",""22258""
""blur"",""17"",""170985""
""blur"",""19"",""251107""
""blur"",""19"",""299430""
""blur"",""19"",""309327""
""blur"",""19"",""349882""
","""event"",""trial"",""time""
""focus"",""2"",""6616""
""focus"",""7"",""30561""
""focus"",""19"",""191188""
""focus"",""19"",""258236""
""focus"",""19"",""302354""
""focus"",""19"",""311701""
""focus"",""19"",""358429""
","""event"",""trial"",""time""
""fullscreenenter"",""1"",""1788""
","
","","","262.6999999284744","","","18","10575","4772","&#9776;","elianto","#3366ff99"," "," ","1","+10","[1113.4000000953674]","1","0","1","","","","","","","",""
"pit-trial","31","412339","0.0-2.0-8.2-1.2","battery-v0.2","","""event"",""trial"",""time""
""fullscreenenter"",""1"",""1788""
""blur"",""2"",""4726""
""focus"",""2"",""6616""
""blur"",""7"",""22258""
""focus"",""7"",""30561""
""blur"",""17"",""170985""
""focus"",""19"",""191188""
""blur"",""19"",""251107""
""focus"",""19"",""258236""
""blur"",""19"",""299430""
""focus"",""19"",""302354""
""blur"",""19"",""309327""
""focus"",""19"",""311701""
""blur"",""19"",""349882""
""focus"",""19"",""358429""
","""event"",""trial"",""time""
""blur"",""2"",""4726""
""blur"",""7"",""22258""
""blur"",""17"",""170985""
""blur"",""19"",""251107""
""blur"",""19"",""299430""
""blur"",""19"",""309327""
""blur"",""19"",""349882""
","""event"",""trial"",""time""
""focus"",""2"",""6616""
""focus"",""7"",""30561""
""focus"",""19"",""191188""
""focus"",""19"",""258236""
""focus"",""19"",""302354""
""focus"",""19"",""311701""
""focus"",""19"",""358429""
","""event"",""trial"",""time""
""fullscreenenter"",""1"",""1788""
","
","","","358","","","18","10575","4772","&#9776;","elianto","#3366ff99"," "," ","1","+10","[1210.0999999046326]","1","0","1","","","","","","","",""
"pit-trial","32","415644","0.0-2.0-8.2-2.2","battery-v0.2","","""event"",""trial"",""time""
""fullscreenenter"",""1"",""1788""
""blur"",""2"",""4726""
""focus"",""2"",""6616""
""blur"",""7"",""22258""
""focus"",""7"",""30561""
""blur"",""17"",""170985""
""focus"",""19"",""191188""
""blur"",""19"",""251107""
""focus"",""19"",""258236""
""blur"",""19"",""299430""
""focus"",""19"",""302354""
""blur"",""19"",""309327""
""focus"",""19"",""311701""
""blur"",""19"",""349882""
""focus"",""19"",""358429""
","""event"",""trial"",""time""
""blur"",""2"",""4726""
""blur"",""7"",""22258""
""blur"",""17"",""170985""
""blur"",""19"",""251107""
""blur"",""19"",""299430""
""blur"",""19"",""309327""
""blur"",""19"",""349882""
","""event"",""trial"",""time""
""focus"",""2"",""6616""
""focus"",""7"",""30561""
""focus"",""19"",""191188""
""focus"",""19"",""258236""
""focus"",""19"",""302354""
""focus"",""19"",""311701""
""focus"",""19"",""358429""
","""event"",""trial"",""time""
""fullscreenenter"",""1"",""1788""
","
","","","451.2000000476837","","","18","10575","4772","&#9776;","elianto","#3366ff99"," "," ","1","+10","[1301.3999999761581]","1","0","1","","","","","","","",""
"pit-trial","33","418822","0.0-2.0-8.2-3.2","battery-v0.2","","""event"",""trial"",""time""
""fullscreenenter"",""1"",""1788""
""blur"",""2"",""4726""
""focus"",""2"",""6616""
""blur"",""7"",""22258""
""focus"",""7"",""30561""
""blur"",""17"",""170985""
""focus"",""19"",""191188""
""blur"",""19"",""251107""
""focus"",""19"",""258236""
""blur"",""19"",""299430""
""focus"",""19"",""302354""
""blur"",""19"",""309327""
""focus"",""19"",""311701""
""blur"",""19"",""349882""
""focus"",""19"",""358429""
","""event"",""trial"",""time""
""blur"",""2"",""4726""
""blur"",""7"",""22258""
""blur"",""17"",""170985""
""blur"",""19"",""251107""
""blur"",""19"",""299430""
""blur"",""19"",""309327""
""blur"",""19"",""349882""
","""event"",""trial"",""time""
""focus"",""2"",""6616""
""focus"",""7"",""30561""
""focus"",""19"",""191188""
""focus"",""19"",""258236""
""focus"",""19"",""302354""
""focus"",""19"",""311701""
""focus"",""19"",""358429""
","""event"",""trial"",""time""
""fullscreenenter"",""1"",""1788""
","
","","","320.39999997615814","","","18","10575","4772","&#9776;","elianto","#3366ff99"," "," ","1","0","[1171.2000000476837]","1","0","1","","","","","","","",""
"pit-trial","34","421803","0.0-2.0-8.2-4.2","battery-v0.2","","""event"",""trial"",""time""
""fullscreenenter"",""1"",""1788""
""blur"",""2"",""4726""
""focus"",""2"",""6616""
""blur"",""7"",""22258""
""focus"",""7"",""30561""
""blur"",""17"",""170985""
""focus"",""19"",""191188""
""blur"",""19"",""251107""
""focus"",""19"",""258236""
""blur"",""19"",""299430""
""focus"",""19"",""302354""
""blur"",""19"",""309327""
""focus"",""19"",""311701""
""blur"",""19"",""349882""
""focus"",""19"",""358429""
","""event"",""trial"",""time""
""blur"",""2"",""4726""
""blur"",""7"",""22258""
""blur"",""17"",""170985""
""blur"",""19"",""251107""
""blur"",""19"",""299430""
""blur"",""19"",""309327""
""blur"",""19"",""349882""
","""event"",""trial"",""time""
""focus"",""2"",""6616""
""focus"",""7"",""30561""
""focus"",""19"",""191188""
""focus"",""19"",""258236""
""focus"",""19"",""302354""
""focus"",""19"",""311701""
""focus"",""19"",""358429""
","""event"",""trial"",""time""
""fullscreenenter"",""1"",""1788""
","
","","","111.20000004768372","","","18","10575","4772","&#9776;","elianto","#3366ff99"," "," ","1","+10","[961.5,1199.2999999523163]","2","0","1","","","","","","","",""
"call-function","35","421807","0.0-2.0-9.0","battery-v0.2","","""event"",""trial"",""time""
""fullscreenenter"",""1"",""1788""
""blur"",""2"",""4726""
""focus"",""2"",""6616""
""blur"",""7"",""22258""
""focus"",""7"",""30561""
""blur"",""17"",""170985""
""focus"",""19"",""191188""
""blur"",""19"",""251107""
""focus"",""19"",""258236""
""blur"",""19"",""299430""
""focus"",""19"",""302354""
""blur"",""19"",""309327""
""focus"",""19"",""311701""
""blur"",""19"",""349882""
""focus"",""19"",""358429""
","""event"",""trial"",""time""
""blur"",""2"",""4726""
""blur"",""7"",""22258""
""blur"",""17"",""170985""
""blur"",""19"",""251107""
""blur"",""19"",""299430""
""blur"",""19"",""309327""
""blur"",""19"",""349882""
","""event"",""trial"",""time""
""focus"",""2"",""6616""
""focus"",""7"",""30561""
""focus"",""19"",""191188""
""focus"",""19"",""258236""
""focus"",""19"",""302354""
""focus"",""19"",""311701""
""focus"",""19"",""358429""
","""event"",""trial"",""time""
""fullscreenenter"",""1"",""1788""
","
","","","","","","","","","","","","","","","","","","","","","","","","","","",""
"pit-instructions","36","459896","0.0-2.0-10.0","battery-v0.2","","""event"",""trial"",""time""
""fullscreenenter"",""1"",""1788""
""blur"",""2"",""4726""
""focus"",""2"",""6616""
""blur"",""7"",""22258""
""focus"",""7"",""30561""
""blur"",""17"",""170985""
""focus"",""19"",""191188""
""blur"",""19"",""251107""
""focus"",""19"",""258236""
""blur"",""19"",""299430""
""focus"",""19"",""302354""
""blur"",""19"",""309327""
""focus"",""19"",""311701""
""blur"",""19"",""349882""
""focus"",""19"",""358429""
","""event"",""trial"",""time""
""blur"",""2"",""4726""
""blur"",""7"",""22258""
""blur"",""17"",""170985""
""blur"",""19"",""251107""
""blur"",""19"",""299430""
""blur"",""19"",""309327""
""blur"",""19"",""349882""
","""event"",""trial"",""time""
""focus"",""2"",""6616""
""focus"",""7"",""30561""
""focus"",""19"",""191188""
""focus"",""19"",""258236""
""focus"",""19"",""302354""
""focus"",""19"",""311701""
""focus"",""19"",""358429""
","""event"",""trial"",""time""
""fullscreenenter"",""1"",""1788""
","
","","[{""page_index"":0,""viewing_time"":5405.299999952316},{""page_index"":1,""viewing_time"":6210.600000023842},{""page_index"":2,""viewing_time"":9157.700000047684},{""page_index"":3,""viewing_time"":9406.799999952316},{""page_index"":4,""viewing_time"":7906.5}]","38088.39999997616","","","","","","","","","","","","","","","","","","","","","","","",""
"pit-trial","37","463297","0.0-2.0-11.0-0.0","battery-v0.2","","""event"",""trial"",""time""
""fullscreenenter"",""1"",""1788""
""blur"",""2"",""4726""
""focus"",""2"",""6616""
""blur"",""7"",""22258""
""focus"",""7"",""30561""
""blur"",""17"",""170985""
""focus"",""19"",""191188""
""blur"",""19"",""251107""
""focus"",""19"",""258236""
""blur"",""19"",""299430""
""focus"",""19"",""302354""
""blur"",""19"",""309327""
""focus"",""19"",""311701""
""blur"",""19"",""349882""
""focus"",""19"",""358429""
","""event"",""trial"",""time""
""blur"",""2"",""4726""
""blur"",""7"",""22258""
""blur"",""17"",""170985""
""blur"",""19"",""251107""
""blur"",""19"",""299430""
""blur"",""19"",""309327""
""blur"",""19"",""349882""
","""event"",""trial"",""time""
""focus"",""2"",""6616""
""focus"",""7"",""30561""
""focus"",""19"",""191188""
""focus"",""19"",""258236""
""focus"",""19"",""302354""
""focus"",""19"",""311701""
""focus"",""19"",""358429""
","""event"",""trial"",""time""
""fullscreenenter"",""1"",""1788""
","
","","","543.3999999761581","","","18","10575","4772","&#9761;","elianto","#3366ff99","-1"," ","0","0","[1397.2000000476837]","1","0","2","","","","","","","",""
"pit-trial","38","466580","0.0-2.0-11.0-1.0","battery-v0.2","","""event"",""trial"",""time""
""fullscreenenter"",""1"",""1788""
""blur"",""2"",""4726""
""focus"",""2"",""6616""
""blur"",""7"",""22258""
""focus"",""7"",""30561""
""blur"",""17"",""170985""
""focus"",""19"",""191188""
""blur"",""19"",""251107""
""focus"",""19"",""258236""
""blur"",""19"",""299430""
""focus"",""19"",""302354""
""blur"",""19"",""309327""
""focus"",""19"",""311701""
""blur"",""19"",""349882""
""focus"",""19"",""358429""
","""event"",""trial"",""time""
""blur"",""2"",""4726""
""blur"",""7"",""22258""
""blur"",""17"",""170985""
""blur"",""19"",""251107""
""blur"",""19"",""299430""
""blur"",""19"",""309327""
""blur"",""19"",""349882""
","""event"",""trial"",""time""
""focus"",""2"",""6616""
""focus"",""7"",""30561""
""focus"",""19"",""191188""
""focus"",""19"",""258236""
""focus"",""19"",""302354""
""focus"",""19"",""311701""
""focus"",""19"",""358429""
","""event"",""trial"",""time""
""fullscreenenter"",""1"",""1788""
","
","","","409.7000000476837","","","18","10575","4772","&#9761;","elianto","#3366ff99","-1"," ","0","0","[1262.5]","1","0","2","","","","","","","",""
"pit-trial","39","469731","0.0-2.0-11.0-2.0","battery-v0.2","","""event"",""trial"",""time""
""fullscreenenter"",""1"",""1788""
""blur"",""2"",""4726""
""focus"",""2"",""6616""
""blur"",""7"",""22258""
""focus"",""7"",""30561""
""blur"",""17"",""170985""
""focus"",""19"",""191188""
""blur"",""19"",""251107""
""focus"",""19"",""258236""
""blur"",""19"",""299430""
""focus"",""19"",""302354""
""blur"",""19"",""309327""
""focus"",""19"",""311701""
""blur"",""19"",""349882""
""focus"",""19"",""358429""
","""event"",""trial"",""time""
""blur"",""2"",""4726""
""blur"",""7"",""22258""
""blur"",""17"",""170985""
""blur"",""19"",""251107""
""blur"",""19"",""299430""
""blur"",""19"",""309327""
""blur"",""19"",""349882""
","""event"",""trial"",""time""
""focus"",""2"",""6616""
""focus"",""7"",""30561""
""focus"",""19"",""191188""
""focus"",""19"",""258236""
""focus"",""19"",""302354""
""focus"",""19"",""311701""
""focus"",""19"",""358429""
","""event"",""trial"",""time""
""fullscreenenter"",""1"",""1788""
","
","","","286.2000000476837","","","18","10575","4772","&#9761;","elianto","#3366ff99","-1"," ","0","0","[1137.6000000238419]","1","0","2","","","","","","","",""
"pit-trial","40","473050","0.0-2.0-11.0-3.0","battery-v0.2","","""event"",""trial"",""time""
""fullscreenenter"",""1"",""1788""
""blur"",""2"",""4726""
""focus"",""2"",""6616""
""blur"",""7"",""22258""
""focus"",""7"",""30561""
""blur"",""17"",""170985""
""focus"",""19"",""191188""
""blur"",""19"",""251107""
""focus"",""19"",""258236""
""blur"",""19"",""299430""
""focus"",""19"",""302354""
""blur"",""19"",""309327""
""focus"",""19"",""311701""
""blur"",""19"",""349882""
""focus"",""19"",""358429""
","""event"",""trial"",""time""
""blur"",""2"",""4726""
""blur"",""7"",""22258""
""blur"",""17"",""170985""
""blur"",""19"",""251107""
""blur"",""19"",""299430""
""blur"",""19"",""309327""
""blur"",""19"",""349882""
","""event"",""trial"",""time""
""focus"",""2"",""6616""
""focus"",""7"",""30561""
""focus"",""19"",""191188""
""focus"",""19"",""258236""
""focus"",""19"",""302354""
""focus"",""19"",""311701""
""focus"",""19"",""358429""
","""event"",""trial"",""time""
""fullscreenenter"",""1"",""1788""
","
","","","446.39999997615814","","","18","10575","4772","&#9761;","elianto","#3366ff99","-1"," ","0","+10","[1298.8999999761581]","1","0","2","","","","","","","",""
"pit-trial","41","476150","0.0-2.0-11.0-4.0","battery-v0.2","","""event"",""trial"",""time""
""fullscreenenter"",""1"",""1788""
""blur"",""2"",""4726""
""focus"",""2"",""6616""
""blur"",""7"",""22258""
""focus"",""7"",""30561""
""blur"",""17"",""170985""
""focus"",""19"",""191188""
""blur"",""19"",""251107""
""focus"",""19"",""258236""
""blur"",""19"",""299430""
""focus"",""19"",""302354""
""blur"",""19"",""309327""
""focus"",""19"",""311701""
""blur"",""19"",""349882""
""focus"",""19"",""358429""
","""event"",""trial"",""time""
""blur"",""2"",""4726""
""blur"",""7"",""22258""
""blur"",""17"",""170985""
""blur"",""19"",""251107""
""blur"",""19"",""299430""
""blur"",""19"",""309327""
""blur"",""19"",""349882""
","""event"",""trial"",""time""
""focus"",""2"",""6616""
""focus"",""7"",""30561""
""focus"",""19"",""191188""
""focus"",""19"",""258236""
""focus"",""19"",""302354""
""focus"",""19"",""311701""
""focus"",""19"",""358429""
","""event"",""trial"",""time""
""fullscreenenter"",""1"",""1788""
","
","","","232.5","","","18","10575","4772","&#9761;","elianto","#3366ff99","-1"," ","0","0","[1085.7999999523163]","1","0","2","","","","","","","",""
"pit-trial","42","479481","0.0-2.0-11.1-0.1","battery-v0.2","","""event"",""trial"",""time""
""fullscreenenter"",""1"",""1788""
""blur"",""2"",""4726""
""focus"",""2"",""6616""
""blur"",""7"",""22258""
""focus"",""7"",""30561""
""blur"",""17"",""170985""
""focus"",""19"",""191188""
""blur"",""19"",""251107""
""focus"",""19"",""258236""
""blur"",""19"",""299430""
""focus"",""19"",""302354""
""blur"",""19"",""309327""
""focus"",""19"",""311701""
""blur"",""19"",""349882""
""focus"",""19"",""358429""
","""event"",""trial"",""time""
""blur"",""2"",""4726""
""blur"",""7"",""22258""
""blur"",""17"",""170985""
""blur"",""19"",""251107""
""blur"",""19"",""299430""
""blur"",""19"",""309327""
""blur"",""19"",""349882""
","""event"",""trial"",""time""
""focus"",""2"",""6616""
""focus"",""7"",""30561""
""focus"",""19"",""191188""
""focus"",""19"",""258236""
""focus"",""19"",""302354""
""focus"",""19"",""311701""
""focus"",""19"",""358429""
","""event"",""trial"",""time""
""fullscreenenter"",""1"",""1788""
","
","","","447.40000009536743","","","18","10575","4772","&#9761;","elianto","#3366ff99","-1"," ","0","0","[1298]","1","0","2","","","","","","","",""
"pit-trial","43","482838","0.0-2.0-11.1-1.1","battery-v0.2","","""event"",""trial"",""time""
""fullscreenenter"",""1"",""1788""
""blur"",""2"",""4726""
""focus"",""2"",""6616""
""blur"",""7"",""22258""
""focus"",""7"",""30561""
""blur"",""17"",""170985""
""focus"",""19"",""191188""
""blur"",""19"",""251107""
""focus"",""19"",""258236""
""blur"",""19"",""299430""
""focus"",""19"",""302354""
""blur"",""19"",""309327""
""focus"",""19"",""311701""
""blur"",""19"",""349882""
""focus"",""19"",""358429""
","""event"",""trial"",""time""
""blur"",""2"",""4726""
""blur"",""7"",""22258""
""blur"",""17"",""170985""
""blur"",""19"",""251107""
""blur"",""19"",""299430""
""blur"",""19"",""309327""
""blur"",""19"",""349882""
","""event"",""trial"",""time""
""focus"",""2"",""6616""
""focus"",""7"",""30561""
""focus"",""19"",""191188""
""focus"",""19"",""258236""
""focus"",""19"",""302354""
""focus"",""19"",""311701""
""focus"",""19"",""358429""
","""event"",""trial"",""time""
""fullscreenenter"",""1"",""1788""
","
","","","490.5","","","18","10575","4772","&#9761;","elianto","#3366ff99","-1"," ","0","0","[1342.6000000238419]","1","0","2","","","","","","","",""
"pit-trial","44","485997","0.0-2.0-11.1-2.1","battery-v0.2","","""event"",""trial"",""time""
""fullscreenenter"",""1"",""1788""
""blur"",""2"",""4726""
""focus"",""2"",""6616""
""blur"",""7"",""22258""
""focus"",""7"",""30561""
""blur"",""17"",""170985""
""focus"",""19"",""191188""
""blur"",""19"",""251107""
""focus"",""19"",""258236""
""blur"",""19"",""299430""
""focus"",""19"",""302354""
""blur"",""19"",""309327""
""focus"",""19"",""311701""
""blur"",""19"",""349882""
""focus"",""19"",""358429""
","""event"",""trial"",""time""
""blur"",""2"",""4726""
""blur"",""7"",""22258""
""blur"",""17"",""170985""
""blur"",""19"",""251107""
""blur"",""19"",""299430""
""blur"",""19"",""309327""
""blur"",""19"",""349882""
","""event"",""trial"",""time""
""focus"",""2"",""6616""
""focus"",""7"",""30561""
""focus"",""19"",""191188""
""focus"",""19"",""258236""
""focus"",""19"",""302354""
""focus"",""19"",""311701""
""focus"",""19"",""358429""
","""event"",""trial"",""time""
""fullscreenenter"",""1"",""1788""
","
","","","302","","","18","10575","4772","&#9761;","elianto","#3366ff99","-1"," ","0","0","[1153.3999999761581]","1","0","2","","","","","","","",""
"pit-trial","45","489202","0.0-2.0-11.1-3.1","battery-v0.2","","""event"",""trial"",""time""
""fullscreenenter"",""1"",""1788""
""blur"",""2"",""4726""
""focus"",""2"",""6616""
""blur"",""7"",""22258""
""focus"",""7"",""30561""
""blur"",""17"",""170985""
""focus"",""19"",""191188""
""blur"",""19"",""251107""
""focus"",""19"",""258236""
""blur"",""19"",""299430""
""focus"",""19"",""302354""
""blur"",""19"",""309327""
""focus"",""19"",""311701""
""blur"",""19"",""349882""
""focus"",""19"",""358429""
","""event"",""trial"",""time""
""blur"",""2"",""4726""
""blur"",""7"",""22258""
""blur"",""17"",""170985""
""blur"",""19"",""251107""
""blur"",""19"",""299430""
""blur"",""19"",""309327""
""blur"",""19"",""349882""
","""event"",""trial"",""time""
""focus"",""2"",""6616""
""focus"",""7"",""30561""
""focus"",""19"",""191188""
""focus"",""19"",""258236""
""focus"",""19"",""302354""
""focus"",""19"",""311701""
""focus"",""19"",""358429""
","""event"",""trial"",""time""
""fullscreenenter"",""1"",""1788""
","
","","","338.2999999523163","","","18","10575","4772","&#9761;","elianto","#3366ff99","-1"," ","0","+10","[1193.1999999284744]","1","0","2","","","","","","","",""
"pit-trial","46","492372","0.0-2.0-11.1-4.1","battery-v0.2","","""event"",""trial"",""time""
""fullscreenenter"",""1"",""1788""
""blur"",""2"",""4726""
""focus"",""2"",""6616""
""blur"",""7"",""22258""
""focus"",""7"",""30561""
""blur"",""17"",""170985""
""focus"",""19"",""191188""
""blur"",""19"",""251107""
""focus"",""19"",""258236""
""blur"",""19"",""299430""
""focus"",""19"",""302354""
""blur"",""19"",""309327""
""focus"",""19"",""311701""
""blur"",""19"",""349882""
""focus"",""19"",""358429""
","""event"",""trial"",""time""
""blur"",""2"",""4726""
""blur"",""7"",""22258""
""blur"",""17"",""170985""
""blur"",""19"",""251107""
""blur"",""19"",""299430""
""blur"",""19"",""309327""
""blur"",""19"",""349882""
","""event"",""trial"",""time""
""focus"",""2"",""6616""
""focus"",""7"",""30561""
""focus"",""19"",""191188""
""focus"",""19"",""258236""
""focus"",""19"",""302354""
""focus"",""19"",""311701""
""focus"",""19"",""358429""
","""event"",""trial"",""time""
""fullscreenenter"",""1"",""1788""
","
","","","314.5","","","18","10575","4772","&#9761;","elianto","#3366ff99","-1"," ","0","0","[1166.1000000238419]","1","0","2","","","","","","","",""
"pit-trial","47","495421","0.0-2.0-11.2-0.2","battery-v0.2","","""event"",""trial"",""time""
""fullscreenenter"",""1"",""1788""
""blur"",""2"",""4726""
""focus"",""2"",""6616""
""blur"",""7"",""22258""
""focus"",""7"",""30561""
""blur"",""17"",""170985""
""focus"",""19"",""191188""
""blur"",""19"",""251107""
""focus"",""19"",""258236""
""blur"",""19"",""299430""
""focus"",""19"",""302354""
""blur"",""19"",""309327""
""focus"",""19"",""311701""
""blur"",""19"",""349882""
""focus"",""19"",""358429""
","""event"",""trial"",""time""
""blur"",""2"",""4726""
""blur"",""7"",""22258""
""blur"",""17"",""170985""
""blur"",""19"",""251107""
""blur"",""19"",""299430""
""blur"",""19"",""309327""
""blur"",""19"",""349882""
","""event"",""trial"",""time""
""focus"",""2"",""6616""
""focus"",""7"",""30561""
""focus"",""19"",""191188""
""focus"",""19"",""258236""
""focus"",""19"",""302354""
""focus"",""19"",""311701""
""focus"",""19"",""358429""
","""event"",""trial"",""time""
""fullscreenenter"",""1"",""1788""
","
","","","191","","","18","10575","4772","&#9761;","elianto","#3366ff99","-1"," ","0","0","[1041.3999999761581]","1","0","2","","","","","","","",""
"pit-trial","48","498396","0.0-2.0-11.2-1.2","battery-v0.2","","""event"",""trial"",""time""
""fullscreenenter"",""1"",""1788""
""blur"",""2"",""4726""
""focus"",""2"",""6616""
""blur"",""7"",""22258""
""focus"",""7"",""30561""
""blur"",""17"",""170985""
""focus"",""19"",""191188""
""blur"",""19"",""251107""
""focus"",""19"",""258236""
""blur"",""19"",""299430""
""focus"",""19"",""302354""
""blur"",""19"",""309327""
""focus"",""19"",""311701""
""blur"",""19"",""349882""
""focus"",""19"",""358429""
","""event"",""trial"",""time""
""blur"",""2"",""4726""
""blur"",""7"",""22258""
""blur"",""17"",""170985""
""blur"",""19"",""251107""
""blur"",""19"",""299430""
""blur"",""19"",""309327""
""blur"",""19"",""349882""
","""event"",""trial"",""time""
""focus"",""2"",""6616""
""focus"",""7"",""30561""
""focus"",""19"",""191188""
""focus"",""19"",""258236""
""focus"",""19"",""302354""
""focus"",""19"",""311701""
""focus"",""19"",""358429""
","""event"",""trial"",""time""
""fullscreenenter"",""1"",""1788""
","
","","","119.09999990463257","","","18","10575","4772","&#9761;","elianto","#3366ff99","-1"," ","0","0","[969.3999999761581]","1","0","2","","","","","","","",""
"pit-trial","49","501452","0.0-2.0-11.2-2.2","battery-v0.2","","""event"",""trial"",""time""
""fullscreenenter"",""1"",""1788""
""blur"",""2"",""4726""
""focus"",""2"",""6616""
""blur"",""7"",""22258""
""focus"",""7"",""30561""
""blur"",""17"",""170985""
""focus"",""19"",""191188""
""blur"",""19"",""251107""
""focus"",""19"",""258236""
""blur"",""19"",""299430""
""focus"",""19"",""302354""
""blur"",""19"",""309327""
""focus"",""19"",""311701""
""blur"",""19"",""349882""
""focus"",""19"",""358429""
","""event"",""trial"",""time""
""blur"",""2"",""4726""
""blur"",""7"",""22258""
""blur"",""17"",""170985""
""blur"",""19"",""251107""
""blur"",""19"",""299430""
""blur"",""19"",""309327""
""blur"",""19"",""349882""
","""event"",""trial"",""time""
""focus"",""2"",""6616""
""focus"",""7"",""30561""
""focus"",""19"",""191188""
""focus"",""19"",""258236""
""focus"",""19"",""302354""
""focus"",""19"",""311701""
""focus"",""19"",""358429""
","""event"",""trial"",""time""
""fullscreenenter"",""1"",""1788""
","
","","","198.10000002384186","","","18","10575","4772","&#9761;","elianto","#3366ff99","-1"," ","0","0","[1049.6999999284744]","1","0","2","","","","","","","",""
"pit-trial","50","504469","0.0-2.0-11.2-3.2","battery-v0.2","","""event"",""trial"",""time""
""fullscreenenter"",""1"",""1788""
""blur"",""2"",""4726""
""focus"",""2"",""6616""
""blur"",""7"",""22258""
""focus"",""7"",""30561""
""blur"",""17"",""170985""
""focus"",""19"",""191188""
""blur"",""19"",""251107""
""focus"",""19"",""258236""
""blur"",""19"",""299430""
""focus"",""19"",""302354""
""blur"",""19"",""309327""
""focus"",""19"",""311701""
""blur"",""19"",""349882""
""focus"",""19"",""358429""
","""event"",""trial"",""time""
""blur"",""2"",""4726""
""blur"",""7"",""22258""
""blur"",""17"",""170985""
""blur"",""19"",""251107""
""blur"",""19"",""299430""
""blur"",""19"",""309327""
""blur"",""19"",""349882""
","""event"",""trial"",""time""
""focus"",""2"",""6616""
""focus"",""7"",""30561""
""focus"",""19"",""191188""
""focus"",""19"",""258236""
""focus"",""19"",""302354""
""focus"",""19"",""311701""
""focus"",""19"",""358429""
","""event"",""trial"",""time""
""fullscreenenter"",""1"",""1788""
","
","","","161.79999995231628","","","18","10575","4772","&#9761;","elianto","#3366ff99","-1"," ","0","+10","[1012.7999999523163]","1","0","2","","","","","","","",""
"pit-trial","51","507572","0.0-2.0-11.2-4.2","battery-v0.2","","""event"",""trial"",""time""
""fullscreenenter"",""1"",""1788""
""blur"",""2"",""4726""
""focus"",""2"",""6616""
""blur"",""7"",""22258""
""focus"",""7"",""30561""
""blur"",""17"",""170985""
""focus"",""19"",""191188""
""blur"",""19"",""251107""
""focus"",""19"",""258236""
""blur"",""19"",""299430""
""focus"",""19"",""302354""
""blur"",""19"",""309327""
""focus"",""19"",""311701""
""blur"",""19"",""349882""
""focus"",""19"",""358429""
","""event"",""trial"",""time""
""blur"",""2"",""4726""
""blur"",""7"",""22258""
""blur"",""17"",""170985""
""blur"",""19"",""251107""
""blur"",""19"",""299430""
""blur"",""19"",""309327""
""blur"",""19"",""349882""
","""event"",""trial"",""time""
""focus"",""2"",""6616""
""focus"",""7"",""30561""
""focus"",""19"",""191188""
""focus"",""19"",""258236""
""focus"",""19"",""302354""
""focus"",""19"",""311701""
""focus"",""19"",""358429""
","""event"",""trial"",""time""
""fullscreenenter"",""1"",""1788""
","
","","","247.5","","","18","10575","4772","&#9761;","elianto","#3366ff99","-1"," ","0","0","[817.5999999046326,1098.7999999523163]","2","0","2","","","","","","","",""
"pit-trial","52","510560","0.0-2.0-11.3-0.3","battery-v0.2","","""event"",""trial"",""time""
""fullscreenenter"",""1"",""1788""
""blur"",""2"",""4726""
""focus"",""2"",""6616""
""blur"",""7"",""22258""
""focus"",""7"",""30561""
""blur"",""17"",""170985""
""focus"",""19"",""191188""
""blur"",""19"",""251107""
""focus"",""19"",""258236""
""blur"",""19"",""299430""
""focus"",""19"",""302354""
""blur"",""19"",""309327""
""focus"",""19"",""311701""
""blur"",""19"",""349882""
""focus"",""19"",""358429""
","""event"",""trial"",""time""
""blur"",""2"",""4726""
""blur"",""7"",""22258""
""blur"",""17"",""170985""
""blur"",""19"",""251107""
""blur"",""19"",""299430""
""blur"",""19"",""309327""
""blur"",""19"",""349882""
","""event"",""trial"",""time""
""focus"",""2"",""6616""
""focus"",""7"",""30561""
""focus"",""19"",""191188""
""focus"",""19"",""258236""
""focus"",""19"",""302354""
""focus"",""19"",""311701""
""focus"",""19"",""358429""
","""event"",""trial"",""time""
""fullscreenenter"",""1"",""1788""
","
","","","127.59999990463257","","","18","10575","4772","&#9761;","elianto","#3366ff99","-1"," ","0","0","[978.5]","1","0","2","","","","","","","",""
"pit-trial","53","513548","0.0-2.0-11.3-1.3","battery-v0.2","","""event"",""trial"",""time""
""fullscreenenter"",""1"",""1788""
""blur"",""2"",""4726""
""focus"",""2"",""6616""
""blur"",""7"",""22258""
""focus"",""7"",""30561""
""blur"",""17"",""170985""
""focus"",""19"",""191188""
""blur"",""19"",""251107""
""focus"",""19"",""258236""
""blur"",""19"",""299430""
""focus"",""19"",""302354""
""blur"",""19"",""309327""
""focus"",""19"",""311701""
""blur"",""19"",""349882""
""focus"",""19"",""358429""
","""event"",""trial"",""time""
""blur"",""2"",""4726""
""blur"",""7"",""22258""
""blur"",""17"",""170985""
""blur"",""19"",""251107""
""blur"",""19"",""299430""
""blur"",""19"",""309327""
""blur"",""19"",""349882""
","""event"",""trial"",""time""
""focus"",""2"",""6616""
""focus"",""7"",""30561""
""focus"",""19"",""191188""
""focus"",""19"",""258236""
""focus"",""19"",""302354""
""focus"",""19"",""311701""
""focus"",""19"",""358429""
","""event"",""trial"",""time""
""fullscreenenter"",""1"",""1788""
","
","","","128.89999997615814","","","18","10575","4772","&#9761;","elianto","#3366ff99","-1"," ","0","0","[982.3000000715256]","1","0","2","","","","","","","",""
"pit-trial","54","516491","0.0-2.0-11.3-2.3","battery-v0.2","","""event"",""trial"",""time""
""fullscreenenter"",""1"",""1788""
""blur"",""2"",""4726""
""focus"",""2"",""6616""
""blur"",""7"",""22258""
""focus"",""7"",""30561""
""blur"",""17"",""170985""
""focus"",""19"",""191188""
""blur"",""19"",""251107""
""focus"",""19"",""258236""
""blur"",""19"",""299430""
""focus"",""19"",""302354""
""blur"",""19"",""309327""
""focus"",""19"",""311701""
""blur"",""19"",""349882""
""focus"",""19"",""358429""
","""event"",""trial"",""time""
""blur"",""2"",""4726""
""blur"",""7"",""22258""
""blur"",""17"",""170985""
""blur"",""19"",""251107""
""blur"",""19"",""299430""
""blur"",""19"",""309327""
""blur"",""19"",""349882""
","""event"",""trial"",""time""
""focus"",""2"",""6616""
""focus"",""7"",""30561""
""focus"",""19"",""191188""
""focus"",""19"",""258236""
""focus"",""19"",""302354""
""focus"",""19"",""311701""
""focus"",""19"",""358429""
","""event"",""trial"",""time""
""fullscreenenter"",""1"",""1788""
","
","","","85.39999997615814","","","18","10575","4772","&#9761;","elianto","#3366ff99","-1"," ","0","0","[935.8000000715256]","1","0","2","","","","","","","",""
"pit-trial","55","519508","0.0-2.0-11.3-3.3","battery-v0.2","","""event"",""trial"",""time""
""fullscreenenter"",""1"",""1788""
""blur"",""2"",""4726""
""focus"",""2"",""6616""
""blur"",""7"",""22258""
""focus"",""7"",""30561""
""blur"",""17"",""170985""
""focus"",""19"",""191188""
""blur"",""19"",""251107""
""focus"",""19"",""258236""
""blur"",""19"",""299430""
""focus"",""19"",""302354""
""blur"",""19"",""309327""
""focus"",""19"",""311701""
""blur"",""19"",""349882""
""focus"",""19"",""358429""
","""event"",""trial"",""time""
""blur"",""2"",""4726""
""blur"",""7"",""22258""
""blur"",""17"",""170985""
""blur"",""19"",""251107""
""blur"",""19"",""299430""
""blur"",""19"",""309327""
""blur"",""19"",""349882""
","""event"",""trial"",""time""
""focus"",""2"",""6616""
""focus"",""7"",""30561""
""focus"",""19"",""191188""
""focus"",""19"",""258236""
""focus"",""19"",""302354""
""focus"",""19"",""311701""
""focus"",""19"",""358429""
","""event"",""trial"",""time""
""fullscreenenter"",""1"",""1788""
","
","","","161.79999995231628","","","18","10575","4772","&#9761;","elianto","#3366ff99","-1"," ","0","+10","[1012]","1","0","2","","","","","","","",""
"pit-trial","56","522556","0.0-2.0-11.3-4.3","battery-v0.2","","""event"",""trial"",""time""
""fullscreenenter"",""1"",""1788""
""blur"",""2"",""4726""
""focus"",""2"",""6616""
""blur"",""7"",""22258""
""focus"",""7"",""30561""
""blur"",""17"",""170985""
""focus"",""19"",""191188""
""blur"",""19"",""251107""
""focus"",""19"",""258236""
""blur"",""19"",""299430""
""focus"",""19"",""302354""
""blur"",""19"",""309327""
""focus"",""19"",""311701""
""blur"",""19"",""349882""
""focus"",""19"",""358429""
","""event"",""trial"",""time""
""blur"",""2"",""4726""
""blur"",""7"",""22258""
""blur"",""17"",""170985""
""blur"",""19"",""251107""
""blur"",""19"",""299430""
""blur"",""19"",""309327""
""blur"",""19"",""349882""
","""event"",""trial"",""time""
""focus"",""2"",""6616""
""focus"",""7"",""30561""
""focus"",""19"",""191188""
""focus"",""19"",""258236""
""focus"",""19"",""302354""
""focus"",""19"",""311701""
""focus"",""19"",""358429""
","""event"",""trial"",""time""
""fullscreenenter"",""1"",""1788""
","
","","","188.5","","","18","10575","4772","&#9761;","elianto","#3366ff99","-1"," ","0","0","[1041.3000000715256]","1","0","2","","","","","","","",""
"call-function","57","522559","0.0-2.0-12.0","battery-v0.2","","""event"",""trial"",""time""
""fullscreenenter"",""1"",""1788""
""blur"",""2"",""4726""
""focus"",""2"",""6616""
""blur"",""7"",""22258""
""focus"",""7"",""30561""
""blur"",""17"",""170985""
""focus"",""19"",""191188""
""blur"",""19"",""251107""
""focus"",""19"",""258236""
""blur"",""19"",""299430""
""focus"",""19"",""302354""
""blur"",""19"",""309327""
""focus"",""19"",""311701""
""blur"",""19"",""349882""
""focus"",""19"",""358429""
","""event"",""trial"",""time""
""blur"",""2"",""4726""
""blur"",""7"",""22258""
""blur"",""17"",""170985""
""blur"",""19"",""251107""
""blur"",""19"",""299430""
""blur"",""19"",""309327""
""blur"",""19"",""349882""
","""event"",""trial"",""time""
""focus"",""2"",""6616""
""focus"",""7"",""30561""
""focus"",""19"",""191188""
""focus"",""19"",""258236""
""focus"",""19"",""302354""
""focus"",""19"",""311701""
""focus"",""19"",""358429""
","""event"",""trial"",""time""
""fullscreenenter"",""1"",""1788""
","
","","","","","","","","","","","","","","","","","","","","","","","","","","",""
"pit-instructions","58","555354","0.0-2.0-13.0","battery-v0.2","","""event"",""trial"",""time""
""fullscreenenter"",""1"",""1788""
""blur"",""2"",""4726""
""focus"",""2"",""6616""
""blur"",""7"",""22258""
""focus"",""7"",""30561""
""blur"",""17"",""170985""
""focus"",""19"",""191188""
""blur"",""19"",""251107""
""focus"",""19"",""258236""
""blur"",""19"",""299430""
""focus"",""19"",""302354""
""blur"",""19"",""309327""
""focus"",""19"",""311701""
""blur"",""19"",""349882""
""focus"",""19"",""358429""
","""event"",""trial"",""time""
""blur"",""2"",""4726""
""blur"",""7"",""22258""
""blur"",""17"",""170985""
""blur"",""19"",""251107""
""blur"",""19"",""299430""
""blur"",""19"",""309327""
""blur"",""19"",""349882""
","""event"",""trial"",""time""
""focus"",""2"",""6616""
""focus"",""7"",""30561""
""focus"",""19"",""191188""
""focus"",""19"",""258236""
""focus"",""19"",""302354""
""focus"",""19"",""311701""
""focus"",""19"",""358429""
","""event"",""trial"",""time""
""fullscreenenter"",""1"",""1788""
","
","","[{""page_index"":0,""viewing_time"":5311.300000071526},{""page_index"":1,""viewing_time"":8565.599999904633},{""page_index"":2,""viewing_time"":3961.5},{""page_index"":3,""viewing_time"":10927.100000023842},{""page_index"":4,""viewing_time"":4028.600000023842}]","32794.60000002384","","","","","","","","","","","","","","","","","","","","","","","",""
"pit-trial","59","558729","0.0-2.0-14.0-0.0","battery-v0.2","","""event"",""trial"",""time""
""fullscreenenter"",""1"",""1788""
""blur"",""2"",""4726""
""focus"",""2"",""6616""
""blur"",""7"",""22258""
""focus"",""7"",""30561""
""blur"",""17"",""170985""
""focus"",""19"",""191188""
""blur"",""19"",""251107""
""focus"",""19"",""258236""
""blur"",""19"",""299430""
""focus"",""19"",""302354""
""blur"",""19"",""309327""
""focus"",""19"",""311701""
""blur"",""19"",""349882""
""focus"",""19"",""358429""
","""event"",""trial"",""time""
""blur"",""2"",""4726""
""blur"",""7"",""22258""
""blur"",""17"",""170985""
""blur"",""19"",""251107""
""blur"",""19"",""299430""
""blur"",""19"",""309327""
""blur"",""19"",""349882""
","""event"",""trial"",""time""
""focus"",""2"",""6616""
""focus"",""7"",""30561""
""focus"",""19"",""191188""
""focus"",""19"",""258236""
""focus"",""19"",""302354""
""focus"",""19"",""311701""
""focus"",""19"",""358429""
","""event"",""trial"",""time""
""fullscreenenter"",""1"",""1788""
","
","","","512.0999999046326","","","18","10575","4772","&#9826;","elianto","#f73b6a7A","-1"," ","0","-10","[1365.5]","1","0","3","","","","","","","",""
"pit-trial","60","563611","0.0-2.0-14.0-1.0","battery-v0.2","","""event"",""trial"",""time""
""fullscreenenter"",""1"",""1788""
""blur"",""2"",""4726""
""focus"",""2"",""6616""
""blur"",""7"",""22258""
""focus"",""7"",""30561""
""blur"",""17"",""170985""
""focus"",""19"",""191188""
""blur"",""19"",""251107""
""focus"",""19"",""258236""
""blur"",""19"",""299430""
""focus"",""19"",""302354""
""blur"",""19"",""309327""
""focus"",""19"",""311701""
""blur"",""19"",""349882""
""focus"",""19"",""358429""
","""event"",""trial"",""time""
""blur"",""2"",""4726""
""blur"",""7"",""22258""
""blur"",""17"",""170985""
""blur"",""19"",""251107""
""blur"",""19"",""299430""
""blur"",""19"",""309327""
""blur"",""19"",""349882""
","""event"",""trial"",""time""
""focus"",""2"",""6616""
""focus"",""7"",""30561""
""focus"",""19"",""191188""
""focus"",""19"",""258236""
""focus"",""19"",""302354""
""focus"",""19"",""311701""
""focus"",""19"",""358429""
","""event"",""trial"",""time""
""fullscreenenter"",""1"",""1788""
","
","","","-1","","","18","10575","4772","&#9826;","elianto","#f73b6a7A","-1","-1","1","0","[]","0","0","3","","","","","","","",""
"pit-trial","61","568475","0.0-2.0-14.0-2.0","battery-v0.2","","""event"",""trial"",""time""
""fullscreenenter"",""1"",""1788""
""blur"",""2"",""4726""
""focus"",""2"",""6616""
""blur"",""7"",""22258""
""focus"",""7"",""30561""
""blur"",""17"",""170985""
""focus"",""19"",""191188""
""blur"",""19"",""251107""
""focus"",""19"",""258236""
""blur"",""19"",""299430""
""focus"",""19"",""302354""
""blur"",""19"",""309327""
""focus"",""19"",""311701""
""blur"",""19"",""349882""
""focus"",""19"",""358429""
""blur"",""62"",""572788""
","""event"",""trial"",""time""
""blur"",""2"",""4726""
""blur"",""7"",""22258""
""blur"",""17"",""170985""
""blur"",""19"",""251107""
""blur"",""19"",""299430""
""blur"",""19"",""309327""
""blur"",""19"",""349882""
""blur"",""62"",""572788""
","""event"",""trial"",""time""
""focus"",""2"",""6616""
""focus"",""7"",""30561""
""focus"",""19"",""191188""
""focus"",""19"",""258236""
""focus"",""19"",""302354""
""focus"",""19"",""311701""
""focus"",""19"",""358429""
","""event"",""trial"",""time""
""fullscreenenter"",""1"",""1788""
","
","","","-1","","","18","10575","4772","&#9826;","elianto","#f73b6a7A","-1","-1","1","0","[]","0","0","3","","","","","","","",""
"pit-trial","62","573343","0.0-2.0-14.0-3.0","battery-v0.2","","""event"",""trial"",""time""
""fullscreenenter"",""1"",""1788""
""blur"",""2"",""4726""
""focus"",""2"",""6616""
""blur"",""7"",""22258""
""focus"",""7"",""30561""
""blur"",""17"",""170985""
""focus"",""19"",""191188""
""blur"",""19"",""251107""
""focus"",""19"",""258236""
""blur"",""19"",""299430""
""focus"",""19"",""302354""
""blur"",""19"",""309327""
""focus"",""19"",""311701""
""blur"",""19"",""349882""
""focus"",""19"",""358429""
""blur"",""62"",""572788""
","""event"",""trial"",""time""
""blur"",""2"",""4726""
""blur"",""7"",""22258""
""blur"",""17"",""170985""
""blur"",""19"",""251107""
""blur"",""19"",""299430""
""blur"",""19"",""309327""
""blur"",""19"",""349882""
""blur"",""62"",""572788""
","""event"",""trial"",""time""
""focus"",""2"",""6616""
""focus"",""7"",""30561""
""focus"",""19"",""191188""
""focus"",""19"",""258236""
""focus"",""19"",""302354""
""focus"",""19"",""311701""
""focus"",""19"",""358429""
","""event"",""trial"",""time""
""fullscreenenter"",""1"",""1788""
","
","","","-1","","","18","10575","4772","&#9826;","elianto","#f73b6a7A","-1","-1","1","-10","[]","0","0","3","","","","","","","",""
"pit-trial","63","578207","0.0-2.0-14.0-4.0","battery-v0.2","","""event"",""trial"",""time""
""fullscreenenter"",""1"",""1788""
""blur"",""2"",""4726""
""focus"",""2"",""6616""
""blur"",""7"",""22258""
""focus"",""7"",""30561""
""blur"",""17"",""170985""
""focus"",""19"",""191188""
""blur"",""19"",""251107""
""focus"",""19"",""258236""
""blur"",""19"",""299430""
""focus"",""19"",""302354""
""blur"",""19"",""309327""
""focus"",""19"",""311701""
""blur"",""19"",""349882""
""focus"",""19"",""358429""
""blur"",""62"",""572788""
","""event"",""trial"",""time""
""blur"",""2"",""4726""
""blur"",""7"",""22258""
""blur"",""17"",""170985""
""blur"",""19"",""251107""
""blur"",""19"",""299430""
""blur"",""19"",""309327""
""blur"",""19"",""349882""
""blur"",""62"",""572788""
","""event"",""trial"",""time""
""focus"",""2"",""6616""
""focus"",""7"",""30561""
""focus"",""19"",""191188""
""focus"",""19"",""258236""
""focus"",""19"",""302354""
""focus"",""19"",""311701""
""focus"",""19"",""358429""
","""event"",""trial"",""time""
""fullscreenenter"",""1"",""1788""
","
","","","-1","","","18","10575","4772","&#9826;","elianto","#f73b6a7A","-1","-1","1","0","[]","0","0","3","","","","","","","",""
"pit-trial","64","583093","0.0-2.0-14.1-0.1","battery-v0.2","","""event"",""trial"",""time""
""fullscreenenter"",""1"",""1788""
""blur"",""2"",""4726""
""focus"",""2"",""6616""
""blur"",""7"",""22258""
""focus"",""7"",""30561""
""blur"",""17"",""170985""
""focus"",""19"",""191188""
""blur"",""19"",""251107""
""focus"",""19"",""258236""
""blur"",""19"",""299430""
""focus"",""19"",""302354""
""blur"",""19"",""309327""
""focus"",""19"",""311701""
""blur"",""19"",""349882""
""focus"",""19"",""358429""
""blur"",""62"",""572788""
","""event"",""trial"",""time""
""blur"",""2"",""4726""
""blur"",""7"",""22258""
""blur"",""17"",""170985""
""blur"",""19"",""251107""
""blur"",""19"",""299430""
""blur"",""19"",""309327""
""blur"",""19"",""349882""
""blur"",""62"",""572788""
","""event"",""trial"",""time""
""focus"",""2"",""6616""
""focus"",""7"",""30561""
""focus"",""19"",""191188""
""focus"",""19"",""258236""
""focus"",""19"",""302354""
""focus"",""19"",""311701""
""focus"",""19"",""358429""
","""event"",""trial"",""time""
""fullscreenenter"",""1"",""1788""
","
","","","-1","","","18","10575","4772","&#9826;","elianto","#f73b6a7A","-1","-1","1","0","[]","0","0","3","","","","","","","",""
"pit-trial","65","587967","0.0-2.0-14.1-1.1","battery-v0.2","","""event"",""trial"",""time""
""fullscreenenter"",""1"",""1788""
""blur"",""2"",""4726""
""focus"",""2"",""6616""
""blur"",""7"",""22258""
""focus"",""7"",""30561""
""blur"",""17"",""170985""
""focus"",""19"",""191188""
""blur"",""19"",""251107""
""focus"",""19"",""258236""
""blur"",""19"",""299430""
""focus"",""19"",""302354""
""blur"",""19"",""309327""
""focus"",""19"",""311701""
""blur"",""19"",""349882""
""focus"",""19"",""358429""
""blur"",""62"",""572788""
","""event"",""trial"",""time""
""blur"",""2"",""4726""
""blur"",""7"",""22258""
""blur"",""17"",""170985""
""blur"",""19"",""251107""
""blur"",""19"",""299430""
""blur"",""19"",""309327""
""blur"",""19"",""349882""
""blur"",""62"",""572788""
","""event"",""trial"",""time""
""focus"",""2"",""6616""
""focus"",""7"",""30561""
""focus"",""19"",""191188""
""focus"",""19"",""258236""
""focus"",""19"",""302354""
""focus"",""19"",""311701""
""focus"",""19"",""358429""
","""event"",""trial"",""time""
""fullscreenenter"",""1"",""1788""
","
","","","-1","","","18","10575","4772","&#9826;","elianto","#f73b6a7A","-1","-1","1","0","[]","0","0","3","","","","","","","",""
"pit-trial","66","592824","0.0-2.0-14.1-2.1","battery-v0.2","","""event"",""trial"",""time""
""fullscreenenter"",""1"",""1788""
""blur"",""2"",""4726""
""focus"",""2"",""6616""
""blur"",""7"",""22258""
""focus"",""7"",""30561""
""blur"",""17"",""170985""
""focus"",""19"",""191188""
""blur"",""19"",""251107""
""focus"",""19"",""258236""
""blur"",""19"",""299430""
""focus"",""19"",""302354""
""blur"",""19"",""309327""
""focus"",""19"",""311701""
""blur"",""19"",""349882""
""focus"",""19"",""358429""
""blur"",""62"",""572788""
","""event"",""trial"",""time""
""blur"",""2"",""4726""
""blur"",""7"",""22258""
""blur"",""17"",""170985""
""blur"",""19"",""251107""
""blur"",""19"",""299430""
""blur"",""19"",""309327""
""blur"",""19"",""349882""
""blur"",""62"",""572788""
","""event"",""trial"",""time""
""focus"",""2"",""6616""
""focus"",""7"",""30561""
""focus"",""19"",""191188""
""focus"",""19"",""258236""
""focus"",""19"",""302354""
""focus"",""19"",""311701""
""focus"",""19"",""358429""
","""event"",""trial"",""time""
""fullscreenenter"",""1"",""1788""
","
","","","-1","","","18","10575","4772","&#9826;","elianto","#f73b6a7A","-1","-1","1","0","[]","0","0","3","","","","","","","",""
"pit-trial","67","597683","0.0-2.0-14.1-3.1","battery-v0.2","","""event"",""trial"",""time""
""fullscreenenter"",""1"",""1788""
""blur"",""2"",""4726""
""focus"",""2"",""6616""
""blur"",""7"",""22258""
""focus"",""7"",""30561""
""blur"",""17"",""170985""
""focus"",""19"",""191188""
""blur"",""19"",""251107""
""focus"",""19"",""258236""
""blur"",""19"",""299430""
""focus"",""19"",""302354""
""blur"",""19"",""309327""
""focus"",""19"",""311701""
""blur"",""19"",""349882""
""focus"",""19"",""358429""
""blur"",""62"",""572788""
","""event"",""trial"",""time""
""blur"",""2"",""4726""
""blur"",""7"",""22258""
""blur"",""17"",""170985""
""blur"",""19"",""251107""
""blur"",""19"",""299430""
""blur"",""19"",""309327""
""blur"",""19"",""349882""
""blur"",""62"",""572788""
","""event"",""trial"",""time""
""focus"",""2"",""6616""
""focus"",""7"",""30561""
""focus"",""19"",""191188""
""focus"",""19"",""258236""
""focus"",""19"",""302354""
""focus"",""19"",""311701""
""focus"",""19"",""358429""
","""event"",""trial"",""time""
""fullscreenenter"",""1"",""1788""
","
","","","-1","","","18","10575","4772","&#9826;","elianto","#f73b6a7A","-1","-1","1","-10","[]","0","0","3","","","","","","","",""
"pit-trial","68","602538","0.0-2.0-14.1-4.1","battery-v0.2","","""event"",""trial"",""time""
""fullscreenenter"",""1"",""1788""
""blur"",""2"",""4726""
""focus"",""2"",""6616""
""blur"",""7"",""22258""
""focus"",""7"",""30561""
""blur"",""17"",""170985""
""focus"",""19"",""191188""
""blur"",""19"",""251107""
""focus"",""19"",""258236""
""blur"",""19"",""299430""
""focus"",""19"",""302354""
""blur"",""19"",""309327""
""focus"",""19"",""311701""
""blur"",""19"",""349882""
""focus"",""19"",""358429""
""blur"",""62"",""572788""
","""event"",""trial"",""time""
""blur"",""2"",""4726""
""blur"",""7"",""22258""
""blur"",""17"",""170985""
""blur"",""19"",""251107""
""blur"",""19"",""299430""
""blur"",""19"",""309327""
""blur"",""19"",""349882""
""blur"",""62"",""572788""
","""event"",""trial"",""time""
""focus"",""2"",""6616""
""focus"",""7"",""30561""
""focus"",""19"",""191188""
""focus"",""19"",""258236""
""focus"",""19"",""302354""
""focus"",""19"",""311701""
""focus"",""19"",""358429""
","""event"",""trial"",""time""
""fullscreenenter"",""1"",""1788""
","
","","","-1","","","18","10575","4772","&#9826;","elianto","#f73b6a7A","-1","-1","1","0","[]","0","0","3","","","","","","","",""
"pit-trial","69","607393","0.0-2.0-14.2-0.2","battery-v0.2","","""event"",""trial"",""time""
""fullscreenenter"",""1"",""1788""
""blur"",""2"",""4726""
""focus"",""2"",""6616""
""blur"",""7"",""22258""
""focus"",""7"",""30561""
""blur"",""17"",""170985""
""focus"",""19"",""191188""
""blur"",""19"",""251107""
""focus"",""19"",""258236""
""blur"",""19"",""299430""
""focus"",""19"",""302354""
""blur"",""19"",""309327""
""focus"",""19"",""311701""
""blur"",""19"",""349882""
""focus"",""19"",""358429""
""blur"",""62"",""572788""
""focus"",""70"",""610354""
","""event"",""trial"",""time""
""blur"",""2"",""4726""
""blur"",""7"",""22258""
""blur"",""17"",""170985""
""blur"",""19"",""251107""
""blur"",""19"",""299430""
""blur"",""19"",""309327""
""blur"",""19"",""349882""
""blur"",""62"",""572788""
","""event"",""trial"",""time""
""focus"",""2"",""6616""
""focus"",""7"",""30561""
""focus"",""19"",""191188""
""focus"",""19"",""258236""
""focus"",""19"",""302354""
""focus"",""19"",""311701""
""focus"",""19"",""358429""
""focus"",""70"",""610354""
","""event"",""trial"",""time""
""fullscreenenter"",""1"",""1788""
","
","","","-1","","","18","10575","4772","&#9826;","elianto","#f73b6a7A","-1","-1","1","0","[]","0","0","3","","","","","","","",""
"pit-trial","70","612247","0.0-2.0-14.2-1.2","battery-v0.2","","""event"",""trial"",""time""
""fullscreenenter"",""1"",""1788""
""blur"",""2"",""4726""
""focus"",""2"",""6616""
""blur"",""7"",""22258""
""focus"",""7"",""30561""
""blur"",""17"",""170985""
""focus"",""19"",""191188""
""blur"",""19"",""251107""
""focus"",""19"",""258236""
""blur"",""19"",""299430""
""focus"",""19"",""302354""
""blur"",""19"",""309327""
""focus"",""19"",""311701""
""blur"",""19"",""349882""
""focus"",""19"",""358429""
""blur"",""62"",""572788""
""focus"",""70"",""610354""
","""event"",""trial"",""time""
""blur"",""2"",""4726""
""blur"",""7"",""22258""
""blur"",""17"",""170985""
""blur"",""19"",""251107""
""blur"",""19"",""299430""
""blur"",""19"",""309327""
""blur"",""19"",""349882""
""blur"",""62"",""572788""
","""event"",""trial"",""time""
""focus"",""2"",""6616""
""focus"",""7"",""30561""
""focus"",""19"",""191188""
""focus"",""19"",""258236""
""focus"",""19"",""302354""
""focus"",""19"",""311701""
""focus"",""19"",""358429""
""focus"",""70"",""610354""
","""event"",""trial"",""time""
""fullscreenenter"",""1"",""1788""
","
","","","-1","","","18","10575","4772","&#9826;","elianto","#f73b6a7A","-1","-1","1","0","[]","0","0","3","","","","","","","",""
"pit-trial","71","617101","0.0-2.0-14.2-2.2","battery-v0.2","","""event"",""trial"",""time""
""fullscreenenter"",""1"",""1788""
""blur"",""2"",""4726""
""focus"",""2"",""6616""
""blur"",""7"",""22258""
""focus"",""7"",""30561""
""blur"",""17"",""170985""
""focus"",""19"",""191188""
""blur"",""19"",""251107""
""focus"",""19"",""258236""
""blur"",""19"",""299430""
""focus"",""19"",""302354""
""blur"",""19"",""309327""
""focus"",""19"",""311701""
""blur"",""19"",""349882""
""focus"",""19"",""358429""
""blur"",""62"",""572788""
""focus"",""70"",""610354""
","""event"",""trial"",""time""
""blur"",""2"",""4726""
""blur"",""7"",""22258""
""blur"",""17"",""170985""
""blur"",""19"",""251107""
""blur"",""19"",""299430""
""blur"",""19"",""309327""
""blur"",""19"",""349882""
""blur"",""62"",""572788""
","""event"",""trial"",""time""
""focus"",""2"",""6616""
""focus"",""7"",""30561""
""focus"",""19"",""191188""
""focus"",""19"",""258236""
""focus"",""19"",""302354""
""focus"",""19"",""311701""
""focus"",""19"",""358429""
""focus"",""70"",""610354""
","""event"",""trial"",""time""
""fullscreenenter"",""1"",""1788""
","
","","","-1","","","18","10575","4772","&#9826;","elianto","#f73b6a7A","-1","-1","1","0","[]","0","0","3","","","","","","","",""
"pit-trial","72","621958","0.0-2.0-14.2-3.2","battery-v0.2","","""event"",""trial"",""time""
""fullscreenenter"",""1"",""1788""
""blur"",""2"",""4726""
""focus"",""2"",""6616""
""blur"",""7"",""22258""
""focus"",""7"",""30561""
""blur"",""17"",""170985""
""focus"",""19"",""191188""
""blur"",""19"",""251107""
""focus"",""19"",""258236""
""blur"",""19"",""299430""
""focus"",""19"",""302354""
""blur"",""19"",""309327""
""focus"",""19"",""311701""
""blur"",""19"",""349882""
""focus"",""19"",""358429""
""blur"",""62"",""572788""
""focus"",""70"",""610354""
","""event"",""trial"",""time""
""blur"",""2"",""4726""
""blur"",""7"",""22258""
""blur"",""17"",""170985""
""blur"",""19"",""251107""
""blur"",""19"",""299430""
""blur"",""19"",""309327""
""blur"",""19"",""349882""
""blur"",""62"",""572788""
","""event"",""trial"",""time""
""focus"",""2"",""6616""
""focus"",""7"",""30561""
""focus"",""19"",""191188""
""focus"",""19"",""258236""
""focus"",""19"",""302354""
""focus"",""19"",""311701""
""focus"",""19"",""358429""
""focus"",""70"",""610354""
","""event"",""trial"",""time""
""fullscreenenter"",""1"",""1788""
","
","","","-1","","","18","10575","4772","&#9826;","elianto","#f73b6a7A","-1","-1","1","-10","[]","0","0","3","","","","","","","",""
"pit-trial","73","626038","0.0-2.0-14.2-4.2","battery-v0.2","","""event"",""trial"",""time""
""fullscreenenter"",""1"",""1788""
""blur"",""2"",""4726""
""focus"",""2"",""6616""
""blur"",""7"",""22258""
""focus"",""7"",""30561""
""blur"",""17"",""170985""
""focus"",""19"",""191188""
""blur"",""19"",""251107""
""focus"",""19"",""258236""
""blur"",""19"",""299430""
""focus"",""19"",""302354""
""blur"",""19"",""309327""
""focus"",""19"",""311701""
""blur"",""19"",""349882""
""focus"",""19"",""358429""
""blur"",""62"",""572788""
""focus"",""70"",""610354""
","""event"",""trial"",""time""
""blur"",""2"",""4726""
""blur"",""7"",""22258""
""blur"",""17"",""170985""
""blur"",""19"",""251107""
""blur"",""19"",""299430""
""blur"",""19"",""309327""
""blur"",""19"",""349882""
""blur"",""62"",""572788""
","""event"",""trial"",""time""
""focus"",""2"",""6616""
""focus"",""7"",""30561""
""focus"",""19"",""191188""
""focus"",""19"",""258236""
""focus"",""19"",""302354""
""focus"",""19"",""311701""
""focus"",""19"",""358429""
""focus"",""70"",""610354""
","""event"",""trial"",""time""
""fullscreenenter"",""1"",""1788""
","
","","","1223","","","18","10575","4772","&#9826;","elianto","#f73b6a7A","-1"," ","0","-10","[2074.5]","1","0","3","","","","","","","",""
"pit-trial","74","630707","0.0-2.0-14.3-0.3","battery-v0.2","","""event"",""trial"",""time""
""fullscreenenter"",""1"",""1788""
""blur"",""2"",""4726""
""focus"",""2"",""6616""
""blur"",""7"",""22258""
""focus"",""7"",""30561""
""blur"",""17"",""170985""
""focus"",""19"",""191188""
""blur"",""19"",""251107""
""focus"",""19"",""258236""
""blur"",""19"",""299430""
""focus"",""19"",""302354""
""blur"",""19"",""309327""
""focus"",""19"",""311701""
""blur"",""19"",""349882""
""focus"",""19"",""358429""
""blur"",""62"",""572788""
""focus"",""70"",""610354""
","""event"",""trial"",""time""
""blur"",""2"",""4726""
""blur"",""7"",""22258""
""blur"",""17"",""170985""
""blur"",""19"",""251107""
""blur"",""19"",""299430""
""blur"",""19"",""309327""
""blur"",""19"",""349882""
""blur"",""62"",""572788""
","""event"",""trial"",""time""
""focus"",""2"",""6616""
""focus"",""7"",""30561""
""focus"",""19"",""191188""
""focus"",""19"",""258236""
""focus"",""19"",""302354""
""focus"",""19"",""311701""
""focus"",""19"",""358429""
""focus"",""70"",""610354""
","""event"",""trial"",""time""
""fullscreenenter"",""1"",""1788""
","
","","","1810.2999999523163","","","18","10575","4772","&#9826;","elianto","#f73b6a7A","-1"," ","0","-10","[2660.2999999523163]","1","0","3","","","","","","","",""
"pit-trial","75","635565","0.0-2.0-14.3-1.3","battery-v0.2","","""event"",""trial"",""time""
""fullscreenenter"",""1"",""1788""
""blur"",""2"",""4726""
""focus"",""2"",""6616""
""blur"",""7"",""22258""
""focus"",""7"",""30561""
""blur"",""17"",""170985""
""focus"",""19"",""191188""
""blur"",""19"",""251107""
""focus"",""19"",""258236""
""blur"",""19"",""299430""
""focus"",""19"",""302354""
""blur"",""19"",""309327""
""focus"",""19"",""311701""
""blur"",""19"",""349882""
""focus"",""19"",""358429""
""blur"",""62"",""572788""
""focus"",""70"",""610354""
","""event"",""trial"",""time""
""blur"",""2"",""4726""
""blur"",""7"",""22258""
""blur"",""17"",""170985""
""blur"",""19"",""251107""
""blur"",""19"",""299430""
""blur"",""19"",""309327""
""blur"",""19"",""349882""
""blur"",""62"",""572788""
","""event"",""trial"",""time""
""focus"",""2"",""6616""
""focus"",""7"",""30561""
""focus"",""19"",""191188""
""focus"",""19"",""258236""
""focus"",""19"",""302354""
""focus"",""19"",""311701""
""focus"",""19"",""358429""
""focus"",""70"",""610354""
","""event"",""trial"",""time""
""fullscreenenter"",""1"",""1788""
","
","","","-1","","","18","10575","4772","&#9826;","elianto","#f73b6a7A","-1","-1","1","0","[]","0","0","3","","","","","","","",""
"pit-trial","76","640421","0.0-2.0-14.3-2.3","battery-v0.2","","""event"",""trial"",""time""
""fullscreenenter"",""1"",""1788""
""blur"",""2"",""4726""
""focus"",""2"",""6616""
""blur"",""7"",""22258""
""focus"",""7"",""30561""
""blur"",""17"",""170985""
""focus"",""19"",""191188""
""blur"",""19"",""251107""
""focus"",""19"",""258236""
""blur"",""19"",""299430""
""focus"",""19"",""302354""
""blur"",""19"",""309327""
""focus"",""19"",""311701""
""blur"",""19"",""349882""
""focus"",""19"",""358429""
""blur"",""62"",""572788""
""focus"",""70"",""610354""
","""event"",""trial"",""time""
""blur"",""2"",""4726""
""blur"",""7"",""22258""
""blur"",""17"",""170985""
""blur"",""19"",""251107""
""blur"",""19"",""299430""
""blur"",""19"",""309327""
""blur"",""19"",""349882""
""blur"",""62"",""572788""
","""event"",""trial"",""time""
""focus"",""2"",""6616""
""focus"",""7"",""30561""
""focus"",""19"",""191188""
""focus"",""19"",""258236""
""focus"",""19"",""302354""
""focus"",""19"",""311701""
""focus"",""19"",""358429""
""focus"",""70"",""610354""
","""event"",""trial"",""time""
""fullscreenenter"",""1"",""1788""
","
","","","-1","","","18","10575","4772","&#9826;","elianto","#f73b6a7A","-1","-1","1","0","[]","0","0","3","","","","","","","",""
"pit-trial","77","645275","0.0-2.0-14.3-3.3","battery-v0.2","","""event"",""trial"",""time""
""fullscreenenter"",""1"",""1788""
""blur"",""2"",""4726""
""focus"",""2"",""6616""
""blur"",""7"",""22258""
""focus"",""7"",""30561""
""blur"",""17"",""170985""
""focus"",""19"",""191188""
""blur"",""19"",""251107""
""focus"",""19"",""258236""
""blur"",""19"",""299430""
""focus"",""19"",""302354""
""blur"",""19"",""309327""
""focus"",""19"",""311701""
""blur"",""19"",""349882""
""focus"",""19"",""358429""
""blur"",""62"",""572788""
""focus"",""70"",""610354""
","""event"",""trial"",""time""
""blur"",""2"",""4726""
""blur"",""7"",""22258""
""blur"",""17"",""170985""
""blur"",""19"",""251107""
""blur"",""19"",""299430""
""blur"",""19"",""309327""
""blur"",""19"",""349882""
""blur"",""62"",""572788""
","""event"",""trial"",""time""
""focus"",""2"",""6616""
""focus"",""7"",""30561""
""focus"",""19"",""191188""
""focus"",""19"",""258236""
""focus"",""19"",""302354""
""focus"",""19"",""311701""
""focus"",""19"",""358429""
""focus"",""70"",""610354""
","""event"",""trial"",""time""
""fullscreenenter"",""1"",""1788""
","
","","","-1","","","18","10575","4772","&#9826;","elianto","#f73b6a7A","-1","-1","1","-10","[]","0","0","3","","","","","","","",""
"pit-trial","78","650129","0.0-2.0-14.3-4.3","battery-v0.2","","""event"",""trial"",""time""
""fullscreenenter"",""1"",""1788""
""blur"",""2"",""4726""
""focus"",""2"",""6616""
""blur"",""7"",""22258""
""focus"",""7"",""30561""
""blur"",""17"",""170985""
""focus"",""19"",""191188""
""blur"",""19"",""251107""
""focus"",""19"",""258236""
""blur"",""19"",""299430""
""focus"",""19"",""302354""
""blur"",""19"",""309327""
""focus"",""19"",""311701""
""blur"",""19"",""349882""
""focus"",""19"",""358429""
""blur"",""62"",""572788""
""focus"",""70"",""610354""
","""event"",""trial"",""time""
""blur"",""2"",""4726""
""blur"",""7"",""22258""
""blur"",""17"",""170985""
""blur"",""19"",""251107""
""blur"",""19"",""299430""
""blur"",""19"",""309327""
""blur"",""19"",""349882""
""blur"",""62"",""572788""
","""event"",""trial"",""time""
""focus"",""2"",""6616""
""focus"",""7"",""30561""
""focus"",""19"",""191188""
""focus"",""19"",""258236""
""focus"",""19"",""302354""
""focus"",""19"",""311701""
""focus"",""19"",""358429""
""focus"",""70"",""610354""
","""event"",""trial"",""time""
""fullscreenenter"",""1"",""1788""
","
","","","-1","","","18","10575","4772","&#9826;","elianto","#f73b6a7A","-1","-1","1","0","[]","0","0","3","","","","","","","",""
"call-function","79","650132","0.0-2.0-15.0","battery-v0.2","","""event"",""trial"",""time""
""fullscreenenter"",""1"",""1788""
""blur"",""2"",""4726""
""focus"",""2"",""6616""
""blur"",""7"",""22258""
""focus"",""7"",""30561""
""blur"",""17"",""170985""
""focus"",""19"",""191188""
""blur"",""19"",""251107""
""focus"",""19"",""258236""
""blur"",""19"",""299430""
""focus"",""19"",""302354""
""blur"",""19"",""309327""
""focus"",""19"",""311701""
""blur"",""19"",""349882""
""focus"",""19"",""358429""
""blur"",""62"",""572788""
""focus"",""70"",""610354""
","""event"",""trial"",""time""
""blur"",""2"",""4726""
""blur"",""7"",""22258""
""blur"",""17"",""170985""
""blur"",""19"",""251107""
""blur"",""19"",""299430""
""blur"",""19"",""309327""
""blur"",""19"",""349882""
""blur"",""62"",""572788""
","""event"",""trial"",""time""
""focus"",""2"",""6616""
""focus"",""7"",""30561""
""focus"",""19"",""191188""
""focus"",""19"",""258236""
""focus"",""19"",""302354""
""focus"",""19"",""311701""
""focus"",""19"",""358429""
""focus"",""70"",""610354""
","""event"",""trial"",""time""
""fullscreenenter"",""1"",""1788""
","
","","","","","","","","","","","","","","","","","","","","","","","","","","",""
"pit-instructions","80","673688","0.0-2.0-16.0","battery-v0.2","","""event"",""trial"",""time""
""fullscreenenter"",""1"",""1788""
""blur"",""2"",""4726""
""focus"",""2"",""6616""
""blur"",""7"",""22258""
""focus"",""7"",""30561""
""blur"",""17"",""170985""
""focus"",""19"",""191188""
""blur"",""19"",""251107""
""focus"",""19"",""258236""
""blur"",""19"",""299430""
""focus"",""19"",""302354""
""blur"",""19"",""309327""
""focus"",""19"",""311701""
""blur"",""19"",""349882""
""focus"",""19"",""358429""
""blur"",""62"",""572788""
""focus"",""70"",""610354""
","""event"",""trial"",""time""
""blur"",""2"",""4726""
""blur"",""7"",""22258""
""blur"",""17"",""170985""
""blur"",""19"",""251107""
""blur"",""19"",""299430""
""blur"",""19"",""309327""
""blur"",""19"",""349882""
""blur"",""62"",""572788""
","""event"",""trial"",""time""
""focus"",""2"",""6616""
""focus"",""7"",""30561""
""focus"",""19"",""191188""
""focus"",""19"",""258236""
""focus"",""19"",""302354""
""focus"",""19"",""311701""
""focus"",""19"",""358429""
""focus"",""70"",""610354""
","""event"",""trial"",""time""
""fullscreenenter"",""1"",""1788""
","
","","[{""page_index"":0,""viewing_time"":6560.200000047684},{""page_index"":1,""viewing_time"":8251.200000047684},{""page_index"":2,""viewing_time"":4207.699999928474},{""page_index"":3,""viewing_time"":4536.800000071526}]","23556.900000095367","","","","","","","","","","","","","","","","","","","","","","","",""
"pit-trial","81","677189","0.0-2.0-17.0-0.0","battery-v0.2","","""event"",""trial"",""time""
""fullscreenenter"",""1"",""1788""
""blur"",""2"",""4726""
""focus"",""2"",""6616""
""blur"",""7"",""22258""
""focus"",""7"",""30561""
""blur"",""17"",""170985""
""focus"",""19"",""191188""
""blur"",""19"",""251107""
""focus"",""19"",""258236""
""blur"",""19"",""299430""
""focus"",""19"",""302354""
""blur"",""19"",""309327""
""focus"",""19"",""311701""
""blur"",""19"",""349882""
""focus"",""19"",""358429""
""blur"",""62"",""572788""
""focus"",""70"",""610354""
","""event"",""trial"",""time""
""blur"",""2"",""4726""
""blur"",""7"",""22258""
""blur"",""17"",""170985""
""blur"",""19"",""251107""
""blur"",""19"",""299430""
""blur"",""19"",""309327""
""blur"",""19"",""349882""
""blur"",""62"",""572788""
","""event"",""trial"",""time""
""focus"",""2"",""6616""
""focus"",""7"",""30561""
""focus"",""19"",""191188""
""focus"",""19"",""258236""
""focus"",""19"",""302354""
""focus"",""19"",""311701""
""focus"",""19"",""358429""
""focus"",""70"",""610354""
","""event"",""trial"",""time""
""fullscreenenter"",""1"",""1788""
","
","","","634.6000000238419","","","18","10575","4772","&#9789;","elianto","#f73b6a7A"," "," ","1","0","[1485.3999999761581]","1","0","4","","","","","","","",""
"pit-trial","82","680452","0.0-2.0-17.0-1.0","battery-v0.2","","""event"",""trial"",""time""
""fullscreenenter"",""1"",""1788""
""blur"",""2"",""4726""
""focus"",""2"",""6616""
""blur"",""7"",""22258""
""focus"",""7"",""30561""
""blur"",""17"",""170985""
""focus"",""19"",""191188""
""blur"",""19"",""251107""
""focus"",""19"",""258236""
""blur"",""19"",""299430""
""focus"",""19"",""302354""
""blur"",""19"",""309327""
""focus"",""19"",""311701""
""blur"",""19"",""349882""
""focus"",""19"",""358429""
""blur"",""62"",""572788""
""focus"",""70"",""610354""
","""event"",""trial"",""time""
""blur"",""2"",""4726""
""blur"",""7"",""22258""
""blur"",""17"",""170985""
""blur"",""19"",""251107""
""blur"",""19"",""299430""
""blur"",""19"",""309327""
""blur"",""19"",""349882""
""blur"",""62"",""572788""
","""event"",""trial"",""time""
""focus"",""2"",""6616""
""focus"",""7"",""30561""
""focus"",""19"",""191188""
""focus"",""19"",""258236""
""focus"",""19"",""302354""
""focus"",""19"",""311701""
""focus"",""19"",""358429""
""focus"",""70"",""610354""
","""event"",""trial"",""time""
""fullscreenenter"",""1"",""1788""
","
","","","404.5","","","18","10575","4772","&#9789;","elianto","#f73b6a7A"," "," ","1","0","[1256.1999999284744]","1","0","4","","","","","","","",""
"pit-trial","83","683536","0.0-2.0-17.0-2.0","battery-v0.2","","""event"",""trial"",""time""
""fullscreenenter"",""1"",""1788""
""blur"",""2"",""4726""
""focus"",""2"",""6616""
""blur"",""7"",""22258""
""focus"",""7"",""30561""
""blur"",""17"",""170985""
""focus"",""19"",""191188""
""blur"",""19"",""251107""
""focus"",""19"",""258236""
""blur"",""19"",""299430""
""focus"",""19"",""302354""
""blur"",""19"",""309327""
""focus"",""19"",""311701""
""blur"",""19"",""349882""
""focus"",""19"",""358429""
""blur"",""62"",""572788""
""focus"",""70"",""610354""
","""event"",""trial"",""time""
""blur"",""2"",""4726""
""blur"",""7"",""22258""
""blur"",""17"",""170985""
""blur"",""19"",""251107""
""blur"",""19"",""299430""
""blur"",""19"",""309327""
""blur"",""19"",""349882""
""blur"",""62"",""572788""
","""event"",""trial"",""time""
""focus"",""2"",""6616""
""focus"",""7"",""30561""
""focus"",""19"",""191188""
""focus"",""19"",""258236""
""focus"",""19"",""302354""
""focus"",""19"",""311701""
""focus"",""19"",""358429""
""focus"",""70"",""610354""
","""event"",""trial"",""time""
""fullscreenenter"",""1"",""1788""
","
","","","219.90000009536743","","","18","10575","4772","&#9789;","elianto","#f73b6a7A"," "," ","1","0","[1073.6000000238419]","1","0","4","","","","","","","",""
"pit-trial","84","686555","0.0-2.0-17.0-3.0","battery-v0.2","","""event"",""trial"",""time""
""fullscreenenter"",""1"",""1788""
""blur"",""2"",""4726""
""focus"",""2"",""6616""
""blur"",""7"",""22258""
""focus"",""7"",""30561""
""blur"",""17"",""170985""
""focus"",""19"",""191188""
""blur"",""19"",""251107""
""focus"",""19"",""258236""
""blur"",""19"",""299430""
""focus"",""19"",""302354""
""blur"",""19"",""309327""
""focus"",""19"",""311701""
""blur"",""19"",""349882""
""focus"",""19"",""358429""
""blur"",""62"",""572788""
""focus"",""70"",""610354""
","""event"",""trial"",""time""
""blur"",""2"",""4726""
""blur"",""7"",""22258""
""blur"",""17"",""170985""
""blur"",""19"",""251107""
""blur"",""19"",""299430""
""blur"",""19"",""309327""
""blur"",""19"",""349882""
""blur"",""62"",""572788""
","""event"",""trial"",""time""
""focus"",""2"",""6616""
""focus"",""7"",""30561""
""focus"",""19"",""191188""
""focus"",""19"",""258236""
""focus"",""19"",""302354""
""focus"",""19"",""311701""
""focus"",""19"",""358429""
""focus"",""70"",""610354""
","""event"",""trial"",""time""
""fullscreenenter"",""1"",""1788""
","
","","","145.20000004768372","","","18","10575","4772","&#9789;","elianto","#f73b6a7A"," "," ","1","-10","[997]","1","0","4","","","","","","","",""
"pit-trial","85","691422","0.0-2.0-17.0-4.0","battery-v0.2","","""event"",""trial"",""time""
""fullscreenenter"",""1"",""1788""
""blur"",""2"",""4726""
""focus"",""2"",""6616""
""blur"",""7"",""22258""
""focus"",""7"",""30561""
""blur"",""17"",""170985""
""focus"",""19"",""191188""
""blur"",""19"",""251107""
""focus"",""19"",""258236""
""blur"",""19"",""299430""
""focus"",""19"",""302354""
""blur"",""19"",""309327""
""focus"",""19"",""311701""
""blur"",""19"",""349882""
""focus"",""19"",""358429""
""blur"",""62"",""572788""
""focus"",""70"",""610354""
","""event"",""trial"",""time""
""blur"",""2"",""4726""
""blur"",""7"",""22258""
""blur"",""17"",""170985""
""blur"",""19"",""251107""
""blur"",""19"",""299430""
""blur"",""19"",""309327""
""blur"",""19"",""349882""
""blur"",""62"",""572788""
","""event"",""trial"",""time""
""focus"",""2"",""6616""
""focus"",""7"",""30561""
""focus"",""19"",""191188""
""focus"",""19"",""258236""
""focus"",""19"",""302354""
""focus"",""19"",""311701""
""focus"",""19"",""358429""
""focus"",""70"",""610354""
","""event"",""trial"",""time""
""fullscreenenter"",""1"",""1788""
","
","","","-1","","","18","10575","4772","&#9789;","elianto","#f73b6a7A"," ","-1","0","-10","[]","0","0","4","","","","","","","",""
"pit-trial","86","696291","0.0-2.0-17.1-0.1","battery-v0.2","","""event"",""trial"",""time""
""fullscreenenter"",""1"",""1788""
""blur"",""2"",""4726""
""focus"",""2"",""6616""
""blur"",""7"",""22258""
""focus"",""7"",""30561""
""blur"",""17"",""170985""
""focus"",""19"",""191188""
""blur"",""19"",""251107""
""focus"",""19"",""258236""
""blur"",""19"",""299430""
""focus"",""19"",""302354""
""blur"",""19"",""309327""
""focus"",""19"",""311701""
""blur"",""19"",""349882""
""focus"",""19"",""358429""
""blur"",""62"",""572788""
""focus"",""70"",""610354""
","""event"",""trial"",""time""
""blur"",""2"",""4726""
""blur"",""7"",""22258""
""blur"",""17"",""170985""
""blur"",""19"",""251107""
""blur"",""19"",""299430""
""blur"",""19"",""309327""
""blur"",""19"",""349882""
""blur"",""62"",""572788""
","""event"",""trial"",""time""
""focus"",""2"",""6616""
""focus"",""7"",""30561""
""focus"",""19"",""191188""
""focus"",""19"",""258236""
""focus"",""19"",""302354""
""focus"",""19"",""311701""
""focus"",""19"",""358429""
""focus"",""70"",""610354""
","""event"",""trial"",""time""
""fullscreenenter"",""1"",""1788""
","
","","","-1","","","18","10575","4772","&#9789;","elianto","#f73b6a7A"," ","-1","0","-10","[]","0","0","4","","","","","","","",""
"pit-trial","87","701172","0.0-2.0-17.1-1.1","battery-v0.2","","""event"",""trial"",""time""
""fullscreenenter"",""1"",""1788""
""blur"",""2"",""4726""
""focus"",""2"",""6616""
""blur"",""7"",""22258""
""focus"",""7"",""30561""
""blur"",""17"",""170985""
""focus"",""19"",""191188""
""blur"",""19"",""251107""
""focus"",""19"",""258236""
""blur"",""19"",""299430""
""focus"",""19"",""302354""
""blur"",""19"",""309327""
""focus"",""19"",""311701""
""blur"",""19"",""349882""
""focus"",""19"",""358429""
""blur"",""62"",""572788""
""focus"",""70"",""610354""
","""event"",""trial"",""time""
""blur"",""2"",""4726""
""blur"",""7"",""22258""
""blur"",""17"",""170985""
""blur"",""19"",""251107""
""blur"",""19"",""299430""
""blur"",""19"",""309327""
""blur"",""19"",""349882""
""blur"",""62"",""572788""
","""event"",""trial"",""time""
""focus"",""2"",""6616""
""focus"",""7"",""30561""
""focus"",""19"",""191188""
""focus"",""19"",""258236""
""focus"",""19"",""302354""
""focus"",""19"",""311701""
""focus"",""19"",""358429""
""focus"",""70"",""610354""
","""event"",""trial"",""time""
""fullscreenenter"",""1"",""1788""
","
","","","-1","","","18","10575","4772","&#9789;","elianto","#f73b6a7A"," ","-1","0","-10","[]","0","0","4","","","","","","","",""
"pit-trial","88","706029","0.0-2.0-17.1-2.1","battery-v0.2","","""event"",""trial"",""time""
""fullscreenenter"",""1"",""1788""
""blur"",""2"",""4726""
""focus"",""2"",""6616""
""blur"",""7"",""22258""
""focus"",""7"",""30561""
""blur"",""17"",""170985""
""focus"",""19"",""191188""
""blur"",""19"",""251107""
""focus"",""19"",""258236""
""blur"",""19"",""299430""
""focus"",""19"",""302354""
""blur"",""19"",""309327""
""focus"",""19"",""311701""
""blur"",""19"",""349882""
""focus"",""19"",""358429""
""blur"",""62"",""572788""
""focus"",""70"",""610354""
","""event"",""trial"",""time""
