"trial_type","trial_index","time_elapsed","internal_node_id","task_version","subject_id","interactions","blur_events","focus_events","fullscreenenter_events","fullscreenexit_events","success","view_history","rt","responses","num_errors","age","subject","participantId","rune","rune_set","hex","correct","choice","accuracy","outcome","keys","total_keys","block","practice","value","sub","trial","stimulus","robot","valence","action","sham"
"pavlovia","0","6","0.0-0.0","battery-v0.2","","""event"",""trial"",""time""
""fullscreenenter"",""1"",""3993""
","
","
","""event"",""trial"",""time""
""fullscreenenter"",""1"",""3993""
","
","","","","","","","","","","","","","","","","","","","","","","","","","","",""
"fullscreen","1","4969","0.0-1.0","battery-v0.2","","""event"",""trial"",""time""
""fullscreenenter"",""1"",""3993""
","
","
","""event"",""trial"",""time""
""fullscreenenter"",""1"",""3993""
","
","true","","","","","","","","","","","","","","","","","","","","","","","","","",""
"pit-instructions","2","157719","0.0-2.0-0.0","battery-v0.2","","""event"",""trial"",""time""
""fullscreenenter"",""1"",""3993""
","
","
","""event"",""trial"",""time""
""fullscreenenter"",""1"",""3993""
","
","","[{""page_index"":0,""viewing_time"":152744.39999961853}]","152745.5","","","","","","","","","","","","","","","","","","","","","","","",""
"pit-comprehension","3","163848","0.0-2.0-1.0-0.0","battery-v0.2","","""event"",""trial"",""time""
""fullscreenenter"",""1"",""3993""
","
","
","""event"",""trial"",""time""
""fullscreenenter"",""1"",""3993""
","
","","","6122.89999961853","[""shark""]","0","12","15988","401","","","","","","","","","","","","","","","","","","",""
"pit-instructions","4","164956","0.0-2.0-1.0-1.0","battery-v0.2","","""event"",""trial"",""time""
""fullscreenenter"",""1"",""3993""
","
","
","""event"",""trial"",""time""
""fullscreenenter"",""1"",""3993""
","
","","[{""page_index"":0,""viewing_time"":1098.1000003814697}]","1098.6000003814697","","","","","","","","","","","","","","","","","","","","","","","",""
"pit-comprehension","5","167575","0.0-2.0-2.0-0.0","battery-v0.2","","""event"",""trial"",""time""
""fullscreenenter"",""1"",""3993""
","
","
","""event"",""trial"",""time""
""fullscreenenter"",""1"",""3993""
","
","","","2613.5","[""tiger""]","0","12","15988","401","","","","","","","","","","","","","","","","","","",""
"pit-instructions","6","168682","0.0-2.0-2.0-1.0","battery-v0.2","","""event"",""trial"",""time""
""fullscreenenter"",""1"",""3993""
","
","
","""event"",""trial"",""time""
""fullscreenenter"",""1"",""3993""
","
","","[{""page_index"":0,""viewing_time"":1102.8999996185303}]","1103.3999996185303","","","","","","","","","","","","","","","","","","","","","","","",""
"pit-instructions","7","320155","0.0-2.0-3.0","battery-v0.2","","""event"",""trial"",""time""
""fullscreenenter"",""1"",""3993""
","
","
","""event"",""trial"",""time""
""fullscreenenter"",""1"",""3993""
","
","","[{""page_index"":0,""viewing_time"":32270},{""page_index"":1,""viewing_time"":5131},{""page_index"":2,""viewing_time"":19023.199999809265},{""page_index"":3,""viewing_time"":11635.5},{""page_index"":4,""viewing_time"":6917.60000038147},{""page_index"":5,""viewing_time"":5067.89999961853},{""page_index"":6,""viewing_time"":5354.300000190735},{""page_index"":7,""viewing_time"":6097.10000038147},{""page_index"":8,""viewing_time"":10143.099999427795},{""page_index"":9,""viewing_time"":16606.400000572205},{""page_index"":10,""viewing_time"":16029.599999427795},{""page_index"":11,""viewing_time"":4413.699999809265},{""page_index"":12,""viewing_time"":8485.60000038147},{""page_index"":13,""viewing_time"":4292.699999809265}]","151468.39999961853","","","","","","","","","","","","","","","","","","","","","","","",""
"pit-trial","8","323557","0.0-2.0-4.0-0.0","battery-v0.2","","""event"",""trial"",""time""
""fullscreenenter"",""1"",""3993""
","
","
","""event"",""trial"",""time""
""fullscreenenter"",""1"",""3993""
","
","","","544.8999996185303","","","12","15988","401","&#9784;","elianto","#FFFFF080"," "," ","1","&#10004","[1395.3000001907349]","1","0","0","","","","","","","",""
"pit-trial","9","327839","0.0-2.0-4.1-0.1","battery-v0.2","","""event"",""trial"",""time""
""fullscreenenter"",""1"",""3993""
","
","
","""event"",""trial"",""time""
""fullscreenenter"",""1"",""3993""
","
","","","1424.6999998092651","","","12","15988","401","&#9784;","elianto","#FFFFF080"," "," ","1","&#10004","[2276.199999809265]","1","0","0","","","","","","","",""
"pit-trial","10","331544","0.0-2.0-4.2-0.2","battery-v0.2","","""event"",""trial"",""time""
""fullscreenenter"",""1"",""3993""
","
","
","""event"",""trial"",""time""
""fullscreenenter"",""1"",""3993""
","
","","","846.9000005722046","","","12","15988","401","&#9784;","elianto","#FFFFF080"," "," ","1","&#10004","[683.8999996185303,1698.8999996185303,3086.5999994277954]","3","0","0","","","","","","","",""
"pit-trial","11","336401","0.0-2.0-4.3-0.3","battery-v0.2","","""event"",""trial"",""time""
""fullscreenenter"",""1"",""3993""
","
","
","""event"",""trial"",""time""
""fullscreenenter"",""1"",""3993""
","
","","","-1","","","12","15988","401","&#9784;","elianto","#FFFFF080"," ","-1","0","&#10060","[3971.699999809265]","1","0","0","","","","","","","",""
"pit-trial","12","341257","0.0-2.0-4.4-0.4","battery-v0.2","","""event"",""trial"",""time""
""fullscreenenter"",""1"",""3993""
","
","
","""event"",""trial"",""time""
""fullscreenenter"",""1"",""3993""
","
","","","-1","","","12","15988","401","&#9784;","elianto","#FFFFF080"," ","-1","0","&#10060","[]","0","0","0","","","","","","","",""
"pit-trial","13","344896","0.0-2.0-4.5-0.5","battery-v0.2","","""event"",""trial"",""time""
""fullscreenenter"",""1"",""3993""
","
","
","""event"",""trial"",""time""
""fullscreenenter"",""1"",""3993""
","
","","","780.6000003814697","","","12","15988","401","&#9784;","elianto","#FFFFF080"," "," ","1","&#10004","[1632.4000005722046]","1","0","0","","","","","","","",""
"pit-trial","14","349753","0.0-2.0-4.6-0.6","battery-v0.2","","""event"",""trial"",""time""
""fullscreenenter"",""1"",""3993""
","
","
","""event"",""trial"",""time""
""fullscreenenter"",""1"",""3993""
","
","","","-1","","","12","15988","401","&#9784;","elianto","#FFFFF080"," ","-1","0","&#10060","[3337.8999996185303]","1","0","0","","","","","","","",""
"pit-instructions","15","383999","0.0-2.0-4.6-1.6-0.6","battery-v0.2","","""event"",""trial"",""time""
""fullscreenenter"",""1"",""3993""
","
","
","""event"",""trial"",""time""
""fullscreenenter"",""1"",""3993""
","
","","[{""page_index"":0,""viewing_time"":23294.10000038147},{""page_index"":1,""viewing_time"":10948.099999427795}]","34242.800000190735","","","","","","","","","","","","","","","","","","","","","","","",""
"pit-trial","16","387250","0.0-2.0-4.7-0.7","battery-v0.2","","""event"",""trial"",""time""
""fullscreenenter"",""1"",""3993""
","
","
","""event"",""trial"",""time""
""fullscreenenter"",""1"",""3993""
","
","","","395.5","","","12","15988","401","&#9784;","elianto","#FFFFF080"," "," ","1","&#10004","[1246,1485.6999998092651,1651.5,1790,1926.6999998092651,2044.5,2190.7999992370605,2330.8999996185303,2458,2604.5,2762.5,2883.7999992370605,3028.8999996185303,3162.199999809265]","14","0","0","","","","","","","",""
"pit-trial","17","390148","0.0-2.0-4.8-0.8","battery-v0.2","","""event"",""trial"",""time""
""fullscreenenter"",""1"",""3993""
","
","
","""event"",""trial"",""time""
""fullscreenenter"",""1"",""3993""
","
","","","42.09999942779541","","","12","15988","401","&#9784;","elianto","#FFFFF080"," "," ","1","&#10004","[64.79999923706055,201.5999994277954,336.29999923706055,468,617.5999994277954,750.6999998092651,893.2999992370605,1035.0999994277954,1184.5,1360.1999998092651,1467.0999994277954,1610.1999998092651,1745.6999998092651,1891.2999992370605,2027.2999992370605,2195.699999809265,2310.3999996185303,2489.3999996185303,2649.199999809265,2815.2999992370605]","20","0","0","","","","","","","",""
"pit-trial","18","393023","0.0-2.0-4.9-0.9","battery-v0.2","","""event"",""trial"",""time""
""fullscreenenter"",""1"",""3993""
","
","
","""event"",""trial"",""time""
""fullscreenenter"",""1"",""3993""
","
","","","17.799999237060547","","","12","15988","401","&#9784;","elianto","#FFFFF080"," "," ","1","&#10004","[68.10000038146973,259.6000003814697,468.8999996185303,652.8999996185303,868.3999996185303,1070.3999996185303,1298.3999996185303,1503.6999998092651,1692.3999996185303,1895.8999996185303,2049.6000003814697,2267.800000190735,2636,2839.300000190735]","14","0","0","","","","","","","",""
"pit-instructions","19","434442","0.0-2.0-5.0","battery-v0.2","","""event"",""trial"",""time""
""fullscreenenter"",""1"",""3993""
","
","
","""event"",""trial"",""time""
""fullscreenenter"",""1"",""3993""
","
","","[{""page_index"":0,""viewing_time"":5019.10000038147},{""page_index"":1,""viewing_time"":14109},{""page_index"":2,""viewing_time"":16310.5},{""page_index"":3,""viewing_time"":5975.60000038147}]","41414.800000190735","","","","","","","","","","","","","","","","","","","","","","","",""
"pit-trial","20","439299","0.0-2.0-6.0-0.0","battery-v0.2","","""event"",""trial"",""time""
""fullscreenenter"",""1"",""3993""
","
","
","""event"",""trial"",""time""
""fullscreenenter"",""1"",""3993""
","
","","","-1","","","12","15988","401","&#9854;","elianto","#FFFFF080","-1","-1","1","&#10004","[]","0","0","1","","","","","","","",""
"pit-trial","21","444156","0.0-2.0-6.1-0.1","battery-v0.2","","""event"",""trial"",""time""
""fullscreenenter"",""1"",""3993""
","
","
","""event"",""trial"",""time""
""fullscreenenter"",""1"",""3993""
","
","","","-1","","","12","15988","401","&#9854;","elianto","#FFFFF080","-1","-1","1","&#10004","[]","0","0","1","","","","","","","",""
"pit-trial","22","449014","0.0-2.0-6.2-0.2","battery-v0.2","","""event"",""trial"",""time""
""fullscreenenter"",""1"",""3993""
","
","
","""event"",""trial"",""time""
""fullscreenenter"",""1"",""3993""
","
","","","-1","","","12","15988","401","&#9854;","elianto","#FFFFF080","-1","-1","1","&#10004","[]","0","0","1","","","","","","","",""
"pit-trial","23","453871","0.0-2.0-6.3-0.3","battery-v0.2","","""event"",""trial"",""time""
""fullscreenenter"",""1"",""3993""
","
","
","""event"",""trial"",""time""
""fullscreenenter"",""1"",""3993""
","
","","","-1","","","12","15988","401","&#9854;","elianto","#FFFFF080","-1","-1","1","&#10004","[]","0","0","1","","","","","","","",""
"pit-trial","24","458728","0.0-2.0-6.4-0.4","battery-v0.2","","""event"",""trial"",""time""
""fullscreenenter"",""1"",""3993""
","
","
","""event"",""trial"",""time""
""fullscreenenter"",""1"",""3993""
","
","","","-1","","","12","15988","401","&#9854;","elianto","#FFFFF080","-1","-1","1","&#10004","[]","0","0","1","","","","","","","",""
"pit-instructions","25","603081","0.0-2.0-7.0","battery-v0.2","","""event"",""trial"",""time""
""fullscreenenter"",""1"",""3993""
","
","
","""event"",""trial"",""time""
""fullscreenenter"",""1"",""3993""
","
","","[{""page_index"":0,""viewing_time"":6256.60000038147},{""page_index"":1,""viewing_time"":6343.199999809265},{""page_index"":2,""viewing_time"":5578.89999961853},{""page_index"":3,""viewing_time"":8130.400000572205},{""page_index"":4,""viewing_time"":6254.699999809265},{""page_index"":5,""viewing_time"":6144.300000190735},{""page_index"":6,""viewing_time"":5546},{""page_index"":7,""viewing_time"":8512.29999923706},{""page_index"":8,""viewing_time"":10274.800000190735},{""page_index"":9,""viewing_time"":5840.900000572205},{""page_index"":10,""viewing_time"":14549.89999961853},{""page_index"":11,""viewing_time"":4237.800000190735},{""page_index"":12,""viewing_time"":11978.89999961853},{""page_index"":13,""viewing_time"":13023.199999809265},{""page_index"":14,""viewing_time"":7381.200000762939},{""page_index"":15,""viewing_time"":8713.29999923706},{""page_index"":16,""viewing_time"":6144.900000572205},{""page_index"":17,""viewing_time"":9438}]","144349.60000038147","","","","","","","","","","","","","","","","","","","","","","","",""
"pit-trial","26","606699","0.0-2.0-8.0-0.0","battery-v0.2","","""event"",""trial"",""time""
""fullscreenenter"",""1"",""3993""
","
","
","""event"",""trial"",""time""
""fullscreenenter"",""1"",""3993""
","
","","","764.3000001907349","","","12","15988","401","&#9776;","elianto","#3366ff99"," "," ","1","+10","[1615]","1","0","1","","","","","","","",""
"pit-trial","27","611369","0.0-2.0-8.0-1.0","battery-v0.2","","""event"",""trial"",""time""
""fullscreenenter"",""1"",""3993""
","
","
","""event"",""trial"",""time""
""fullscreenenter"",""1"",""3993""
","
","","","1813.8999996185303","","","12","15988","401","&#9776;","elianto","#3366ff99"," "," ","1","+10","[2665.300000190735]","1","0","1","","","","","","","",""
"pit-trial","28","614698","0.0-2.0-8.0-2.0","battery-v0.2","","""event"",""trial"",""time""
""fullscreenenter"",""1"",""3993""
","
","
","""event"",""trial"",""time""
""fullscreenenter"",""1"",""3993""
","
","","","473.5","","","12","15988","401","&#9776;","elianto","#3366ff99"," "," ","1","+10","[1325.1999998092651]","1","0","1","","","","","","","",""
"pit-trial","29","617936","0.0-2.0-8.0-3.0","battery-v0.2","","""event"",""trial"",""time""
""fullscreenenter"",""1"",""3993""
","
","
","""event"",""trial"",""time""
""fullscreenenter"",""1"",""3993""
","
","","","383.19999980926514","","","12","15988","401","&#9776;","elianto","#3366ff99"," "," ","1","0","[1233.6999998092651]","1","0","1","","","","","","","",""
"pit-trial","30","621284","0.0-2.0-8.0-4.0","battery-v0.2","","""event"",""trial"",""time""
""fullscreenenter"",""1"",""3993""
","
","
","""event"",""trial"",""time""
""fullscreenenter"",""1"",""3993""
","
","","","492.19999980926514","","","12","15988","401","&#9776;","elianto","#3366ff99"," "," ","1","+10","[1343.1999998092651]","1","0","1","","","","","","","",""
"pit-trial","31","625002","0.0-2.0-8.1-0.1","battery-v0.2","","""event"",""trial"",""time""
""fullscreenenter"",""1"",""3993""
","
","
","""event"",""trial"",""time""
""fullscreenenter"",""1"",""3993""
","
","","","861.3999996185303","","","12","15988","401","&#9776;","elianto","#3366ff99"," "," ","1","+10","[1712.7999992370605]","1","0","1","","","","","","","",""
"pit-trial","32","628884","0.0-2.0-8.1-1.1","battery-v0.2","","""event"",""trial"",""time""
""fullscreenenter"",""1"",""3993""
","
","
","""event"",""trial"",""time""
""fullscreenenter"",""1"",""3993""
","
","","","1025.5","","","12","15988","401","&#9776;","elianto","#3366ff99"," "," ","1","+10","[1876.8999996185303,2100.5]","2","0","1","","","","","","","",""
"pit-trial","33","633740","0.0-2.0-8.1-2.1","battery-v0.2","","""event"",""trial"",""time""
""fullscreenenter"",""1"",""3993""
","
","
","""event"",""trial"",""time""
""fullscreenenter"",""1"",""3993""
","
","","","-1","","","12","15988","401","&#9776;","elianto","#3366ff99"," ","-1","0","0","[]","0","0","1","","","","","","","",""
"pit-trial","34","637226","0.0-2.0-8.1-3.1","battery-v0.2","","""event"",""trial"",""time""
""fullscreenenter"",""1"",""3993""
","
","
","""event"",""trial"",""time""
""fullscreenenter"",""1"",""3993""
","
","","","628.9000005722046","","","12","15988","401","&#9776;","elianto","#3366ff99"," "," ","1","0","[1480.2000007629395]","1","0","1","","","","","","","",""
"pit-trial","35","641674","0.0-2.0-8.1-4.1","battery-v0.2","","""event"",""trial"",""time""
""fullscreenenter"",""1"",""3993""
","
","
","""event"",""trial"",""time""
""fullscreenenter"",""1"",""3993""
","
","","","1592.0999994277954","","","12","15988","401","&#9776;","elianto","#3366ff99"," "," ","1","+10","[2443.3999996185303]","1","0","1","","","","","","","",""
"pit-trial","36","646529","0.0-2.0-8.2-0.2","battery-v0.2","","""event"",""trial"",""time""
""fullscreenenter"",""1"",""3993""
","
","
","""event"",""trial"",""time""
""fullscreenenter"",""1"",""3993""
","
","","","-1","","","12","15988","401","&#9776;","elianto","#3366ff99"," ","-1","0","0","[3235.0999994277954]","1","0","1","","","","","","","",""
"pit-trial","37","649575","0.0-2.0-8.2-1.2","battery-v0.2","","""event"",""trial"",""time""
""fullscreenenter"",""1"",""3993""
","
","
","""event"",""trial"",""time""
""fullscreenenter"",""1"",""3993""
","
","","","190.5","","","12","15988","401","&#9776;","elianto","#3366ff99"," "," ","1","+10","[756.7999992370605,1041.3999996185303]","2","0","1","","","","","","","",""
"pit-trial","38","652457","0.0-2.0-8.2-2.2","battery-v0.2","","""event"",""trial"",""time""
""fullscreenenter"",""1"",""3993""
","
","
","""event"",""trial"",""time""
""fullscreenenter"",""1"",""3993""
","
","","","26.199999809265137","","","12","15988","401","&#9776;","elianto","#3366ff99"," "," ","1","+10","[877.6999998092651]","1","0","1","","","","","","","",""
"pit-trial","39","655973","0.0-2.0-8.2-3.2","battery-v0.2","","""event"",""trial"",""time""
""fullscreenenter"",""1"",""3993""
","
","
","""event"",""trial"",""time""
""fullscreenenter"",""1"",""3993""
","
","","","660.5999994277954","","","12","15988","401","&#9776;","elianto","#3366ff99"," "," ","1","0","[1511.6999998092651]","1","0","1","","","","","","","",""
"pit-trial","40","660149","0.0-2.0-8.2-4.2","battery-v0.2","","""event"",""trial"",""time""
""fullscreenenter"",""1"",""3993""
","
","
","""event"",""trial"",""time""
""fullscreenenter"",""1"",""3993""
","
","","","1319.6999998092651","","","12","15988","401","&#9776;","elianto","#3366ff99"," "," ","1","+10","[2171.3999996185303]","1","0","1","","","","","","","",""
"call-function","41","660153","0.0-2.0-9.0","battery-v0.2","","""event"",""trial"",""time""
""fullscreenenter"",""1"",""3993""
","
","
","""event"",""trial"",""time""
""fullscreenenter"",""1"",""3993""
","
","","","","","","","","","","","","","","","","","","","","","","","","","","",""
"pit-instructions","42","707119","0.0-2.0-10.0","battery-v0.2","","""event"",""trial"",""time""
""fullscreenenter"",""1"",""3993""
","
","
","""event"",""trial"",""time""
""fullscreenenter"",""1"",""3993""
","
","","[{""page_index"":0,""viewing_time"":7435.900000572205},{""page_index"":1,""viewing_time"":7755.699999809265},{""page_index"":2,""viewing_time"":10788.800000190735},{""page_index"":3,""viewing_time"":9049.099999427795},{""page_index"":4,""viewing_time"":11935.5}]","46965.60000038147","","","","","","","","","","","","","","","","","","","","","","","",""
"pit-trial","43","711975","0.0-2.0-11.0-0.0","battery-v0.2","","""event"",""trial"",""time""
""fullscreenenter"",""1"",""3993""
","
","
","""event"",""trial"",""time""
""fullscreenenter"",""1"",""3993""
","
","","","-1","","","12","15988","401","&#9761;","elianto","#3366ff99","-1","-1","1","+10","[]","0","0","2","","","","","","","",""
"pit-trial","44","716832","0.0-2.0-11.0-1.0","battery-v0.2","","""event"",""trial"",""time""
""fullscreenenter"",""1"",""3993""
","
","
","""event"",""trial"",""time""
""fullscreenenter"",""1"",""3993""
","
","","","-1","","","12","15988","401","&#9761;","elianto","#3366ff99","-1","-1","1","+10","[]","0","0","2","","","","","","","",""
"pit-trial","45","721689","0.0-2.0-11.0-2.0","battery-v0.2","","""event"",""trial"",""time""
""fullscreenenter"",""1"",""3993""
","
","
","""event"",""trial"",""time""
""fullscreenenter"",""1"",""3993""
","
","","","-1","","","12","15988","401","&#9761;","elianto","#3366ff99","-1","-1","1","+10","[3348.5]","1","0","2","","","","","","","",""
"pit-trial","46","724776","0.0-2.0-11.0-3.0","battery-v0.2","","""event"",""trial"",""time""
""fullscreenenter"",""1"",""3993""
","
","
","""event"",""trial"",""time""
""fullscreenenter"",""1"",""3993""
","
","","","231","","","12","15988","401","&#9761;","elianto","#3366ff99","-1"," ","0","+10","[1083,1860.8000001907349,2143.9000005722046,2329.699999809265,2525.9000005722046,2713.800000190735,2874.800000190735,3069.300000190735]","8","0","2","","","","","","","",""
"pit-trial","47","727656","0.0-2.0-11.0-4.0","battery-v0.2","","""event"",""trial"",""time""
""fullscreenenter"",""1"",""3993""
","
","
","""event"",""trial"",""time""
""fullscreenenter"",""1"",""3993""
","
","","","25.300000190734863","","","12","15988","401","&#9761;","elianto","#3366ff99","-1"," ","0","0","[161,326.69999980926514,477.1000003814697,876.6000003814697,1025.8000001907349,1187.3000001907349,1365,1530.8000001907349,1721.1000003814697,1902.1000003814697,2096,2267.199999809265,2441.300000190735,2672]","14","0","2","","","","","","","",""
"pit-trial","48","731761","0.0-2.0-11.1-0.1","battery-v0.2","","""event"",""trial"",""time""
""fullscreenenter"",""1"",""3993""
","
","
","""event"",""trial"",""time""
""fullscreenenter"",""1"",""3993""
","
","","","1248.5","","","12","15988","401","&#9761;","elianto","#3366ff99","-1"," ","0","0","[2100,2426.300000190735,2647.6000003814697,2861.199999809265,3965.3999996185303]","5","0","2","","","","","","","",""
"pit-trial","49","735154","0.0-2.0-11.1-1.1","battery-v0.2","","""event"",""trial"",""time""
""fullscreenenter"",""1"",""3993""
","
","
","""event"",""trial"",""time""
""fullscreenenter"",""1"",""3993""
","
","","","535.8999996185303","","","12","15988","401","&#9761;","elianto","#3366ff99","-1"," ","0","0","[498.69999980926514,774.8999996185303,1388.3999996185303,1908.5,2437.699999809265,2870.8999996185303,3290.3999996185303]","7","0","2","","","","","","","",""
"pit-trial","50","738349","0.0-2.0-11.1-2.1","battery-v0.2","","""event"",""trial"",""time""
""fullscreenenter"",""1"",""3993""
","
","
","""event"",""trial"",""time""
""fullscreenenter"",""1"",""3993""
","
","","","339.19999980926514","","","12","15988","401","&#9761;","elianto","#3366ff99","-1"," ","0","0","[130.89999961853027,380.5999994277954,546.5,747.3000001907349,1191,1591.5,1891.1999998092651,2145.0999994277954,2374.300000190735,3003.5999994277954]","10","0","2","","","","","","","",""
"pit-trial","51","741796","0.0-2.0-11.1-3.1","battery-v0.2","","""event"",""trial"",""time""
""fullscreenenter"",""1"",""3993""
","
","
","""event"",""trial"",""time""
""fullscreenenter"",""1"",""3993""
","
","","","591.5999994277954","","","12","15988","401","&#9761;","elianto","#3366ff99","-1"," ","0","+10","[1442.1000003814697]","1","0","2","","","","","","","",""
"pit-trial","52","745794","0.0-2.0-11.1-4.1","battery-v0.2","","""event"",""trial"",""time""
""fullscreenenter"",""1"",""3993""
","
","
","""event"",""trial"",""time""
""fullscreenenter"",""1"",""3993""
","
","","","1142.5","","","12","15988","401","&#9761;","elianto","#3366ff99","-1"," ","0","0","[1993]","1","0","2","","","","","","","",""
"pit-trial","53","749376","0.0-2.0-11.2-0.2","battery-v0.2","","""event"",""trial"",""time""
""fullscreenenter"",""1"",""3993""
","
","
","""event"",""trial"",""time""
""fullscreenenter"",""1"",""3993""
","
","","","726.6999998092651","","","12","15988","401","&#9761;","elianto","#3366ff99","-1"," ","0","0","[1577.5]","1","0","2","","","","","","","",""
"pit-trial","54","753276","0.0-2.0-11.2-1.2","battery-v0.2","","""event"",""trial"",""time""
""fullscreenenter"",""1"",""3993""
","
","
","""event"",""trial"",""time""
""fullscreenenter"",""1"",""3993""
","
","","","1044.1000003814697","","","12","15988","401","&#9761;","elianto","#3366ff99","-1"," ","0","0","[1895.0999994277954,2156.199999809265,2421.5999994277954,2722.0999994277954]","4","0","2","","","","","","","",""
"pit-trial","55","758118","0.0-2.0-11.2-2.2","battery-v0.2","","""event"",""trial"",""time""
""fullscreenenter"",""1"",""3993""
","
","
","""event"",""trial"",""time""
""fullscreenenter"",""1"",""3993""
","
","","","1984.5","","","12","15988","401","&#9761;","elianto","#3366ff99","-1"," ","0","0","[2836.3999996185303]","1","0","2","","","","","","","",""
"pit-trial","56","762758","0.0-2.0-11.2-3.2","battery-v0.2","","""event"",""trial"",""time""
""fullscreenenter"",""1"",""3993""
","
","
","""event"",""trial"",""time""
""fullscreenenter"",""1"",""3993""
","
","","","1783.9000005722046","","","12","15988","401","&#9761;","elianto","#3366ff99","-1"," ","0","+10","[2634.9000005722046]","1","0","2","","","","","","","",""
"pit-trial","57","767614","0.0-2.0-11.2-4.2","battery-v0.2","","""event"",""trial"",""time""
""fullscreenenter"",""1"",""3993""
","
","
","""event"",""trial"",""time""
""fullscreenenter"",""1"",""3993""
","
","","","-1","","","12","15988","401","&#9761;","elianto","#3366ff99","-1","-1","1","+10","[3286.9000005722046]","1","0","2","","","","","","","",""
"pit-trial","58","772470","0.0-2.0-11.3-0.3","battery-v0.2","","""event"",""trial"",""time""
""fullscreenenter"",""1"",""3993""
","
","
","""event"",""trial"",""time""
""fullscreenenter"",""1"",""3993""
","
","","","-1","","","12","15988","401","&#9761;","elianto","#3366ff99","-1","-1","1","+10","[3679.300000190735]","1","0","2","","","","","","","",""
"pit-trial","59","777327","0.0-2.0-11.3-1.3","battery-v0.2","","""event"",""trial"",""time""
""fullscreenenter"",""1"",""3993""
","
","
","""event"",""trial"",""time""
""fullscreenenter"",""1"",""3993""
","
","","","-1","","","12","15988","401","&#9761;","elianto","#3366ff99","-1","-1","1","+10","[]","0","0","2","","","","","","","",""
"pit-trial","60","782184","0.0-2.0-11.3-2.3","battery-v0.2","","""event"",""trial"",""time""
""fullscreenenter"",""1"",""3993""
","
","
","""event"",""trial"",""time""
""fullscreenenter"",""1"",""3993""
","
","","","-1","","","12","15988","401","&#9761;","elianto","#3366ff99","-1","-1","1","+10","[]","0","0","2","","","","","","","",""
"pit-trial","61","787040","0.0-2.0-11.3-3.3","battery-v0.2","","""event"",""trial"",""time""
""fullscreenenter"",""1"",""3993""
","
","
","""event"",""trial"",""time""
""fullscreenenter"",""1"",""3993""
","
","","","-1","","","12","15988","401","&#9761;","elianto","#3366ff99","-1","-1","1","0","[]","0","0","2","","","","","","","",""
"pit-trial","62","791897","0.0-2.0-11.3-4.3","battery-v0.2","","""event"",""trial"",""time""
""fullscreenenter"",""1"",""3993""
","
","
","""event"",""trial"",""time""
""fullscreenenter"",""1"",""3993""
","
","","","-1","","","12","15988","401","&#9761;","elianto","#3366ff99","-1","-1","1","+10","[3183.7000007629395,4184.200000762939,4402.800000190735,4590,4748]","5","0","2","","","","","","","",""
"call-function","63","791899","0.0-2.0-12.0","battery-v0.2","","""event"",""trial"",""time""
""fullscreenenter"",""1"",""3993""
","
","
","""event"",""trial"",""time""
""fullscreenenter"",""1"",""3993""
","
","","","","","","","","","","","","","","","","","","","","","","","","","","",""
"pit-instructions","64","830953","0.0-2.0-13.0","battery-v0.2","","""event"",""trial"",""time""
""fullscreenenter"",""1"",""3993""
","
","
","""event"",""trial"",""time""
""fullscreenenter"",""1"",""3993""
","
","","[{""page_index"":0,""viewing_time"":7260.099999427795},{""page_index"":1,""viewing_time"":7341.10000038147},{""page_index"":2,""viewing_time"":4998.300000190735},{""page_index"":3,""viewing_time"":12107.89999961853},{""page_index"":4,""viewing_time"":7344.699999809265}]","39052.800000190735","","","","","","","","","","","","","","","","","","","","","","","",""
"pit-trial","65","835810","0.0-2.0-14.0-0.0","battery-v0.2","","""event"",""trial"",""time""
""fullscreenenter"",""1"",""3993""
","
","
","""event"",""trial"",""time""
""fullscreenenter"",""1"",""3993""
","
","","","-1","","","12","15988","401","&#9826;","elianto","#f73b6a7A","-1","-1","1","0","[]","0","0","3","","","","","","","",""
"pit-trial","66","840667","0.0-2.0-14.0-1.0","battery-v0.2","","""event"",""trial"",""time""
""fullscreenenter"",""1"",""3993""
","
","
","""event"",""trial"",""time""
""fullscreenenter"",""1"",""3993""
","
","","","-1","","","12","15988","401","&#9826;","elianto","#f73b6a7A","-1","-1","1","0","[]","0","0","3","","","","","","","",""
"pit-trial","67","845524","0.0-2.0-14.0-2.0","battery-v0.2","","""event"",""trial"",""time""
""fullscreenenter"",""1"",""3993""
","
","
","""event"",""trial"",""time""
""fullscreenenter"",""1"",""3993""
","
","","","-1","","","12","15988","401","&#9826;","elianto","#f73b6a7A","-1","-1","1","0","[]","0","0","3","","","","","","","",""
"pit-trial","68","850381","0.0-2.0-14.0-3.0","battery-v0.2","","""event"",""trial"",""time""
""fullscreenenter"",""1"",""3993""
","
","
","""event"",""trial"",""time""
""fullscreenenter"",""1"",""3993""
","
","","","-1","","","12","15988","401","&#9826;","elianto","#f73b6a7A","-1","-1","1","-10","[]","0","0","3","","","","","","","",""
"pit-trial","69","855237","0.0-2.0-14.0-4.0","battery-v0.2","","""event"",""trial"",""time""
""fullscreenenter"",""1"",""3993""
","
","
","""event"",""trial"",""time""
""fullscreenenter"",""1"",""3993""
","
","","","-1","","","12","15988","401","&#9826;","elianto","#f73b6a7A","-1","-1","1","0","[]","0","0","3","","","","","","","",""
"pit-trial","70","860095","0.0-2.0-14.1-0.1","battery-v0.2","","""event"",""trial"",""time""
""fullscreenenter"",""1"",""3993""
","
","
","""event"",""trial"",""time""
""fullscreenenter"",""1"",""3993""
","
","","","-1","","","12","15988","401","&#9826;","elianto","#f73b6a7A","-1","-1","1","0","[]","0","0","3","","","","","","","",""
"pit-trial","71","864952","0.0-2.0-14.1-1.1","battery-v0.2","","""event"",""trial"",""time""
""fullscreenenter"",""1"",""3993""
","
","
","""event"",""trial"",""time""
""fullscreenenter"",""1"",""3993""
","
","","","-1","","","12","15988","401","&#9826;","elianto","#f73b6a7A","-1","-1","1","0","[]","0","0","3","","","","","","","",""
"pit-trial","72","869808","0.0-2.0-14.1-2.1","battery-v0.2","","""event"",""trial"",""time""
""fullscreenenter"",""1"",""3993""
","
","
","""event"",""trial"",""time""
""fullscreenenter"",""1"",""3993""
","
","","","-1","","","12","15988","401","&#9826;","elianto","#f73b6a7A","-1","-1","1","0","[]","0","0","3","","","","","","","",""
"pit-trial","73","874665","0.0-2.0-14.1-3.1","battery-v0.2","","""event"",""trial"",""time""
""fullscreenenter"",""1"",""3993""
","
","
","""event"",""trial"",""time""
""fullscreenenter"",""1"",""3993""
","
","","","-1","","","12","15988","401","&#9826;","elianto","#f73b6a7A","-1","-1","1","-10","[]","0","0","3","","","","","","","",""
"pit-trial","74","879522","0.0-2.0-14.1-4.1","battery-v0.2","","""event"",""trial"",""time""
""fullscreenenter"",""1"",""3993""
","
","
","""event"",""trial"",""time""
""fullscreenenter"",""1"",""3993""
","
","","","-1","","","12","15988","401","&#9826;","elianto","#f73b6a7A","-1","-1","1","0","[]","0","0","3","","","","","","","",""
"pit-trial","75","884379","0.0-2.0-14.2-0.2","battery-v0.2","","""event"",""trial"",""time""
""fullscreenenter"",""1"",""3993""
","
","
","""event"",""trial"",""time""
""fullscreenenter"",""1"",""3993""
","
","","","-1","","","12","15988","401","&#9826;","elianto","#f73b6a7A","-1","-1","1","0","[]","0","0","3","","","","","","","",""
"pit-trial","76","889236","0.0-2.0-14.2-1.2","battery-v0.2","","""event"",""trial"",""time""
""fullscreenenter"",""1"",""3993""
","
","
","""event"",""trial"",""time""
""fullscreenenter"",""1"",""3993""
","
","","","-1","","","12","15988","401","&#9826;","elianto","#f73b6a7A","-1","-1","1","0","[]","0","0","3","","","","","","","",""
"pit-trial","77","894093","0.0-2.0-14.2-2.2","battery-v0.2","","""event"",""trial"",""time""
""fullscreenenter"",""1"",""3993""
","
","
","""event"",""trial"",""time""
""fullscreenenter"",""1"",""3993""
","
","","","-1","","","12","15988","401","&#9826;","elianto","#f73b6a7A","-1","-1","1","0","[]","0","0","3","","","","","","","",""
"pit-trial","78","898948","0.0-2.0-14.2-3.2","battery-v0.2","","""event"",""trial"",""time""
""fullscreenenter"",""1"",""3993""
","
","
","""event"",""trial"",""time""
""fullscreenenter"",""1"",""3993""
","
","","","-1","","","12","15988","401","&#9826;","elianto","#f73b6a7A","-1","-1","1","-10","[]","0","0","3","","","","","","","",""
"pit-trial","79","903805","0.0-2.0-14.2-4.2","battery-v0.2","","""event"",""trial"",""time""
""fullscreenenter"",""1"",""3993""
","
","
","""event"",""trial"",""time""
""fullscreenenter"",""1"",""3993""
","
","","","-1","","","12","15988","401","&#9826;","elianto","#f73b6a7A","-1","-1","1","0","[]","0","0","3","","","","","","","",""
"pit-trial","80","908662","0.0-2.0-14.3-0.3","battery-v0.2","","""event"",""trial"",""time""
""fullscreenenter"",""1"",""3993""
","
","
","""event"",""trial"",""time""
""fullscreenenter"",""1"",""3993""
","
","","","-1","","","12","15988","401","&#9826;","elianto","#f73b6a7A","-1","-1","1","0","[]","0","0","3","","","","","","","",""
"pit-trial","81","913519","0.0-2.0-14.3-1.3","battery-v0.2","","""event"",""trial"",""time""
""fullscreenenter"",""1"",""3993""
","
","
","""event"",""trial"",""time""
""fullscreenenter"",""1"",""3993""
","
","","","-1","","","12","15988","401","&#9826;","elianto","#f73b6a7A","-1","-1","1","0","[]","0","0","3","","","","","","","",""
"pit-trial","82","918375","0.0-2.0-14.3-2.3","battery-v0.2","","""event"",""trial"",""time""
""fullscreenenter"",""1"",""3993""
","
","
","""event"",""trial"",""time""
""fullscreenenter"",""1"",""3993""
","
","","","-1","","","12","15988","401","&#9826;","elianto","#f73b6a7A","-1","-1","1","0","[]","0","0","3","","","","","","","",""
"pit-trial","83","923232","0.0-2.0-14.3-3.3","battery-v0.2","","""event"",""trial"",""time""
""fullscreenenter"",""1"",""3993""
","
","
","""event"",""trial"",""time""
""fullscreenenter"",""1"",""3993""
","
","","","-1","","","12","15988","401","&#9826;","elianto","#f73b6a7A","-1","-1","1","-10","[]","0","0","3","","","","","","","",""
"pit-trial","84","928090","0.0-2.0-14.3-4.3","battery-v0.2","","""event"",""trial"",""time""
""fullscreenenter"",""1"",""3993""
","
","
","""event"",""trial"",""time""
""fullscreenenter"",""1"",""3993""
","
","","","-1","","","12","15988","401","&#9826;","elianto","#f73b6a7A","-1","-1","1","0","[]","0","0","3","","","","","","","",""
"call-function","85","928092","0.0-2.0-15.0","battery-v0.2","","""event"",""trial"",""time""
""fullscreenenter"",""1"",""3993""
","
","
","""event"",""trial"",""time""
""fullscreenenter"",""1"",""3993""
","
","","","","","","","","","","","","","","","","","","","","","","","","","","",""
"pit-instructions","86","967090","0.0-2.0-16.0","battery-v0.2","","""event"",""trial"",""time""
""fullscreenenter"",""1"",""3993""
","
","
","""event"",""trial"",""time""
""fullscreenenter"",""1"",""3993""
","
","","[{""page_index"":0,""viewing_time"":6831.699999809265},{""page_index"":1,""viewing_time"":13753.300000190735},{""page_index"":2,""viewing_time"":6207.10000038147},{""page_index"":3,""viewing_time"":12204.300000190735}]","38997","","","","","","","","","","","","","","","","","","","","","","","",""
"pit-trial","87","971946","0.0-2.0-17.0-0.0","battery-v0.2","","""event"",""trial"",""time""
""fullscreenenter"",""1"",""3993""
","
","
","""event"",""trial"",""time""
""fullscreenenter"",""1"",""3993""
","
","","","-1","","","12","15988","401","&#9789;","elianto","#f73b6a7A"," ","-1","0","-10","[]","0","0","4","","","","","","","",""
"pit-trial","88","976801","0.0-2.0-17.0-1.0","battery-v0.2","","""event"",""trial"",""time""
""fullscreenenter"",""1"",""3993""
","
","
","""event"",""trial"",""time""
""fullscreenenter"",""1"",""3993""
","
","","","-1","","","12","15988","401","&#9789;","elianto","#f73b6a7A"," ","-1","0","-10","[]","0","0","4","","","","","","","",""
"pit-trial","89","981658","0.0-2.0-17.0-2.0","battery-v0.2","","""event"",""trial"",""time""
""fullscreenenter"",""1"",""3993""
","
","
","""event"",""trial"",""time""
""fullscreenenter"",""1"",""3993""
","
","","","-1","","","12","15988","401","&#9789;","elianto","#f73b6a7A"," ","-1","0","-10","[]","0","0","4","","","","","","","",""
"pit-trial","90","986514","0.0-2.0-17.0-3.0","battery-v0.2","","""event"",""trial"",""time""
""fullscreenenter"",""1"",""3993""
","
","
","""event"",""trial"",""time""
""fullscreenenter"",""1"",""3993""
","
","","","-1","","","12","15988","401","&#9789;","elianto","#f73b6a7A"," ","-1","0","0","[]","0","0","4","","","","","","","",""
"pit-trial","91","991371","0.0-2.0-17.0-4.0","battery-v0.2","","""event"",""trial"",""time""
""fullscreenenter"",""1"",""3993""
","
","
","""event"",""trial"",""time""
""fullscreenenter"",""1"",""3993""
","
","","","-1","","","12","15988","401","&#9789;","elianto","#f73b6a7A"," ","-1","0","-10","[]","0","0","4","","","","","","","",""
"pit-trial","92","996229","0.0-2.0-17.1-0.1","battery-v0.2","","""event"",""trial"",""time""
""fullscreenenter"",""1"",""3993""
","
","
","""event"",""trial"",""time""
""fullscreenenter"",""1"",""3993""
","
","","","-1","","","12","15988","401","&#9789;","elianto","#f73b6a7A"," ","-1","0","-10","[]","0","0","4","","","","","","","",""
"pit-trial","93","1001086","0.0-2.0-17.1-1.1","battery-v0.2","","""event"",""trial"",""time""
""fullscreenenter"",""1"",""3993""
","
","
","""event"",""trial"",""time""
""fullscreenenter"",""1"",""3993""
","
","","","-1","","","12","15988","401","&#9789;","elianto","#f73b6a7A"," ","-1","0","-10","[]","0","0","4","","","","","","","",""
"pit-trial","94","1005942","0.0-2.0-17.1-2.1","battery-v0.2","","""event"",""trial"",""time""
""fullscreenenter"",""1"",""3993""
","
","
","""event"",""trial"",""time""
""fullscreenenter"",""1"",""3993""
","
","","","-1","","","12","15988","401","&#9789;","elianto","#f73b6a7A"," ","-1","0","-10","[]","0","0","4","","","","","","","",""
"pit-trial","95","1010799","0.0-2.0-17.1-3.1","battery-v0.2","","""event"",""trial"",""time""
""fullscreenenter"",""1"",""3993""
","
","
","""event"",""trial"",""time""
""fullscreenenter"",""1"",""3993""
","
","","","-1","","","12","15988","401","&#9789;","elianto","#f73b6a7A"," ","-1","0","0","[]","0","0","4","","","","","","","",""
"pit-trial","96","1015654","0.0-2.0-17.1-4.1","battery-v0.2","","""event"",""trial"",""time""
""fullscreenenter"",""1"",""3993""
","
","
","""event"",""trial"",""time""
""fullscreenenter"",""1"",""3993""
","
","","","-1","","","12","15988","401","&#9789;","elianto","#f73b6a7A"," ","-1","0","-10","[]","0","0","4","","","","","","","",""
"pit-trial","97","1020512","0.0-2.0-17.2-0.2","battery-v0.2","","""event"",""trial"",""time""
""fullscreenenter"",""1"",""3993""
","
","
","""event"",""trial"",""time""
""fullscreenenter"",""1"",""3993""
","
","","","-1","","","12","15988","401","&#9789;","elianto","#f73b6a7A"," ","-1","0","-10","[]","0","0","4","","","","","","","",""
"pit-trial","98","1025368","0.0-2.0-17.2-1.2","battery-v0.2","","""event"",""trial"",""time""
""fullscreenenter"",""1"",""3993""
","
","
","""event"",""trial"",""time""
""fullscreenenter"",""1"",""3993""
","
","","","-1","","","12","15988","401","&#9789;","elianto","#f73b6a7A"," ","-1","0","-10","[]","0","0","4","","","","","","","",""
"pit-trial","99","1030224","0.0-2.0-17.2-2.2","battery-v0.2","","""event"",""trial"",""time""
""fullscreenenter"",""1"",""3993""
","
","
","""event"",""trial"",""time""
""fullscreenenter"",""1"",""3993""
","
","","","-1","","","12","15988","401","&#9789;","elianto","#f73b6a7A"," ","-1","0","-10","[]","0","0","4","","","","","","","",""
"pit-trial","100","1035081","0.0-2.0-17.2-3.2","battery-v0.2","","""event"",""trial"",""time""
""fullscreenenter"",""1"",""3993""
","
","
","""event"",""trial"",""time""
""fullscreenenter"",""1"",""3993""
","
","","","-1","","","12","15988","401","&#9789;","elianto","#f73b6a7A"," ","-1","0","0","[]","0","0","4","","","","","","","",""
"pit-trial","101","1039937","0.0-2.0-17.2-4.2","battery-v0.2","","""event"",""trial"",""time""
""fullscreenenter"",""1"",""3993""
","
","
","""event"",""trial"",""time""
""fullscreenenter"",""1"",""3993""
","
","","","-1","","","12","15988","401","&#9789;","elianto","#f73b6a7A"," ","-1","0","-10","[]","0","0","4","","","","","","","",""
"pit-trial","102","1044794","0.0-2.0-17.3-0.3","battery-v0.2","","""event"",""trial"",""time""
""fullscreenenter"",""1"",""3993""
","
","
","""event"",""trial"",""time""
""fullscreenenter"",""1"",""3993""
","
","","","-1","","","12","15988","401","&#9789;","elianto","#f73b6a7A"," ","-1","0","-10","[]","0","0","4","","","","","","","",""
"pit-trial","103","1049648","0.0-2.0-17.3-1.3","battery-v0.2","","""event"",""trial"",""time""
""fullscreenenter"",""1"",""3993""
","
","
","""event"",""trial"",""time""
""fullscreenenter"",""1"",""3993""
","
","","","-1","","","12","15988","401","&#9789;","elianto","#f73b6a7A"," ","-1","0","-10","[]","0","0","4","","","","","","","",""
"pit-trial","104","1054504","0.0-2.0-17.3-2.3","battery-v0.2","","""event"",""trial"",""time""
""fullscreenenter"",""1"",""3993""
","
","
","""event"",""trial"",""time""
""fullscreenenter"",""1"",""3993""
","
","","","-1","","","12","15988","401","&#9789;","elianto","#f73b6a7A"," ","-1","0","-10","[]","0","0","4","","","","","","","",""
"pit-trial","105","1059359","0.0-2.0-17.3-3.3","battery-v0.2","","""event"",""trial"",""time""
""fullscreenenter"",""1"",""3993""
","
","
","""event"",""trial"",""time""
""fullscreenenter"",""1"",""3993""
","
","","","-1","","","12","15988","401","&#9789;","elianto","#f73b6a7A"," ","-1","0","0","[]","0","0","4","","","","","","","",""
"pit-trial","106","1064215","0.0-2.0-17.3-4.3","battery-v0.2","","""event"",""trial"",""time""
""fullscreenenter"",""1"",""3993""
","
","
","""event"",""trial"",""time""
""fullscreenenter"",""1"",""3993""
","
","","","-1","","","12","15988","401","&#9789;","elianto","#f73b6a7A"," ","-1","0","-10","[]","0","0","4","","","","","","","",""
"call-function","107","1064217","0.0-2.0-18.0","battery-v0.2","","""event"",""trial"",""time""
""fullscreenenter"",""1"",""3993""
","
","
","""event"",""trial"",""time""
""fullscreenenter"",""1"",""3993""
","
","","","","","","","","","","","","","","","","","","","","","","","","","","",""
"pit-instructions","108","1173160","0.0-2.0-19.0","battery-v0.2","","""event"",""trial"",""time""
""fullscreenenter"",""1"",""3993""
","
","
","""event"",""trial"",""time""
""fullscreenenter"",""1"",""3993""
","
","","[{""page_index"":0,""viewing_time"":7128.699999809265},{""page_index"":1,""viewing_time"":12689.5},{""page_index"":2,""viewing_time"":15019.300000190735},{""page_index"":3,""viewing_time"":17164.300000190735},{""page_index"":4,""viewing_time"":11947.699999809265},{""page_index"":5,""viewing_time"":12500.39999961853},{""page_index"":6,""viewing_time"":23262.800000190735},{""page_index"":7,""viewing_time"":5754.699999809265},{""page_index"":8,""viewing_time"":3473.7000007629395}]","108941.69999980927","","","","","","","","","","","","","","","","","","","","","","","",""
"pit-comprehension","109","1178021","0.0-2.0-20.0-0.0","battery-v0.2","","""event"",""trial"",""time""
""fullscreenenter"",""1"",""3993""
","
","
","""event"",""trial"",""time""
""fullscreenenter"",""1"",""3993""
","
","","","4855.700000762939","[""SPACE""]","0","12","15988","401","","","","","","","","","","","","","","","","","","",""
"pit-instructions","110","1180119","0.0-2.0-20.0-1.0","battery-v0.2","","""event"",""trial"",""time""
""fullscreenenter"",""1"",""3993""
","
","
","""event"",""trial"",""time""
""fullscreenenter"",""1"",""3993""
","
","","[{""page_index"":0,""viewing_time"":2065.699999809265}]","2066","","","","","","","","","","","","","","","","","","","","","","","",""
"pit-comprehension","111","1186969","0.0-2.0-21.0-0.0","battery-v0.2","","""event"",""trial"",""time""
""fullscreenenter"",""1"",""3993""
","
","
","""event"",""trial"",""time""
""fullscreenenter"",""1"",""3993""
","
","","","6845.60000038147","[""10""]","0","12","15988","401","","","","","","","","","","","","","","","","","","",""
"pit-instructions","112","1188715","0.0-2.0-21.0-1.0","battery-v0.2","","""event"",""trial"",""time""
""fullscreenenter"",""1"",""3993""
","
","
","""event"",""trial"",""time""
""fullscreenenter"",""1"",""3993""
","
","","[{""page_index"":0,""viewing_time"":1715.3999996185303}]","1715.8999996185303","","","","","","","","","","","","","","","","","","","","","","","",""
"pit-comprehension","113","1195284","0.0-2.0-22.0-0.0","battery-v0.2","","""event"",""trial"",""time""
""fullscreenenter"",""1"",""3993""
","
","
","""event"",""trial"",""time""
""fullscreenenter"",""1"",""3993""
","
","","","6564.599999427795","[""0""]","0","12","15988","401","","","","","","","","","","","","","","","","","","",""
"pit-instructions","114","1197527","0.0-2.0-22.0-1.0","battery-v0.2","","""event"",""trial"",""time""
""fullscreenenter"",""1"",""3993""
","
","
","""event"",""trial"",""time""
""fullscreenenter"",""1"",""3993""
","
","","[{""page_index"":0,""viewing_time"":2209.1000003814697}]","2209.5","","","","","","","","","","","","","","","","","","","","","","","",""
"pit-comprehension","115","1205732","0.0-2.0-23.0-0.0","battery-v0.2","","""event"",""trial"",""time""
""fullscreenenter"",""1"",""3993""
","
","
","""event"",""trial"",""time""
""fullscreenenter"",""1"",""3993""
","
","","","8200.599999427795","[""True""]","0","12","15988","401","","","","","","","","","","","","","","","","","","",""
"pit-instructions","116","1209051","0.0-2.0-23.0-1.0","battery-v0.2","","""event"",""trial"",""time""
""fullscreenenter"",""1"",""3993""
","
","
","""event"",""trial"",""time""
""fullscreenenter"",""1"",""3993""
","
","","[{""page_index"":0,""viewing_time"":3287.3999996185303}]","3287.8999996185303","","","","","","","","","","","","","","","","","","","","","","","",""
"pit-comprehension","117","1216448","0.0-2.0-24.0-0.0","battery-v0.2","","""event"",""trial"",""time""
""fullscreenenter"",""1"",""3993""
","
","
","""event"",""trial"",""time""
""fullscreenenter"",""1"",""3993""
","
","","","7392.300000190735","[""False""]","1","12","15988","401","","","","","","","","","","","","","","","","","","",""
"pit-instructions","118","1219089","0.0-2.0-24.0-1.0","battery-v0.2","","""event"",""trial"",""time""
""fullscreenenter"",""1"",""3993""
","
","
","""event"",""trial"",""time""
""fullscreenenter"",""1"",""3993""
","
","","[{""page_index"":0,""viewing_time"":2607.5}]","2608.0999994277954","","","","","","","","","","","","","","","","","","","","","","","",""
"pit-instructions","119","1220278","0.0-2.0-24.0-2.0-0.0","battery-v0.2","","""event"",""trial"",""time""
""fullscreenenter"",""1"",""3993""
","
","
","""event"",""trial"",""time""
""fullscreenenter"",""1"",""3993""
","
","","[{""page_index"":0,""viewing_time"":1185.6000003814697}]","1186.1999998092651","","","","","","","","","","","","","","","","","","","","","","","",""
"pit-comprehension","120","1227542","0.0-2.0-24.1-0.1","battery-v0.2","","""event"",""trial"",""time""
""fullscreenenter"",""1"",""3993""
","
","
","""event"",""trial"",""time""
""fullscreenenter"",""1"",""3993""
","
","","","7259.900000572205","[""True""]","0","12","15988","401","","","","","","","","","","","","","","","","","","",""
"pit-instructions","121","1229353","0.0-2.0-24.1-1.1","battery-v0.2","","""event"",""trial"",""time""
""fullscreenenter"",""1"",""3993""
","
","
","""event"",""trial"",""time""
""fullscreenenter"",""1"",""3993""
","
","","[{""page_index"":0,""viewing_time"":1777.2999992370605}]","1777.7999992370605","","","","","","","","","","","","","","","","","","","","","","","",""
"pit-comprehension","122","1235922","0.0-2.0-25.0-0.0","battery-v0.2","","""event"",""trial"",""time""
""fullscreenenter"",""1"",""3993""
","
","
","""event"",""trial"",""time""
""fullscreenenter"",""1"",""3993""
","
","","","6564.10000038147","[""True""]","0","12","15988","401","","","","","","","","","","","","","","","","","","",""
"pit-instructions","123","1238076","0.0-2.0-25.0-1.0","battery-v0.2","","""event"",""trial"",""time""
""fullscreenenter"",""1"",""3993""
","
","
","""event"",""trial"",""time""
""fullscreenenter"",""1"",""3993""
","
","","[{""page_index"":0,""viewing_time"":2120}]","2120.5","","","","","","","","","","","","","","","","","","","","","","","",""
"pit-comprehension","124","1242810","0.0-2.0-26.0-0.0","battery-v0.2","","""event"",""trial"",""time""
""fullscreenenter"",""1"",""3993""
","
","
","""event"",""trial"",""time""
""fullscreenenter"",""1"",""3993""
","
","","","4728.699999809265","[""False""]","0","12","15988","401","","","","","","","","","","","","","","","","","","",""
"pit-instructions","125","1245011","0.0-2.0-26.0-1.0","battery-v0.2","","""event"",""trial"",""time""
""fullscreenenter"",""1"",""3993""
","
","
","""event"",""trial"",""time""
""fullscreenenter"",""1"",""3993""
","
","","[{""page_index"":0,""viewing_time"":2168.300000190735}]","2168.800000190735","","","","","","","","","","","","","","","","","","","","","","","",""
"pit-instructions","126","1261630","0.0-3.0","battery-v0.2","","""event"",""trial"",""time""
""fullscreenenter"",""1"",""3993""
","
","
","""event"",""trial"",""time""
""fullscreenenter"",""1"",""3993""
","
","","[{""page_index"":0,""viewing_time"":3595.4000005722046},{""page_index"":1,""viewing_time"":5307.199999809265},{""page_index"":2,""viewing_time"":7713}]","16616","","","","","","","","","","","","","","","","","","","","","","","",""
"pit-trial","127","1266491","0.0-4.0","battery-v0.2","","""event"",""trial"",""time""
""fullscreenenter"",""1"",""3993""
","
","
","""event"",""trial"",""time""
""fullscreenenter"",""1"",""3993""
","
","","","-1","","","12","15988","401","&#9728;","elianto","#f73b6a7A","-1","-1","1","0","[]","0","1","","","15988","1","0","4","lose","no-go","0"
"pit-trial","128","1271347","0.0-5.0","battery-v0.2","","""event"",""trial"",""time""
""fullscreenenter"",""1"",""3993""
","
","
","""event"",""trial"",""time""
""fullscreenenter"",""1"",""3993""
","
","","","-1","","","12","15988","401","&#9752;","elianto","#f73b6a7A"," ","-1","0","-10","[]","0","1","","","15988","2","3","3","lose","go","0"
"pit-trial","129","1274873","0.0-6.0","battery-v0.2","","""event"",""trial"",""time""
""fullscreenenter"",""1"",""3993""
","
","
","""event"",""trial"",""time""
""fullscreenenter"",""1"",""3993""
","
","","","670.6999998092651","","","12","15988","401","&#9730;","elianto","#3366ff99"," "," ","1","+10","[1520.8999996185303]","1","1","","","15988","3","1","1","win","go","0"
"pit-trial","130","1279730","0.0-7.0","battery-v0.2","","""event"",""trial"",""time""
""fullscreenenter"",""1"",""3993""
","
","
","""event"",""trial"",""time""
""fullscreenenter"",""1"",""3993""
","
","","","-1","","","12","15988","401","&#9733;","elianto","#3366ff99","-1","-1","1","0","[3012.8999996185303]","1","1","","","15988","4","2","2","win","no-go","1"
"pit-trial","131","1283000","0.0-8.0","battery-v0.2","","""event"",""trial"",""time""
""fullscreenenter"",""1"",""3993""
","
","
","""event"",""trial"",""time""
""fullscreenenter"",""1"",""3993""
","
","","","414.69999980926514","","","12","15988","401","&#9728;","elianto","#f73b6a7A","-1"," ","0","-10","[1265.2999992370605]","1","1","","","15988","5","0","4","lose","no-go","0"
"pit-trial","132","1286280","0.0-9.0","battery-v0.2","","""event"",""trial"",""time""
""fullscreenenter"",""1"",""3993""
","
","
","""event"",""trial"",""time""
""fullscreenenter"",""1"",""3993""
","
","","","424.79999923706055","","","12","15988","401","&#9730;","elianto","#3366ff99"," "," ","1","+10","[1275.0999994277954]","1","1","","","15988","6","1","1","win","go","0"
"pit-trial","133","1290233","0.0-10.0","battery-v0.2","","""event"",""trial"",""time""
""fullscreenenter"",""1"",""3993""
","
","
","""event"",""trial"",""time""
""fullscreenenter"",""1"",""3993""
","
","","","1096.8999996185303","","","12","15988","401","&#9733;","elianto","#3366ff99","-1"," ","0","0","[1947.7999992370605]","1","1","","","15988","7","2","2","win","no-go","0"
"pit-trial","134","1294326","0.0-11.0","battery-v0.2","","""event"",""trial"",""time""
""fullscreenenter"",""1"",""3993""
","
","
","""event"",""trial"",""time""
""fullscreenenter"",""1"",""3993""
","
","","","1237.5","","","12","15988","401","&#9752;","elianto","#f73b6a7A"," "," ","1","-10","[2088]","1","1","","","15988","8","3","3","lose","go","1"
"pit-trial","135","1298143","0.0-12.0","battery-v0.2","","""event"",""trial"",""time""
""fullscreenenter"",""1"",""3993""
","
","
","""event"",""trial"",""time""
""fullscreenenter"",""1"",""3993""
","
","","","961.6999998092651","","","12","15988","401","&#9730;","elianto","#3366ff99"," "," ","1","+10","[1812.0999994277954]","1","1","","","15988","9","1","1","win","go","0"
"pit-trial","136","1303000","0.0-13.0","battery-v0.2","","""event"",""trial"",""time""
""fullscreenenter"",""1"",""3993""
","
","
","""event"",""trial"",""time""
""fullscreenenter"",""1"",""3993""
","
","","","-1","","","12","15988","401","&#9752;","elianto","#f73b6a7A"," ","-1","0","0","[]","0","1","","","15988","10","3","3","lose","go","1"
"pit-trial","137","1306587","0.0-14.0","battery-v0.2","","""event"",""trial"",""time""
""fullscreenenter"",""1"",""3993""
","
","
","""event"",""trial"",""time""
""fullscreenenter"",""1"",""3993""
","
","","","730.9000005722046","","","12","15988","401","&#9733;","elianto","#3366ff99","-1"," ","0","0","[1581.6000003814697]","1","1","","","15988","11","2","2","win","no-go","0"
"pit-trial","138","1310859","0.0-15.0","battery-v0.2","","""event"",""trial"",""time""
""fullscreenenter"",""1"",""3993""
","
","
","""event"",""trial"",""time""
""fullscreenenter"",""1"",""3993""
","
","","","1415.3999996185303","","","12","15988","401","&#9728;","elianto","#f73b6a7A","-1"," ","0","-10","[2267]","1","1","","","15988","12","0","4","lose","no-go","0"
"pit-trial","139","1314513","0.0-16.0","battery-v0.2","","""event"",""trial"",""time""
""fullscreenenter"",""1"",""3993""
","
","
","""event"",""trial"",""time""
""fullscreenenter"",""1"",""3993""
","
","","","797.8999996185303","","","12","15988","401","&#9730;","elianto","#3366ff99"," "," ","1","+10","[1648.5]","1","1","","","15988","13","1","1","win","go","0"
"pit-trial","140","1318964","0.0-17.0","battery-v0.2","","""event"",""trial"",""time""
""fullscreenenter"",""1"",""3993""
","
","
","""event"",""trial"",""time""
""fullscreenenter"",""1"",""3993""
","
","","","1595","","","12","15988","401","&#9733;","elianto","#3366ff99","-1"," ","0","0","[2446.5]","1","1","","","15988","14","2","2","win","no-go","0"
"pit-trial","141","1323820","0.0-18.0","battery-v0.2","","""event"",""trial"",""time""
""fullscreenenter"",""1"",""3993""
","
","
","""event"",""trial"",""time""
""fullscreenenter"",""1"",""3993""
","
","","","-1","","","12","15988","401","&#9752;","elianto","#f73b6a7A"," ","-1","0","0","[]","0","1","","","15988","15","3","3","lose","go","1"
"pit-trial","142","1328677","0.0-19.0","battery-v0.2","","""event"",""trial"",""time""
""fullscreenenter"",""1"",""3993""
","
","
","""event"",""trial"",""time""
""fullscreenenter"",""1"",""3993""
","
","","","-1","","","12","15988","401","&#9728;","elianto","#f73b6a7A","-1","-1","1","0","[]","0","1","","","15988","16","0","4","lose","no-go","0"
"pit-trial","143","1333533","0.0-20.0","battery-v0.2","","""event"",""trial"",""time""
""fullscreenenter"",""1"",""3993""
","
","
","""event"",""trial"",""time""
""fullscreenenter"",""1"",""3993""
","
","","","-1","","","12","15988","401","&#9728;","elianto","#f73b6a7A","-1","-1","1","-10","[]","0","1","","","15988","17","0","4","lose","no-go","1"
"pit-trial","144","1338391","0.0-21.0","battery-v0.2","","""event"",""trial"",""time""
""fullscreenenter"",""1"",""3993""
","
","
","""event"",""trial"",""time""
""fullscreenenter"",""1"",""3993""
","
","","","-1","","","12","15988","401","&#9752;","elianto","#f73b6a7A"," ","-1","0","-10","[]","0","1","","","15988","18","3","3","lose","go","0"
"pit-trial","145","1342292","0.0-22.0","battery-v0.2","","""event"",""trial"",""time""
""fullscreenenter"",""1"",""3993""
","
","
","""event"",""trial"",""time""
""fullscreenenter"",""1"",""3993""
","
","","","1044","","","12","15988","401","&#9733;","elianto","#3366ff99","-1"," ","0","0","[1895.3000001907349]","1","1","","","15988","19","2","2","win","no-go","0"
"pit-trial","146","1346232","0.0-23.0","battery-v0.2","","""event"",""trial"",""time""
""fullscreenenter"",""1"",""3993""
","
","
","""event"",""trial"",""time""
""fullscreenenter"",""1"",""3993""
","
","","","1084.1000003814697","","","12","15988","401","&#9730;","elianto","#3366ff99"," "," ","1","0","[1935.5]","1","1","","","15988","20","1","1","win","go","1"
"pit-instructions","147","1359023","0.0-24.0","battery-v0.2","","""event"",""trial"",""time""
""fullscreenenter"",""1"",""3993""
","
","
","""event"",""trial"",""time""
""fullscreenenter"",""1"",""3993""
","
","","[{""page_index"":0,""viewing_time"":5641.800000190735},{""page_index"":1,""viewing_time"":7145.599999427795}]","12787.89999961853","","","","","","","","","","","","","","","","","","","","","","","",""
"pit-trial","148","1363881","0.0-25.0","battery-v0.2","","""event"",""trial"",""time""
""fullscreenenter"",""1"",""3993""
","
","
","""event"",""trial"",""time""
""fullscreenenter"",""1"",""3993""
","
","","","-1","","","12","15988","401","m","elianto","#f73b6a7A","-1","-1","1","0","[]","0","2","","","15988","21","0","4","lose","no-go","0"
"pit-trial","149","1368738","0.0-26.0","battery-v0.2","","""event"",""trial"",""time""
""fullscreenenter"",""1"",""3993""
","
","
","""event"",""trial"",""time""
""fullscreenenter"",""1"",""3993""
","
","","","-1","","","12","15988","401","y","elianto","#f73b6a7A","-1","-1","1","0","[]","0","2","","","15988","22","2","4","lose","no-go","0"
"pit-trial","150","1372175","0.0-27.0","battery-v0.2","","""event"",""trial"",""time""
""fullscreenenter"",""1"",""3993""
","
","
","""event"",""trial"",""time""
""fullscreenenter"",""1"",""3993""
","
","","","582","","","12","15988","401","r","elianto","#3366ff99"," "," ","1","+10","[1433.6000003814697]","1","2","","","15988","23","1","1","win","go","0"
"pit-trial","151","1377033","0.0-28.0","battery-v0.2","","""event"",""trial"",""time""
""fullscreenenter"",""1"",""3993""
","
","
","""event"",""trial"",""time""
""fullscreenenter"",""1"",""3993""
","
","","","-1","","","12","15988","401","h","elianto","#f73b6a7A"," ","-1","0","-10","[]","0","2","","","15988","24","3","3","lose","go","0"
"pit-trial","152","1380528","0.0-29.0","battery-v0.2","","""event"",""trial"",""time""
""fullscreenenter"",""1"",""3993""
","
","
","""event"",""trial"",""time""
""fullscreenenter"",""1"",""3993""
","
","","","639.7999992370605","","","12","15988","401","r","elianto","#3366ff99"," "," ","1","+10","[1490.6000003814697]","1","2","","","15988","25","1","1","win","go","0"
"pit-trial","153","1385384","0.0-30.0","battery-v0.2","","""event"",""trial"",""time""
""fullscreenenter"",""1"",""3993""
","
","
","""event"",""trial"",""time""
""fullscreenenter"",""1"",""3993""
","
","","","-1","","","12","15988","401","y","elianto","#f73b6a7A","-1","-1","1","-10","[]","0","2","","","15988","26","2","4","lose","no-go","1"
"pit-trial","154","1390241","0.0-31.0","battery-v0.2","","""event"",""trial"",""time""
""fullscreenenter"",""1"",""3993""
","
","
","""event"",""trial"",""time""
""fullscreenenter"",""1"",""3993""
","
","","","-1","","","12","15988","401","h","elianto","#f73b6a7A"," ","-1","0","-10","[]","0","2","","","15988","27","3","3","lose","go","0"
"pit-trial","155","1395097","0.0-32.0","battery-v0.2","","""event"",""trial"",""time""
""fullscreenenter"",""1"",""3993""
","
","
","""event"",""trial"",""time""
""fullscreenenter"",""1"",""3993""
","
","","","-1","","","12","15988","401","m","elianto","#f73b6a7A","-1","-1","1","0","[]","0","2","","","15988","28","0","4","lose","no-go","0"
"pit-trial","156","1399954","0.0-33.0","battery-v0.2","","""event"",""trial"",""time""
""fullscreenenter"",""1"",""3993""
","
","
","""event"",""trial"",""time""
""fullscreenenter"",""1"",""3993""
","
","","","-1","","","12","15988","401","h","elianto","#f73b6a7A"," ","-1","0","0","[]","0","2","","","15988","29","3","3","lose","go","1"
"pit-trial","157","1404810","0.0-34.0","battery-v0.2","","""event"",""trial"",""time""
""fullscreenenter"",""1"",""3993""
","
","
","""event"",""trial"",""time""
""fullscreenenter"",""1"",""3993""
","
","","","-1","","","12","15988","401","m","elianto","#f73b6a7A","-1","-1","1","0","[]","0","2","","","15988","30","0","4","lose","no-go","0"
"pit-trial","158","1408476","0.0-35.0","battery-v0.2","","""event"",""trial"",""time""
""fullscreenenter"",""1"",""3993""
","
","
","""event"",""trial"",""time""
""fullscreenenter"",""1"",""3993""
","
","","","810.3000001907349","","","12","15988","401","r","elianto","#3366ff99"," "," ","1","+10","[1661.6999998092651]","1","2","","","15988","31","1","1","win","go","0"
"pit-trial","159","1413334","0.0-36.0","battery-v0.2","","""event"",""trial"",""time""
""fullscreenenter"",""1"",""3993""
","
","
","""event"",""trial"",""time""
""fullscreenenter"",""1"",""3993""
","
","","","-1","","","12","15988","401","y","elianto","#f73b6a7A","-1","-1","1","0","[]","0","2","","","15988","32","2","4","lose","no-go","0"
"pit-trial","160","1418191","0.0-37.0","battery-v0.2","","""event"",""trial"",""time""
""fullscreenenter"",""1"",""3993""
","
","
","""event"",""trial"",""time""
""fullscreenenter"",""1"",""3993""
","
","","","-1","","","12","15988","401","h","elianto","#f73b6a7A"," ","-1","0","-10","[4076.5]","1","2","","","15988","33","3","3","lose","go","0"
"pit-trial","161","1421501","0.0-38.0","battery-v0.2","","""event"",""trial"",""time""
""fullscreenenter"",""1"",""3993""
","
","
","""event"",""trial"",""time""
""fullscreenenter"",""1"",""3993""
","
","","","454.69999980926514","","","12","15988","401","r","elianto","#3366ff99"," "," ","1","+10","[1306.5]","1","2","","","15988","34","1","1","win","go","0"
"pit-trial","162","1426358","0.0-39.0","battery-v0.2","","""event"",""trial"",""time""
""fullscreenenter"",""1"",""3993""
","
","
","""event"",""trial"",""time""
""fullscreenenter"",""1"",""3993""
","
","","","-1","","","12","15988","401","y","elianto","#f73b6a7A","-1","-1","1","0","[]","0","2","","","15988","35","2","4","lose","no-go","0"
"pit-trial","163","1431214","0.0-40.0","battery-v0.2","","""event"",""trial"",""time""
""fullscreenenter"",""1"",""3993""
","
","
","""event"",""trial"",""time""
""fullscreenenter"",""1"",""3993""
","
","","","-1","","","12","15988","401","m","elianto","#f73b6a7A","-1","-1","1","0","[]","0","2","","","15988","36","0","4","lose","no-go","0"
"pit-trial","164","1436071","0.0-41.0","battery-v0.2","","""event"",""trial"",""time""
""fullscreenenter"",""1"",""3993""
","
","
","""event"",""trial"",""time""
""fullscreenenter"",""1"",""3993""
","
","","","-1","","","12","15988","401","m","elianto","#f73b6a7A","-1","-1","1","-10","[]","0","2","","","15988","37","0","4","lose","no-go","1"
"pit-trial","165","1439489","0.0-42.0","battery-v0.2","","""event"",""trial"",""time""
""fullscreenenter"",""1"",""3993""
","
","
","""event"",""trial"",""time""
""fullscreenenter"",""1"",""3993""
","
","","","562.3000001907349","","","12","15988","401","r","elianto","#3366ff99"," "," ","1","+10","[1413.5]","1","2","","","15988","38","1","1","win","go","0"
"pit-trial","166","1444344","0.0-43.0","battery-v0.2","","""event"",""trial"",""time""
""fullscreenenter"",""1"",""3993""
","
","
","""event"",""trial"",""time""
""fullscreenenter"",""1"",""3993""
","
","","","-1","","","12","15988","401","h","elianto","#f73b6a7A"," ","-1","0","0","[]","0","2","","","15988","39","3","3","lose","go","1"
"pit-trial","167","1449201","0.0-44.0","battery-v0.2","","""event"",""trial"",""time""
""fullscreenenter"",""1"",""3993""
","
","
","""event"",""trial"",""time""
""fullscreenenter"",""1"",""3993""
","
","","","-1","","","12","15988","401","y","elianto","#f73b6a7A","-1","-1","1","-10","[]","0","2","","","15988","40","2","4","lose","no-go","1"
"pit-trial","168","1454058","0.0-45.0","battery-v0.2","","""event"",""trial"",""time""
""fullscreenenter"",""1"",""3993""
","
","
","""event"",""trial"",""time""
""fullscreenenter"",""1"",""3993""
","
","","","-1","","","12","15988","401","y","elianto","#f73b6a7A","-1","-1","1","0","[]","0","2","","","15988","41","2","4","lose","no-go","0"
"pit-trial","169","1458915","0.0-46.0","battery-v0.2","","""event"",""trial"",""time""
""fullscreenenter"",""1"",""3993""
","
","
","""event"",""trial"",""time""
""fullscreenenter"",""1"",""3993""
","
","","","-1","","","12","15988","401","m","elianto","#f73b6a7A","-1","-1","1","0","[]","0","2","","","15988","42","0","4","lose","no-go","0"
"pit-trial","170","1463772","0.0-47.0","battery-v0.2","","""event"",""trial"",""time""
""fullscreenenter"",""1"",""3993""
","
","
","""event"",""trial"",""time""
""fullscreenenter"",""1"",""3993""
","
","","","-1","","","12","15988","401","h","elianto","#f73b6a7A"," ","-1","0","-10","[]","0","2","","","15988","43","3","3","lose","go","0"
"pit-trial","171","1467410","0.0-48.0","battery-v0.2","","""event"",""trial"",""time""
""fullscreenenter"",""1"",""3993""
","
","
","""event"",""trial"",""time""
""fullscreenenter"",""1"",""3993""
","
","","","784.1999998092651","","","12","15988","401","r","elianto","#3366ff99"," "," ","1","+10","[1635.3000001907349]","1","2","","","15988","44","1","1","win","go","0"
"pit-trial","172","1472267","0.0-49.0","battery-v0.2","","""event"",""trial"",""time""
""fullscreenenter"",""1"",""3993""
","
","
","""event"",""trial"",""time""
""fullscreenenter"",""1"",""3993""
","
","","","-1","","","12","15988","401","h","elianto","#f73b6a7A"," ","-1","0","-10","[]","0","2","","","15988","45","3","3","lose","go","0"
"pit-trial","173","1477124","0.0-50.0","battery-v0.2","","""event"",""trial"",""time""
""fullscreenenter"",""1"",""3993""
","
","
","""event"",""trial"",""time""
""fullscreenenter"",""1"",""3993""
","
","","","-1","","","12","15988","401","m","elianto","#f73b6a7A","-1","-1","1","0","[]","0","2","","","15988","46","0","4","lose","no-go","0"
"pit-trial","174","1481982","0.0-51.0","battery-v0.2","","""event"",""trial"",""time""
""fullscreenenter"",""1"",""3993""
","
","
","""event"",""trial"",""time""
""fullscreenenter"",""1"",""3993""
","
","","","-1","","","12","15988","401","y","elianto","#f73b6a7A","-1","-1","1","0","[]","0","2","","","15988","47","2","4","lose","no-go","0"
"pit-trial","175","1485822","0.0-52.0","battery-v0.2","","""event"",""trial"",""time""
""fullscreenenter"",""1"",""3993""
","
","
","""event"",""trial"",""time""
""fullscreenenter"",""1"",""3993""
","
","","","984.5999994277954","","","12","15988","401","z","elianto","#3366ff99","-1"," ","0","0","[1834.9000005722046]","1","2","","","15988","48","4","2","win","no-go","0"
"pit-trial","176","1489986","0.0-53.0","battery-v0.2","","""event"",""trial"",""time""
""fullscreenenter"",""1"",""3993""
","
","
","""event"",""trial"",""time""
""fullscreenenter"",""1"",""3993""
","
","","","1307.0999994277954","","","12","15988","401","r","elianto","#3366ff99"," "," ","1","+10","[2158.5]","1","2","","","15988","49","1","1","win","go","0"
"pit-trial","177","1494842","0.0-54.0","battery-v0.2","","""event"",""trial"",""time""
""fullscreenenter"",""1"",""3993""
","
","
","""event"",""trial"",""time""
""fullscreenenter"",""1"",""3993""
","
","","","-1","","","12","15988","401","h","elianto","#f73b6a7A"," ","-1","0","-10","[]","0","2","","","15988","50","3","3","lose","go","0"
"pit-trial","178","1499697","0.0-55.0","battery-v0.2","","""event"",""trial"",""time""
""fullscreenenter"",""1"",""3993""
","
","
","""event"",""trial"",""time""
""fullscreenenter"",""1"",""3993""
","
","","","-1","","","12","15988","401","m","elianto","#f73b6a7A","-1","-1","1","0","[]","0","2","","","15988","51","0","4","lose","no-go","0"
"pit-trial","179","1503305","0.0-56.0","battery-v0.2","","""event"",""trial"",""time""
""fullscreenenter"",""1"",""3993""
","
","
","""event"",""trial"",""time""
""fullscreenenter"",""1"",""3993""
","
","","","752.0999994277954","","","12","15988","401","z","elianto","#3366ff99","-1"," ","0","+10","[1603.2999992370605]","1","2","","","15988","52","4","2","win","no-go","1"
"pit-trial","180","1507026","0.0-57.0","battery-v0.2","","""event"",""trial"",""time""
""fullscreenenter"",""1"",""3993""
","
","
","""event"",""trial"",""time""
""fullscreenenter"",""1"",""3993""
","
","","","865.0999994277954","","","12","15988","401","r","elianto","#3366ff99"," "," ","1","+10","[1716.3000001907349]","1","2","","","15988","53","1","1","win","go","0"
"pit-trial","181","1510882","0.0-58.0","battery-v0.2","","""event"",""trial"",""time""
""fullscreenenter"",""1"",""3993""
","
","
","""event"",""trial"",""time""
""fullscreenenter"",""1"",""3993""
","
","","","1001.1999998092651","","","12","15988","401","z","elianto","#3366ff99","-1"," ","0","0","[1852.3999996185303]","1","2","","","15988","54","4","2","win","no-go","0"
"pit-trial","182","1515739","0.0-59.0","battery-v0.2","","""event"",""trial"",""time""
""fullscreenenter"",""1"",""3993""
","
","
","""event"",""trial"",""time""
""fullscreenenter"",""1"",""3993""
","
","","","-1","","","12","15988","401","m","elianto","#f73b6a7A","-1","-1","1","0","[]","0","2","","","15988","55","0","4","lose","no-go","0"
"pit-trial","183","1519259","0.0-60.0","battery-v0.2","","""event"",""trial"",""time""
""fullscreenenter"",""1"",""3993""
","
","
","""event"",""trial"",""time""
""fullscreenenter"",""1"",""3993""
","
","","","662.8000001907349","","","12","15988","401","y","elianto","#f73b6a7A","-1"," ","0","-10","[1514.1999998092651]","1","2","","","15988","56","2","4","lose","no-go","0"
"pit-trial","184","1522703","0.0-61.0","battery-v0.2","","""event"",""trial"",""time""
""fullscreenenter"",""1"",""3993""
","
","
","""event"",""trial"",""time""
""fullscreenenter"",""1"",""3993""
","
","","","587.4000005722046","","","12","15988","401","r","elianto","#3366ff99"," "," ","1","+10","[1439.4000005722046]","1","2","","","15988","57","1","1","win","go","0"
"pit-trial","185","1527560","0.0-62.0","battery-v0.2","","""event"",""trial"",""time""
""fullscreenenter"",""1"",""3993""
","
","
","""event"",""trial"",""time""
""fullscreenenter"",""1"",""3993""
","
","","","-1","","","12","15988","401","m","elianto","#f73b6a7A","-1","-1","1","0","[]","0","2","","","15988","58","0","4","lose","no-go","0"
"pit-trial","186","1532417","0.0-63.0","battery-v0.2","","""event"",""trial"",""time""
""fullscreenenter"",""1"",""3993""
","
","
","""event"",""trial"",""time""
""fullscreenenter"",""1"",""3993""
","
","","","-1","","","12","15988","401","z","elianto","#3366ff99","-1","-1","1","+10","[4026.5999994277954]","1","2","","","15988","59","4","2","win","no-go","0"
"pit-trial","187","1537275","0.0-64.0","battery-v0.2","","""event"",""trial"",""time""
""fullscreenenter"",""1"",""3993""
","
","
","""event"",""trial"",""time""
""fullscreenenter"",""1"",""3993""
","
","","","-1","","","12","15988","401","h","elianto","#f73b6a7A"," ","-1","0","-10","[]","0","2","","","15988","60","3","3","lose","go","0"
"pit-trial","188","1542130","0.0-65.0","battery-v0.2","","""event"",""trial"",""time""
""fullscreenenter"",""1"",""3993""
","
","
","""event"",""trial"",""time""
""fullscreenenter"",""1"",""3993""
","
","","","-1","","","12","15988","401","h","elianto","#f73b6a7A"," ","-1","0","-10","[]","0","2","","","15988","61","3","3","lose","go","0"
"pit-trial","189","1546985","0.0-66.0","battery-v0.2","","""event"",""trial"",""time""
""fullscreenenter"",""1"",""3993""
","
","
","""event"",""trial"",""time""
""fullscreenenter"",""1"",""3993""
","
","","","-1","","","12","15988","401","y","elianto","#f73b6a7A","-1","-1","1","0","[]","0","2","","","15988","62","2","4","lose","no-go","0"
"pit-trial","190","1550655","0.0-67.0","battery-v0.2","","""event"",""trial"",""time""
""fullscreenenter"",""1"",""3993""
","
","
","""event"",""trial"",""time""
""fullscreenenter"",""1"",""3993""
","
","","","813.1999998092651","","","12","15988","401","r","elianto","#3366ff99"," "," ","1","+10","[1664.5]","1","2","","","15988","63","1","1","win","go","0"
"pit-trial","191","1554447","0.0-68.0","battery-v0.2","","""event"",""trial"",""time""
""fullscreenenter"",""1"",""3993""
","
","
","""event"",""trial"",""time""
""fullscreenenter"",""1"",""3993""
","
","","","935.3000001907349","","","12","15988","401","z","elianto","#3366ff99","-1"," ","0","0","[1787.3000001907349]","1","2","","","15988","64","4","2","win","no-go","0"
"pit-trial","192","1559304","0.0-69.0","battery-v0.2","","""event"",""trial"",""time""
""fullscreenenter"",""1"",""3993""
","
","
","""event"",""trial"",""time""
""fullscreenenter"",""1"",""3993""
","
","","","-1","","","12","15988","401","h","elianto","#f73b6a7A"," ","-1","0","-10","[]","0","2","","","15988","65","3","3","lose","go","0"
"pit-trial","193","1564160","0.0-70.0","battery-v0.2","","""event"",""trial"",""time""
""fullscreenenter"",""1"",""3993""
","
","
","""event"",""trial"",""time""
""fullscreenenter"",""1"",""3993""
","
","","","-1","","","12","15988","401","y","elianto","#f73b6a7A","-1","-1","1","0","[]","0","2","","","15988","66","2","4","lose","no-go","0"
"pit-trial","194","1567842","0.0-71.0","battery-v0.2","","""event"",""trial"",""time""
""fullscreenenter"",""1"",""3993""
","
","
","""event"",""trial"",""time""
""fullscreenenter"",""1"",""3993""
","
","","","827.1000003814697","","","12","15988","401","z","elianto","#3366ff99","-1"," ","0","0","[1678.5]","1","2","","","15988","67","4","2","win","no-go","0"
"pit-trial","195","1571530","0.0-72.0","battery-v0.2","","""event"",""trial"",""time""
""fullscreenenter"",""1"",""3993""
","
","
","""event"",""trial"",""time""
""fullscreenenter"",""1"",""3993""
","
","","","831.1999998092651","","","12","15988","401","r","elianto","#3366ff99"," "," ","1","+10","[1682.5]","1","2","","","15988","68","1","1","win","go","0"
"pit-trial","196","1575033","0.0-73.0","battery-v0.2","","""event"",""trial"",""time""
""fullscreenenter"",""1"",""3993""
","
","
","""event"",""trial"",""time""
""fullscreenenter"",""1"",""3993""
","
","","","647.5999994277954","","","12","15988","401","z","elianto","#3366ff99","-1"," ","0","0","[1498.1999998092651]","1","2","","","15988","69","4","2","win","no-go","0"
"pit-trial","197","1578833","0.0-74.0","battery-v0.2","","""event"",""trial"",""time""
""fullscreenenter"",""1"",""3993""
","
","
","""event"",""trial"",""time""
""fullscreenenter"",""1"",""3993""
","
","","","943.3000001907349","","","12","15988","401","r","elianto","#3366ff99"," "," ","1","+10","[1794.6999998092651]","1","2","","","15988","70","1","1","win","go","0"
"pit-trial","198","1583690","0.0-75.0","battery-v0.2","","""event"",""trial"",""time""
""fullscreenenter"",""1"",""3993""
","
","
","""event"",""trial"",""time""
""fullscreenenter"",""1"",""3993""
","
","","","-1","","","12","15988","401","h","elianto","#f73b6a7A"," ","-1","0","-10","[]","0","2","","","15988","71","3","3","lose","go","0"
"pit-trial","199","1587821","0.0-76.0","battery-v0.2","","""event"",""trial"",""time""
""fullscreenenter"",""1"",""3993""
","
","
","""event"",""trial"",""time""
""fullscreenenter"",""1"",""3993""
","
","","","1274.5999994277954","","","12","15988","401","c","elianto","#3366ff99"," "," ","1","+10","[2126.6000003814697]","1","2","","","15988","72","5","1","win","go","0"
"pit-trial","200","1591455","0.0-77.0","battery-v0.2","","""event"",""trial"",""time""
""fullscreenenter"",""1"",""3993""
","
","
","""event"",""trial"",""time""
""fullscreenenter"",""1"",""3993""
","
","","","776.5","","","12","15988","401","r","elianto","#3366ff99"," "," ","1","+10","[1628.3999996185303]","1","2","","","15988","73","1","1","win","go","0"
"pit-trial","201","1594988","0.0-78.0","battery-v0.2","","""event"",""trial"",""time""
""fullscreenenter"",""1"",""3993""
","
","
","""event"",""trial"",""time""
""fullscreenenter"",""1"",""3993""
","
","","","677.8999996185303","","","12","15988","401","c","elianto","#3366ff99"," "," ","1","+10","[1528.5]","1","2","","","15988","74","5","1","win","go","0"
"pit-trial","202","1599845","0.0-79.0","battery-v0.2","","""event"",""trial"",""time""
""fullscreenenter"",""1"",""3993""
","
","
","""event"",""trial"",""time""
""fullscreenenter"",""1"",""3993""
","
","","","-1","","","12","15988","401","h","elianto","#f73b6a7A"," ","-1","0","0","[]","0","2","","","15988","75","3","3","lose","go","1"
"pit-trial","203","1603360","0.0-80.0","battery-v0.2","","""event"",""trial"",""time""
""fullscreenenter"",""1"",""3993""
","
","
","""event"",""trial"",""time""
""fullscreenenter"",""1"",""3993""
","
","","","659.5","","","12","15988","401","z","elianto","#3366ff99","-1"," ","0","0","[1510.5]","1","2","","","15988","76","4","2","win","no-go","0"
"pit-trial","204","1607223","0.0-81.0","battery-v0.2","","""event"",""trial"",""time""
""fullscreenenter"",""1"",""3993""
","
","
","""event"",""trial"",""time""
""fullscreenenter"",""1"",""3993""
","
","","","1006.8000001907349","","","12","15988","401","z","elianto","#3366ff99","-1"," ","0","0","[1857.8000001907349]","1","2","","","15988","77","4","2","win","no-go","0"
"pit-trial","205","1610879","0.0-82.0","battery-v0.2","","""event"",""trial"",""time""
""fullscreenenter"",""1"",""3993""
","
","
","""event"",""trial"",""time""
""fullscreenenter"",""1"",""3993""
","
","","","799.6000003814697","","","12","15988","401","c","elianto","#3366ff99"," "," ","1","0","[1651.3000001907349]","1","2","","","15988","78","5","1","win","go","1"
"pit-trial","206","1615736","0.0-83.0","battery-v0.2","","""event"",""trial"",""time""
""fullscreenenter"",""1"",""3993""
","
","
","""event"",""trial"",""time""
""fullscreenenter"",""1"",""3993""
","
","","","-1","","","12","15988","401","h","elianto","#f73b6a7A"," ","-1","0","-10","[]","0","2","","","15988","79","3","3","lose","go","0"
"pit-trial","207","1620593","0.0-84.0","battery-v0.2","","""event"",""trial"",""time""
""fullscreenenter"",""1"",""3993""
","
","
","""event"",""trial"",""time""
""fullscreenenter"",""1"",""3993""
","
","","","-1","","","12","15988","401","b","elianto","#f73b6a7A","-1","-1","1","0","[]","0","2","","","15988","80","6","4","lose","no-go","0"
"pit-trial","208","1625087","0.0-85.0","battery-v0.2","","""event"",""trial"",""time""
""fullscreenenter"",""1"",""3993""
","
","
","""event"",""trial"",""time""
""fullscreenenter"",""1"",""3993""
","
","","","1638.7000007629395","","","12","15988","401","z","elianto","#3366ff99","-1"," ","0","0","[2490.1000003814697]","1","2","","","15988","81","4","2","win","no-go","0"
"pit-trial","209","1629944","0.0-86.0","battery-v0.2","","""event"",""trial"",""time""
""fullscreenenter"",""1"",""3993""
","
","
","""event"",""trial"",""time""
""fullscreenenter"",""1"",""3993""
","
","","","-1","","","12","15988","401","t","elianto","#f73b6a7A"," ","-1","0","0","[3716.699999809265]","1","2","","","15988","82","7","3","lose","go","1"
"pit-trial","210","1634801","0.0-87.0","battery-v0.2","","""event"",""trial"",""time""
""fullscreenenter"",""1"",""3993""
","
","
","""event"",""trial"",""time""
""fullscreenenter"",""1"",""3993""
","
","","","-1","","","12","15988","401","b","elianto","#f73b6a7A","-1","-1","1","0","[3648.6000003814697]","1","2","","","15988","83","6","4","lose","no-go","0"
"pit-trial","211","1638441","0.0-88.0","battery-v0.2","","""event"",""trial"",""time""
""fullscreenenter"",""1"",""3993""
","
","
","""event"",""trial"",""time""
""fullscreenenter"",""1"",""3993""
","
","","","784.6999998092651","","","12","15988","401","c","elianto","#3366ff99"," "," ","1","+10","[1635.4000005722046]","1","2","","","15988","84","5","1","win","go","0"
"pit-trial","212","1642432","0.0-89.0","battery-v0.2","","""event"",""trial"",""time""
""fullscreenenter"",""1"",""3993""
","
","
","""event"",""trial"",""time""
""fullscreenenter"",""1"",""3993""
","
","","","1134.7000007629395","","","12","15988","401","t","elianto","#f73b6a7A"," "," ","1","0","[1985.9000005722046]","1","2","","","15988","85","7","3","lose","go","0"
"pit-trial","213","1647179","0.0-90.0","battery-v0.2","","""event"",""trial"",""time""
""fullscreenenter"",""1"",""3993""
","
","
","""event"",""trial"",""time""
""fullscreenenter"",""1"",""3993""
","
","","","1891.5","","","12","15988","401","z","elianto","#3366ff99","-1"," ","0","0","[2741.8999996185303]","1","2","","","15988","86","4","2","win","no-go","0"
"pit-trial","214","1652035","0.0-91.0","battery-v0.2","","""event"",""trial"",""time""
""fullscreenenter"",""1"",""3993""
","
","
","""event"",""trial"",""time""
""fullscreenenter"",""1"",""3993""
","
","","","-1","","","12","15988","401","b","elianto","#f73b6a7A","-1","-1","1","0","[]","0","2","","","15988","87","6","4","lose","no-go","0"
"pit-trial","215","1655947","0.0-92.0","battery-v0.2","","""event"",""trial"",""time""
""fullscreenenter"",""1"",""3993""
","
","
","""event"",""trial"",""time""
""fullscreenenter"",""1"",""3993""
","
","","","1054.6000003814697","","","12","15988","401","c","elianto","#3366ff99"," "," ","1","+10","[1905.6000003814697]","1","2","","","15988","88","5","1","win","go","0"
"pit-trial","216","1660803","0.0-93.0","battery-v0.2","","""event"",""trial"",""time""
""fullscreenenter"",""1"",""3993""
","
","
","""event"",""trial"",""time""
""fullscreenenter"",""1"",""3993""
","
","","","-1","","","12","15988","401","t","elianto","#f73b6a7A"," ","-1","0","-10","[3750.300000190735]","1","2","","","15988","89","7","3","lose","go","0"
"pit-trial","217","1665661","0.0-94.0","battery-v0.2","","""event"",""trial"",""time""
""fullscreenenter"",""1"",""3993""
","
","
","""event"",""trial"",""time""
""fullscreenenter"",""1"",""3993""
","
","","","-1","","","12","15988","401","b","elianto","#f73b6a7A","-1","-1","1","0","[]","0","2","","","15988","90","6","4","lose","no-go","0"
"pit-trial","218","1669875","0.0-95.0","battery-v0.2","","""event"",""trial"",""time""
""fullscreenenter"",""1"",""3993""
","
","
","""event"",""trial"",""time""
""fullscreenenter"",""1"",""3993""
","
","","","1358.1999998092651","","","12","15988","401","z","elianto","#3366ff99","-1"," ","0","0","[2209.5]","1","2","","","15988","91","4","2","win","no-go","0"
"pit-trial","219","1673969","0.0-96.0","battery-v0.2","","""event"",""trial"",""time""
""fullscreenenter"",""1"",""3993""
","
","
","""event"",""trial"",""time""
""fullscreenenter"",""1"",""3993""
","
","","","1237.3000001907349","","","12","15988","401","c","elianto","#3366ff99"," "," ","1","+10","[2089]","1","2","","","15988","92","5","1","win","go","0"
"pit-trial","220","1678826","0.0-97.0","battery-v0.2","","""event"",""trial"",""time""
""fullscreenenter"",""1"",""3993""
","
","
","""event"",""trial"",""time""
""fullscreenenter"",""1"",""3993""
","
","","","-1","","","12","15988","401","t","elianto","#f73b6a7A"," ","-1","0","-10","[]","0","2","","","15988","93","7","3","lose","go","0"
"pit-trial","221","1683682","0.0-98.0","battery-v0.2","","""event"",""trial"",""time""
""fullscreenenter"",""1"",""3993""
","
","
","""event"",""trial"",""time""
""fullscreenenter"",""1"",""3993""
","
","","","-1","","","12","15988","401","c","elianto","#3366ff99"," ","-1","0","0","[]","0","2","","","15988","94","5","1","win","go","0"
"pit-trial","222","1687113","0.0-99.0","battery-v0.2","","""event"",""trial"",""time""
""fullscreenenter"",""1"",""3993""
","
","
","""event"",""trial"",""time""
""fullscreenenter"",""1"",""3993""
","
","","","576.6000003814697","","","12","15988","401","f","elianto","#3366ff99","-1"," ","0","0","[1427.3000001907349]","1","2","","","15988","95","8","2","win","no-go","0"
"pit-trial","223","1691969","0.0-100.0","battery-v0.2","","""event"",""trial"",""time""
""fullscreenenter"",""1"",""3993""
","
","
","""event"",""trial"",""time""
""fullscreenenter"",""1"",""3993""
","
","","","-1","","","12","15988","401","b","elianto","#f73b6a7A","-1","-1","1","-10","[]","0","2","","","15988","96","6","4","lose","no-go","1"
"pit-trial","224","1696825","0.0-101.0","battery-v0.2","","""event"",""trial"",""time""
""fullscreenenter"",""1"",""3993""
","
","
","""event"",""trial"",""time""
""fullscreenenter"",""1"",""3993""
","
","","","-1","","","12","15988","401","b","elianto","#f73b6a7A","-1","-1","1","0","[]","0","2","","","15988","97","6","4","lose","no-go","0"
"pit-trial","225","1701681","0.0-102.0","battery-v0.2","","""event"",""trial"",""time""
""fullscreenenter"",""1"",""3993""
","
","
","""event"",""trial"",""time""
""fullscreenenter"",""1"",""3993""
","
","","","-1","","","12","15988","401","t","elianto","#f73b6a7A"," ","-1","0","-10","[]","0","2","","","15988","98","7","3","lose","go","0"
"pit-trial","226","1704997","0.0-103.0","battery-v0.2","","""event"",""trial"",""time""
""fullscreenenter"",""1"",""3993""
","
","
","""event"",""trial"",""time""
""fullscreenenter"",""1"",""3993""
","
","","","458.9000005722046","","","12","15988","401","c","elianto","#3366ff99"," "," ","1","+10","[1309.9000005722046]","1","2","","","15988","99","5","1","win","go","0"
"pit-trial","227","1708272","0.0-104.0","battery-v0.2","","""event"",""trial"",""time""
""fullscreenenter"",""1"",""3993""
","
","
","""event"",""trial"",""time""
""fullscreenenter"",""1"",""3993""
","
","","","420.4000005722046","","","12","15988","401","f","elianto","#3366ff99","-1"," ","0","0","[1270.7000007629395,2227.2000007629395]","2","2","","","15988","100","8","2","win","no-go","0"
"pit-trial","228","1711991","0.0-105.0","battery-v0.2","","""event"",""trial"",""time""
""fullscreenenter"",""1"",""3993""
","
","
","""event"",""trial"",""time""
""fullscreenenter"",""1"",""3993""
","
","","","862.1999998092651","","","12","15988","401","b","elianto","#f73b6a7A","-1"," ","0","0","[1713.5]","1","2","","","15988","101","6","4","lose","no-go","1"
"pit-trial","229","1715449","0.0-106.0","battery-v0.2","","""event"",""trial"",""time""
""fullscreenenter"",""1"",""3993""
","
","
","""event"",""trial"",""time""
""fullscreenenter"",""1"",""3993""
","
","","","601.7999992370605","","","12","15988","401","n","elianto","#3366ff99","-1"," ","0","0","[1453.3000001907349]","1","2","","","15988","102","9","2","win","no-go","0"
"pit-trial","230","1719391","0.0-107.0","battery-v0.2","","""event"",""trial"",""time""
""fullscreenenter"",""1"",""3993""
","
","
","""event"",""trial"",""time""
""fullscreenenter"",""1"",""3993""
","
","","","1085.3999996185303","","","12","15988","401","f","elianto","#3366ff99","-1"," ","0","0","[1935.6999998092651]","1","2","","","15988","103","8","2","win","no-go","0"
"pit-trial","231","1723404","0.0-108.0","battery-v0.2","","""event"",""trial"",""time""
""fullscreenenter"",""1"",""3993""
","
","
","""event"",""trial"",""time""
""fullscreenenter"",""1"",""3993""
","
","","","1158.0999994277954","","","12","15988","401","c","elianto","#3366ff99"," "," ","1","+10","[2009.5]","1","2","","","15988","104","5","1","win","go","0"
"pit-trial","232","1727438","0.0-109.0","battery-v0.2","","""event"",""trial"",""time""
""fullscreenenter"",""1"",""3993""
","
","
","""event"",""trial"",""time""
""fullscreenenter"",""1"",""3993""
","
","","","1176.6999998092651","","","12","15988","401","c","elianto","#3366ff99"," "," ","1","+10","[2028.1000003814697]","1","2","","","15988","105","5","1","win","go","0"
"pit-trial","233","1732275","0.0-110.0","battery-v0.2","","""event"",""trial"",""time""
""fullscreenenter"",""1"",""3993""
","
","
","""event"",""trial"",""time""
""fullscreenenter"",""1"",""3993""
","
","","","1980","","","12","15988","401","f","elianto","#3366ff99","-1"," ","0","0","[2831.9000005722046]","1","2","","","15988","106","8","2","win","no-go","0"
"pit-trial","234","1737099","0.0-111.0","battery-v0.2","","""event"",""trial"",""time""
""fullscreenenter"",""1"",""3993""
","
","
","""event"",""trial"",""time""
""fullscreenenter"",""1"",""3993""
","
","","","1968","","","12","15988","401","b","elianto","#f73b6a7A","-1"," ","0","-10","[2819.9000005722046]","1","2","","","15988","107","6","4","lose","no-go","0"
"pit-trial","235","1740435","0.0-112.0","battery-v0.2","","""event"",""trial"",""time""
""fullscreenenter"",""1"",""3993""
","
","
","""event"",""trial"",""time""
""fullscreenenter"",""1"",""3993""
","
","","","480.80000019073486","","","12","15988","401","n","elianto","#3366ff99","-1"," ","0","0","[1331.6000003814697]","1","2","","","15988","108","9","2","win","no-go","0"
"pit-trial","236","1743950","0.0-113.0","battery-v0.2","","""event"",""trial"",""time""
""fullscreenenter"",""1"",""3993""
","
","
","""event"",""trial"",""time""
""fullscreenenter"",""1"",""3993""
","
","","","657.6000003814697","","","12","15988","401","c","elianto","#3366ff99"," "," ","1","0","[1509]","1","2","","","15988","109","5","1","win","go","1"
"pit-trial","237","1748806","0.0-114.0","battery-v0.2","","""event"",""trial"",""time""
""fullscreenenter"",""1"",""3993""
","
","
","""event"",""trial"",""time""
""fullscreenenter"",""1"",""3993""
","
","","","-1","","","12","15988","401","b","elianto","#f73b6a7A","-1","-1","1","0","[]","0","2","","","15988","110","6","4","lose","no-go","0"
"pit-trial","238","1752608","0.0-115.0","battery-v0.2","","""event"",""trial"",""time""
""fullscreenenter"",""1"",""3993""
","
","
","""event"",""trial"",""time""
""fullscreenenter"",""1"",""3993""
","
","","","945.9000005722046","","","12","15988","401","n","elianto","#3366ff99","-1"," ","0","0","[1797.8999996185303]","1","2","","","15988","111","9","2","win","no-go","0"
"pit-trial","239","1756041","0.0-116.0","battery-v0.2","","""event"",""trial"",""time""
""fullscreenenter"",""1"",""3993""
","
","
","""event"",""trial"",""time""
""fullscreenenter"",""1"",""3993""
","
","","","577","","","12","15988","401","f","elianto","#3366ff99","-1"," ","0","0","[1427.8999996185303]","1","2","","","15988","112","8","2","win","no-go","0"
"pit-trial","240","1760898","0.0-117.0","battery-v0.2","","""event"",""trial"",""time""
""fullscreenenter"",""1"",""3993""
","
","
","""event"",""trial"",""time""
""fullscreenenter"",""1"",""3993""
","
","","","-1","","","12","15988","401","t","elianto","#f73b6a7A"," ","-1","0","0","[]","0","2","","","15988","113","7","3","lose","go","1"
"pit-trial","241","1764450","0.0-118.0","battery-v0.2","","""event"",""trial"",""time""
""fullscreenenter"",""1"",""3993""
","
","
","""event"",""trial"",""time""
""fullscreenenter"",""1"",""3993""
","
","","","699","","","12","15988","401","n","elianto","#3366ff99","-1"," ","0","0","[1549]","1","2","","","15988","114","9","2","win","no-go","0"
"pit-trial","242","1768091","0.0-119.0","battery-v0.2","","""event"",""trial"",""time""
""fullscreenenter"",""1"",""3993""
","
","
","""event"",""trial"",""time""
""fullscreenenter"",""1"",""3993""
","
","","","785","","","12","15988","401","c","elianto","#3366ff99"," "," ","1","0","[1635.9000005722046]","1","2","","","15988","115","5","1","win","go","1"
"pit-trial","243","1771823","0.0-120.0","battery-v0.2","","""event"",""trial"",""time""
""fullscreenenter"",""1"",""3993""
","
","
","""event"",""trial"",""time""
""fullscreenenter"",""1"",""3993""
","
","","","875.6000003814697","","","12","15988","401","f","elianto","#3366ff99","-1"," ","0","0","[1727.1000003814697]","1","2","","","15988","116","8","2","win","no-go","0"
"pit-trial","244","1776679","0.0-121.0","battery-v0.2","","""event"",""trial"",""time""
""fullscreenenter"",""1"",""3993""
","
","
","""event"",""trial"",""time""
""fullscreenenter"",""1"",""3993""
","
","","","-1","","","12","15988","401","b","elianto","#f73b6a7A","-1","-1","1","0","[]","0","2","","","15988","117","6","4","lose","no-go","0"
"pit-trial","245","1780048","0.0-122.0","battery-v0.2","","""event"",""trial"",""time""
""fullscreenenter"",""1"",""3993""
","
","
","""event"",""trial"",""time""
""fullscreenenter"",""1"",""3993""
","
","","","513.3999996185303","","","12","15988","401","f","elianto","#3366ff99","-1"," ","0","0","[1364]","1","2","","","15988","118","8","2","win","no-go","0"
"pit-trial","246","1784905","0.0-123.0","battery-v0.2","","""event"",""trial"",""time""
""fullscreenenter"",""1"",""3993""
","
","
","""event"",""trial"",""time""
""fullscreenenter"",""1"",""3993""
","
","","","-1","","","12","15988","401","n","elianto","#3366ff99","-1","-1","1","+10","[]","0","2","","","15988","119","9","2","win","no-go","0"
"pit-trial","247","1789762","0.0-124.0","battery-v0.2","","""event"",""trial"",""time""
""fullscreenenter"",""1"",""3993""
","
","
","""event"",""trial"",""time""
""fullscreenenter"",""1"",""3993""
","
","","","-1","","","12","15988","401","c","elianto","#3366ff99"," ","-1","0","0","[]","0","2","","","15988","120","5","1","win","go","0"
"pit-trial","248","1793107","0.0-125.0","battery-v0.2","","""event"",""trial"",""time""
""fullscreenenter"",""1"",""3993""
","
","
","""event"",""trial"",""time""
""fullscreenenter"",""1"",""3993""
","
","","","488.6000003814697","","","12","15988","401","f","elianto","#3366ff99","-1"," ","0","+10","[1339.6999998092651]","1","2","","","15988","121","8","2","win","no-go","1"
"pit-trial","249","1796670","0.0-126.0","battery-v0.2","","""event"",""trial"",""time""
""fullscreenenter"",""1"",""3993""
","
","
","""event"",""trial"",""time""
""fullscreenenter"",""1"",""3993""
","
","","","705.6000003814697","","","12","15988","401","n","elianto","#3366ff99","-1"," ","0","0","[1557.3000001907349]","1","2","","","15988","122","9","2","win","no-go","0"
"pit-trial","250","1800763","0.0-127.0","battery-v0.2","","""event"",""trial"",""time""
""fullscreenenter"",""1"",""3993""
","
","
","""event"",""trial"",""time""
""fullscreenenter"",""1"",""3993""
","
","","","1235.8999996185303","","","12","15988","401","c","elianto","#3366ff99"," "," ","1","+10","[2087.6000003814697]","1","2","","","15988","123","5","1","win","go","0"
"pit-trial","251","1805620","0.0-128.0","battery-v0.2","","""event"",""trial"",""time""
""fullscreenenter"",""1"",""3993""
","
","
","""event"",""trial"",""time""
""fullscreenenter"",""1"",""3993""
","
","","","-1","","","12","15988","401","t","elianto","#f73b6a7A"," ","-1","0","-10","[]","0","2","","","15988","124","7","3","lose","go","0"
"pit-trial","252","1810477","0.0-129.0","battery-v0.2","","""event"",""trial"",""time""
""fullscreenenter"",""1"",""3993""
","
","
","""event"",""trial"",""time""
""fullscreenenter"",""1"",""3993""
","
","","","-1","","","12","15988","401","b","elianto","#f73b6a7A","-1","-1","1","-10","[]","0","2","","","15988","125","6","4","lose","no-go","1"
"pit-trial","253","1814753","0.0-130.0","battery-v0.2","","""event"",""trial"",""time""
""fullscreenenter"",""1"",""3993""
","
","
","""event"",""trial"",""time""
""fullscreenenter"",""1"",""3993""
","
","","","1420.1999998092651","","","12","15988","401","f","elianto","#3366ff99","-1"," ","0","0","[2270.5]","1","2","","","15988","126","8","2","win","no-go","0"
"pit-trial","254","1819611","0.0-131.0","battery-v0.2","","""event"",""trial"",""time""
""fullscreenenter"",""1"",""3993""
","
","
","""event"",""trial"",""time""
""fullscreenenter"",""1"",""3993""
","
","","","-1","","","12","15988","401","t","elianto","#f73b6a7A"," ","-1","0","-10","[4324.199999809265]","1","2","","","15988","127","7","3","lose","go","0"
"pit-trial","255","1823572","0.0-132.0","battery-v0.2","","""event"",""trial"",""time""
""fullscreenenter"",""1"",""3993""
","
","
","""event"",""trial"",""time""
""fullscreenenter"",""1"",""3993""
","
","","","1106","","","12","15988","401","n","elianto","#3366ff99","-1"," ","0","0","[1956.1999998092651]","1","2","","","15988","128","9","2","win","no-go","0"
"pit-trial","256","1827870","0.0-133.0","battery-v0.2","","""event"",""trial"",""time""
""fullscreenenter"",""1"",""3993""
","
","
","""event"",""trial"",""time""
""fullscreenenter"",""1"",""3993""
","
","","","1442.6999998092651","","","12","15988","401","t","elianto","#f73b6a7A"," "," ","1","-10","[2293.300000190735]","1","2","","","15988","129","7","3","lose","go","1"
"pit-trial","257","1831862","0.0-134.0","battery-v0.2","","""event"",""trial"",""time""
""fullscreenenter"",""1"",""3993""
","
","
","""event"",""trial"",""time""
""fullscreenenter"",""1"",""3993""
","
","","","1136.0999994277954","","","12","15988","401","b","elianto","#f73b6a7A","-1"," ","0","0","[1987.6999998092651]","1","2","","","15988","130","6","4","lose","no-go","1"
"pit-trial","258","1835572","0.0-135.0","battery-v0.2","","""event"",""trial"",""time""
""fullscreenenter"",""1"",""3993""
","
","
","""event"",""trial"",""time""
""fullscreenenter"",""1"",""3993""
","
","","","852.6000003814697","","","12","15988","401","n","elianto","#3366ff99","-1"," ","0","0","[1704]","1","2","","","15988","131","9","2","win","no-go","0"
"pit-trial","259","1838891","0.0-136.0","battery-v0.2","","""event"",""trial"",""time""
""fullscreenenter"",""1"",""3993""
","
","
","""event"",""trial"",""time""
""fullscreenenter"",""1"",""3993""
","
","","","462.80000019073486","","","12","15988","401","f","elianto","#3366ff99","-1"," ","0","0","[1314.3000001907349]","1","2","","","15988","132","8","2","win","no-go","0"
"pit-trial","260","1843747","0.0-137.0","battery-v0.2","","""event"",""trial"",""time""
""fullscreenenter"",""1"",""3993""
","
","
","""event"",""trial"",""time""
""fullscreenenter"",""1"",""3993""
","
","","","-1","","","12","15988","401","t","elianto","#f73b6a7A"," ","-1","0","0","[]","0","2","","","15988","133","7","3","lose","go","1"
"pit-trial","261","1848603","0.0-138.0","battery-v0.2","","""event"",""trial"",""time""
""fullscreenenter"",""1"",""3993""
","
","
","""event"",""trial"",""time""
""fullscreenenter"",""1"",""3993""
","
","","","-1","","","12","15988","401","b","elianto","#f73b6a7A","-1","-1","1","-10","[]","0","2","","","15988","134","6","4","lose","no-go","1"
"pit-trial","262","1852100","0.0-139.0","battery-v0.2","","""event"",""trial"",""time""
""fullscreenenter"",""1"",""3993""
","
","
","""event"",""trial"",""time""
""fullscreenenter"",""1"",""3993""
","
","","","641.6000003814697","","","12","15988","401","n","elianto","#3366ff99","-1"," ","0","0","[1493]","1","2","","","15988","135","9","2","win","no-go","0"
"pit-trial","263","1855754","0.0-140.0","battery-v0.2","","""event"",""trial"",""time""
""fullscreenenter"",""1"",""3993""
","
","
","""event"",""trial"",""time""
""fullscreenenter"",""1"",""3993""
","
","","","798","","","12","15988","401","f","elianto","#3366ff99","-1"," ","0","0","[1648.6999998092651,2761]","2","2","","","15988","136","8","2","win","no-go","0"
"pit-trial","264","1859058","0.0-141.0","battery-v0.2","","""event"",""trial"",""time""
