"trial_type","trial_index","time_elapsed","internal_node_id","task_version","subject_id","interactions","blur_events","focus_events","fullscreenenter_events","fullscreenexit_events","success","view_history","rt","responses","num_errors","age","subject","participantId","rune","rune_set","hex","correct","choice","accuracy","outcome","keys","total_keys","block","practice","value","sub","trial","stimulus","robot","valence","action","sham"
"pavlovia","0","16","0.0-0.0","battery-v0.2","","""event"",""trial"",""time""
""fullscreenenter"",""1"",""2015""
","
","
","""event"",""trial"",""time""
""fullscreenenter"",""1"",""2015""
","
","","","","","","","","","","","","","","","","","","","","","","","","","","",""
"fullscreen","1","3001","0.0-1.0","battery-v0.2","","""event"",""trial"",""time""
""fullscreenenter"",""1"",""2015""
","
","
","""event"",""trial"",""time""
""fullscreenenter"",""1"",""2015""
","
","true","","","","","","","","","","","","","","","","","","","","","","","","","",""
"pit-instructions","2","10131","0.0-2.0-0.0","battery-v0.2","","""event"",""trial"",""time""
""fullscreenenter"",""1"",""2015""
","
","
","""event"",""trial"",""time""
""fullscreenenter"",""1"",""2015""
","
","","[{""page_index"":0,""viewing_time"":7124.300000190735}]","7125.100000143051","","","","","","","","","","","","","","","","","","","","","","","",""
"pit-comprehension","3","13057","0.0-2.0-1.0-0.0","battery-v0.2","","""event"",""trial"",""time""
""fullscreenenter"",""1"",""2015""
","
","
","""event"",""trial"",""time""
""fullscreenenter"",""1"",""2015""
","
","","","2922.2000000476837","[""shark""]","0","23","14971","6123","","","","","","","","","","","","","","","","","","",""
"pit-instructions","4","14298","0.0-2.0-1.0-1.0","battery-v0.2","","""event"",""trial"",""time""
""fullscreenenter"",""1"",""2015""
","
","
","""event"",""trial"",""time""
""fullscreenenter"",""1"",""2015""
","
","","[{""page_index"":0,""viewing_time"":1233.4000000953674}]","1234.2000000476837","","","","","","","","","","","","","","","","","","","","","","","",""
"pit-comprehension","5","16830","0.0-2.0-2.0-0.0","battery-v0.2","","""event"",""trial"",""time""
""fullscreenenter"",""1"",""2015""
","
","
","""event"",""trial"",""time""
""fullscreenenter"",""1"",""2015""
","
","","","2526.5","[""tiger""]","0","23","14971","6123","","","","","","","","","","","","","","","","","","",""
"pit-instructions","6","18914","0.0-2.0-2.0-1.0","battery-v0.2","","""event"",""trial"",""time""
""fullscreenenter"",""1"",""2015""
","
","
","""event"",""trial"",""time""
""fullscreenenter"",""1"",""2015""
","
","","[{""page_index"":0,""viewing_time"":2079.2999999523163}]","2080","","","","","","","","","","","","","","","","","","","","","","","",""
"pit-instructions","7","117848","0.0-2.0-3.0","battery-v0.2","","""event"",""trial"",""time""
""fullscreenenter"",""1"",""2015""
","
","
","""event"",""trial"",""time""
""fullscreenenter"",""1"",""2015""
","
","","[{""page_index"":0,""viewing_time"":8112},{""page_index"":1,""viewing_time"":5733.5},{""page_index"":2,""viewing_time"":7367.099999904633},{""page_index"":3,""viewing_time"":5799.400000095367},{""page_index"":4,""viewing_time"":5816.700000047684},{""page_index"":5,""viewing_time"":5285.799999952316},{""page_index"":6,""viewing_time"":6581.700000047684},{""page_index"":7,""viewing_time"":7000.5},{""page_index"":8,""viewing_time"":7150.299999952316},{""page_index"":9,""viewing_time"":13649},{""page_index"":10,""viewing_time"":8217.899999856949},{""page_index"":11,""viewing_time"":7133.800000190735},{""page_index"":12,""viewing_time"":6248.099999904633},{""page_index"":13,""viewing_time"":4835.5}]","98932.20000004768","","","","","","","","","","","","","","","","","","","","","","","",""
"pit-trial","8","121617","0.0-2.0-4.0-0.0","battery-v0.2","","""event"",""trial"",""time""
""fullscreenenter"",""1"",""2015""
","
","
","""event"",""trial"",""time""
""fullscreenenter"",""1"",""2015""
","
","","","910.3999998569489","","","23","14971","6123","&#9784;","elianto","#FFFFF080"," "," ","1","&#10004","[1761.8999998569489]","1","0","0","","","","","","","",""
"pit-trial","9","125156","0.0-2.0-4.1-0.1","battery-v0.2","","""event"",""trial"",""time""
""fullscreenenter"",""1"",""2015""
","
","
","""event"",""trial"",""time""
""fullscreenenter"",""1"",""2015""
","
","","","677.2000000476837","","","23","14971","6123","&#9784;","elianto","#FFFFF080"," "," ","1","&#10004","[1527.5]","1","0","0","","","","","","","",""
"pit-trial","10","128635","0.0-2.0-4.2-0.2","battery-v0.2","","""event"",""trial"",""time""
""fullscreenenter"",""1"",""2015""
","
","
","""event"",""trial"",""time""
""fullscreenenter"",""1"",""2015""
","
","","","619.5999999046326","","","23","14971","6123","&#9784;","elianto","#FFFFF080"," "," ","1","&#10004","[1471.4000000953674]","1","0","0","","","","","","","",""
"pit-trial","11","132031","0.0-2.0-4.3-0.3","battery-v0.2","","""event"",""trial"",""time""
""fullscreenenter"",""1"",""2015""
","
","
","""event"",""trial"",""time""
""fullscreenenter"",""1"",""2015""
","
","","","534.5","","","23","14971","6123","&#9784;","elianto","#FFFFF080"," "," ","1","&#10004","[1386.2999999523163]","1","0","0","","","","","","","",""
"pit-trial","12","135440","0.0-2.0-4.4-0.4","battery-v0.2","","""event"",""trial"",""time""
""fullscreenenter"",""1"",""2015""
","
","
","""event"",""trial"",""time""
""fullscreenenter"",""1"",""2015""
","
","","","549.4000000953674","","","23","14971","6123","&#9784;","elianto","#FFFFF080"," "," ","1","&#10004","[1399.8999998569489]","1","0","0","","","","","","","",""
"pit-instructions","13","158464","0.0-2.0-5.0","battery-v0.2","","""event"",""trial"",""time""
""fullscreenenter"",""1"",""2015""
","
","
","""event"",""trial"",""time""
""fullscreenenter"",""1"",""2015""
","
","","[{""page_index"":0,""viewing_time"":4805},{""page_index"":1,""viewing_time"":6380.799999952316},{""page_index"":2,""viewing_time"":5100.300000190735},{""page_index"":3,""viewing_time"":6732.799999952316}]","23019.799999952316","","","","","","","","","","","","","","","","","","","","","","","",""
"pit-trial","14","163325","0.0-2.0-6.0-0.0","battery-v0.2","","""event"",""trial"",""time""
""fullscreenenter"",""1"",""2015""
","
","
","""event"",""trial"",""time""
""fullscreenenter"",""1"",""2015""
","
","","","-1","","","23","14971","6123","&#9854;","elianto","#FFFFF080","-1","-1","1","&#10004","[]","0","0","1","","","","","","","",""
"pit-trial","15","168189","0.0-2.0-6.1-0.1","battery-v0.2","","""event"",""trial"",""time""
""fullscreenenter"",""1"",""2015""
","
","
","""event"",""trial"",""time""
""fullscreenenter"",""1"",""2015""
","
","","","-1","","","23","14971","6123","&#9854;","elianto","#FFFFF080","-1","-1","1","&#10004","[]","0","0","1","","","","","","","",""
"pit-trial","16","173054","0.0-2.0-6.2-0.2","battery-v0.2","","""event"",""trial"",""time""
""fullscreenenter"",""1"",""2015""
","
","
","""event"",""trial"",""time""
""fullscreenenter"",""1"",""2015""
","
","","","-1","","","23","14971","6123","&#9854;","elianto","#FFFFF080","-1","-1","1","&#10004","[]","0","0","1","","","","","","","",""
"pit-trial","17","177919","0.0-2.0-6.3-0.3","battery-v0.2","","""event"",""trial"",""time""
""fullscreenenter"",""1"",""2015""
","
","
","""event"",""trial"",""time""
""fullscreenenter"",""1"",""2015""
","
","","","-1","","","23","14971","6123","&#9854;","elianto","#FFFFF080","-1","-1","1","&#10004","[]","0","0","1","","","","","","","",""
"pit-trial","18","182782","0.0-2.0-6.4-0.4","battery-v0.2","","""event"",""trial"",""time""
""fullscreenenter"",""1"",""2015""
","
","
","""event"",""trial"",""time""
""fullscreenenter"",""1"",""2015""
","
","","","-1","","","23","14971","6123","&#9854;","elianto","#FFFFF080","-1","-1","1","&#10004","[]","0","0","1","","","","","","","",""
"pit-instructions","19","298230","0.0-2.0-7.0","battery-v0.2","","""event"",""trial"",""time""
""fullscreenenter"",""1"",""2015""
","
","
","""event"",""trial"",""time""
""fullscreenenter"",""1"",""2015""
","
","","[{""page_index"":0,""viewing_time"":5777},{""page_index"":1,""viewing_time"":7433.5},{""page_index"":2,""viewing_time"":7200.400000095367},{""page_index"":3,""viewing_time"":6616},{""page_index"":4,""viewing_time"":5567.599999904633},{""page_index"":5,""viewing_time"":5599.200000047684},{""page_index"":6,""viewing_time"":4550},{""page_index"":7,""viewing_time"":7235.099999904633},{""page_index"":8,""viewing_time"":7015.200000047684},{""page_index"":9,""viewing_time"":5667},{""page_index"":10,""viewing_time"":6116.799999952316},{""page_index"":11,""viewing_time"":5250.400000095367},{""page_index"":12,""viewing_time"":6966.5},{""page_index"":13,""viewing_time"":6900.700000047684},{""page_index"":14,""viewing_time"":6799.599999904633},{""page_index"":15,""viewing_time"":6951.099999904633},{""page_index"":16,""viewing_time"":6383.300000190735},{""page_index"":17,""viewing_time"":7416.099999904633}]","115446.09999990463","","","","","","","","","","","","","","","","","","","","","","","",""
"pit-trial","20","302402","0.0-2.0-8.0-0.0","battery-v0.2","","""event"",""trial"",""time""
""fullscreenenter"",""1"",""2015""
","
","
","""event"",""trial"",""time""
""fullscreenenter"",""1"",""2015""
","
","","","1314.7999999523163","","","23","14971","6123","&#9776;","elianto","#3366ff99"," "," ","1","+10","[2166.600000143051]","1","0","1","","","","","","","",""
"pit-trial","21","305685","0.0-2.0-8.0-1.0","battery-v0.2","","""event"",""trial"",""time""
""fullscreenenter"",""1"",""2015""
","
","
","""event"",""trial"",""time""
""fullscreenenter"",""1"",""2015""
","
","","","424.69999980926514","","","23","14971","6123","&#9776;","elianto","#3366ff99"," "," ","1","+10","[1276.0999999046326]","1","0","1","","","","","","","",""
"pit-trial","22","308903","0.0-2.0-8.0-2.0","battery-v0.2","","""event"",""trial"",""time""
""fullscreenenter"",""1"",""2015""
","
","
","""event"",""trial"",""time""
""fullscreenenter"",""1"",""2015""
","
","","","359","","","23","14971","6123","&#9776;","elianto","#3366ff99"," "," ","1","+10","[1211]","1","0","1","","","","","","","",""
"pit-trial","23","312113","0.0-2.0-8.0-3.0","battery-v0.2","","""event"",""trial"",""time""
""fullscreenenter"",""1"",""2015""
","
","
","""event"",""trial"",""time""
""fullscreenenter"",""1"",""2015""
","
","","","348.60000014305115","","","23","14971","6123","&#9776;","elianto","#3366ff99"," "," ","1","0","[1200.9000000953674]","1","0","1","","","","","","","",""
"pit-trial","24","315357","0.0-2.0-8.0-4.0","battery-v0.2","","""event"",""trial"",""time""
""fullscreenenter"",""1"",""2015""
","
","
","""event"",""trial"",""time""
""fullscreenenter"",""1"",""2015""
","
","","","387.2999999523163","","","23","14971","6123","&#9776;","elianto","#3366ff99"," "," ","1","+10","[1237.7000000476837]","1","0","1","","","","","","","",""
"pit-trial","25","318631","0.0-2.0-8.1-0.1","battery-v0.2","","""event"",""trial"",""time""
""fullscreenenter"",""1"",""2015""
","
","
","""event"",""trial"",""time""
""fullscreenenter"",""1"",""2015""
","
","","","415.19999980926514","","","23","14971","6123","&#9776;","elianto","#3366ff99"," "," ","1","+10","[1267.9000000953674]","1","0","1","","","","","","","",""
"pit-trial","26","321839","0.0-2.0-8.1-1.1","battery-v0.2","","""event"",""trial"",""time""
""fullscreenenter"",""1"",""2015""
","
","
","""event"",""trial"",""time""
""fullscreenenter"",""1"",""2015""
","
","","","350.5","","","23","14971","6123","&#9776;","elianto","#3366ff99"," "," ","1","+10","[1201.7000000476837]","1","0","1","","","","","","","",""
"pit-trial","27","324936","0.0-2.0-8.1-2.1","battery-v0.2","","""event"",""trial"",""time""
""fullscreenenter"",""1"",""2015""
","
","
","""event"",""trial"",""time""
""fullscreenenter"",""1"",""2015""
","
","","","240.79999995231628","","","23","14971","6123","&#9776;","elianto","#3366ff99"," "," ","1","+10","[1091.5999999046326]","1","0","1","","","","","","","",""
"pit-trial","28","328131","0.0-2.0-8.1-3.1","battery-v0.2","","""event"",""trial"",""time""
""fullscreenenter"",""1"",""2015""
","
","
","""event"",""trial"",""time""
""fullscreenenter"",""1"",""2015""
","
","","","337.2000000476837","","","23","14971","6123","&#9776;","elianto","#3366ff99"," "," ","1","0","[1188.7000000476837]","1","0","1","","","","","","","",""
"pit-trial","29","331314","0.0-2.0-8.1-4.1","battery-v0.2","","""event"",""trial"",""time""
""fullscreenenter"",""1"",""2015""
","
","
","""event"",""trial"",""time""
""fullscreenenter"",""1"",""2015""
","
","","","327.7000000476837","","","23","14971","6123","&#9776;","elianto","#3366ff99"," "," ","1","+10","[1178.7000000476837]","1","0","1","","","","","","","",""
"pit-trial","30","334499","0.0-2.0-8.2-0.2","battery-v0.2","","""event"",""trial"",""time""
""fullscreenenter"",""1"",""2015""
","
","
","""event"",""trial"",""time""
""fullscreenenter"",""1"",""2015""
","
","","","325.7000000476837","","","23","14971","6123","&#9776;","elianto","#3366ff99"," "," ","1","+10","[1176.3999998569489]","1","0","1","","","","","","","",""
"pit-trial","31","337705","0.0-2.0-8.2-1.2","battery-v0.2","","""event"",""trial"",""time""
""fullscreenenter"",""1"",""2015""
","
","
","""event"",""trial"",""time""
""fullscreenenter"",""1"",""2015""
","
","","","346.60000014305115","","","23","14971","6123","&#9776;","elianto","#3366ff99"," "," ","1","+10","[1197.2000000476837]","1","0","1","","","","","","","",""
"pit-trial","32","340865","0.0-2.0-8.2-2.2","battery-v0.2","","""event"",""trial"",""time""
""fullscreenenter"",""1"",""2015""
","
","
","""event"",""trial"",""time""
""fullscreenenter"",""1"",""2015""
","
","","","299.39999985694885","","","23","14971","6123","&#9776;","elianto","#3366ff99"," "," ","1","+10","[1151.5]","1","0","1","","","","","","","",""
"pit-trial","33","344038","0.0-2.0-8.2-3.2","battery-v0.2","","""event"",""trial"",""time""
""fullscreenenter"",""1"",""2015""
","
","
","""event"",""trial"",""time""
""fullscreenenter"",""1"",""2015""
","
","","","314.7999999523163","","","23","14971","6123","&#9776;","elianto","#3366ff99"," "," ","1","0","[1165.2000000476837]","1","0","1","","","","","","","",""
"pit-trial","34","347248","0.0-2.0-8.2-4.2","battery-v0.2","","""event"",""trial"",""time""
""fullscreenenter"",""1"",""2015""
","
","
","""event"",""trial"",""time""
""fullscreenenter"",""1"",""2015""
","
","","","354.59999990463257","","","23","14971","6123","&#9776;","elianto","#3366ff99"," "," ","1","+10","[1206.7999999523163]","1","0","1","","","","","","","",""
"call-function","35","347252","0.0-2.0-9.0","battery-v0.2","","""event"",""trial"",""time""
""fullscreenenter"",""1"",""2015""
","
","
","""event"",""trial"",""time""
""fullscreenenter"",""1"",""2015""
","
","","","","","","","","","","","","","","","","","","","","","","","","","","",""
"pit-instructions","36","387197","0.0-2.0-10.0","battery-v0.2","","""event"",""trial"",""time""
""fullscreenenter"",""1"",""2015""
","
","
","""event"",""trial"",""time""
""fullscreenenter"",""1"",""2015""
","
","","[{""page_index"":0,""viewing_time"":6676.300000190735},{""page_index"":1,""viewing_time"":7034},{""page_index"":2,""viewing_time"":9265.099999904633},{""page_index"":3,""viewing_time"":9051.400000095367},{""page_index"":4,""viewing_time"":7917}]","39944.700000047684","","","","","","","","","","","","","","","","","","","","","","","",""
"pit-trial","37","390443","0.0-2.0-11.0-0.0","battery-v0.2","","""event"",""trial"",""time""
""fullscreenenter"",""1"",""2015""
","
","
","""event"",""trial"",""time""
""fullscreenenter"",""1"",""2015""
","
","","","388.2999999523163","","","23","14971","6123","&#9761;","elianto","#3366ff99","-1"," ","0","0","[1239.5]","1","0","2","","","","","","","",""
"pit-trial","38","393865","0.0-2.0-11.0-1.0","battery-v0.2","","""event"",""trial"",""time""
""fullscreenenter"",""1"",""2015""
","
","
","""event"",""trial"",""time""
""fullscreenenter"",""1"",""2015""
","
","","","561.2000000476837","","","23","14971","6123","&#9761;","elianto","#3366ff99","-1"," ","0","0","[1412.9000000953674]","1","0","2","","","","","","","",""
"pit-trial","39","397205","0.0-2.0-11.0-2.0","battery-v0.2","","""event"",""trial"",""time""
""fullscreenenter"",""1"",""2015""
","
","
","""event"",""trial"",""time""
""fullscreenenter"",""1"",""2015""
","
","","","481.2000000476837","","","23","14971","6123","&#9761;","elianto","#3366ff99","-1"," ","0","0","[1332.2000000476837]","1","0","2","","","","","","","",""
"pit-trial","40","402070","0.0-2.0-11.0-3.0","battery-v0.2","","""event"",""trial"",""time""
""fullscreenenter"",""1"",""2015""
","
","
","""event"",""trial"",""time""
""fullscreenenter"",""1"",""2015""
","
","","","-1","","","23","14971","6123","&#9761;","elianto","#3366ff99","-1","-1","1","0","[]","0","0","2","","","","","","","",""
"pit-trial","41","406933","0.0-2.0-11.0-4.0","battery-v0.2","","""event"",""trial"",""time""
""fullscreenenter"",""1"",""2015""
","
","
","""event"",""trial"",""time""
""fullscreenenter"",""1"",""2015""
","
","","","-1","","","23","14971","6123","&#9761;","elianto","#3366ff99","-1","-1","1","+10","[]","0","0","2","","","","","","","",""
"pit-trial","42","411793","0.0-2.0-11.1-0.1","battery-v0.2","","""event"",""trial"",""time""
""fullscreenenter"",""1"",""2015""
","
","
","""event"",""trial"",""time""
""fullscreenenter"",""1"",""2015""
","
","","","-1","","","23","14971","6123","&#9761;","elianto","#3366ff99","-1","-1","1","+10","[]","0","0","2","","","","","","","",""
"pit-trial","43","416655","0.0-2.0-11.1-1.1","battery-v0.2","","""event"",""trial"",""time""
""fullscreenenter"",""1"",""2015""
","
","
","""event"",""trial"",""time""
""fullscreenenter"",""1"",""2015""
","
","","","-1","","","23","14971","6123","&#9761;","elianto","#3366ff99","-1","-1","1","+10","[]","0","0","2","","","","","","","",""
"pit-trial","44","421519","0.0-2.0-11.1-2.1","battery-v0.2","","""event"",""trial"",""time""
""fullscreenenter"",""1"",""2015""
","
","
","""event"",""trial"",""time""
""fullscreenenter"",""1"",""2015""
","
","","","-1","","","23","14971","6123","&#9761;","elianto","#3366ff99","-1","-1","1","+10","[]","0","0","2","","","","","","","",""
"pit-trial","45","426382","0.0-2.0-11.1-3.1","battery-v0.2","","""event"",""trial"",""time""
""fullscreenenter"",""1"",""2015""
","
","
","""event"",""trial"",""time""
""fullscreenenter"",""1"",""2015""
","
","","","-1","","","23","14971","6123","&#9761;","elianto","#3366ff99","-1","-1","1","0","[]","0","0","2","","","","","","","",""
"pit-trial","46","431244","0.0-2.0-11.1-4.1","battery-v0.2","","""event"",""trial"",""time""
""fullscreenenter"",""1"",""2015""
","
","
","""event"",""trial"",""time""
""fullscreenenter"",""1"",""2015""
","
","","","-1","","","23","14971","6123","&#9761;","elianto","#3366ff99","-1","-1","1","+10","[]","0","0","2","","","","","","","",""
"pit-trial","47","436108","0.0-2.0-11.2-0.2","battery-v0.2","","""event"",""trial"",""time""
""fullscreenenter"",""1"",""2015""
","
","
","""event"",""trial"",""time""
""fullscreenenter"",""1"",""2015""
","
","","","-1","","","23","14971","6123","&#9761;","elianto","#3366ff99","-1","-1","1","+10","[]","0","0","2","","","","","","","",""
"pit-trial","48","440968","0.0-2.0-11.2-1.2","battery-v0.2","","""event"",""trial"",""time""
""fullscreenenter"",""1"",""2015""
","
","
","""event"",""trial"",""time""
""fullscreenenter"",""1"",""2015""
","
","","","-1","","","23","14971","6123","&#9761;","elianto","#3366ff99","-1","-1","1","+10","[]","0","0","2","","","","","","","",""
"pit-trial","49","445830","0.0-2.0-11.2-2.2","battery-v0.2","","""event"",""trial"",""time""
""fullscreenenter"",""1"",""2015""
","
","
","""event"",""trial"",""time""
""fullscreenenter"",""1"",""2015""
","
","","","-1","","","23","14971","6123","&#9761;","elianto","#3366ff99","-1","-1","1","+10","[]","0","0","2","","","","","","","",""
"pit-trial","50","450692","0.0-2.0-11.2-3.2","battery-v0.2","","""event"",""trial"",""time""
""fullscreenenter"",""1"",""2015""
","
","
","""event"",""trial"",""time""
""fullscreenenter"",""1"",""2015""
","
","","","-1","","","23","14971","6123","&#9761;","elianto","#3366ff99","-1","-1","1","0","[]","0","0","2","","","","","","","",""
"pit-trial","51","455548","0.0-2.0-11.2-4.2","battery-v0.2","","""event"",""trial"",""time""
""fullscreenenter"",""1"",""2015""
","
","
","""event"",""trial"",""time""
""fullscreenenter"",""1"",""2015""
","
","","","-1","","","23","14971","6123","&#9761;","elianto","#3366ff99","-1","-1","1","+10","[]","0","0","2","","","","","","","",""
"pit-trial","52","460412","0.0-2.0-11.3-0.3","battery-v0.2","","""event"",""trial"",""time""
""fullscreenenter"",""1"",""2015""
","
","
","""event"",""trial"",""time""
""fullscreenenter"",""1"",""2015""
","
","","","-1","","","23","14971","6123","&#9761;","elianto","#3366ff99","-1","-1","1","+10","[]","0","0","2","","","","","","","",""
"pit-trial","53","465269","0.0-2.0-11.3-1.3","battery-v0.2","","""event"",""trial"",""time""
""fullscreenenter"",""1"",""2015""
","
","
","""event"",""trial"",""time""
""fullscreenenter"",""1"",""2015""
","
","","","-1","","","23","14971","6123","&#9761;","elianto","#3366ff99","-1","-1","1","+10","[]","0","0","2","","","","","","","",""
"pit-trial","54","470126","0.0-2.0-11.3-2.3","battery-v0.2","","""event"",""trial"",""time""
""fullscreenenter"",""1"",""2015""
","
","
","""event"",""trial"",""time""
""fullscreenenter"",""1"",""2015""
","
","","","-1","","","23","14971","6123","&#9761;","elianto","#3366ff99","-1","-1","1","+10","[]","0","0","2","","","","","","","",""
"pit-trial","55","474987","0.0-2.0-11.3-3.3","battery-v0.2","","""event"",""trial"",""time""
""fullscreenenter"",""1"",""2015""
","
","
","""event"",""trial"",""time""
""fullscreenenter"",""1"",""2015""
","
","","","-1","","","23","14971","6123","&#9761;","elianto","#3366ff99","-1","-1","1","0","[]","0","0","2","","","","","","","",""
"pit-trial","56","479846","0.0-2.0-11.3-4.3","battery-v0.2","","""event"",""trial"",""time""
""fullscreenenter"",""1"",""2015""
","
","
","""event"",""trial"",""time""
""fullscreenenter"",""1"",""2015""
","
","","","-1","","","23","14971","6123","&#9761;","elianto","#3366ff99","-1","-1","1","+10","[]","0","0","2","","","","","","","",""
"call-function","57","479850","0.0-2.0-12.0","battery-v0.2","","""event"",""trial"",""time""
""fullscreenenter"",""1"",""2015""
","
","
","""event"",""trial"",""time""
""fullscreenenter"",""1"",""2015""
","
","","","","","","","","","","","","","","","","","","","","","","","","","","",""
"pit-instructions","58","510579","0.0-2.0-13.0","battery-v0.2","","""event"",""trial"",""time""
""fullscreenenter"",""1"",""2015""
","
","
","""event"",""trial"",""time""
""fullscreenenter"",""1"",""2015""
","
","","[{""page_index"":0,""viewing_time"":4928.600000143051},{""page_index"":1,""viewing_time"":7066.099999904633},{""page_index"":2,""viewing_time"":3316.9000000953674},{""page_index"":3,""viewing_time"":10733.099999904633},{""page_index"":4,""viewing_time"":4683.400000095367}]","30728.799999952316","","","","","","","","","","","","","","","","","","","","","","","",""
"pit-trial","59","515443","0.0-2.0-14.0-0.0","battery-v0.2","","""event"",""trial"",""time""
""fullscreenenter"",""1"",""2015""
","
","
","""event"",""trial"",""time""
""fullscreenenter"",""1"",""2015""
","
","","","-1","","","23","14971","6123","&#9826;","elianto","#f73b6a7A","-1","-1","1","0","[]","0","0","3","","","","","","","",""
"pit-trial","60","520302","0.0-2.0-14.0-1.0","battery-v0.2","","""event"",""trial"",""time""
""fullscreenenter"",""1"",""2015""
","
","
","""event"",""trial"",""time""
""fullscreenenter"",""1"",""2015""
","
","","","-1","","","23","14971","6123","&#9826;","elianto","#f73b6a7A","-1","-1","1","0","[]","0","0","3","","","","","","","",""
"pit-trial","61","525164","0.0-2.0-14.0-2.0","battery-v0.2","","""event"",""trial"",""time""
""fullscreenenter"",""1"",""2015""
","
","
","""event"",""trial"",""time""
""fullscreenenter"",""1"",""2015""
","
","","","-1","","","23","14971","6123","&#9826;","elianto","#f73b6a7A","-1","-1","1","0","[]","0","0","3","","","","","","","",""
"pit-trial","62","530022","0.0-2.0-14.0-3.0","battery-v0.2","","""event"",""trial"",""time""
""fullscreenenter"",""1"",""2015""
","
","
","""event"",""trial"",""time""
""fullscreenenter"",""1"",""2015""
","
","","","-1","","","23","14971","6123","&#9826;","elianto","#f73b6a7A","-1","-1","1","-10","[]","0","0","3","","","","","","","",""
"pit-trial","63","534882","0.0-2.0-14.0-4.0","battery-v0.2","","""event"",""trial"",""time""
""fullscreenenter"",""1"",""2015""
","
","
","""event"",""trial"",""time""
""fullscreenenter"",""1"",""2015""
","
","","","-1","","","23","14971","6123","&#9826;","elianto","#f73b6a7A","-1","-1","1","0","[]","0","0","3","","","","","","","",""
"pit-trial","64","539745","0.0-2.0-14.1-0.1","battery-v0.2","","""event"",""trial"",""time""
""fullscreenenter"",""1"",""2015""
","
","
","""event"",""trial"",""time""
""fullscreenenter"",""1"",""2015""
","
","","","-1","","","23","14971","6123","&#9826;","elianto","#f73b6a7A","-1","-1","1","0","[]","0","0","3","","","","","","","",""
"pit-trial","65","544607","0.0-2.0-14.1-1.1","battery-v0.2","","""event"",""trial"",""time""
""fullscreenenter"",""1"",""2015""
","
","
","""event"",""trial"",""time""
""fullscreenenter"",""1"",""2015""
","
","","","-1","","","23","14971","6123","&#9826;","elianto","#f73b6a7A","-1","-1","1","0","[]","0","0","3","","","","","","","",""
"pit-trial","66","549469","0.0-2.0-14.1-2.1","battery-v0.2","","""event"",""trial"",""time""
""fullscreenenter"",""1"",""2015""
","
","
","""event"",""trial"",""time""
""fullscreenenter"",""1"",""2015""
","
","","","-1","","","23","14971","6123","&#9826;","elianto","#f73b6a7A","-1","-1","1","0","[]","0","0","3","","","","","","","",""
"pit-trial","67","554328","0.0-2.0-14.1-3.1","battery-v0.2","","""event"",""trial"",""time""
""fullscreenenter"",""1"",""2015""
","
","
","""event"",""trial"",""time""
""fullscreenenter"",""1"",""2015""
","
","","","-1","","","23","14971","6123","&#9826;","elianto","#f73b6a7A","-1","-1","1","-10","[]","0","0","3","","","","","","","",""
"pit-trial","68","559192","0.0-2.0-14.1-4.1","battery-v0.2","","""event"",""trial"",""time""
""fullscreenenter"",""1"",""2015""
","
","
","""event"",""trial"",""time""
""fullscreenenter"",""1"",""2015""
","
","","","-1","","","23","14971","6123","&#9826;","elianto","#f73b6a7A","-1","-1","1","0","[]","0","0","3","","","","","","","",""
"pit-trial","69","564055","0.0-2.0-14.2-0.2","battery-v0.2","","""event"",""trial"",""time""
""fullscreenenter"",""1"",""2015""
","
","
","""event"",""trial"",""time""
""fullscreenenter"",""1"",""2015""
","
","","","-1","","","23","14971","6123","&#9826;","elianto","#f73b6a7A","-1","-1","1","0","[]","0","0","3","","","","","","","",""
"pit-trial","70","568914","0.0-2.0-14.2-1.2","battery-v0.2","","""event"",""trial"",""time""
""fullscreenenter"",""1"",""2015""
","
","
","""event"",""trial"",""time""
""fullscreenenter"",""1"",""2015""
","
","","","-1","","","23","14971","6123","&#9826;","elianto","#f73b6a7A","-1","-1","1","0","[]","0","0","3","","","","","","","",""
"pit-trial","71","573779","0.0-2.0-14.2-2.2","battery-v0.2","","""event"",""trial"",""time""
""fullscreenenter"",""1"",""2015""
","
","
","""event"",""trial"",""time""
""fullscreenenter"",""1"",""2015""
","
","","","-1","","","23","14971","6123","&#9826;","elianto","#f73b6a7A","-1","-1","1","0","[]","0","0","3","","","","","","","",""
"pit-trial","72","578637","0.0-2.0-14.2-3.2","battery-v0.2","","""event"",""trial"",""time""
""fullscreenenter"",""1"",""2015""
","
","
","""event"",""trial"",""time""
""fullscreenenter"",""1"",""2015""
","
","","","-1","","","23","14971","6123","&#9826;","elianto","#f73b6a7A","-1","-1","1","-10","[]","0","0","3","","","","","","","",""
"pit-trial","73","583497","0.0-2.0-14.2-4.2","battery-v0.2","","""event"",""trial"",""time""
""fullscreenenter"",""1"",""2015""
","
","
","""event"",""trial"",""time""
""fullscreenenter"",""1"",""2015""
","
","","","-1","","","23","14971","6123","&#9826;","elianto","#f73b6a7A","-1","-1","1","0","[]","0","0","3","","","","","","","",""
"pit-trial","74","588363","0.0-2.0-14.3-0.3","battery-v0.2","","""event"",""trial"",""time""
""fullscreenenter"",""1"",""2015""
","
","
","""event"",""trial"",""time""
""fullscreenenter"",""1"",""2015""
","
","","","-1","","","23","14971","6123","&#9826;","elianto","#f73b6a7A","-1","-1","1","0","[]","0","0","3","","","","","","","",""
"pit-trial","75","593225","0.0-2.0-14.3-1.3","battery-v0.2","","""event"",""trial"",""time""
""fullscreenenter"",""1"",""2015""
","
","
","""event"",""trial"",""time""
""fullscreenenter"",""1"",""2015""
","
","","","-1","","","23","14971","6123","&#9826;","elianto","#f73b6a7A","-1","-1","1","0","[]","0","0","3","","","","","","","",""
"pit-trial","76","598089","0.0-2.0-14.3-2.3","battery-v0.2","","""event"",""trial"",""time""
""fullscreenenter"",""1"",""2015""
","
","
","""event"",""trial"",""time""
""fullscreenenter"",""1"",""2015""
","
","","","-1","","","23","14971","6123","&#9826;","elianto","#f73b6a7A","-1","-1","1","0","[]","0","0","3","","","","","","","",""
"pit-trial","77","602951","0.0-2.0-14.3-3.3","battery-v0.2","","""event"",""trial"",""time""
""fullscreenenter"",""1"",""2015""
","
","
","""event"",""trial"",""time""
""fullscreenenter"",""1"",""2015""
","
","","","-1","","","23","14971","6123","&#9826;","elianto","#f73b6a7A","-1","-1","1","-10","[]","0","0","3","","","","","","","",""
"pit-trial","78","607815","0.0-2.0-14.3-4.3","battery-v0.2","","""event"",""trial"",""time""
""fullscreenenter"",""1"",""2015""
","
","
","""event"",""trial"",""time""
""fullscreenenter"",""1"",""2015""
","
","","","-1","","","23","14971","6123","&#9826;","elianto","#f73b6a7A","-1","-1","1","0","[]","0","0","3","","","","","","","",""
"call-function","79","607818","0.0-2.0-15.0","battery-v0.2","","""event"",""trial"",""time""
""fullscreenenter"",""1"",""2015""
","
","
","""event"",""trial"",""time""
""fullscreenenter"",""1"",""2015""
","
","","","","","","","","","","","","","","","","","","","","","","","","","","",""
"pit-instructions","80","632863","0.0-2.0-16.0","battery-v0.2","","""event"",""trial"",""time""
""fullscreenenter"",""1"",""2015""
","
","
","""event"",""trial"",""time""
""fullscreenenter"",""1"",""2015""
","
","","[{""page_index"":0,""viewing_time"":6941.700000047684},{""page_index"":1,""viewing_time"":8050.299999952316},{""page_index"":2,""viewing_time"":5233.299999952316},{""page_index"":3,""viewing_time"":4818}]","25044.299999952316","","","","","","","","","","","","","","","","","","","","","","","",""
"pit-trial","81","637724","0.0-2.0-17.0-0.0","battery-v0.2","","""event"",""trial"",""time""
""fullscreenenter"",""1"",""2015""
","
","
","""event"",""trial"",""time""
""fullscreenenter"",""1"",""2015""
","
","","","-1","","","23","14971","6123","&#9789;","elianto","#f73b6a7A"," ","-1","0","-10","[]","0","0","4","","","","","","","",""
"pit-trial","82","642585","0.0-2.0-17.0-1.0","battery-v0.2","","""event"",""trial"",""time""
""fullscreenenter"",""1"",""2015""
","
","
","""event"",""trial"",""time""
""fullscreenenter"",""1"",""2015""
","
","","","-1","","","23","14971","6123","&#9789;","elianto","#f73b6a7A"," ","-1","0","-10","[]","0","0","4","","","","","","","",""
"pit-trial","83","647450","0.0-2.0-17.0-2.0","battery-v0.2","","""event"",""trial"",""time""
""fullscreenenter"",""1"",""2015""
","
","
","""event"",""trial"",""time""
""fullscreenenter"",""1"",""2015""
","
","","","-1","","","23","14971","6123","&#9789;","elianto","#f73b6a7A"," ","-1","0","-10","[]","0","0","4","","","","","","","",""
"pit-trial","84","650680","0.0-2.0-17.0-3.0","battery-v0.2","","""event"",""trial"",""time""
""fullscreenenter"",""1"",""2015""
","
","
","""event"",""trial"",""time""
""fullscreenenter"",""1"",""2015""
","
","","","368.80000019073486","","","23","14971","6123","&#9789;","elianto","#f73b6a7A"," "," ","1","-10","[1220.5999999046326]","1","0","4","","","","","","","",""
"pit-trial","85","653863","0.0-2.0-17.0-4.0","battery-v0.2","","""event"",""trial"",""time""
""fullscreenenter"",""1"",""2015""
","
","
","""event"",""trial"",""time""
""fullscreenenter"",""1"",""2015""
","
","","","327.40000009536743","","","23","14971","6123","&#9789;","elianto","#f73b6a7A"," "," ","1","0","[1177.7999999523163]","1","0","4","","","","","","","",""
"pit-trial","86","656906","0.0-2.0-17.1-0.1","battery-v0.2","","""event"",""trial"",""time""
""fullscreenenter"",""1"",""2015""
","
","
","""event"",""trial"",""time""
""fullscreenenter"",""1"",""2015""
","
","","","182.90000009536743","","","23","14971","6123","&#9789;","elianto","#f73b6a7A"," "," ","1","0","[1033.8000001907349]","1","0","4","","","","","","","",""
"pit-trial","87","660011","0.0-2.0-17.1-1.1","battery-v0.2","","""event"",""trial"",""time""
""fullscreenenter"",""1"",""2015""
","
","
","""event"",""trial"",""time""
""fullscreenenter"",""1"",""2015""
","
","","","242.20000004768372","","","23","14971","6123","&#9789;","elianto","#f73b6a7A"," "," ","1","0","[1095.9000000953674]","1","0","4","","","","","","","",""
"pit-trial","88","663107","0.0-2.0-17.1-2.1","battery-v0.2","","""event"",""trial"",""time""
""fullscreenenter"",""1"",""2015""
","
","
","""event"",""trial"",""time""
""fullscreenenter"",""1"",""2015""
","
","","","235.20000004768372","","","23","14971","6123","&#9789;","elianto","#f73b6a7A"," "," ","1","0","[1086.8999998569489]","1","0","4","","","","","","","",""
"pit-trial","89","666199","0.0-2.0-17.1-3.1","battery-v0.2","","""event"",""trial"",""time""
""fullscreenenter"",""1"",""2015""
","
","
","""event"",""trial"",""time""
""fullscreenenter"",""1"",""2015""
","
","","","232.89999985694885","","","23","14971","6123","&#9789;","elianto","#f73b6a7A"," "," ","1","-10","[1085.5]","1","0","4","","","","","","","",""
"pit-trial","90","669296","0.0-2.0-17.1-4.1","battery-v0.2","","""event"",""trial"",""time""
""fullscreenenter"",""1"",""2015""
","
","
","""event"",""trial"",""time""
""fullscreenenter"",""1"",""2015""
","
","","","238.69999980926514","","","23","14971","6123","&#9789;","elianto","#f73b6a7A"," "," ","1","0","[1090.2000000476837]","1","0","4","","","","","","","",""
"pit-trial","91","672291","0.0-2.0-17.2-0.2","battery-v0.2","","""event"",""trial"",""time""
""fullscreenenter"",""1"",""2015""
","
","
","""event"",""trial"",""time""
""fullscreenenter"",""1"",""2015""
","
","","","135.59999990463257","","","23","14971","6123","&#9789;","elianto","#f73b6a7A"," "," ","1","0","[986.6999998092651]","1","0","4","","","","","","","",""
"pit-trial","92","675449","0.0-2.0-17.2-1.2","battery-v0.2","","""event"",""trial"",""time""
""fullscreenenter"",""1"",""2015""
","
","
","""event"",""trial"",""time""
""fullscreenenter"",""1"",""2015""
","
","","","298.60000014305115","","","23","14971","6123","&#9789;","elianto","#f73b6a7A"," "," ","1","0","[1150]","1","0","4","","","","","","","",""
"pit-trial","93","678487","0.0-2.0-17.2-2.2","battery-v0.2","","""event"",""trial"",""time""
""fullscreenenter"",""1"",""2015""
","
","
","""event"",""trial"",""time""
""fullscreenenter"",""1"",""2015""
","
","","","180.10000014305115","","","23","14971","6123","&#9789;","elianto","#f73b6a7A"," "," ","1","0","[1030.7999999523163]","1","0","4","","","","","","","",""
"pit-trial","94","681552","0.0-2.0-17.2-3.2","battery-v0.2","","""event"",""trial"",""time""
""fullscreenenter"",""1"",""2015""
","
","
","""event"",""trial"",""time""
""fullscreenenter"",""1"",""2015""
","
","","","203.09999990463257","","","23","14971","6123","&#9789;","elianto","#f73b6a7A"," "," ","1","-10","[1055.6000001430511]","1","0","4","","","","","","","",""
"pit-trial","95","684574","0.0-2.0-17.2-4.2","battery-v0.2","","""event"",""trial"",""time""
""fullscreenenter"",""1"",""2015""
","
","
","""event"",""trial"",""time""
""fullscreenenter"",""1"",""2015""
","
","","","165.10000014305115","","","23","14971","6123","&#9789;","elianto","#f73b6a7A"," "," ","1","0","[1017]","1","0","4","","","","","","","",""
"pit-trial","96","687643","0.0-2.0-17.3-0.3","battery-v0.2","","""event"",""trial"",""time""
""fullscreenenter"",""1"",""2015""
","
","
","""event"",""trial"",""time""
""fullscreenenter"",""1"",""2015""
","
","","","208.69999980926514","","","23","14971","6123","&#9789;","elianto","#f73b6a7A"," "," ","1","0","[1061.7000000476837]","1","0","4","","","","","","","",""
"pit-trial","97","690722","0.0-2.0-17.3-1.3","battery-v0.2","","""event"",""trial"",""time""
""fullscreenenter"",""1"",""2015""
","
","
","""event"",""trial"",""time""
""fullscreenenter"",""1"",""2015""
","
","","","222.89999985694885","","","23","14971","6123","&#9789;","elianto","#f73b6a7A"," "," ","1","0","[1073.2999999523163]","1","0","4","","","","","","","",""
"pit-trial","98","693600","0.0-2.0-17.3-2.3","battery-v0.2","","""event"",""trial"",""time""
""fullscreenenter"",""1"",""2015""
","
","
","""event"",""trial"",""time""
""fullscreenenter"",""1"",""2015""
","
","","","18.799999952316284","","","23","14971","6123","&#9789;","elianto","#f73b6a7A"," "," ","1","0","[870.2000000476837]","1","0","4","","","","","","","",""
"pit-trial","99","696853","0.0-2.0-17.3-3.3","battery-v0.2","","""event"",""trial"",""time""
""fullscreenenter"",""1"",""2015""
","
","
","""event"",""trial"",""time""
""fullscreenenter"",""1"",""2015""
","
","","","395.89999985694885","","","23","14971","6123","&#9789;","elianto","#f73b6a7A"," "," ","1","-10","[1247]","1","0","4","","","","","","","",""
"pit-trial","100","700263","0.0-2.0-17.3-4.3","battery-v0.2","","""event"",""trial"",""time""
""fullscreenenter"",""1"",""2015""
","
","
","""event"",""trial"",""time""
""fullscreenenter"",""1"",""2015""
","
","","","550.2999999523163","","","23","14971","6123","&#9789;","elianto","#f73b6a7A"," "," ","1","0","[1401.7999999523163]","1","0","4","","","","","","","",""
"call-function","101","700266","0.0-2.0-18.0","battery-v0.2","","""event"",""trial"",""time""
""fullscreenenter"",""1"",""2015""
","
","
","""event"",""trial"",""time""
""fullscreenenter"",""1"",""2015""
","
","","","","","","","","","","","","","","","","","","","","","","","","","","",""
"pit-instructions","102","765229","0.0-2.0-19.0","battery-v0.2","","""event"",""trial"",""time""
""fullscreenenter"",""1"",""2015""
","
","
","""event"",""trial"",""time""
""fullscreenenter"",""1"",""2015""
","
","","[{""page_index"":0,""viewing_time"":6477.5},{""page_index"":1,""viewing_time"":5800.899999856949},{""page_index"":2,""viewing_time"":12699.600000143051},{""page_index"":3,""viewing_time"":6767},{""page_index"":4,""viewing_time"":7934.099999904633},{""page_index"":5,""viewing_time"":8832.100000143051},{""page_index"":6,""viewing_time"":7234.099999904633},{""page_index"":7,""viewing_time"":5434.599999904633},{""page_index"":8,""viewing_time"":3782.7000000476837}]","64963.59999990463","","","","","","","","","","","","","","","","","","","","","","","",""
"pit-comprehension","103","770797","0.0-2.0-20.0-0.0","battery-v0.2","","""event"",""trial"",""time""
""fullscreenenter"",""1"",""2015""
","
","
","""event"",""trial"",""time""
""fullscreenenter"",""1"",""2015""
","
","","","5562.299999952316","[""SPACE""]","0","23","14971","6123","","","","","","","","","","","","","","","","","","",""
"pit-instructions","104","773613","0.0-2.0-20.0-1.0","battery-v0.2","","""event"",""trial"",""time""
""fullscreenenter"",""1"",""2015""
","
","
","""event"",""trial"",""time""
""fullscreenenter"",""1"",""2015""
","
","","[{""page_index"":0,""viewing_time"":2792.7000000476837}]","2793.5","","","","","","","","","","","","","","","","","","","","","","","",""
"pit-comprehension","105","778964","0.0-2.0-21.0-0.0","battery-v0.2","","""event"",""trial"",""time""
""fullscreenenter"",""1"",""2015""
","
","
","""event"",""trial"",""time""
""fullscreenenter"",""1"",""2015""
","
","","","5345.299999952316","[""10""]","0","23","14971","6123","","","","","","","","","","","","","","","","","","",""
"pit-instructions","106","780811","0.0-2.0-21.0-1.0","battery-v0.2","","""event"",""trial"",""time""
""fullscreenenter"",""1"",""2015""
","
","
","""event"",""trial"",""time""
""fullscreenenter"",""1"",""2015""
","
","","[{""page_index"":0,""viewing_time"":1822.5}]","1823.2000000476837","","","","","","","","","","","","","","","","","","","","","","","",""
"pit-comprehension","107","788762","0.0-2.0-22.0-0.0","battery-v0.2","","""event"",""trial"",""time""
""fullscreenenter"",""1"",""2015""
","
","
","""event"",""trial"",""time""
""fullscreenenter"",""1"",""2015""
","
","","","7947","[""0""]","0","23","14971","6123","","","","","","","","","","","","","","","","","","",""
"pit-instructions","108","791428","0.0-2.0-22.0-1.0","battery-v0.2","","""event"",""trial"",""time""
""fullscreenenter"",""1"",""2015""
","
","
","""event"",""trial"",""time""
""fullscreenenter"",""1"",""2015""
","
","","[{""page_index"":0,""viewing_time"":2643.0999999046326}]","2644","","","","","","","","","","","","","","","","","","","","","","","",""
"pit-comprehension","109","808629","0.0-2.0-23.0-0.0","battery-v0.2","","""event"",""trial"",""time""
""fullscreenenter"",""1"",""2015""
","
","
","""event"",""trial"",""time""
""fullscreenenter"",""1"",""2015""
","
","","","17195.800000190735","[""True""]","0","23","14971","6123","","","","","","","","","","","","","","","","","","",""
"pit-instructions","110","812978","0.0-2.0-23.0-1.0","battery-v0.2","","""event"",""trial"",""time""
""fullscreenenter"",""1"",""2015""
","
","
","""event"",""trial"",""time""
""fullscreenenter"",""1"",""2015""
","
","","[{""page_index"":0,""viewing_time"":4325.5}]","4326","","","","","","","","","","","","","","","","","","","","","","","",""
"pit-comprehension","111","820644","0.0-2.0-24.0-0.0","battery-v0.2","","""event"",""trial"",""time""
""fullscreenenter"",""1"",""2015""
","
","
","""event"",""trial"",""time""
""fullscreenenter"",""1"",""2015""
","
","","","7662.800000190735","[""True""]","0","23","14971","6123","","","","","","","","","","","","","","","","","","",""
"pit-instructions","112","822295","0.0-2.0-24.0-1.0","battery-v0.2","","""event"",""trial"",""time""
""fullscreenenter"",""1"",""2015""
","
","
","""event"",""trial"",""time""
""fullscreenenter"",""1"",""2015""
","
","","[{""page_index"":0,""viewing_time"":1627.3999998569489}]","1628","","","","","","","","","","","","","","","","","","","","","","","",""
"pit-comprehension","113","828729","0.0-2.0-25.0-0.0","battery-v0.2","","""event"",""trial"",""time""
""fullscreenenter"",""1"",""2015""
","
","
","""event"",""trial"",""time""
""fullscreenenter"",""1"",""2015""
","
","","","6430","[""True""]","0","23","14971","6123","","","","","","","","","","","","","","","","","","",""
"pit-instructions","114","830377","0.0-2.0-25.0-1.0","battery-v0.2","","""event"",""trial"",""time""
""fullscreenenter"",""1"",""2015""
","
","
","""event"",""trial"",""time""
""fullscreenenter"",""1"",""2015""
","
","","[{""page_index"":0,""viewing_time"":1625.3000001907349}]","1625.8000001907349","","","","","","","","","","","","","","","","","","","","","","","",""
"pit-comprehension","115","836846","0.0-2.0-26.0-0.0","battery-v0.2","","""event"",""trial"",""time""
""fullscreenenter"",""1"",""2015""
","
","
","""event"",""trial"",""time""
""fullscreenenter"",""1"",""2015""
","
","","","6465.100000143051","[""True""]","1","23","14971","6123","","","","","","","","","","","","","","","","","","",""
"pit-instructions","116","839844","0.0-2.0-26.0-1.0","battery-v0.2","","""event"",""trial"",""time""
""fullscreenenter"",""1"",""2015""
","
","
","""event"",""trial"",""time""
""fullscreenenter"",""1"",""2015""
","
","","[{""page_index"":0,""viewing_time"":2974.300000190735}]","2974.800000190735","","","","","","","","","","","","","","","","","","","","","","","",""
"pit-instructions","117","843011","0.0-2.0-26.0-2.0-0.0","battery-v0.2","","""event"",""trial"",""time""
""fullscreenenter"",""1"",""2015""
","
","
","""event"",""trial"",""time""
""fullscreenenter"",""1"",""2015""
","
","","[{""page_index"":0,""viewing_time"":3164}]","3164.7999999523163","","","","","","","","","","","","","","","","","","","","","","","",""
"pit-comprehension","118","847978","0.0-2.0-26.1-0.1","battery-v0.2","","""event"",""trial"",""time""
""fullscreenenter"",""1"",""2015""
","
","
","""event"",""trial"",""time""
""fullscreenenter"",""1"",""2015""
","
","","","4963.100000143051","[""False""]","0","23","14971","6123","","","","","","","","","","","","","","","","","","",""
"pit-instructions","119","850411","0.0-2.0-26.1-1.1","battery-v0.2","","""event"",""trial"",""time""
""fullscreenenter"",""1"",""2015""
","
","
","""event"",""trial"",""time""
""fullscreenenter"",""1"",""2015""
","
","","[{""page_index"":0,""viewing_time"":2409.300000190735}]","2409.800000190735","","","","","","","","","","","","","","","","","","","","","","","",""
"pit-instructions","120","867378","0.0-3.0","battery-v0.2","","""event"",""trial"",""time""
""fullscreenenter"",""1"",""2015""
","
","
","""event"",""trial"",""time""
""fullscreenenter"",""1"",""2015""
","
","","[{""page_index"":0,""viewing_time"":4314.600000143051},{""page_index"":1,""viewing_time"":5716.699999809265},{""page_index"":2,""viewing_time"":6934.200000047684}]","16966.200000047684","","","","","","","","","","","","","","","","","","","","","","","",""
"pit-trial","121","871723","0.0-4.0","battery-v0.2","","""event"",""trial"",""time""
""fullscreenenter"",""1"",""2015""
","
","
","""event"",""trial"",""time""
""fullscreenenter"",""1"",""2015""
","
","","","1483.5","","","23","14971","6123","&#9728;","elianto","#f73b6a7A","-1"," ","0","-10","[2334.600000143051]","1","1","","","14971","1","0","4","lose","no-go","0"
"pit-trial","122","875979","0.0-5.0","battery-v0.2","","""event"",""trial"",""time""
""fullscreenenter"",""1"",""2015""
","
","
","""event"",""trial"",""time""
""fullscreenenter"",""1"",""2015""
","
","","","1393.8000001907349","","","23","14971","6123","&#9730;","elianto","#3366ff99"," "," ","1","+10","[2246.800000190735]","1","1","","","14971","2","1","1","win","go","0"
"pit-trial","123","880504","0.0-6.0","battery-v0.2","","""event"",""trial"",""time""
""fullscreenenter"",""1"",""2015""
","
","
","""event"",""trial"",""time""
""fullscreenenter"",""1"",""2015""
","
","","","1664.5","","","23","14971","6123","&#9752;","elianto","#f73b6a7A"," "," ","1","0","[2515.7000000476837]","1","1","","","14971","3","3","3","lose","go","0"
"pit-trial","124","884525","0.0-7.0","battery-v0.2","","""event"",""trial"",""time""
""fullscreenenter"",""1"",""2015""
","
","
","""event"",""trial"",""time""
""fullscreenenter"",""1"",""2015""
","
","","","1162.8999998569489","","","23","14971","6123","&#9733;","elianto","#3366ff99","-1"," ","0","+10","[2014.5]","1","1","","","14971","4","2","2","win","no-go","1"
"pit-trial","125","889388","0.0-8.0","battery-v0.2","","""event"",""trial"",""time""
""fullscreenenter"",""1"",""2015""
","
","
","""event"",""trial"",""time""
""fullscreenenter"",""1"",""2015""
","
","","","-1","","","23","14971","6123","&#9728;","elianto","#f73b6a7A","-1","-1","1","0","[]","0","1","","","14971","5","0","4","lose","no-go","0"
"pit-trial","126","893342","0.0-9.0","battery-v0.2","","""event"",""trial"",""time""
""fullscreenenter"",""1"",""2015""
","
","
","""event"",""trial"",""time""
""fullscreenenter"",""1"",""2015""
","
","","","1095.7999999523163","","","23","14971","6123","&#9752;","elianto","#f73b6a7A"," "," ","1","0","[1948.7000000476837]","1","1","","","14971","6","3","3","lose","go","0"
"pit-trial","127","896945","0.0-10.0","battery-v0.2","","""event"",""trial"",""time""
""fullscreenenter"",""1"",""2015""
","
","
","""event"",""trial"",""time""
""fullscreenenter"",""1"",""2015""
","
","","","748.0999999046326","","","23","14971","6123","&#9733;","elianto","#3366ff99","-1"," ","0","0","[1598.2000000476837]","1","1","","","14971","7","2","2","win","no-go","0"
"pit-trial","128","900863","0.0-11.0","battery-v0.2","","""event"",""trial"",""time""
""fullscreenenter"",""1"",""2015""
","
","
","""event"",""trial"",""time""
""fullscreenenter"",""1"",""2015""
","
","","","1060","","","23","14971","6123","&#9730;","elianto","#3366ff99"," "," ","1","+10","[1910.2000000476837]","1","1","","","14971","8","1","1","win","go","0"
"pit-trial","129","904830","0.0-12.0","battery-v0.2","","""event"",""trial"",""time""
""fullscreenenter"",""1"",""2015""
","
","
","""event"",""trial"",""time""
""fullscreenenter"",""1"",""2015""
","
","","","1111.5","","","23","14971","6123","&#9752;","elianto","#f73b6a7A"," "," ","1","-10","[1963]","1","1","","","14971","9","3","3","lose","go","1"
"pit-trial","130","909694","0.0-13.0","battery-v0.2","","""event"",""trial"",""time""
""fullscreenenter"",""1"",""2015""
","
","
","""event"",""trial"",""time""
""fullscreenenter"",""1"",""2015""
","
","","","-1","","","23","14971","6123","&#9733;","elianto","#3366ff99","-1","-1","1","+10","[]","0","1","","","14971","10","2","2","win","no-go","0"
"pit-trial","131","914558","0.0-14.0","battery-v0.2","","""event"",""trial"",""time""
""fullscreenenter"",""1"",""2015""
","
","
","""event"",""trial"",""time""
""fullscreenenter"",""1"",""2015""
","
","","","-1","","","23","14971","6123","&#9728;","elianto","#f73b6a7A","-1","-1","1","0","[]","0","1","","","14971","11","0","4","lose","no-go","0"
"pit-trial","132","918389","0.0-15.0","battery-v0.2","","""event"",""trial"",""time""
""fullscreenenter"",""1"",""2015""
""blur"",""133"",""922914""
","""event"",""trial"",""time""
""blur"",""133"",""922914""
","
","""event"",""trial"",""time""
""fullscreenenter"",""1"",""2015""
","
","","","971.2000000476837","","","23","14971","6123","&#9730;","elianto","#3366ff99"," "," ","1","+10","[1822]","1","1","","","14971","12","1","1","win","go","0"
"pit-trial","133","923253","0.0-16.0","battery-v0.2","","""event"",""trial"",""time""
""fullscreenenter"",""1"",""2015""
""blur"",""133"",""922914""
","""event"",""trial"",""time""
""blur"",""133"",""922914""
","
","""event"",""trial"",""time""
""fullscreenenter"",""1"",""2015""
","
","","","-1","","","23","14971","6123","&#9728;","elianto","#f73b6a7A","-1","-1","1","0","[]","0","1","","","14971","13","0","4","lose","no-go","0"
"pit-trial","134","928114","0.0-17.0","battery-v0.2","","""event"",""trial"",""time""
""fullscreenenter"",""1"",""2015""
""blur"",""133"",""922914""
""focus"",""135"",""931660""
","""event"",""trial"",""time""
""blur"",""133"",""922914""
","""event"",""trial"",""time""
""focus"",""135"",""931660""
","""event"",""trial"",""time""
""fullscreenenter"",""1"",""2015""
","
","","","-1","","","23","14971","6123","&#9752;","elianto","#f73b6a7A"," ","-1","0","0","[]","0","1","","","14971","14","3","3","lose","go","1"
"pit-trial","135","932970","0.0-18.0","battery-v0.2","","""event"",""trial"",""time""
""fullscreenenter"",""1"",""2015""
""blur"",""133"",""922914""
""focus"",""135"",""931660""
","""event"",""trial"",""time""
""blur"",""133"",""922914""
","""event"",""trial"",""time""
""focus"",""135"",""931660""
","""event"",""trial"",""time""
""fullscreenenter"",""1"",""2015""
","
","","","-1","","","23","14971","6123","&#9730;","elianto","#3366ff99"," ","-1","0","0","[]","0","1","","","14971","15","1","1","win","go","0"
"pit-trial","136","937834","0.0-19.0","battery-v0.2","","""event"",""trial"",""time""
""fullscreenenter"",""1"",""2015""
""blur"",""133"",""922914""
""focus"",""135"",""931660""
","""event"",""trial"",""time""
""blur"",""133"",""922914""
","""event"",""trial"",""time""
""focus"",""135"",""931660""
","""event"",""trial"",""time""
""fullscreenenter"",""1"",""2015""
","
","","","-1","","","23","14971","6123","&#9733;","elianto","#3366ff99","-1","-1","1","+10","[]","0","1","","","14971","16","2","2","win","no-go","0"
"pit-trial","137","942696","0.0-20.0","battery-v0.2","","""event"",""trial"",""time""
""fullscreenenter"",""1"",""2015""
""blur"",""133"",""922914""
""focus"",""135"",""931660""
","""event"",""trial"",""time""
""blur"",""133"",""922914""
","""event"",""trial"",""time""
""focus"",""135"",""931660""
","""event"",""trial"",""time""
""fullscreenenter"",""1"",""2015""
","
","","","-1","","","23","14971","6123","&#9728;","elianto","#f73b6a7A","-1","-1","1","0","[]","0","1","","","14971","17","0","4","lose","no-go","0"
"pit-trial","138","946223","0.0-21.0","battery-v0.2","","""event"",""trial"",""time""
""fullscreenenter"",""1"",""2015""
""blur"",""133"",""922914""
""focus"",""135"",""931660""
","""event"",""trial"",""time""
""blur"",""133"",""922914""
","""event"",""trial"",""time""
""focus"",""135"",""931660""
","""event"",""trial"",""time""
""fullscreenenter"",""1"",""2015""
","
","","","667","","","23","14971","6123","&#9730;","elianto","#3366ff99"," "," ","1","+10","[1518.1000001430511]","1","1","","","14971","18","1","1","win","go","0"
"pit-trial","139","950363","0.0-22.0","battery-v0.2","","""event"",""trial"",""time""
""fullscreenenter"",""1"",""2015""
""blur"",""133"",""922914""
""focus"",""135"",""931660""
","""event"",""trial"",""time""
""blur"",""133"",""922914""
","""event"",""trial"",""time""
""focus"",""135"",""931660""
","""event"",""trial"",""time""
""fullscreenenter"",""1"",""2015""
","
","","","1280.1999998092651","","","23","14971","6123","&#9752;","elianto","#f73b6a7A"," "," ","1","0","[2133.2999999523163]","1","1","","","14971","19","3","3","lose","go","0"
"pit-trial","140","955225","0.0-23.0","battery-v0.2","","""event"",""trial"",""time""
""fullscreenenter"",""1"",""2015""
""blur"",""133"",""922914""
""focus"",""135"",""931660""
","""event"",""trial"",""time""
""blur"",""133"",""922914""
","""event"",""trial"",""time""
""focus"",""135"",""931660""
","""event"",""trial"",""time""
""fullscreenenter"",""1"",""2015""
","
","","","-1","","","23","14971","6123","&#9733;","elianto","#3366ff99","-1","-1","1","+10","[]","0","1","","","14971","20","2","2","win","no-go","0"
"pit-instructions","141","968527","0.0-24.0","battery-v0.2","","""event"",""trial"",""time""
""fullscreenenter"",""1"",""2015""
""blur"",""133"",""922914""
""focus"",""135"",""931660""
","""event"",""trial"",""time""
""blur"",""133"",""922914""
","""event"",""trial"",""time""
""focus"",""135"",""931660""
","""event"",""trial"",""time""
""fullscreenenter"",""1"",""2015""
","
","","[{""page_index"":0,""viewing_time"":6316},{""page_index"":1,""viewing_time"":6983}]","13299.5","","","","","","","","","","","","","","","","","","","","","","","",""
"pit-trial","142","972796","0.0-25.0","battery-v0.2","","""event"",""trial"",""time""
""fullscreenenter"",""1"",""2015""
""blur"",""133"",""922914""
""focus"",""135"",""931660""
","""event"",""trial"",""time""
""blur"",""133"",""922914""
","""event"",""trial"",""time""
""focus"",""135"",""931660""
","""event"",""trial"",""time""
""fullscreenenter"",""1"",""2015""
","
","","","1411.3999998569489","","","23","14971","6123","l","elianto","#3366ff99"," "," ","1","0","[2262.699999809265]","1","2","","","14971","21","1","1","win","go","1"
"pit-trial","143","976730","0.0-26.0","battery-v0.2","","""event"",""trial"",""time""
""fullscreenenter"",""1"",""2015""
""blur"",""133"",""922914""
""focus"",""135"",""931660""
","""event"",""trial"",""time""
""blur"",""133"",""922914""
","""event"",""trial"",""time""
""focus"",""135"",""931660""
","""event"",""trial"",""time""
""fullscreenenter"",""1"",""2015""
","
","","","1075.1000001430511","","","23","14971","6123","a","elianto","#f73b6a7A","-1"," ","0","-10","[1926]","1","2","","","14971","22","2","4","lose","no-go","0"
"pit-trial","144","980641","0.0-27.0","battery-v0.2","","""event"",""trial"",""time""
""fullscreenenter"",""1"",""2015""
""blur"",""133"",""922914""
""focus"",""135"",""931660""
","""event"",""trial"",""time""
""blur"",""133"",""922914""
","""event"",""trial"",""time""
""focus"",""135"",""931660""
","""event"",""trial"",""time""
""fullscreenenter"",""1"",""2015""
","
","","","1050.7999999523163","","","23","14971","6123","g","elianto","#f73b6a7A"," "," ","1","0","[1901.8999998569489]","1","2","","","14971","23","3","3","lose","go","0"
"pit-trial","145","984401","0.0-28.0","battery-v0.2","","""event"",""trial"",""time""
""fullscreenenter"",""1"",""2015""
""blur"",""133"",""922914""
""focus"",""135"",""931660""
","""event"",""trial"",""time""
""blur"",""133"",""922914""
","""event"",""trial"",""time""
""focus"",""135"",""931660""
","""event"",""trial"",""time""
""fullscreenenter"",""1"",""2015""
","
","","","900.5","","","23","14971","6123","u","elianto","#f73b6a7A","-1"," ","0","0","[1751.1000001430511]","1","2","","","14971","24","0","4","lose","no-go","1"
"pit-trial","146","989262","0.0-29.0","battery-v0.2","","""event"",""trial"",""time""
""fullscreenenter"",""1"",""2015""
""blur"",""133"",""922914""
""focus"",""135"",""931660""
","""event"",""trial"",""time""
""blur"",""133"",""922914""
","""event"",""trial"",""time""
""focus"",""135"",""931660""
","""event"",""trial"",""time""
""fullscreenenter"",""1"",""2015""
","
","","","-1","","","23","14971","6123","l","elianto","#3366ff99"," ","-1","0","0","[]","0","2","","","14971","25","1","1","win","go","0"
"pit-trial","147","993746","0.0-30.0","battery-v0.2","","""event"",""trial"",""time""
""fullscreenenter"",""1"",""2015""
""blur"",""133"",""922914""
""focus"",""135"",""931660""
","""event"",""trial"",""time""
""blur"",""133"",""922914""
","""event"",""trial"",""time""
""focus"",""135"",""931660""
","""event"",""trial"",""time""
""fullscreenenter"",""1"",""2015""
","
","","","1624.3999998569489","","","23","14971","6123","u","elianto","#f73b6a7A","-1"," ","0","-10","[2474.800000190735]","1","2","","","14971","26","0","4","lose","no-go","0"
"pit-trial","148","998605","0.0-31.0","battery-v0.2","","""event"",""trial"",""time""
""fullscreenenter"",""1"",""2015""
""blur"",""133"",""922914""
""focus"",""135"",""931660""
","""event"",""trial"",""time""
""blur"",""133"",""922914""
","""event"",""trial"",""time""
""focus"",""135"",""931660""
","""event"",""trial"",""time""
""fullscreenenter"",""1"",""2015""
","
","","","-1","","","23","14971","6123","g","elianto","#f73b6a7A"," ","-1","0","-10","[2977.2999999523163]","1","2","","","14971","27","3","3","lose","go","0"
"pit-trial","149","1002578","0.0-32.0","battery-v0.2","","""event"",""trial"",""time""
""fullscreenenter"",""1"",""2015""
""blur"",""133"",""922914""
""focus"",""135"",""931660""
","""event"",""trial"",""time""
""blur"",""133"",""922914""
","""event"",""trial"",""time""
""focus"",""135"",""931660""
","""event"",""trial"",""time""
""fullscreenenter"",""1"",""2015""
","
","","","1116.0999999046326","","","23","14971","6123","a","elianto","#f73b6a7A","-1"," ","0","-10","[1969.5999999046326]","1","2","","","14971","28","2","4","lose","no-go","0"
"pit-trial","150","1007439","0.0-33.0","battery-v0.2","","""event"",""trial"",""time""
""fullscreenenter"",""1"",""2015""
""blur"",""133"",""922914""
""focus"",""135"",""931660""
","""event"",""trial"",""time""
""blur"",""133"",""922914""
","""event"",""trial"",""time""
""focus"",""135"",""931660""
","""event"",""trial"",""time""
""fullscreenenter"",""1"",""2015""
","
","","","-1","","","23","14971","6123","l","elianto","#3366ff99"," ","-1","0","0","[]","0","2","","","14971","29","1","1","win","go","0"
"pit-trial","151","1012302","0.0-34.0","battery-v0.2","","""event"",""trial"",""time""
""fullscreenenter"",""1"",""2015""
""blur"",""133"",""922914""
""focus"",""135"",""931660""
","""event"",""trial"",""time""
""blur"",""133"",""922914""
","""event"",""trial"",""time""
""focus"",""135"",""931660""
","""event"",""trial"",""time""
""fullscreenenter"",""1"",""2015""
","
","","","-1","","","23","14971","6123","u","elianto","#f73b6a7A","-1","-1","1","0","[]","0","2","","","14971","30","0","4","lose","no-go","0"
"pit-trial","152","1017162","0.0-35.0","battery-v0.2","","""event"",""trial"",""time""
""fullscreenenter"",""1"",""2015""
""blur"",""133"",""922914""
""focus"",""135"",""931660""
","""event"",""trial"",""time""
""blur"",""133"",""922914""
","""event"",""trial"",""time""
""focus"",""135"",""931660""
","""event"",""trial"",""time""
""fullscreenenter"",""1"",""2015""
","
","","","-1","","","23","14971","6123","a","elianto","#f73b6a7A","-1","-1","1","0","[]","0","2","","","14971","31","2","4","lose","no-go","0"
"pit-trial","153","1022024","0.0-36.0","battery-v0.2","","""event"",""trial"",""time""
""fullscreenenter"",""1"",""2015""
""blur"",""133"",""922914""
""focus"",""135"",""931660""
","""event"",""trial"",""time""
""blur"",""133"",""922914""
","""event"",""trial"",""time""
""focus"",""135"",""931660""
","""event"",""trial"",""time""
""fullscreenenter"",""1"",""2015""
","
","","","-1","","","23","14971","6123","g","elianto","#f73b6a7A"," ","-1","0","-10","[]","0","2","","","14971","32","3","3","lose","go","0"
"pit-trial","154","1026884","0.0-37.0","battery-v0.2","","""event"",""trial"",""time""
""fullscreenenter"",""1"",""2015""
""blur"",""133"",""922914""
""focus"",""135"",""931660""
","""event"",""trial"",""time""
""blur"",""133"",""922914""
","""event"",""trial"",""time""
""focus"",""135"",""931660""
","""event"",""trial"",""time""
""fullscreenenter"",""1"",""2015""
","
","","","-1","","","23","14971","6123","u","elianto","#f73b6a7A","-1","-1","1","0","[]","0","2","","","14971","33","0","4","lose","no-go","0"
"pit-trial","155","1030445","0.0-38.0","battery-v0.2","","""event"",""trial"",""time""
""fullscreenenter"",""1"",""2015""
""blur"",""133"",""922914""
""focus"",""135"",""931660""
","""event"",""trial"",""time""
""blur"",""133"",""922914""
","""event"",""trial"",""time""
""focus"",""135"",""931660""
","""event"",""trial"",""time""
""fullscreenenter"",""1"",""2015""
","
","","","700.5999999046326","","","23","14971","6123","g","elianto","#f73b6a7A"," "," ","1","0","[1553.2000000476837]","1","2","","","14971","34","3","3","lose","go","0"
"pit-trial","156","1035309","0.0-39.0","battery-v0.2","","""event"",""trial"",""time""
""fullscreenenter"",""1"",""2015""
""blur"",""133"",""922914""
""focus"",""135"",""931660""
","""event"",""trial"",""time""
""blur"",""133"",""922914""
","""event"",""trial"",""time""
""focus"",""135"",""931660""
","""event"",""trial"",""time""
""fullscreenenter"",""1"",""2015""
","
","","","-1","","","23","14971","6123","a","elianto","#f73b6a7A","-1","-1","1","0","[]","0","2","","","14971","35","2","4","lose","no-go","0"
"pit-trial","157","1038794","0.0-40.0","battery-v0.2","","""event"",""trial"",""time""
""fullscreenenter"",""1"",""2015""
""blur"",""133"",""922914""
""focus"",""135"",""931660""
","""event"",""trial"",""time""
""blur"",""133"",""922914""
","""event"",""trial"",""time""
""focus"",""135"",""931660""
","""event"",""trial"",""time""
""fullscreenenter"",""1"",""2015""
","
","","","627.5999999046326","","","23","14971","6123","l","elianto","#3366ff99"," "," ","1","+10","[1478.0999999046326]","1","2","","","14971","36","1","1","win","go","0"
"pit-trial","158","1042323","0.0-41.0","battery-v0.2","","""event"",""trial"",""time""
""fullscreenenter"",""1"",""2015""
""blur"",""133"",""922914""
""focus"",""135"",""931660""
","""event"",""trial"",""time""
""blur"",""133"",""922914""
","""event"",""trial"",""time""
""focus"",""135"",""931660""
","""event"",""trial"",""time""
""fullscreenenter"",""1"",""2015""
","
","","","669.5999999046326","","","23","14971","6123","g","elianto","#f73b6a7A"," "," ","1","0","[1520.7999999523163]","1","2","","","14971","37","3","3","lose","go","0"
"pit-trial","159","1045799","0.0-42.0","battery-v0.2","","""event"",""trial"",""time""
""fullscreenenter"",""1"",""2015""
""blur"",""133"",""922914""
""focus"",""135"",""931660""
","""event"",""trial"",""time""
""blur"",""133"",""922914""
","""event"",""trial"",""time""
""focus"",""135"",""931660""
","""event"",""trial"",""time""
""fullscreenenter"",""1"",""2015""
","
","","","617","","","23","14971","6123","l","elianto","#3366ff99"," "," ","1","+10","[1468.5]","1","2","","","14971","38","1","1","win","go","0"
"pit-trial","160","1050663","0.0-43.0","battery-v0.2","","""event"",""trial"",""time""
""fullscreenenter"",""1"",""2015""
""blur"",""133"",""922914""
""focus"",""135"",""931660""
","""event"",""trial"",""time""
""blur"",""133"",""922914""
","""event"",""trial"",""time""
""focus"",""135"",""931660""
","""event"",""trial"",""time""
""fullscreenenter"",""1"",""2015""
","
","","","-1","","","23","14971","6123","u","elianto","#f73b6a7A","-1","-1","1","0","[]","0","2","","","14971","39","0","4","lose","no-go","0"
"pit-trial","161","1055524","0.0-44.0","battery-v0.2","","""event"",""trial"",""time""
""fullscreenenter"",""1"",""2015""
""blur"",""133"",""922914""
""focus"",""135"",""931660""
","""event"",""trial"",""time""
""blur"",""133"",""922914""
","""event"",""trial"",""time""
""focus"",""135"",""931660""
","""event"",""trial"",""time""
""fullscreenenter"",""1"",""2015""
","
","","","-1","","","23","14971","6123","a","elianto","#f73b6a7A","-1","-1","1","0","[]","0","2","","","14971","40","2","4","lose","no-go","0"
"pit-trial","162","1058910","0.0-45.0","battery-v0.2","","""event"",""trial"",""time""
""fullscreenenter"",""1"",""2015""
""blur"",""133"",""922914""
""focus"",""135"",""931660""
","""event"",""trial"",""time""
""blur"",""133"",""922914""
","""event"",""trial"",""time""
""focus"",""135"",""931660""
","""event"",""trial"",""time""
""fullscreenenter"",""1"",""2015""
","
","","","525.0999999046326","","","23","14971","6123","l","elianto","#3366ff99"," "," ","1","+10","[1376.7999999523163]","1","2","","","14971","41","1","1","win","go","0"
"pit-trial","163","1063774","0.0-46.0","battery-v0.2","","""event"",""trial"",""time""
""fullscreenenter"",""1"",""2015""
""blur"",""133"",""922914""
""focus"",""135"",""931660""
","""event"",""trial"",""time""
""blur"",""133"",""922914""
","""event"",""trial"",""time""
""focus"",""135"",""931660""
","""event"",""trial"",""time""
""fullscreenenter"",""1"",""2015""
","
","","","-1","","","23","14971","6123","u","elianto","#f73b6a7A","-1","-1","1","0","[]","0","2","","","14971","42","0","4","lose","no-go","0"
"pit-trial","164","1067350","0.0-47.0","battery-v0.2","","""event"",""trial"",""time""
""fullscreenenter"",""1"",""2015""
""blur"",""133"",""922914""
""focus"",""135"",""931660""
","""event"",""trial"",""time""
""blur"",""133"",""922914""
","""event"",""trial"",""time""
""focus"",""135"",""931660""
","""event"",""trial"",""time""
""fullscreenenter"",""1"",""2015""
","
","","","716.9000000953674","","","23","14971","6123","g","elianto","#f73b6a7A"," "," ","1","-10","[1568.2000000476837]","1","2","","","14971","43","3","3","lose","go","1"
"pit-trial","165","1072209","0.0-48.0","battery-v0.2","","""event"",""trial"",""time""
""fullscreenenter"",""1"",""2015""
""blur"",""133"",""922914""
""focus"",""135"",""931660""
","""event"",""trial"",""time""
""blur"",""133"",""922914""
","""event"",""trial"",""time""
""focus"",""135"",""931660""
","""event"",""trial"",""time""
""fullscreenenter"",""1"",""2015""
","
","","","-1","","","23","14971","6123","a","elianto","#f73b6a7A","-1","-1","1","-10","[]","0","2","","","14971","44","2","4","lose","no-go","1"
"pit-trial","166","1075716","0.0-49.0","battery-v0.2","","""event"",""trial"",""time""
""fullscreenenter"",""1"",""2015""
""blur"",""133"",""922914""
""focus"",""135"",""931660""
","""event"",""trial"",""time""
""blur"",""133"",""922914""
","""event"",""trial"",""time""
""focus"",""135"",""931660""
","""event"",""trial"",""time""
""fullscreenenter"",""1"",""2015""
","
","","","651.0999999046326","","","23","14971","6123","g","elianto","#f73b6a7A"," "," ","1","0","[1501.2999999523163]","1","2","","","14971","45","3","3","lose","go","0"
"pit-trial","167","1079943","0.0-50.0","battery-v0.2","","""event"",""trial"",""time""
""fullscreenenter"",""1"",""2015""
""blur"",""133"",""922914""
""focus"",""135"",""931660""
","""event"",""trial"",""time""
""blur"",""133"",""922914""
","""event"",""trial"",""time""
""focus"",""135"",""931660""
","""event"",""trial"",""time""
""fullscreenenter"",""1"",""2015""
","
","","","1367.5999999046326","","","23","14971","6123","p","elianto","#3366ff99","-1"," ","0","0","[2219.2999999523163]","1","2","","","14971","46","4","2","win","no-go","0"
"pit-trial","168","1084805","0.0-51.0","battery-v0.2","","""event"",""trial"",""time""
""fullscreenenter"",""1"",""2015""
""blur"",""133"",""922914""
""focus"",""135"",""931660""
","""event"",""trial"",""time""
""blur"",""133"",""922914""
","""event"",""trial"",""time""
""focus"",""135"",""931660""
","""event"",""trial"",""time""
""fullscreenenter"",""1"",""2015""
","
","","","-1","","","23","14971","6123","a","elianto","#f73b6a7A","-1","-1","1","0","[]","0","2","","","14971","47","2","4","lose","no-go","0"
"pit-trial","169","1089668","0.0-52.0","battery-v0.2","","""event"",""trial"",""time""
""fullscreenenter"",""1"",""2015""
""blur"",""133"",""922914""
""focus"",""135"",""931660""
","""event"",""trial"",""time""
""blur"",""133"",""922914""
","""event"",""trial"",""time""
""focus"",""135"",""931660""
","""event"",""trial"",""time""
""fullscreenenter"",""1"",""2015""
","
","","","-1","","","23","14971","6123","u","elianto","#f73b6a7A","-1","-1","1","0","[]","0","2","","","14971","48","0","4","lose","no-go","0"
"pit-trial","170","1093253","0.0-53.0","battery-v0.2","","""event"",""trial"",""time""
""fullscreenenter"",""1"",""2015""
""blur"",""133"",""922914""
""focus"",""135"",""931660""
","""event"",""trial"",""time""
""blur"",""133"",""922914""
","""event"",""trial"",""time""
""focus"",""135"",""931660""
","""event"",""trial"",""time""
""fullscreenenter"",""1"",""2015""
","
","","","724.7000000476837","","","23","14971","6123","g","elianto","#f73b6a7A"," "," ","1","0","[1575.9000000953674]","1","2","","","14971","49","3","3","lose","go","0"
"pit-trial","171","1097440","0.0-54.0","battery-v0.2","","""event"",""trial"",""time""
""fullscreenenter"",""1"",""2015""
""blur"",""133"",""922914""
""focus"",""135"",""931660""
","""event"",""trial"",""time""
""blur"",""133"",""922914""
","""event"",""trial"",""time""
""focus"",""135"",""931660""
","""event"",""trial"",""time""
""fullscreenenter"",""1"",""2015""
","
","","","1329.8000001907349","","","23","14971","6123","p","elianto","#3366ff99","-1"," ","0","0","[2182.4000000953674]","1","2","","","14971","50","4","2","win","no-go","0"
"pit-trial","172","1102302","0.0-55.0","battery-v0.2","","""event"",""trial"",""time""
""fullscreenenter"",""1"",""2015""
""blur"",""133"",""922914""
""focus"",""135"",""931660""
","""event"",""trial"",""time""
""blur"",""133"",""922914""
","""event"",""trial"",""time""
""focus"",""135"",""931660""
","""event"",""trial"",""time""
""fullscreenenter"",""1"",""2015""
","
","","","-1","","","23","14971","6123","u","elianto","#f73b6a7A","-1","-1","1","0","[]","0","2","","","14971","51","0","4","lose","no-go","0"
"pit-trial","173","1106045","0.0-56.0","battery-v0.2","","""event"",""trial"",""time""
""fullscreenenter"",""1"",""2015""
""blur"",""133"",""922914""
""focus"",""135"",""931660""
","""event"",""trial"",""time""
""blur"",""133"",""922914""
","""event"",""trial"",""time""
""focus"",""135"",""931660""
","""event"",""trial"",""time""
""fullscreenenter"",""1"",""2015""
","
","","","884","","","23","14971","6123","l","elianto","#3366ff99"," "," ","1","+10","[1736.6000001430511]","1","2","","","14971","52","1","1","win","go","0"
"pit-trial","174","1109930","0.0-57.0","battery-v0.2","","""event"",""trial"",""time""
""fullscreenenter"",""1"",""2015""
""blur"",""133"",""922914""
""focus"",""135"",""931660""
","""event"",""trial"",""time""
""blur"",""133"",""922914""
","""event"",""trial"",""time""
""focus"",""135"",""931660""
","""event"",""trial"",""time""
""fullscreenenter"",""1"",""2015""
","
","","","1026.6000001430511","","","23","14971","6123","l","elianto","#3366ff99"," "," ","1","0","[1877.7000000476837]","1","2","","","14971","53","1","1","win","go","1"
"pit-trial","175","1114793","0.0-58.0","battery-v0.2","","""event"",""trial"",""time""
""fullscreenenter"",""1"",""2015""
""blur"",""133"",""922914""
""focus"",""135"",""931660""
","""event"",""trial"",""time""
""blur"",""133"",""922914""
","""event"",""trial"",""time""
""focus"",""135"",""931660""
","""event"",""trial"",""time""
""fullscreenenter"",""1"",""2015""
","
","","","-1","","","23","14971","6123","u","elianto","#f73b6a7A","-1","-1","1","-10","[]","0","2","","","14971","54","0","4","lose","no-go","1"
"pit-trial","176","1119655","0.0-59.0","battery-v0.2","","""event"",""trial"",""time""
""fullscreenenter"",""1"",""2015""
""blur"",""133"",""922914""
""focus"",""135"",""931660""
","""event"",""trial"",""time""
""blur"",""133"",""922914""
","""event"",""trial"",""time""
""focus"",""135"",""931660""
","""event"",""trial"",""time""
""fullscreenenter"",""1"",""2015""
","
","","","-1","","","23","14971","6123","p","elianto","#3366ff99","-1","-1","1","+10","[]","0","2","","","14971","55","4","2","win","no-go","0"
"pit-trial","177","1124516","0.0-60.0","battery-v0.2","","""event"",""trial"",""time""
""fullscreenenter"",""1"",""2015""
""blur"",""133"",""922914""
""focus"",""135"",""931660""
","""event"",""trial"",""time""
""blur"",""133"",""922914""
","""event"",""trial"",""time""
""focus"",""135"",""931660""
","""event"",""trial"",""time""
""fullscreenenter"",""1"",""2015""
","
","","","-1","","","23","14971","6123","a","elianto","#f73b6a7A","-1","-1","1","0","[]","0","2","","","14971","56","2","4","lose","no-go","0"
"pit-trial","178","1129378","0.0-61.0","battery-v0.2","","""event"",""trial"",""time""
""fullscreenenter"",""1"",""2015""
""blur"",""133"",""922914""
""focus"",""135"",""931660""
","""event"",""trial"",""time""
""blur"",""133"",""922914""
","""event"",""trial"",""time""
""focus"",""135"",""931660""
","""event"",""trial"",""time""
""fullscreenenter"",""1"",""2015""
","
","","","-1","","","23","14971","6123","p","elianto","#3366ff99","-1","-1","1","0","[]","0","2","","","14971","57","4","2","win","no-go","1"
"pit-trial","179","1133500","0.0-62.0","battery-v0.2","","""event"",""trial"",""time""
""fullscreenenter"",""1"",""2015""
""blur"",""133"",""922914""
""focus"",""135"",""931660""
","""event"",""trial"",""time""
""blur"",""133"",""922914""
","""event"",""trial"",""time""
""focus"",""135"",""931660""
","""event"",""trial"",""time""
""fullscreenenter"",""1"",""2015""
","
","","","1263.2999999523163","","","23","14971","6123","g","elianto","#f73b6a7A"," "," ","1","0","[2114]","1","2","","","14971","58","3","3","lose","go","0"
"pit-trial","180","1137619","0.0-63.0","battery-v0.2","","""event"",""trial"",""time""
""fullscreenenter"",""1"",""2015""
""blur"",""133"",""922914""
""focus"",""135"",""931660""
","""event"",""trial"",""time""
""blur"",""133"",""922914""
","""event"",""trial"",""time""
""focus"",""135"",""931660""
","""event"",""trial"",""time""
""fullscreenenter"",""1"",""2015""
","
","","","1258.8999998569489","","","23","14971","6123","l","elianto","#3366ff99"," "," ","1","+10","[2111.7000000476837]","1","2","","","14971","59","1","1","win","go","0"
"pit-trial","181","1142479","0.0-64.0","battery-v0.2","","""event"",""trial"",""time""
""fullscreenenter"",""1"",""2015""
""blur"",""133"",""922914""
""focus"",""135"",""931660""
","""event"",""trial"",""time""
""blur"",""133"",""922914""
","""event"",""trial"",""time""
""focus"",""135"",""931660""
","""event"",""trial"",""time""
""fullscreenenter"",""1"",""2015""
","
","","","-1","","","23","14971","6123","u","elianto","#f73b6a7A","-1","-1","1","0","[]","0","2","","","14971","60","0","4","lose","no-go","0"
"pit-trial","182","1146487","0.0-65.0","battery-v0.2","","""event"",""trial"",""time""
""fullscreenenter"",""1"",""2015""
""blur"",""133"",""922914""
""focus"",""135"",""931660""
","""event"",""trial"",""time""
""blur"",""133"",""922914""
","""event"",""trial"",""time""
""focus"",""135"",""931660""
","""event"",""trial"",""time""
""fullscreenenter"",""1"",""2015""
","
","","","1147.5","","","23","14971","6123","g","elianto","#f73b6a7A"," "," ","1","0","[1998.7999999523163]","1","2","","","14971","61","3","3","lose","go","0"
"pit-trial","183","1151349","0.0-66.0","battery-v0.2","","""event"",""trial"",""time""
""fullscreenenter"",""1"",""2015""
""blur"",""133"",""922914""
""focus"",""135"",""931660""
","""event"",""trial"",""time""
""blur"",""133"",""922914""
","""event"",""trial"",""time""
""focus"",""135"",""931660""
","""event"",""trial"",""time""
""fullscreenenter"",""1"",""2015""
","
","","","-1","","","23","14971","6123","a","elianto","#f73b6a7A","-1","-1","1","0","[]","0","2","","","14971","62","2","4","lose","no-go","0"
"pit-trial","184","1156208","0.0-67.0","battery-v0.2","","""event"",""trial"",""time""
""fullscreenenter"",""1"",""2015""
""blur"",""133"",""922914""
""focus"",""135"",""931660""
","""event"",""trial"",""time""
""blur"",""133"",""922914""
","""event"",""trial"",""time""
""focus"",""135"",""931660""
","""event"",""trial"",""time""
""fullscreenenter"",""1"",""2015""
","
","","","-1","","","23","14971","6123","p","elianto","#3366ff99","-1","-1","1","+10","[]","0","2","","","14971","63","4","2","win","no-go","0"
"pit-trial","185","1160243","0.0-68.0","battery-v0.2","","""event"",""trial"",""time""
""fullscreenenter"",""1"",""2015""
""blur"",""133"",""922914""
""focus"",""135"",""931660""
","""event"",""trial"",""time""
""blur"",""133"",""922914""
","""event"",""trial"",""time""
""focus"",""135"",""931660""
","""event"",""trial"",""time""
""fullscreenenter"",""1"",""2015""
","
","","","1178.5999999046326","","","23","14971","6123","l","elianto","#3366ff99"," "," ","1","+10","[2029]","1","2","","","14971","64","1","1","win","go","0"
"pit-trial","186","1165108","0.0-69.0","battery-v0.2","","""event"",""trial"",""time""
""fullscreenenter"",""1"",""2015""
""blur"",""133"",""922914""
""focus"",""135"",""931660""
","""event"",""trial"",""time""
""blur"",""133"",""922914""
","""event"",""trial"",""time""
""focus"",""135"",""931660""
","""event"",""trial"",""time""
""fullscreenenter"",""1"",""2015""
","
","","","-1","","","23","14971","6123","p","elianto","#3366ff99","-1","-1","1","+10","[]","0","2","","","14971","65","4","2","win","no-go","0"
"pit-trial","187","1169968","0.0-70.0","battery-v0.2","","""event"",""trial"",""time""
""fullscreenenter"",""1"",""2015""
""blur"",""133"",""922914""
""focus"",""135"",""931660""
","""event"",""trial"",""time""
""blur"",""133"",""922914""
","""event"",""trial"",""time""
""focus"",""135"",""931660""
","""event"",""trial"",""time""
""fullscreenenter"",""1"",""2015""
","
","","","-1","","","23","14971","6123","a","elianto","#f73b6a7A","-1","-1","1","0","[]","0","2","","","14971","66","2","4","lose","no-go","0"
"pit-trial","188","1173824","0.0-71.0","battery-v0.2","","""event"",""trial"",""time""
""fullscreenenter"",""1"",""2015""
""blur"",""133"",""922914""
""focus"",""135"",""931660""
","""event"",""trial"",""time""
""blur"",""133"",""922914""
","""event"",""trial"",""time""
""focus"",""135"",""931660""
","""event"",""trial"",""time""
""fullscreenenter"",""1"",""2015""
","
","","","997","","","23","14971","6123","l","elianto","#3366ff99"," "," ","1","+10","[1848.6000001430511]","1","2","","","14971","67","1","1","win","go","0"
"pit-trial","189","1177613","0.0-72.0","battery-v0.2","","""event"",""trial"",""time""
""fullscreenenter"",""1"",""2015""
""blur"",""133"",""922914""
""focus"",""135"",""931660""
","""event"",""trial"",""time""
""blur"",""133"",""922914""
","""event"",""trial"",""time""
""focus"",""135"",""931660""
","""event"",""trial"",""time""
""fullscreenenter"",""1"",""2015""
","
","","","930.9000000953674","","","23","14971","6123","g","elianto","#f73b6a7A"," "," ","1","-10","[1782.2999999523163]","1","2","","","14971","68","3","3","lose","go","1"
"pit-trial","190","1182473","0.0-73.0","battery-v0.2","","""event"",""trial"",""time""
""fullscreenenter"",""1"",""2015""
""blur"",""133"",""922914""
""focus"",""135"",""931660""
","""event"",""trial"",""time""
""blur"",""133"",""922914""
","""event"",""trial"",""time""
""focus"",""135"",""931660""
","""event"",""trial"",""time""
""fullscreenenter"",""1"",""2015""
","
","","","-1","","","23","14971","6123","p","elianto","#3366ff99","-1","-1","1","+10","[]","0","2","","","14971","69","4","2","win","no-go","0"
"pit-trial","191","1186819","0.0-74.0","battery-v0.2","","""event"",""trial"",""time""
""fullscreenenter"",""1"",""2015""
""blur"",""133"",""922914""
""focus"",""135"",""931660""
","""event"",""trial"",""time""
""blur"",""133"",""922914""
","""event"",""trial"",""time""
""focus"",""135"",""931660""
","""event"",""trial"",""time""
""fullscreenenter"",""1"",""2015""
","
","","","1486.4000000953674","","","23","14971","6123","s","elianto","#3366ff99"," "," ","1","+10","[2337.399999856949]","1","2","","","14971","70","5","1","win","go","0"
"pit-trial","192","1190761","0.0-75.0","battery-v0.2","","""event"",""trial"",""time""
""fullscreenenter"",""1"",""2015""
""blur"",""133"",""922914""
""focus"",""135"",""931660""
","""event"",""trial"",""time""
""blur"",""133"",""922914""
","""event"",""trial"",""time""
""focus"",""135"",""931660""
","""event"",""trial"",""time""
""fullscreenenter"",""1"",""2015""
","
","","","1080.0999999046326","","","23","14971","6123","l","elianto","#3366ff99"," "," ","1","+10","[1933.2000000476837]","1","2","","","14971","71","1","1","win","go","0"
"pit-trial","193","1194506","0.0-76.0","battery-v0.2","","""event"",""trial"",""time""
""fullscreenenter"",""1"",""2015""
""blur"",""133"",""922914""
""focus"",""135"",""931660""
","""event"",""trial"",""time""
""blur"",""133"",""922914""
","""event"",""trial"",""time""
""focus"",""135"",""931660""
","""event"",""trial"",""time""
""fullscreenenter"",""1"",""2015""
","
","","","887","","","23","14971","6123","g","elianto","#f73b6a7A"," "," ","1","0","[1737.7000000476837]","1","2","","","14971","72","3","3","lose","go","0"
"pit-trial","194","1197949","0.0-77.0","battery-v0.2","","""event"",""trial"",""time""
""fullscreenenter"",""1"",""2015""
""blur"",""133"",""922914""
""focus"",""135"",""931660""
","""event"",""trial"",""time""
""blur"",""133"",""922914""
","""event"",""trial"",""time""
""focus"",""135"",""931660""
","""event"",""trial"",""time""
""fullscreenenter"",""1"",""2015""
","
","","","584.2999999523163","","","23","14971","6123","s","elianto","#3366ff99"," "," ","1","+10","[1435.3999998569489]","1","2","","","14971","73","5","1","win","go","0"
"pit-trial","195","1201662","0.0-78.0","battery-v0.2","","""event"",""trial"",""time""
""fullscreenenter"",""1"",""2015""
""blur"",""133"",""922914""
""focus"",""135"",""931660""
","""event"",""trial"",""time""
""blur"",""133"",""922914""
","""event"",""trial"",""time""
""focus"",""135"",""931660""
","""event"",""trial"",""time""
""fullscreenenter"",""1"",""2015""
","
","","","852.5","","","23","14971","6123","g","elianto","#f73b6a7A"," "," ","1","0","[1703.8999998569489]","1","2","","","14971","74","3","3","lose","go","0"
"pit-trial","196","1206525","0.0-79.0","battery-v0.2","","""event"",""trial"",""time""
""fullscreenenter"",""1"",""2015""
""blur"",""133"",""922914""
""focus"",""135"",""931660""
","""event"",""trial"",""time""
""blur"",""133"",""922914""
","""event"",""trial"",""time""
""focus"",""135"",""931660""
","""event"",""trial"",""time""
""fullscreenenter"",""1"",""2015""
","
","","","-1","","","23","14971","6123","p","elianto","#3366ff99","-1","-1","1","+10","[]","0","2","","","14971","75","4","2","win","no-go","0"
"pit-trial","197","1210103","0.0-80.0","battery-v0.2","","""event"",""trial"",""time""
""fullscreenenter"",""1"",""2015""
""blur"",""133"",""922914""
""focus"",""135"",""931660""
","""event"",""trial"",""time""
""blur"",""133"",""922914""
","""event"",""trial"",""time""
""focus"",""135"",""931660""
","""event"",""trial"",""time""
""fullscreenenter"",""1"",""2015""
","
","","","721.8999998569489","","","23","14971","6123","l","elianto","#3366ff99"," "," ","1","+10","[1573]","1","2","","","14971","76","1","1","win","go","0"
"pit-trial","198","1214966","0.0-81.0","battery-v0.2","","""event"",""trial"",""time""
""fullscreenenter"",""1"",""2015""
""blur"",""133"",""922914""
""focus"",""135"",""931660""
","""event"",""trial"",""time""
""blur"",""133"",""922914""
","""event"",""trial"",""time""
""focus"",""135"",""931660""
","""event"",""trial"",""time""
""fullscreenenter"",""1"",""2015""
","
","","","-1","","","23","14971","6123","w","elianto","#f73b6a7A","-1","-1","1","0","[]","0","2","","","14971","77","6","4","lose","no-go","0"
"pit-trial","199","1218775","0.0-82.0","battery-v0.2","","""event"",""trial"",""time""
""fullscreenenter"",""1"",""2015""
""blur"",""133"",""922914""
""focus"",""135"",""931660""
","""event"",""trial"",""time""
""blur"",""133"",""922914""
","""event"",""trial"",""time""
""focus"",""135"",""931660""
","""event"",""trial"",""time""
""fullscreenenter"",""1"",""2015""
","
","","","947.7000000476837","","","23","14971","6123","s","elianto","#3366ff99"," "," ","1","+10","[1799.7000000476837]","1","2","","","14971","78","5","1","win","go","0"
"pit-trial","200","1223639","0.0-83.0","battery-v0.2","","""event"",""trial"",""time""
""fullscreenenter"",""1"",""2015""
""blur"",""133"",""922914""
""focus"",""135"",""931660""
","""event"",""trial"",""time""
""blur"",""133"",""922914""
","""event"",""trial"",""time""
""focus"",""135"",""931660""
","""event"",""trial"",""time""
""fullscreenenter"",""1"",""2015""
","
","","","-1","","","23","14971","6123","p","elianto","#3366ff99","-1","-1","1","+10","[]","0","2","","","14971","79","4","2","win","no-go","0"
"pit-trial","201","1228055","0.0-84.0","battery-v0.2","","""event"",""trial"",""time""
""fullscreenenter"",""1"",""2015""
""blur"",""133"",""922914""
""focus"",""135"",""931660""
","""event"",""trial"",""time""
""blur"",""133"",""922914""
","""event"",""trial"",""time""
""focus"",""135"",""931660""
","""event"",""trial"",""time""
""fullscreenenter"",""1"",""2015""
","
","","","1558.2999999523163","","","23","14971","6123","g","elianto","#f73b6a7A"," "," ","1","0","[2409.4000000953674]","1","2","","","14971","80","3","3","lose","go","0"
"pit-trial","202","1231739","0.0-85.0","battery-v0.2","","""event"",""trial"",""time""
""fullscreenenter"",""1"",""2015""
""blur"",""133"",""922914""
""focus"",""135"",""931660""
","""event"",""trial"",""time""
""blur"",""133"",""922914""
","""event"",""trial"",""time""
""focus"",""135"",""931660""
","""event"",""trial"",""time""
""fullscreenenter"",""1"",""2015""
","
","","","824.1000001430511","","","23","14971","6123","s","elianto","#3366ff99"," "," ","1","+10","[1676]","1","2","","","14971","81","5","1","win","go","0"
"pit-trial","203","1236603","0.0-86.0","battery-v0.2","","""event"",""trial"",""time""
""fullscreenenter"",""1"",""2015""
""blur"",""133"",""922914""
""focus"",""135"",""931660""
","""event"",""trial"",""time""
""blur"",""133"",""922914""
","""event"",""trial"",""time""
""focus"",""135"",""931660""
","""event"",""trial"",""time""
""fullscreenenter"",""1"",""2015""
","
","","","-1","","","23","14971","6123","e","elianto","#f73b6a7A"," ","-1","0","-10","[]","0","2","","","14971","82","7","3","lose","go","0"
"pit-trial","204","1241463","0.0-87.0","battery-v0.2","","""event"",""trial"",""time""
""fullscreenenter"",""1"",""2015""
""blur"",""133"",""922914""
""focus"",""135"",""931660""
","""event"",""trial"",""time""
""blur"",""133"",""922914""
","""event"",""trial"",""time""
""focus"",""135"",""931660""
","""event"",""trial"",""time""
""fullscreenenter"",""1"",""2015""
","
","","","-1","","","23","14971","6123","w","elianto","#f73b6a7A","-1","-1","1","0","[]","0","2","","","14971","83","6","4","lose","no-go","0"
"pit-trial","205","1246325","0.0-88.0","battery-v0.2","","""event"",""trial"",""time""
""fullscreenenter"",""1"",""2015""
""blur"",""133"",""922914""
""focus"",""135"",""931660""
","""event"",""trial"",""time""
""blur"",""133"",""922914""
","""event"",""trial"",""time""
""focus"",""135"",""931660""
","""event"",""trial"",""time""
""fullscreenenter"",""1"",""2015""
","
","","","-1","","","23","14971","6123","p","elianto","#3366ff99","-1","-1","1","+10","[]","0","2","","","14971","84","4","2","win","no-go","0"
"pit-trial","206","1250347","0.0-89.0","battery-v0.2","","""event"",""trial"",""time""
""fullscreenenter"",""1"",""2015""
""blur"",""133"",""922914""
""focus"",""135"",""931660""
","""event"",""trial"",""time""
""blur"",""133"",""922914""
","""event"",""trial"",""time""
""focus"",""135"",""931660""
","""event"",""trial"",""time""
""fullscreenenter"",""1"",""2015""
","
","","","1163","","","23","14971","6123","s","elianto","#3366ff99"," "," ","1","+10","[2014.5]","1","2","","","14971","85","5","1","win","go","0"
"pit-trial","207","1255210","0.0-90.0","battery-v0.2","","""event"",""trial"",""time""
""fullscreenenter"",""1"",""2015""
""blur"",""133"",""922914""
""focus"",""135"",""931660""
","""event"",""trial"",""time""
""blur"",""133"",""922914""
","""event"",""trial"",""time""
""focus"",""135"",""931660""
","""event"",""trial"",""time""
""fullscreenenter"",""1"",""2015""
","
","","","-1","","","23","14971","6123","w","elianto","#f73b6a7A","-1","-1","1","-10","[]","0","2","","","14971","86","6","4","lose","no-go","1"
"pit-trial","208","1260074","0.0-91.0","battery-v0.2","","""event"",""trial"",""time""
""fullscreenenter"",""1"",""2015""
""blur"",""133"",""922914""
""focus"",""135"",""931660""
","""event"",""trial"",""time""
""blur"",""133"",""922914""
","""event"",""trial"",""time""
""focus"",""135"",""931660""
","""event"",""trial"",""time""
""fullscreenenter"",""1"",""2015""
","
","","","-1","","","23","14971","6123","p","elianto","#3366ff99","-1","-1","1","+10","[]","0","2","","","14971","87","4","2","win","no-go","0"
"pit-trial","209","1263629","0.0-92.0","battery-v0.2","","""event"",""trial"",""time""
""fullscreenenter"",""1"",""2015""
""blur"",""133"",""922914""
""focus"",""135"",""931660""
","""event"",""trial"",""time""
""blur"",""133"",""922914""
","""event"",""trial"",""time""
""focus"",""135"",""931660""
","""event"",""trial"",""time""
""fullscreenenter"",""1"",""2015""
","
","","","696","","","23","14971","6123","e","elianto","#f73b6a7A"," "," ","1","0","[1546.0999999046326]","1","2","","","14971","88","7","3","lose","go","0"
"pit-trial","210","1267695","0.0-93.0","battery-v0.2","","""event"",""trial"",""time""
""fullscreenenter"",""1"",""2015""
""blur"",""133"",""922914""
""focus"",""135"",""931660""
","""event"",""trial"",""time""
""blur"",""133"",""922914""
","""event"",""trial"",""time""
""focus"",""135"",""931660""
","""event"",""trial"",""time""
""fullscreenenter"",""1"",""2015""
","
","","","1208.4000000953674","","","23","14971","6123","e","elianto","#f73b6a7A"," "," ","1","0","[2059.4000000953674]","1","2","","","14971","89","7","3","lose","go","0"
"pit-trial","211","1272556","0.0-94.0","battery-v0.2","","""event"",""trial"",""time""
""fullscreenenter"",""1"",""2015""
""blur"",""133"",""922914""
""focus"",""135"",""931660""
","""event"",""trial"",""time""
""blur"",""133"",""922914""
","""event"",""trial"",""time""
""focus"",""135"",""931660""
","""event"",""trial"",""time""
""fullscreenenter"",""1"",""2015""
","
","","","-1","","","23","14971","6123","p","elianto","#3366ff99","-1","-1","1","+10","[]","0","2","","","14971","90","4","2","win","no-go","0"
"pit-trial","212","1277187","0.0-95.0","battery-v0.2","","""event"",""trial"",""time""
""fullscreenenter"",""1"",""2015""
""blur"",""133"",""922914""
""focus"",""135"",""931660""
","""event"",""trial"",""time""
""blur"",""133"",""922914""
","""event"",""trial"",""time""
""focus"",""135"",""931660""
","""event"",""trial"",""time""
""fullscreenenter"",""1"",""2015""
","
","","","1769.4000000953674","","","23","14971","6123","w","elianto","#f73b6a7A","-1"," ","0","0","[2622.2999999523163]","1","2","","","14971","91","6","4","lose","no-go","1"
"pit-trial","213","1281403","0.0-96.0","battery-v0.2","","""event"",""trial"",""time""
""fullscreenenter"",""1"",""2015""
""blur"",""133"",""922914""
""focus"",""135"",""931660""
","""event"",""trial"",""time""
""blur"",""133"",""922914""
","""event"",""trial"",""time""
""focus"",""135"",""931660""
","""event"",""trial"",""time""
""fullscreenenter"",""1"",""2015""
","
","","","1354.4000000953674","","","23","14971","6123","s","elianto","#3366ff99"," "," ","1","+10","[2207.5]","1","2","","","14971","92","5","1","win","go","0"
"pit-trial","214","1285105","0.0-97.0","battery-v0.2","","""event"",""trial"",""time""
""fullscreenenter"",""1"",""2015""
""blur"",""133"",""922914""
""focus"",""135"",""931660""
","""event"",""trial"",""time""
""blur"",""133"",""922914""
","""event"",""trial"",""time""
""focus"",""135"",""931660""
","""event"",""trial"",""time""
""fullscreenenter"",""1"",""2015""
","
","","","841.5","","","23","14971","6123","s","elianto","#3366ff99"," "," ","1","0","[1693.3999998569489]","1","2","","","14971","93","5","1","win","go","1"
"pit-trial","215","1289608","0.0-98.0","battery-v0.2","","""event"",""trial"",""time""
""fullscreenenter"",""1"",""2015""
""blur"",""133"",""922914""
""focus"",""135"",""931660""
","""event"",""trial"",""time""
""blur"",""133"",""922914""
","""event"",""trial"",""time""
""focus"",""135"",""931660""
","""event"",""trial"",""time""
""fullscreenenter"",""1"",""2015""
","
","","","1643","","","23","14971","6123","e","elianto","#f73b6a7A"," "," ","1","-10","[2495.5999999046326]","1","2","","","14971","94","7","3","lose","go","1"
"pit-trial","216","1294472","0.0-99.0","battery-v0.2","","""event"",""trial"",""time""
""fullscreenenter"",""1"",""2015""
""blur"",""133"",""922914""
""focus"",""135"",""931660""
","""event"",""trial"",""time""
""blur"",""133"",""922914""
","""event"",""trial"",""time""
""focus"",""135"",""931660""
","""event"",""trial"",""time""
""fullscreenenter"",""1"",""2015""
","
","","","-1","","","23","14971","6123","w","elianto","#f73b6a7A","-1","-1","1","0","[]","0","2","","","14971","95","6","4","lose","no-go","0"
"pit-trial","217","1298566","0.0-100.0","battery-v0.2","","""event"",""trial"",""time""
""fullscreenenter"",""1"",""2015""
""blur"",""133"",""922914""
""focus"",""135"",""931660""
","""event"",""trial"",""time""
""blur"",""133"",""922914""
","""event"",""trial"",""time""
""focus"",""135"",""931660""
","""event"",""trial"",""time""
""fullscreenenter"",""1"",""2015""
","
","","","1235.5999999046326","","","23","14971","6123","d","elianto","#3366ff99","-1"," ","0","0","[2086.699999809265]","1","2","","","14971","96","8","2","win","no-go","0"
"pit-trial","218","1303428","0.0-101.0","battery-v0.2","","""event"",""trial"",""time""
""fullscreenenter"",""1"",""2015""
""blur"",""133"",""922914""
""focus"",""135"",""931660""
","""event"",""trial"",""time""
""blur"",""133"",""922914""
","""event"",""trial"",""time""
""focus"",""135"",""931660""
","""event"",""trial"",""time""
""fullscreenenter"",""1"",""2015""
","
","","","-1","","","23","14971","6123","w","elianto","#f73b6a7A","-1","-1","1","-10","[]","0","2","","","14971","97","6","4","lose","no-go","1"
"pit-trial","219","1307361","0.0-102.0","battery-v0.2","","""event"",""trial"",""time""
""fullscreenenter"",""1"",""2015""
""blur"",""133"",""922914""
""focus"",""135"",""931660""
","""event"",""trial"",""time""
""blur"",""133"",""922914""
","""event"",""trial"",""time""
""focus"",""135"",""931660""
","""event"",""trial"",""time""
""fullscreenenter"",""1"",""2015""
","
","","","1076.6999998092651","","","23","14971","6123","e","elianto","#f73b6a7A"," "," ","1","0","[1927.2000000476837]","1","2","","","14971","98","7","3","lose","go","0"
"pit-trial","220","1311115","0.0-103.0","battery-v0.2","","""event"",""trial"",""time""
""fullscreenenter"",""1"",""2015""
""blur"",""133"",""922914""
""focus"",""135"",""931660""
","""event"",""trial"",""time""
""blur"",""133"",""922914""
","""event"",""trial"",""time""
""focus"",""135"",""931660""
","""event"",""trial"",""time""
""fullscreenenter"",""1"",""2015""
","
","","","894.0999999046326","","","23","14971","6123","d","elianto","#3366ff99","-1"," ","0","+10","[1745.0999999046326]","1","2","","","14971","99","8","2","win","no-go","1"
"pit-trial","221","1314813","0.0-104.0","battery-v0.2","","""event"",""trial"",""time""
""fullscreenenter"",""1"",""2015""
""blur"",""133"",""922914""
""focus"",""135"",""931660""
","""event"",""trial"",""time""
""blur"",""133"",""922914""
","""event"",""trial"",""time""
""focus"",""135"",""931660""
","""event"",""trial"",""time""
""fullscreenenter"",""1"",""2015""
","
","","","838.3999998569489","","","23","14971","6123","s","elianto","#3366ff99"," "," ","1","+10","[1689.6000001430511]","1","2","","","14971","100","5","1","win","go","0"
"pit-trial","222","1318399","0.0-105.0","battery-v0.2","","""event"",""trial"",""time""
""fullscreenenter"",""1"",""2015""
""blur"",""133"",""922914""
""focus"",""135"",""931660""
","""event"",""trial"",""time""
""blur"",""133"",""922914""
","""event"",""trial"",""time""
""focus"",""135"",""931660""
","""event"",""trial"",""time""
""fullscreenenter"",""1"",""2015""
","
","","","725.6000001430511","","","23","14971","6123","j","elianto","#3366ff99","-1"," ","0","0","[1576.5]","1","2","","","14971","101","9","2","win","no-go","0"
"pit-trial","223","1322052","0.0-106.0","battery-v0.2","","""event"",""trial"",""time""
""fullscreenenter"",""1"",""2015""
""blur"",""133"",""922914""
""focus"",""135"",""931660""
","""event"",""trial"",""time""
""blur"",""133"",""922914""
","""event"",""trial"",""time""
""focus"",""135"",""931660""
","""event"",""trial"",""time""
""fullscreenenter"",""1"",""2015""
","
","","","793","","","23","14971","6123","s","elianto","#3366ff99"," "," ","1","0","[1645.6000001430511]","1","2","","","14971","102","5","1","win","go","1"
"pit-trial","224","1325955","0.0-107.0","battery-v0.2","","""event"",""trial"",""time""
""fullscreenenter"",""1"",""2015""
""blur"",""133"",""922914""
""focus"",""135"",""931660""
","""event"",""trial"",""time""
