"trial_type","trial_index","time_elapsed","internal_node_id","task_version","subject_id","interactions","blur_events","focus_events","fullscreenenter_events","fullscreenexit_events","success","view_history","rt","responses","num_errors","age","subject","participantId","rune","rune_set","hex","correct","choice","accuracy","outcome","keys","total_keys","block","practice","value","sub","trial","stimulus","robot","valence","action","sham"
"pavlovia","0","26","0.0-0.0","battery-v0.2","","""event"",""trial"",""time""
""fullscreenenter"",""1"",""7129""
","
","
","""event"",""trial"",""time""
""fullscreenenter"",""1"",""7129""
","
","","","","","","","","","","","","","","","","","","","","","","","","","","",""
"fullscreen","1","8096","0.0-1.0","battery-v0.2","","""event"",""trial"",""time""
""fullscreenenter"",""1"",""7129""
","
","
","""event"",""trial"",""time""
""fullscreenenter"",""1"",""7129""
","
","true","","","","","","","","","","","","","","","","","","","","","","","","","",""
"pit-instructions","2","15685","0.0-2.0-0.0","battery-v0.2","","""event"",""trial"",""time""
""fullscreenenter"",""1"",""7129""
","
","
","""event"",""trial"",""time""
""fullscreenenter"",""1"",""7129""
","
","","[{""page_index"":0,""viewing_time"":7584.20000000298}]","7584.79999999702","","","","","","","","","","","","","","","","","","","","","","","",""
"pit-comprehension","3","20406","0.0-2.0-1.0-0.0","battery-v0.2","","""event"",""trial"",""time""
""fullscreenenter"",""1"",""7129""
","
","
","""event"",""trial"",""time""
""fullscreenenter"",""1"",""7129""
","
","","","4716.20000000298","[""shark""]","0","22","17698","6645","","","","","","","","","","","","","","","","","","",""
"pit-instructions","4","26127","0.0-2.0-1.0-1.0","battery-v0.2","","""event"",""trial"",""time""
""fullscreenenter"",""1"",""7129""
","
","
","""event"",""trial"",""time""
""fullscreenenter"",""1"",""7129""
","
","","[{""page_index"":0,""viewing_time"":5711}]","5712","","","","","","","","","","","","","","","","","","","","","","","",""
"pit-comprehension","5","28960","0.0-2.0-2.0-0.0","battery-v0.2","","""event"",""trial"",""time""
""fullscreenenter"",""1"",""7129""
","
","
","""event"",""trial"",""time""
""fullscreenenter"",""1"",""7129""
","
","","","2828.7000000029802","[""tiger""]","0","22","17698","6645","","","","","","","","","","","","","","","","","","",""
"pit-instructions","6","30365","0.0-2.0-2.0-1.0","battery-v0.2","","""event"",""trial"",""time""
""fullscreenenter"",""1"",""7129""
","
","
","""event"",""trial"",""time""
""fullscreenenter"",""1"",""7129""
","
","","[{""page_index"":0,""viewing_time"":1400.7999999970198}]","1401.2999999970198","","","","","","","","","","","","","","","","","","","","","","","",""
"pit-instructions","7","142394","0.0-2.0-3.0","battery-v0.2","","""event"",""trial"",""time""
""fullscreenenter"",""1"",""7129""
","
","
","""event"",""trial"",""time""
""fullscreenenter"",""1"",""7129""
","
","","[{""page_index"":0,""viewing_time"":9598.59999999404},{""page_index"":1,""viewing_time"":7106.300000011921},{""page_index"":2,""viewing_time"":6432},{""page_index"":3,""viewing_time"":5327.899999991059},{""page_index"":4,""viewing_time"":6576},{""page_index"":5,""viewing_time"":6858.29999999702},{""page_index"":6,""viewing_time"":8241.10000000894},{""page_index"":7,""viewing_time"":7077.0999999940395},{""page_index"":8,""viewing_time"":7077.5},{""page_index"":9,""viewing_time"":17559.10000000894},{""page_index"":10,""viewing_time"":8460.29999999702},{""page_index"":11,""viewing_time"":8222.70000000298},{""page_index"":12,""viewing_time"":7678.5999999940395},{""page_index"":13,""viewing_time"":5806.5999999940395}]","112022.5","","","","","","","","","","","","","","","","","","","","","","","",""
"pit-trial","8","145957","0.0-2.0-4.0-0.0","battery-v0.2","","""event"",""trial"",""time""
""fullscreenenter"",""1"",""7129""
","
","
","""event"",""trial"",""time""
""fullscreenenter"",""1"",""7129""
","
","","","707.2000000029802","","","22","17698","6645","&#9784;","elianto","#FFFFF080"," "," ","1","&#10004","[1558.6000000089407]","1","0","0","","","","","","","",""
"pit-trial","9","149286","0.0-2.0-4.1-0.1","battery-v0.2","","""event"",""trial"",""time""
""fullscreenenter"",""1"",""7129""
","
","
","""event"",""trial"",""time""
""fullscreenenter"",""1"",""7129""
","
","","","473.09999999403954","","","22","17698","6645","&#9784;","elianto","#FFFFF080"," "," ","1","&#10004","[1324.2000000029802]","1","0","0","","","","","","","",""
"pit-trial","10","152607","0.0-2.0-4.2-0.2","battery-v0.2","","""event"",""trial"",""time""
""fullscreenenter"",""1"",""7129""
","
","
","""event"",""trial"",""time""
""fullscreenenter"",""1"",""7129""
","
","","","465.6000000089407","","","22","17698","6645","&#9784;","elianto","#FFFFF080"," "," ","1","&#10004","[1316.7000000029802]","1","0","0","","","","","","","",""
"pit-trial","11","155962","0.0-2.0-4.3-0.3","battery-v0.2","","""event"",""trial"",""time""
""fullscreenenter"",""1"",""7129""
","
","
","""event"",""trial"",""time""
""fullscreenenter"",""1"",""7129""
","
","","","500.29999999701977","","","22","17698","6645","&#9784;","elianto","#FFFFF080"," "," ","1","&#10004","[1351.3999999910593]","1","0","0","","","","","","","",""
"pit-trial","12","159266","0.0-2.0-4.4-0.4","battery-v0.2","","""event"",""trial"",""time""
""fullscreenenter"",""1"",""7129""
","
","
","""event"",""trial"",""time""
""fullscreenenter"",""1"",""7129""
","
","","","448.6000000089407","","","22","17698","6645","&#9784;","elianto","#FFFFF080"," "," ","1","&#10004","[1299.5]","1","0","0","","","","","","","",""
"pit-instructions","13","183754","0.0-2.0-5.0","battery-v0.2","","""event"",""trial"",""time""
""fullscreenenter"",""1"",""7129""
","
","
","""event"",""trial"",""time""
""fullscreenenter"",""1"",""7129""
","
","","[{""page_index"":0,""viewing_time"":5571.29999999702},{""page_index"":1,""viewing_time"":5991.600000008941},{""page_index"":2,""viewing_time"":5292.29999999702},{""page_index"":3,""viewing_time"":7628.70000000298}]","24484.20000000298","","","","","","","","","","","","","","","","","","","","","","","",""
"pit-trial","14","188609","0.0-2.0-6.0-0.0","battery-v0.2","","""event"",""trial"",""time""
""fullscreenenter"",""1"",""7129""
","
","
","""event"",""trial"",""time""
""fullscreenenter"",""1"",""7129""
","
","","","-1","","","22","17698","6645","&#9854;","elianto","#FFFFF080","-1","-1","1","&#10004","[]","0","0","1","","","","","","","",""
"pit-trial","15","193467","0.0-2.0-6.1-0.1","battery-v0.2","","""event"",""trial"",""time""
""fullscreenenter"",""1"",""7129""
","
","
","""event"",""trial"",""time""
""fullscreenenter"",""1"",""7129""
","
","","","-1","","","22","17698","6645","&#9854;","elianto","#FFFFF080","-1","-1","1","&#10004","[]","0","0","1","","","","","","","",""
"pit-trial","16","198322","0.0-2.0-6.2-0.2","battery-v0.2","","""event"",""trial"",""time""
""fullscreenenter"",""1"",""7129""
","
","
","""event"",""trial"",""time""
""fullscreenenter"",""1"",""7129""
","
","","","-1","","","22","17698","6645","&#9854;","elianto","#FFFFF080","-1","-1","1","&#10004","[]","0","0","1","","","","","","","",""
"pit-trial","17","203179","0.0-2.0-6.3-0.3","battery-v0.2","","""event"",""trial"",""time""
""fullscreenenter"",""1"",""7129""
","
","
","""event"",""trial"",""time""
""fullscreenenter"",""1"",""7129""
","
","","","-1","","","22","17698","6645","&#9854;","elianto","#FFFFF080","-1","-1","1","&#10004","[]","0","0","1","","","","","","","",""
"pit-trial","18","208035","0.0-2.0-6.4-0.4","battery-v0.2","","""event"",""trial"",""time""
""fullscreenenter"",""1"",""7129""
","
","
","""event"",""trial"",""time""
""fullscreenenter"",""1"",""7129""
","
","","","-1","","","22","17698","6645","&#9854;","elianto","#FFFFF080","-1","-1","1","&#10004","[]","0","0","1","","","","","","","",""
"pit-instructions","19","343668","0.0-2.0-7.0","battery-v0.2","","""event"",""trial"",""time""
""fullscreenenter"",""1"",""7129""
","
","
","""event"",""trial"",""time""
""fullscreenenter"",""1"",""7129""
","
","","[{""page_index"":0,""viewing_time"":7213.399999991059},{""page_index"":1,""viewing_time"":9436.300000011921},{""page_index"":2,""viewing_time"":5710.899999991059},{""page_index"":3,""viewing_time"":7108.9000000059605},{""page_index"":4,""viewing_time"":6846.5999999940395},{""page_index"":5,""viewing_time"":6689.100000008941},{""page_index"":6,""viewing_time"":5408.699999988079},{""page_index"":7,""viewing_time"":8940.5},{""page_index"":8,""viewing_time"":8746.800000011921},{""page_index"":9,""viewing_time"":6542.199999988079},{""page_index"":10,""viewing_time"":13445.10000000894},{""page_index"":11,""viewing_time"":4865.5},{""page_index"":12,""viewing_time"":7283.0999999940395},{""page_index"":13,""viewing_time"":7475.9000000059605},{""page_index"":14,""viewing_time"":8043.5999999940395},{""page_index"":15,""viewing_time"":7030.4000000059605},{""page_index"":16,""viewing_time"":7210.70000000298},{""page_index"":17,""viewing_time"":7628.29999999702}]","135626.59999999404","","","","","","","","","","","","","","","","","","","","","","","",""
"pit-trial","20","347149","0.0-2.0-8.0-0.0","battery-v0.2","","""event"",""trial"",""time""
""fullscreenenter"",""1"",""7129""
","
","
","""event"",""trial"",""time""
""fullscreenenter"",""1"",""7129""
","
","","","625.3999999910593","","","22","17698","6645","&#9776;","elianto","#3366ff99"," "," ","1","+10","[1476.9000000059605]","1","0","1","","","","","","","",""
"pit-trial","21","350532","0.0-2.0-8.0-1.0","battery-v0.2","","""event"",""trial"",""time""
""fullscreenenter"",""1"",""7129""
","
","
","""event"",""trial"",""time""
""fullscreenenter"",""1"",""7129""
","
","","","526.7999999970198","","","22","17698","6645","&#9776;","elianto","#3366ff99"," "," ","1","+10","[1378.0999999940395]","1","0","1","","","","","","","",""
"pit-trial","22","353758","0.0-2.0-8.0-2.0","battery-v0.2","","""event"",""trial"",""time""
""fullscreenenter"",""1"",""7129""
","
","
","""event"",""trial"",""time""
""fullscreenenter"",""1"",""7129""
","
","","","371","","","22","17698","6645","&#9776;","elianto","#3366ff99"," "," ","1","+10","[1221.7000000029802]","1","0","1","","","","","","","",""
"pit-trial","23","356813","0.0-2.0-8.0-3.0","battery-v0.2","","""event"",""trial"",""time""
""fullscreenenter"",""1"",""7129""
","
","
","""event"",""trial"",""time""
""fullscreenenter"",""1"",""7129""
","
","","","200.40000000596046","","","22","17698","6645","&#9776;","elianto","#3366ff99"," "," ","1","0","[1051.9000000059605]","1","0","1","","","","","","","",""
"pit-trial","24","360059","0.0-2.0-8.0-4.0","battery-v0.2","","""event"",""trial"",""time""
""fullscreenenter"",""1"",""7129""
","
","
","""event"",""trial"",""time""
""fullscreenenter"",""1"",""7129""
","
","","","388.1000000089407","","","22","17698","6645","&#9776;","elianto","#3366ff99"," "," ","1","+10","[1242.5999999940395]","1","0","1","","","","","","","",""
"pit-trial","25","363174","0.0-2.0-8.1-0.1","battery-v0.2","","""event"",""trial"",""time""
""fullscreenenter"",""1"",""7129""
","
","
","""event"",""trial"",""time""
""fullscreenenter"",""1"",""7129""
","
","","","260.40000000596046","","","22","17698","6645","&#9776;","elianto","#3366ff99"," "," ","1","+10","[1110.9000000059605]","1","0","1","","","","","","","",""
"pit-trial","26","366364","0.0-2.0-8.1-1.1","battery-v0.2","","""event"",""trial"",""time""
""fullscreenenter"",""1"",""7129""
","
","
","""event"",""trial"",""time""
""fullscreenenter"",""1"",""7129""
","
","","","333.8999999910593","","","22","17698","6645","&#9776;","elianto","#3366ff99"," "," ","1","+10","[1184.8999999910593]","1","0","1","","","","","","","",""
"pit-trial","27","369458","0.0-2.0-8.1-2.1","battery-v0.2","","""event"",""trial"",""time""
""fullscreenenter"",""1"",""7129""
","
","
","""event"",""trial"",""time""
""fullscreenenter"",""1"",""7129""
","
","","","237.90000000596046","","","22","17698","6645","&#9776;","elianto","#3366ff99"," "," ","1","+10","[1091.0999999940395]","1","0","1","","","","","","","",""
"pit-trial","28","372548","0.0-2.0-8.1-3.1","battery-v0.2","","""event"",""trial"",""time""
""fullscreenenter"",""1"",""7129""
","
","
","""event"",""trial"",""time""
""fullscreenenter"",""1"",""7129""
","
","","","234.59999999403954","","","22","17698","6645","&#9776;","elianto","#3366ff99"," "," ","1","0","[1085.7000000029802]","1","0","1","","","","","","","",""
"pit-trial","29","375774","0.0-2.0-8.1-4.1","battery-v0.2","","""event"",""trial"",""time""
""fullscreenenter"",""1"",""7129""
","
","
","""event"",""trial"",""time""
""fullscreenenter"",""1"",""7129""
","
","","","371.59999999403954","","","22","17698","6645","&#9776;","elianto","#3366ff99"," "," ","1","+10","[1222.8999999910593]","1","0","1","","","","","","","",""
"pit-trial","30","378843","0.0-2.0-8.2-0.2","battery-v0.2","","""event"",""trial"",""time""
""fullscreenenter"",""1"",""7129""
","
","
","""event"",""trial"",""time""
""fullscreenenter"",""1"",""7129""
","
","","","212.90000000596046","","","22","17698","6645","&#9776;","elianto","#3366ff99"," "," ","1","+10","[1064.0999999940395]","1","0","1","","","","","","","",""
"pit-trial","31","381863","0.0-2.0-8.2-1.2","battery-v0.2","","""event"",""trial"",""time""
""fullscreenenter"",""1"",""7129""
","
","
","""event"",""trial"",""time""
""fullscreenenter"",""1"",""7129""
","
","","","165.3999999910593","","","22","17698","6645","&#9776;","elianto","#3366ff99"," "," ","1","+10","[1016.7000000029802]","1","0","1","","","","","","","",""
"pit-trial","32","384923","0.0-2.0-8.2-2.2","battery-v0.2","","""event"",""trial"",""time""
""fullscreenenter"",""1"",""7129""
","
","
","""event"",""trial"",""time""
""fullscreenenter"",""1"",""7129""
","
","","","205","","","22","17698","6645","&#9776;","elianto","#3366ff99"," "," ","1","+10","[1057.2000000029802]","1","0","1","","","","","","","",""
"pit-trial","33","388014","0.0-2.0-8.2-3.2","battery-v0.2","","""event"",""trial"",""time""
""fullscreenenter"",""1"",""7129""
","
","
","""event"",""trial"",""time""
""fullscreenenter"",""1"",""7129""
","
","","","235.79999999701977","","","22","17698","6645","&#9776;","elianto","#3366ff99"," "," ","1","0","[1087]","1","0","1","","","","","","","",""
"pit-trial","34","391140","0.0-2.0-8.2-4.2","battery-v0.2","","""event"",""trial"",""time""
""fullscreenenter"",""1"",""7129""
","
","
","""event"",""trial"",""time""
""fullscreenenter"",""1"",""7129""
","
","","","269.20000000298023","","","22","17698","6645","&#9776;","elianto","#3366ff99"," "," ","1","+10","[1121.4000000059605]","1","0","1","","","","","","","",""
"call-function","35","391143","0.0-2.0-9.0","battery-v0.2","","""event"",""trial"",""time""
""fullscreenenter"",""1"",""7129""
","
","
","""event"",""trial"",""time""
""fullscreenenter"",""1"",""7129""
","
","","","","","","","","","","","","","","","","","","","","","","","","","","",""
"pit-instructions","36","434581","0.0-2.0-10.0","battery-v0.2","","""event"",""trial"",""time""
""fullscreenenter"",""1"",""7129""
","
","
","""event"",""trial"",""time""
""fullscreenenter"",""1"",""7129""
","
","","[{""page_index"":0,""viewing_time"":6217.699999988079},{""page_index"":1,""viewing_time"":7078.600000008941},{""page_index"":2,""viewing_time"":9542.09999999404},{""page_index"":3,""viewing_time"":12552.5},{""page_index"":4,""viewing_time"":8045.5}]","43436.89999999106","","","","","","","","","","","","","","","","","","","","","","","",""
"pit-trial","37","437915","0.0-2.0-11.0-0.0","battery-v0.2","","""event"",""trial"",""time""
""fullscreenenter"",""1"",""7129""
","
","
","""event"",""trial"",""time""
""fullscreenenter"",""1"",""7129""
","
","","","476.8999999910593","","","22","17698","6645","&#9761;","elianto","#3366ff99","-1"," ","0","0","[1330.699999988079]","1","0","2","","","","","","","",""
"pit-trial","38","441087","0.0-2.0-11.0-1.0","battery-v0.2","","""event"",""trial"",""time""
""fullscreenenter"",""1"",""7129""
","
","
","""event"",""trial"",""time""
""fullscreenenter"",""1"",""7129""
","
","","","316.70000000298023","","","22","17698","6645","&#9761;","elianto","#3366ff99","-1"," ","0","0","[1169]","1","0","2","","","","","","","",""
"pit-trial","39","445943","0.0-2.0-11.0-2.0","battery-v0.2","","""event"",""trial"",""time""
""fullscreenenter"",""1"",""7129""
","
","
","""event"",""trial"",""time""
""fullscreenenter"",""1"",""7129""
","
","","","-1","","","22","17698","6645","&#9761;","elianto","#3366ff99","-1","-1","1","+10","[]","0","0","2","","","","","","","",""
"pit-trial","40","450797","0.0-2.0-11.0-3.0","battery-v0.2","","""event"",""trial"",""time""
""fullscreenenter"",""1"",""7129""
","
","
","""event"",""trial"",""time""
""fullscreenenter"",""1"",""7129""
","
","","","-1","","","22","17698","6645","&#9761;","elianto","#3366ff99","-1","-1","1","0","[]","0","0","2","","","","","","","",""
"pit-trial","41","455653","0.0-2.0-11.0-4.0","battery-v0.2","","""event"",""trial"",""time""
""fullscreenenter"",""1"",""7129""
","
","
","""event"",""trial"",""time""
""fullscreenenter"",""1"",""7129""
","
","","","-1","","","22","17698","6645","&#9761;","elianto","#3366ff99","-1","-1","1","+10","[]","0","0","2","","","","","","","",""
"pit-trial","42","460509","0.0-2.0-11.1-0.1","battery-v0.2","","""event"",""trial"",""time""
""fullscreenenter"",""1"",""7129""
","
","
","""event"",""trial"",""time""
""fullscreenenter"",""1"",""7129""
","
","","","-1","","","22","17698","6645","&#9761;","elianto","#3366ff99","-1","-1","1","+10","[]","0","0","2","","","","","","","",""
"pit-trial","43","465364","0.0-2.0-11.1-1.1","battery-v0.2","","""event"",""trial"",""time""
""fullscreenenter"",""1"",""7129""
","
","
","""event"",""trial"",""time""
""fullscreenenter"",""1"",""7129""
","
","","","-1","","","22","17698","6645","&#9761;","elianto","#3366ff99","-1","-1","1","+10","[]","0","0","2","","","","","","","",""
"pit-trial","44","470219","0.0-2.0-11.1-2.1","battery-v0.2","","""event"",""trial"",""time""
""fullscreenenter"",""1"",""7129""
","
","
","""event"",""trial"",""time""
""fullscreenenter"",""1"",""7129""
","
","","","-1","","","22","17698","6645","&#9761;","elianto","#3366ff99","-1","-1","1","+10","[]","0","0","2","","","","","","","",""
"pit-trial","45","475075","0.0-2.0-11.1-3.1","battery-v0.2","","""event"",""trial"",""time""
""fullscreenenter"",""1"",""7129""
","
","
","""event"",""trial"",""time""
""fullscreenenter"",""1"",""7129""
","
","","","-1","","","22","17698","6645","&#9761;","elianto","#3366ff99","-1","-1","1","0","[]","0","0","2","","","","","","","",""
"pit-trial","46","479929","0.0-2.0-11.1-4.1","battery-v0.2","","""event"",""trial"",""time""
""fullscreenenter"",""1"",""7129""
","
","
","""event"",""trial"",""time""
""fullscreenenter"",""1"",""7129""
","
","","","-1","","","22","17698","6645","&#9761;","elianto","#3366ff99","-1","-1","1","+10","[]","0","0","2","","","","","","","",""
"pit-trial","47","484785","0.0-2.0-11.2-0.2","battery-v0.2","","""event"",""trial"",""time""
""fullscreenenter"",""1"",""7129""
","
","
","""event"",""trial"",""time""
""fullscreenenter"",""1"",""7129""
","
","","","-1","","","22","17698","6645","&#9761;","elianto","#3366ff99","-1","-1","1","+10","[]","0","0","2","","","","","","","",""
"pit-trial","48","489640","0.0-2.0-11.2-1.2","battery-v0.2","","""event"",""trial"",""time""
""fullscreenenter"",""1"",""7129""
","
","
","""event"",""trial"",""time""
""fullscreenenter"",""1"",""7129""
","
","","","-1","","","22","17698","6645","&#9761;","elianto","#3366ff99","-1","-1","1","+10","[]","0","0","2","","","","","","","",""
"pit-trial","49","494495","0.0-2.0-11.2-2.2","battery-v0.2","","""event"",""trial"",""time""
""fullscreenenter"",""1"",""7129""
","
","
","""event"",""trial"",""time""
""fullscreenenter"",""1"",""7129""
","
","","","-1","","","22","17698","6645","&#9761;","elianto","#3366ff99","-1","-1","1","+10","[]","0","0","2","","","","","","","",""
"pit-trial","50","499351","0.0-2.0-11.2-3.2","battery-v0.2","","""event"",""trial"",""time""
""fullscreenenter"",""1"",""7129""
","
","
","""event"",""trial"",""time""
""fullscreenenter"",""1"",""7129""
","
","","","-1","","","22","17698","6645","&#9761;","elianto","#3366ff99","-1","-1","1","0","[]","0","0","2","","","","","","","",""
"pit-trial","51","504206","0.0-2.0-11.2-4.2","battery-v0.2","","""event"",""trial"",""time""
""fullscreenenter"",""1"",""7129""
","
","
","""event"",""trial"",""time""
""fullscreenenter"",""1"",""7129""
","
","","","-1","","","22","17698","6645","&#9761;","elianto","#3366ff99","-1","-1","1","+10","[]","0","0","2","","","","","","","",""
"pit-trial","52","509061","0.0-2.0-11.3-0.3","battery-v0.2","","""event"",""trial"",""time""
""fullscreenenter"",""1"",""7129""
","
","
","""event"",""trial"",""time""
""fullscreenenter"",""1"",""7129""
","
","","","-1","","","22","17698","6645","&#9761;","elianto","#3366ff99","-1","-1","1","+10","[]","0","0","2","","","","","","","",""
"pit-trial","53","513917","0.0-2.0-11.3-1.3","battery-v0.2","","""event"",""trial"",""time""
""fullscreenenter"",""1"",""7129""
","
","
","""event"",""trial"",""time""
""fullscreenenter"",""1"",""7129""
","
","","","-1","","","22","17698","6645","&#9761;","elianto","#3366ff99","-1","-1","1","+10","[]","0","0","2","","","","","","","",""
"pit-trial","54","518771","0.0-2.0-11.3-2.3","battery-v0.2","","""event"",""trial"",""time""
""fullscreenenter"",""1"",""7129""
","
","
","""event"",""trial"",""time""
""fullscreenenter"",""1"",""7129""
","
","","","-1","","","22","17698","6645","&#9761;","elianto","#3366ff99","-1","-1","1","+10","[]","0","0","2","","","","","","","",""
"pit-trial","55","523626","0.0-2.0-11.3-3.3","battery-v0.2","","""event"",""trial"",""time""
""fullscreenenter"",""1"",""7129""
","
","
","""event"",""trial"",""time""
""fullscreenenter"",""1"",""7129""
","
","","","-1","","","22","17698","6645","&#9761;","elianto","#3366ff99","-1","-1","1","0","[]","0","0","2","","","","","","","",""
"pit-trial","56","528482","0.0-2.0-11.3-4.3","battery-v0.2","","""event"",""trial"",""time""
""fullscreenenter"",""1"",""7129""
","
","
","""event"",""trial"",""time""
""fullscreenenter"",""1"",""7129""
","
","","","-1","","","22","17698","6645","&#9761;","elianto","#3366ff99","-1","-1","1","+10","[]","0","0","2","","","","","","","",""
"call-function","57","528484","0.0-2.0-12.0","battery-v0.2","","""event"",""trial"",""time""
""fullscreenenter"",""1"",""7129""
","
","
","""event"",""trial"",""time""
""fullscreenenter"",""1"",""7129""
","
","","","","","","","","","","","","","","","","","","","","","","","","","","",""
"pit-instructions","58","587521","0.0-2.0-13.0","battery-v0.2","","""event"",""trial"",""time""
""fullscreenenter"",""1"",""7129""
","
","
","""event"",""trial"",""time""
""fullscreenenter"",""1"",""7129""
","
","","[{""page_index"":0,""viewing_time"":5167.0999999940395},{""page_index"":1,""viewing_time"":7709.70000000298},{""page_index"":2,""viewing_time"":4173.5},{""page_index"":3,""viewing_time"":36744.10000000894},{""page_index"":4,""viewing_time"":5240.399999991059}]","59035.09999999404","","","","","","","","","","","","","","","","","","","","","","","",""
"pit-trial","59","590804","0.0-2.0-14.0-0.0","battery-v0.2","","""event"",""trial"",""time""
""fullscreenenter"",""1"",""7129""
","
","
","""event"",""trial"",""time""
""fullscreenenter"",""1"",""7129""
","
","","","424.8999999910593","","","22","17698","6645","&#9826;","elianto","#f73b6a7A","-1"," ","0","-10","[1280.2999999970198]","1","0","3","","","","","","","",""
"pit-trial","60","595658","0.0-2.0-14.0-1.0","battery-v0.2","","""event"",""trial"",""time""
""fullscreenenter"",""1"",""7129""
","
","
","""event"",""trial"",""time""
""fullscreenenter"",""1"",""7129""
","
","","","-1","","","22","17698","6645","&#9826;","elianto","#f73b6a7A","-1","-1","1","0","[]","0","0","3","","","","","","","",""
"pit-trial","61","600513","0.0-2.0-14.0-2.0","battery-v0.2","","""event"",""trial"",""time""
""fullscreenenter"",""1"",""7129""
","
","
","""event"",""trial"",""time""
""fullscreenenter"",""1"",""7129""
","
","","","-1","","","22","17698","6645","&#9826;","elianto","#f73b6a7A","-1","-1","1","0","[]","0","0","3","","","","","","","",""
"pit-trial","62","605367","0.0-2.0-14.0-3.0","battery-v0.2","","""event"",""trial"",""time""
""fullscreenenter"",""1"",""7129""
","
","
","""event"",""trial"",""time""
""fullscreenenter"",""1"",""7129""
","
","","","-1","","","22","17698","6645","&#9826;","elianto","#f73b6a7A","-1","-1","1","-10","[]","0","0","3","","","","","","","",""
"pit-trial","63","610221","0.0-2.0-14.0-4.0","battery-v0.2","","""event"",""trial"",""time""
""fullscreenenter"",""1"",""7129""
","
","
","""event"",""trial"",""time""
""fullscreenenter"",""1"",""7129""
","
","","","-1","","","22","17698","6645","&#9826;","elianto","#f73b6a7A","-1","-1","1","0","[]","0","0","3","","","","","","","",""
"pit-trial","64","615076","0.0-2.0-14.1-0.1","battery-v0.2","","""event"",""trial"",""time""
""fullscreenenter"",""1"",""7129""
","
","
","""event"",""trial"",""time""
""fullscreenenter"",""1"",""7129""
","
","","","-1","","","22","17698","6645","&#9826;","elianto","#f73b6a7A","-1","-1","1","0","[]","0","0","3","","","","","","","",""
"pit-trial","65","619931","0.0-2.0-14.1-1.1","battery-v0.2","","""event"",""trial"",""time""
""fullscreenenter"",""1"",""7129""
","
","
","""event"",""trial"",""time""
""fullscreenenter"",""1"",""7129""
","
","","","-1","","","22","17698","6645","&#9826;","elianto","#f73b6a7A","-1","-1","1","0","[]","0","0","3","","","","","","","",""
"pit-trial","66","624786","0.0-2.0-14.1-2.1","battery-v0.2","","""event"",""trial"",""time""
""fullscreenenter"",""1"",""7129""
","
","
","""event"",""trial"",""time""
""fullscreenenter"",""1"",""7129""
","
","","","-1","","","22","17698","6645","&#9826;","elianto","#f73b6a7A","-1","-1","1","0","[]","0","0","3","","","","","","","",""
"pit-trial","67","629640","0.0-2.0-14.1-3.1","battery-v0.2","","""event"",""trial"",""time""
""fullscreenenter"",""1"",""7129""
","
","
","""event"",""trial"",""time""
""fullscreenenter"",""1"",""7129""
","
","","","-1","","","22","17698","6645","&#9826;","elianto","#f73b6a7A","-1","-1","1","-10","[]","0","0","3","","","","","","","",""
"pit-trial","68","634496","0.0-2.0-14.1-4.1","battery-v0.2","","""event"",""trial"",""time""
""fullscreenenter"",""1"",""7129""
","
","
","""event"",""trial"",""time""
""fullscreenenter"",""1"",""7129""
","
","","","-1","","","22","17698","6645","&#9826;","elianto","#f73b6a7A","-1","-1","1","0","[]","0","0","3","","","","","","","",""
"pit-trial","69","639351","0.0-2.0-14.2-0.2","battery-v0.2","","""event"",""trial"",""time""
""fullscreenenter"",""1"",""7129""
","
","
","""event"",""trial"",""time""
""fullscreenenter"",""1"",""7129""
","
","","","-1","","","22","17698","6645","&#9826;","elianto","#f73b6a7A","-1","-1","1","0","[]","0","0","3","","","","","","","",""
"pit-trial","70","644207","0.0-2.0-14.2-1.2","battery-v0.2","","""event"",""trial"",""time""
""fullscreenenter"",""1"",""7129""
","
","
","""event"",""trial"",""time""
""fullscreenenter"",""1"",""7129""
","
","","","-1","","","22","17698","6645","&#9826;","elianto","#f73b6a7A","-1","-1","1","0","[]","0","0","3","","","","","","","",""
"pit-trial","71","649062","0.0-2.0-14.2-2.2","battery-v0.2","","""event"",""trial"",""time""
""fullscreenenter"",""1"",""7129""
","
","
","""event"",""trial"",""time""
""fullscreenenter"",""1"",""7129""
","
","","","-1","","","22","17698","6645","&#9826;","elianto","#f73b6a7A","-1","-1","1","0","[]","0","0","3","","","","","","","",""
"pit-trial","72","653916","0.0-2.0-14.2-3.2","battery-v0.2","","""event"",""trial"",""time""
""fullscreenenter"",""1"",""7129""
","
","
","""event"",""trial"",""time""
""fullscreenenter"",""1"",""7129""
","
","","","-1","","","22","17698","6645","&#9826;","elianto","#f73b6a7A","-1","-1","1","-10","[]","0","0","3","","","","","","","",""
"pit-trial","73","658771","0.0-2.0-14.2-4.2","battery-v0.2","","""event"",""trial"",""time""
""fullscreenenter"",""1"",""7129""
","
","
","""event"",""trial"",""time""
""fullscreenenter"",""1"",""7129""
","
","","","-1","","","22","17698","6645","&#9826;","elianto","#f73b6a7A","-1","-1","1","0","[]","0","0","3","","","","","","","",""
"pit-trial","74","663627","0.0-2.0-14.3-0.3","battery-v0.2","","""event"",""trial"",""time""
""fullscreenenter"",""1"",""7129""
","
","
","""event"",""trial"",""time""
""fullscreenenter"",""1"",""7129""
","
","","","-1","","","22","17698","6645","&#9826;","elianto","#f73b6a7A","-1","-1","1","0","[]","0","0","3","","","","","","","",""
"pit-trial","75","668482","0.0-2.0-14.3-1.3","battery-v0.2","","""event"",""trial"",""time""
""fullscreenenter"",""1"",""7129""
","
","
","""event"",""trial"",""time""
""fullscreenenter"",""1"",""7129""
","
","","","-1","","","22","17698","6645","&#9826;","elianto","#f73b6a7A","-1","-1","1","0","[]","0","0","3","","","","","","","",""
"pit-trial","76","673337","0.0-2.0-14.3-2.3","battery-v0.2","","""event"",""trial"",""time""
""fullscreenenter"",""1"",""7129""
","
","
","""event"",""trial"",""time""
""fullscreenenter"",""1"",""7129""
","
","","","-1","","","22","17698","6645","&#9826;","elianto","#f73b6a7A","-1","-1","1","0","[]","0","0","3","","","","","","","",""
"pit-trial","77","678193","0.0-2.0-14.3-3.3","battery-v0.2","","""event"",""trial"",""time""
""fullscreenenter"",""1"",""7129""
","
","
","""event"",""trial"",""time""
""fullscreenenter"",""1"",""7129""
","
","","","-1","","","22","17698","6645","&#9826;","elianto","#f73b6a7A","-1","-1","1","-10","[]","0","0","3","","","","","","","",""
"pit-trial","78","683048","0.0-2.0-14.3-4.3","battery-v0.2","","""event"",""trial"",""time""
""fullscreenenter"",""1"",""7129""
","
","
","""event"",""trial"",""time""
""fullscreenenter"",""1"",""7129""
","
","","","-1","","","22","17698","6645","&#9826;","elianto","#f73b6a7A","-1","-1","1","0","[]","0","0","3","","","","","","","",""
"call-function","79","683050","0.0-2.0-15.0","battery-v0.2","","""event"",""trial"",""time""
""fullscreenenter"",""1"",""7129""
","
","
","""event"",""trial"",""time""
""fullscreenenter"",""1"",""7129""
","
","","","","","","","","","","","","","","","","","","","","","","","","","","",""
"pit-instructions","80","709763","0.0-2.0-16.0","battery-v0.2","","""event"",""trial"",""time""
""fullscreenenter"",""1"",""7129""
","
","
","""event"",""trial"",""time""
""fullscreenenter"",""1"",""7129""
","
","","[{""page_index"":0,""viewing_time"":7686},{""page_index"":1,""viewing_time"":8742.70000000298},{""page_index"":2,""viewing_time"":4972.899999991059},{""page_index"":3,""viewing_time"":5310.20000000298}]","26712.20000000298","","","","","","","","","","","","","","","","","","","","","","","",""
"pit-trial","81","713134","0.0-2.0-17.0-0.0","battery-v0.2","","""event"",""trial"",""time""
""fullscreenenter"",""1"",""7129""
","
","
","""event"",""trial"",""time""
""fullscreenenter"",""1"",""7129""
","
","","","514.7999999970198","","","22","17698","6645","&#9789;","elianto","#f73b6a7A"," "," ","1","0","[1366.4000000059605]","1","0","4","","","","","","","",""
"pit-trial","82","716197","0.0-2.0-17.0-1.0","battery-v0.2","","""event"",""trial"",""time""
""fullscreenenter"",""1"",""7129""
","
","
","""event"",""trial"",""time""
""fullscreenenter"",""1"",""7129""
","
","","","209.90000000596046","","","22","17698","6645","&#9789;","elianto","#f73b6a7A"," "," ","1","0","[1060.5999999940395]","1","0","4","","","","","","","",""
"pit-trial","83","719408","0.0-2.0-17.0-2.0","battery-v0.2","","""event"",""trial"",""time""
""fullscreenenter"",""1"",""7129""
","
","
","""event"",""trial"",""time""
""fullscreenenter"",""1"",""7129""
","
","","","353.5","","","22","17698","6645","&#9789;","elianto","#f73b6a7A"," "," ","1","0","[1206.6000000089407]","1","0","4","","","","","","","",""
"pit-trial","84","722414","0.0-2.0-17.0-3.0","battery-v0.2","","""event"",""trial"",""time""
""fullscreenenter"",""1"",""7129""
","
","
","""event"",""trial"",""time""
""fullscreenenter"",""1"",""7129""
","
","","","153.5","","","22","17698","6645","&#9789;","elianto","#f73b6a7A"," "," ","1","-10","[1004.1000000089407]","1","0","4","","","","","","","",""
"pit-trial","85","725412","0.0-2.0-17.0-4.0","battery-v0.2","","""event"",""trial"",""time""
""fullscreenenter"",""1"",""7129""
","
","
","""event"",""trial"",""time""
""fullscreenenter"",""1"",""7129""
","
","","","143.90000000596046","","","22","17698","6645","&#9789;","elianto","#f73b6a7A"," "," ","1","0","[995.1000000089407]","1","0","4","","","","","","","",""
"pit-trial","86","728510","0.0-2.0-17.1-0.1","battery-v0.2","","""event"",""trial"",""time""
""fullscreenenter"",""1"",""7129""
","
","
","""event"",""trial"",""time""
""fullscreenenter"",""1"",""7129""
","
","","","243","","","22","17698","6645","&#9789;","elianto","#f73b6a7A"," "," ","1","0","[1094]","1","0","4","","","","","","","",""
"pit-trial","87","731526","0.0-2.0-17.1-1.1","battery-v0.2","","""event"",""trial"",""time""
""fullscreenenter"",""1"",""7129""
","
","
","""event"",""trial"",""time""
""fullscreenenter"",""1"",""7129""
","
","","","163.40000000596046","","","22","17698","6645","&#9789;","elianto","#f73b6a7A"," "," ","1","0","[1014.3000000119209]","1","0","4","","","","","","","",""
"pit-trial","88","734628","0.0-2.0-17.1-2.1","battery-v0.2","","""event"",""trial"",""time""
""fullscreenenter"",""1"",""7129""
","
","
","""event"",""trial"",""time""
""fullscreenenter"",""1"",""7129""
","
","","","248.40000000596046","","","22","17698","6645","&#9789;","elianto","#f73b6a7A"," "," ","1","0","[1099]","1","0","4","","","","","","","",""
"pit-trial","89","737620","0.0-2.0-17.1-3.1","battery-v0.2","","""event"",""trial"",""time""
""fullscreenenter"",""1"",""7129""
","
","
","""event"",""trial"",""time""
""fullscreenenter"",""1"",""7129""
","
","","","136.79999999701977","","","22","17698","6645","&#9789;","elianto","#f73b6a7A"," "," ","1","-10","[988.2000000029802]","1","0","4","","","","","","","",""
"pit-trial","90","740661","0.0-2.0-17.1-4.1","battery-v0.2","","""event"",""trial"",""time""
""fullscreenenter"",""1"",""7129""
","
","
","""event"",""trial"",""time""
""fullscreenenter"",""1"",""7129""
","
","","","186","","","22","17698","6645","&#9789;","elianto","#f73b6a7A"," "," ","1","0","[1037.699999988079]","1","0","4","","","","","","","",""
"pit-trial","91","743871","0.0-2.0-17.2-0.2","battery-v0.2","","""event"",""trial"",""time""
""fullscreenenter"",""1"",""7129""
","
","
","""event"",""trial"",""time""
""fullscreenenter"",""1"",""7129""
","
","","","355.20000000298023","","","22","17698","6645","&#9789;","elianto","#f73b6a7A"," "," ","1","0","[1206.4000000059605]","1","0","4","","","","","","","",""
"pit-trial","92","747154","0.0-2.0-17.2-1.2","battery-v0.2","","""event"",""trial"",""time""
""fullscreenenter"",""1"",""7129""
","
","
","""event"",""trial"",""time""
""fullscreenenter"",""1"",""7129""
","
","","","429.40000000596046","","","22","17698","6645","&#9789;","elianto","#f73b6a7A"," "," ","1","0","[1280.3999999910593]","1","0","4","","","","","","","",""
"pit-trial","93","750685","0.0-2.0-17.2-2.2","battery-v0.2","","""event"",""trial"",""time""
""fullscreenenter"",""1"",""7129""
","
","
","""event"",""trial"",""time""
""fullscreenenter"",""1"",""7129""
","
","","","677.3000000119209","","","22","17698","6645","&#9789;","elianto","#f73b6a7A"," "," ","1","0","[1528.1000000089407]","1","0","4","","","","","","","",""
"pit-trial","94","753834","0.0-2.0-17.2-3.2","battery-v0.2","","""event"",""trial"",""time""
""fullscreenenter"",""1"",""7129""
","
","
","""event"",""trial"",""time""
""fullscreenenter"",""1"",""7129""
","
","","","295.5","","","22","17698","6645","&#9789;","elianto","#f73b6a7A"," "," ","1","-10","[1145.9000000059605]","1","0","4","","","","","","","",""
"pit-trial","95","757192","0.0-2.0-17.2-4.2","battery-v0.2","","""event"",""trial"",""time""
""fullscreenenter"",""1"",""7129""
","
","
","""event"",""trial"",""time""
""fullscreenenter"",""1"",""7129""
","
","","","502.90000000596046","","","22","17698","6645","&#9789;","elianto","#f73b6a7A"," "," ","1","0","[1354.0999999940395]","1","0","4","","","","","","","",""
"pit-trial","96","760273","0.0-2.0-17.3-0.3","battery-v0.2","","""event"",""trial"",""time""
""fullscreenenter"",""1"",""7129""
","
","
","""event"",""trial"",""time""
""fullscreenenter"",""1"",""7129""
","
","","","226.20000000298023","","","22","17698","6645","&#9789;","elianto","#f73b6a7A"," "," ","1","0","[1077.2000000029802]","1","0","4","","","","","","","",""
"pit-trial","97","763522","0.0-2.0-17.3-1.3","battery-v0.2","","""event"",""trial"",""time""
""fullscreenenter"",""1"",""7129""
","
","
","""event"",""trial"",""time""
""fullscreenenter"",""1"",""7129""
","
","","","396.19999998807907","","","22","17698","6645","&#9789;","elianto","#f73b6a7A"," "," ","1","0","[1246.7999999970198]","1","0","4","","","","","","","",""
"pit-trial","98","766928","0.0-2.0-17.3-2.3","battery-v0.2","","""event"",""trial"",""time""
""fullscreenenter"",""1"",""7129""
","
","
","""event"",""trial"",""time""
""fullscreenenter"",""1"",""7129""
","
","","","551.8999999910593","","","22","17698","6645","&#9789;","elianto","#f73b6a7A"," "," ","1","0","[1402.5]","1","0","4","","","","","","","",""
"pit-trial","99","770159","0.0-2.0-17.3-3.3","battery-v0.2","","""event"",""trial"",""time""
""fullscreenenter"",""1"",""7129""
","
","
","""event"",""trial"",""time""
""fullscreenenter"",""1"",""7129""
","
","","","376.79999999701977","","","22","17698","6645","&#9789;","elianto","#f73b6a7A"," "," ","1","-10","[1227.5999999940395]","1","0","4","","","","","","","",""
"pit-trial","100","773570","0.0-2.0-17.3-4.3","battery-v0.2","","""event"",""trial"",""time""
""fullscreenenter"",""1"",""7129""
","
","
","""event"",""trial"",""time""
""fullscreenenter"",""1"",""7129""
","
","","","556.1999999880791","","","22","17698","6645","&#9789;","elianto","#f73b6a7A"," "," ","1","0","[1407.2999999970198]","1","0","4","","","","","","","",""
"call-function","101","773572","0.0-2.0-18.0","battery-v0.2","","""event"",""trial"",""time""
""fullscreenenter"",""1"",""7129""
","
","
","""event"",""trial"",""time""
""fullscreenenter"",""1"",""7129""
","
","","","","","","","","","","","","","","","","","","","","","","","","","","",""
"pit-instructions","102","857652","0.0-2.0-19.0","battery-v0.2","","""event"",""trial"",""time""
""fullscreenenter"",""1"",""7129""
","
","
","""event"",""trial"",""time""
""fullscreenenter"",""1"",""7129""
","
","","[{""page_index"":0,""viewing_time"":10035.90000000596},{""page_index"":1,""viewing_time"":9698.90000000596},{""page_index"":2,""viewing_time"":17038.5},{""page_index"":3,""viewing_time"":8240.5},{""page_index"":4,""viewing_time"":8860.79999999702},{""page_index"":5,""viewing_time"":8193.09999999404},{""page_index"":6,""viewing_time"":9291.90000000596},{""page_index"":7,""viewing_time"":7945},{""page_index"":8,""viewing_time"":4772.5999999940395}]","84077.70000000298","","","","","","","","","","","","","","","","","","","","","","","",""
"pit-comprehension","103","864415","0.0-2.0-20.0-0.0","battery-v0.2","","""event"",""trial"",""time""
""fullscreenenter"",""1"",""7129""
","
","
","""event"",""trial"",""time""
""fullscreenenter"",""1"",""7129""
","
","","","6758","[""SPACE""]","0","22","17698","6645","","","","","","","","","","","","","","","","","","",""
"pit-instructions","104","869187","0.0-2.0-20.0-1.0","battery-v0.2","","""event"",""trial"",""time""
""fullscreenenter"",""1"",""7129""
","
","
","""event"",""trial"",""time""
""fullscreenenter"",""1"",""7129""
","
","","[{""page_index"":0,""viewing_time"":4734.29999999702}]","4735","","","","","","","","","","","","","","","","","","","","","","","",""
"pit-comprehension","105","876018","0.0-2.0-21.0-0.0","battery-v0.2","","""event"",""trial"",""time""
""fullscreenenter"",""1"",""7129""
","
","
","""event"",""trial"",""time""
""fullscreenenter"",""1"",""7129""
","
","","","6826.5","[""10""]","0","22","17698","6645","","","","","","","","","","","","","","","","","","",""
"pit-instructions","106","881870","0.0-2.0-21.0-1.0","battery-v0.2","","""event"",""trial"",""time""
""fullscreenenter"",""1"",""7129""
","
","
","""event"",""trial"",""time""
""fullscreenenter"",""1"",""7129""
","
","","[{""page_index"":0,""viewing_time"":5817.600000008941}]","5817.9000000059605","","","","","","","","","","","","","","","","","","","","","","","",""
"pit-comprehension","107","891449","0.0-2.0-22.0-0.0","battery-v0.2","","""event"",""trial"",""time""
""fullscreenenter"",""1"",""7129""
","
","
","""event"",""trial"",""time""
""fullscreenenter"",""1"",""7129""
","
","","","9574.29999999702","[""0""]","0","22","17698","6645","","","","","","","","","","","","","","","","","","",""
"pit-instructions","108","900473","0.0-2.0-22.0-1.0","battery-v0.2","","""event"",""trial"",""time""
""fullscreenenter"",""1"",""7129""
","
","
","""event"",""trial"",""time""
""fullscreenenter"",""1"",""7129""
","
","","[{""page_index"":0,""viewing_time"":8984.90000000596}]","8985.29999999702","","","","","","","","","","","","","","","","","","","","","","","",""
"pit-comprehension","109","918259","0.0-2.0-23.0-0.0","battery-v0.2","","""event"",""trial"",""time""
""fullscreenenter"",""1"",""7129""
","
","
","""event"",""trial"",""time""
""fullscreenenter"",""1"",""7129""
","
","","","17782.29999999702","[""True""]","0","22","17698","6645","","","","","","","","","","","","","","","","","","",""
"pit-instructions","110","920374","0.0-2.0-23.0-1.0","battery-v0.2","","""event"",""trial"",""time""
""fullscreenenter"",""1"",""7129""
","
","
","""event"",""trial"",""time""
""fullscreenenter"",""1"",""7129""
","
","","[{""page_index"":0,""viewing_time"":2080.5}]","2081.0999999940395","","","","","","","","","","","","","","","","","","","","","","","",""
"pit-comprehension","111","928907","0.0-2.0-24.0-0.0","battery-v0.2","","""event"",""trial"",""time""
""fullscreenenter"",""1"",""7129""
","
","
","""event"",""trial"",""time""
""fullscreenenter"",""1"",""7129""
","
","","","8529.20000000298","[""True""]","0","22","17698","6645","","","","","","","","","","","","","","","","","","",""
"pit-instructions","112","931734","0.0-2.0-24.0-1.0","battery-v0.2","","""event"",""trial"",""time""
""fullscreenenter"",""1"",""7129""
","
","
","""event"",""trial"",""time""
""fullscreenenter"",""1"",""7129""
","
","","[{""page_index"":0,""viewing_time"":2787.5999999940395}]","2787.9000000059605","","","","","","","","","","","","","","","","","","","","","","","",""
"pit-comprehension","113","942915","0.0-2.0-25.0-0.0","battery-v0.2","","""event"",""trial"",""time""
""fullscreenenter"",""1"",""7129""
","
","
","""event"",""trial"",""time""
""fullscreenenter"",""1"",""7129""
","
","","","11177.40000000596","[""True""]","0","22","17698","6645","","","","","","","","","","","","","","","","","","",""
"pit-instructions","114","945220","0.0-2.0-25.0-1.0","battery-v0.2","","""event"",""trial"",""time""
""fullscreenenter"",""1"",""7129""
","
","
","""event"",""trial"",""time""
""fullscreenenter"",""1"",""7129""
","
","","[{""page_index"":0,""viewing_time"":2269.7999999970198}]","2270.1000000089407","","","","","","","","","","","","","","","","","","","","","","","",""
"pit-comprehension","115","950229","0.0-2.0-26.0-0.0","battery-v0.2","","""event"",""trial"",""time""
""fullscreenenter"",""1"",""7129""
","
","
","""event"",""trial"",""time""
""fullscreenenter"",""1"",""7129""
","
","","","5006.29999999702","[""False""]","0","22","17698","6645","","","","","","","","","","","","","","","","","","",""
"pit-instructions","116","954128","0.0-2.0-26.0-1.0","battery-v0.2","","""event"",""trial"",""time""
""fullscreenenter"",""1"",""7129""
","
","
","""event"",""trial"",""time""
""fullscreenenter"",""1"",""7129""
","
","","[{""page_index"":0,""viewing_time"":3860}]","3860.4000000059605","","","","","","","","","","","","","","","","","","","","","","","",""
"pit-instructions","117","973327","0.0-3.0","battery-v0.2","","""event"",""trial"",""time""
""fullscreenenter"",""1"",""7129""
","
","
","""event"",""trial"",""time""
""fullscreenenter"",""1"",""7129""
","
","","[{""page_index"":0,""viewing_time"":4074},{""page_index"":1,""viewing_time"":6527.70000000298},{""page_index"":2,""viewing_time"":8593.70000000298}]","19196","","","","","","","","","","","","","","","","","","","","","","","",""
"pit-trial","118","976814","0.0-4.0","battery-v0.2","","""event"",""trial"",""time""
""fullscreenenter"",""1"",""7129""
","
","
","""event"",""trial"",""time""
""fullscreenenter"",""1"",""7129""
","
","","","629.7000000029802","","","22","17698","6645","&#9733;","elianto","#3366ff99","-1"," ","0","0","[1480.2999999970198]","1","1","","","17698","1","2","2","win","no-go","0"
"pit-trial","119","981669","0.0-5.0","battery-v0.2","","""event"",""trial"",""time""
""fullscreenenter"",""1"",""7129""
","
","
","""event"",""trial"",""time""
""fullscreenenter"",""1"",""7129""
","
","","","-1","","","22","17698","6645","&#9752;","elianto","#f73b6a7A"," ","-1","0","0","[]","0","1","","","17698","2","3","3","lose","go","1"
"pit-trial","120","985474","0.0-6.0","battery-v0.2","","""event"",""trial"",""time""
""fullscreenenter"",""1"",""7129""
","
","
","""event"",""trial"",""time""
""fullscreenenter"",""1"",""7129""
","
","","","950.2999999970198","","","22","17698","6645","&#9730;","elianto","#3366ff99"," "," ","1","0","[1801]","1","1","","","17698","3","1","1","win","go","1"
"pit-trial","121","989940","0.0-7.0","battery-v0.2","","""event"",""trial"",""time""
""fullscreenenter"",""1"",""7129""
","
","
","""event"",""trial"",""time""
""fullscreenenter"",""1"",""7129""
","
","","","1611.2000000029802","","","22","17698","6645","&#9728;","elianto","#f73b6a7A","-1"," ","0","-10","[2462.7999999970198]","1","1","","","17698","4","0","4","lose","no-go","0"
"pit-trial","122","993536","0.0-8.0","battery-v0.2","","""event"",""trial"",""time""
""fullscreenenter"",""1"",""7129""
","
","
","""event"",""trial"",""time""
""fullscreenenter"",""1"",""7129""
","
","","","743.5","","","22","17698","6645","&#9728;","elianto","#f73b6a7A","-1"," ","0","-10","[1594.4000000059605]","1","1","","","17698","5","0","4","lose","no-go","0"
"pit-trial","123","997043","0.0-9.0","battery-v0.2","","""event"",""trial"",""time""
""fullscreenenter"",""1"",""7129""
","
","
","""event"",""trial"",""time""
""fullscreenenter"",""1"",""7129""
","
","","","653.5999999940395","","","22","17698","6645","&#9730;","elianto","#3366ff99"," "," ","1","0","[1503.7999999970198]","1","1","","","17698","6","1","1","win","go","1"
"pit-trial","124","1001900","0.0-10.0","battery-v0.2","","""event"",""trial"",""time""
""fullscreenenter"",""1"",""7129""
","
","
","""event"",""trial"",""time""
""fullscreenenter"",""1"",""7129""
","
","","","-1","","","22","17698","6645","&#9752;","elianto","#f73b6a7A"," ","-1","0","-10","[]","0","1","","","17698","7","3","3","lose","go","0"
"pit-trial","125","1005572","0.0-11.0","battery-v0.2","","""event"",""trial"",""time""
""fullscreenenter"",""1"",""7129""
","
","
","""event"",""trial"",""time""
""fullscreenenter"",""1"",""7129""
","
","","","816.5","","","22","17698","6645","&#9733;","elianto","#3366ff99","-1"," ","0","0","[1667.8999999910593]","1","1","","","17698","8","2","2","win","no-go","0"
"pit-trial","126","1010426","0.0-12.0","battery-v0.2","","""event"",""trial"",""time""
""fullscreenenter"",""1"",""7129""
","
","
","""event"",""trial"",""time""
""fullscreenenter"",""1"",""7129""
","
","","","-1","","","22","17698","6645","&#9752;","elianto","#f73b6a7A"," ","-1","0","-10","[]","0","1","","","17698","9","3","3","lose","go","0"
"pit-trial","127","1015282","0.0-13.0","battery-v0.2","","""event"",""trial"",""time""
""fullscreenenter"",""1"",""7129""
","
","
","""event"",""trial"",""time""
""fullscreenenter"",""1"",""7129""
","
","","","-1","","","22","17698","6645","&#9733;","elianto","#3366ff99","-1","-1","1","+10","[]","0","1","","","17698","10","2","2","win","no-go","0"
"pit-trial","128","1020135","0.0-14.0","battery-v0.2","","""event"",""trial"",""time""
""fullscreenenter"",""1"",""7129""
","
","
","""event"",""trial"",""time""
""fullscreenenter"",""1"",""7129""
","
","","","-1","","","22","17698","6645","&#9728;","elianto","#f73b6a7A","-1","-1","1","0","[]","0","1","","","17698","11","0","4","lose","no-go","0"
"pit-trial","129","1023932","0.0-15.0","battery-v0.2","","""event"",""trial"",""time""
""fullscreenenter"",""1"",""7129""
","
","
","""event"",""trial"",""time""
""fullscreenenter"",""1"",""7129""
","
","","","942.9000000059605","","","22","17698","6645","&#9730;","elianto","#3366ff99"," "," ","1","+10","[1793.7000000029802]","1","1","","","17698","12","1","1","win","go","0"
"pit-trial","130","1027338","0.0-16.0","battery-v0.2","","""event"",""trial"",""time""
""fullscreenenter"",""1"",""7129""
","
","
","""event"",""trial"",""time""
""fullscreenenter"",""1"",""7129""
","
","","","550.5","","","22","17698","6645","&#9730;","elianto","#3366ff99"," "," ","1","+10","[1401.7999999970198]","1","1","","","17698","13","1","1","win","go","0"
"pit-trial","131","1031315","0.0-17.0","battery-v0.2","","""event"",""trial"",""time""
""fullscreenenter"",""1"",""7129""
","
","
","""event"",""trial"",""time""
""fullscreenenter"",""1"",""7129""
","
","","","1122","","","22","17698","6645","&#9752;","elianto","#f73b6a7A"," "," ","1","-10","[1973.0999999940395]","1","1","","","17698","14","3","3","lose","go","1"
"pit-trial","132","1036170","0.0-18.0","battery-v0.2","","""event"",""trial"",""time""
""fullscreenenter"",""1"",""7129""
","
","
","""event"",""trial"",""time""
""fullscreenenter"",""1"",""7129""
","
","","","-1","","","22","17698","6645","&#9733;","elianto","#3366ff99","-1","-1","1","+10","[]","0","1","","","17698","15","2","2","win","no-go","0"
"pit-trial","133","1041026","0.0-19.0","battery-v0.2","","""event"",""trial"",""time""
""fullscreenenter"",""1"",""7129""
","
","
","""event"",""trial"",""time""
""fullscreenenter"",""1"",""7129""
","
","","","-1","","","22","17698","6645","&#9728;","elianto","#f73b6a7A","-1","-1","1","-10","[]","0","1","","","17698","16","0","4","lose","no-go","1"
"pit-trial","134","1044668","0.0-20.0","battery-v0.2","","""event"",""trial"",""time""
""fullscreenenter"",""1"",""7129""
","
","
","""event"",""trial"",""time""
""fullscreenenter"",""1"",""7129""
","
","","","789.5","","","22","17698","6645","&#9730;","elianto","#3366ff99"," "," ","1","+10","[1640.5999999940395]","1","1","","","17698","17","1","1","win","go","0"
"pit-trial","135","1049523","0.0-21.0","battery-v0.2","","""event"",""trial"",""time""
""fullscreenenter"",""1"",""7129""
","
","
","""event"",""trial"",""time""
""fullscreenenter"",""1"",""7129""
","
","","","-1","","","22","17698","6645","&#9752;","elianto","#f73b6a7A"," ","-1","0","0","[]","0","1","","","17698","18","3","3","lose","go","1"
"pit-trial","136","1053326","0.0-22.0","battery-v0.2","","""event"",""trial"",""time""
""fullscreenenter"",""1"",""7129""
","
","
","""event"",""trial"",""time""
""fullscreenenter"",""1"",""7129""
","
","","","949.4000000059605","","","22","17698","6645","&#9728;","elianto","#f73b6a7A","-1"," ","0","-10","[1799.7999999970198]","1","1","","","17698","19","0","4","lose","no-go","0"
"pit-trial","137","1058182","0.0-23.0","battery-v0.2","","""event"",""trial"",""time""
""fullscreenenter"",""1"",""7129""
","
","
","""event"",""trial"",""time""
""fullscreenenter"",""1"",""7129""
","
","","","-1","","","22","17698","6645","&#9733;","elianto","#3366ff99","-1","-1","1","+10","[]","0","1","","","17698","20","2","2","win","no-go","0"
"pit-instructions","138","1072430","0.0-24.0","battery-v0.2","","""event"",""trial"",""time""
""fullscreenenter"",""1"",""7129""
","
","
","""event"",""trial"",""time""
""fullscreenenter"",""1"",""7129""
","
","","[{""page_index"":0,""viewing_time"":6689.899999991059},{""page_index"":1,""viewing_time"":7556}]","14246.09999999404","","","","","","","","","","","","","","","","","","","","","","","",""
"pit-trial","139","1076069","0.0-25.0","battery-v0.2","","""event"",""trial"",""time""
""fullscreenenter"",""1"",""7129""
","
","
","""event"",""trial"",""time""
""fullscreenenter"",""1"",""7129""
","
","","","782.7999999970198","","","22","17698","6645","e","elianto","#f73b6a7A","-1"," ","0","-10","[1633.9000000059605]","1","2","","","17698","21","2","4","lose","no-go","0"
"pit-trial","140","1079999","0.0-26.0","battery-v0.2","","""event"",""trial"",""time""
""fullscreenenter"",""1"",""7129""
","
","
","""event"",""trial"",""time""
""fullscreenenter"",""1"",""7129""
","
","","","1075.300000011921","","","22","17698","6645","d","elianto","#3366ff99"," "," ","1","+10","[1926.5]","1","2","","","17698","22","1","1","win","go","0"
"pit-trial","141","1084093","0.0-27.0","battery-v0.2","","""event"",""trial"",""time""
""fullscreenenter"",""1"",""7129""
","
","
","""event"",""trial"",""time""
""fullscreenenter"",""1"",""7129""
","
","","","1238.8999999910593","","","22","17698","6645","j","elianto","#f73b6a7A","-1"," ","0","0","[2089.8999999910593]","1","2","","","17698","23","0","4","lose","no-go","1"
"pit-trial","142","1088948","0.0-28.0","battery-v0.2","","""event"",""trial"",""time""
""fullscreenenter"",""1"",""7129""
","
","
","""event"",""trial"",""time""
""fullscreenenter"",""1"",""7129""
","
","","","-1","","","22","17698","6645","w","elianto","#f73b6a7A"," ","-1","0","-10","[]","0","2","","","17698","24","3","3","lose","go","0"
"pit-trial","143","1093804","0.0-29.0","battery-v0.2","","""event"",""trial"",""time""
""fullscreenenter"",""1"",""7129""
","
","
","""event"",""trial"",""time""
""fullscreenenter"",""1"",""7129""
","
","","","-1","","","22","17698","6645","w","elianto","#f73b6a7A"," ","-1","0","-10","[]","0","2","","","17698","25","3","3","lose","go","0"
"pit-trial","144","1098008","0.0-30.0","battery-v0.2","","""event"",""trial"",""time""
""fullscreenenter"",""1"",""7129""
","
","
","""event"",""trial"",""time""
""fullscreenenter"",""1"",""7129""
","
","","","1350.9000000059605","","","22","17698","6645","j","elianto","#f73b6a7A","-1"," ","0","-10","[2201]","1","2","","","17698","26","0","4","lose","no-go","0"
"pit-trial","145","1102864","0.0-31.0","battery-v0.2","","""event"",""trial"",""time""
""fullscreenenter"",""1"",""7129""
","
","
","""event"",""trial"",""time""
""fullscreenenter"",""1"",""7129""
","
","","","-1","","","22","17698","6645","e","elianto","#f73b6a7A","-1","-1","1","0","[]","0","2","","","17698","27","2","4","lose","no-go","0"
"pit-trial","146","1106502","0.0-32.0","battery-v0.2","","""event"",""trial"",""time""
""fullscreenenter"",""1"",""7129""
","
","
","""event"",""trial"",""time""
""fullscreenenter"",""1"",""7129""
","
","","","782.1999999880791","","","22","17698","6645","d","elianto","#3366ff99"," "," ","1","0","[1633.300000011921]","1","2","","","17698","28","1","1","win","go","1"
"pit-trial","147","1111357","0.0-33.0","battery-v0.2","","""event"",""trial"",""time""
""fullscreenenter"",""1"",""7129""
","
","
","""event"",""trial"",""time""
""fullscreenenter"",""1"",""7129""
","
","","","-1","","","22","17698","6645","w","elianto","#f73b6a7A"," ","-1","0","0","[]","0","2","","","17698","29","3","3","lose","go","1"
"pit-trial","148","1116213","0.0-34.0","battery-v0.2","","""event"",""trial"",""time""
""fullscreenenter"",""1"",""7129""
","
","
","""event"",""trial"",""time""
""fullscreenenter"",""1"",""7129""
","
","","","-1","","","22","17698","6645","j","elianto","#f73b6a7A","-1","-1","1","-10","[]","0","2","","","17698","30","0","4","lose","no-go","1"
"pit-trial","149","1121067","0.0-35.0","battery-v0.2","","""event"",""trial"",""time""
""fullscreenenter"",""1"",""7129""
","
","
","""event"",""trial"",""time""
""fullscreenenter"",""1"",""7129""
","
","","","-1","","","22","17698","6645","e","elianto","#f73b6a7A","-1","-1","1","0","[]","0","2","","","17698","31","2","4","lose","no-go","0"
"pit-trial","150","1124599","0.0-36.0","battery-v0.2","","""event"",""trial"",""time""
""fullscreenenter"",""1"",""7129""
","
","
","""event"",""trial"",""time""
""fullscreenenter"",""1"",""7129""
","
","","","678","","","22","17698","6645","d","elianto","#3366ff99"," "," ","1","+10","[1528.9000000059605]","1","2","","","17698","32","1","1","win","go","0"
"pit-trial","151","1128190","0.0-37.0","battery-v0.2","","""event"",""trial"",""time""
""fullscreenenter"",""1"",""7129""
","
","
","""event"",""trial"",""time""
""fullscreenenter"",""1"",""7129""
","
","","","735.7999999970198","","","22","17698","6645","j","elianto","#f73b6a7A","-1"," ","0","-10","[1587.7999999970198]","1","2","","","17698","33","0","4","lose","no-go","0"
"pit-trial","152","1133046","0.0-38.0","battery-v0.2","","""event"",""trial"",""time""
""fullscreenenter"",""1"",""7129""
","
","
","""event"",""trial"",""time""
""fullscreenenter"",""1"",""7129""
","
","","","-1","","","22","17698","6645","e","elianto","#f73b6a7A","-1","-1","1","0","[]","0","2","","","17698","34","2","4","lose","no-go","0"
"pit-trial","153","1136497","0.0-39.0","battery-v0.2","","""event"",""trial"",""time""
""fullscreenenter"",""1"",""7129""
","
","
","""event"",""trial"",""time""
""fullscreenenter"",""1"",""7129""
","
","","","596.7000000029802","","","22","17698","6645","d","elianto","#3366ff99"," "," ","1","+10","[1447.7999999970198]","1","2","","","17698","35","1","1","win","go","0"
"pit-trial","154","1141353","0.0-40.0","battery-v0.2","","""event"",""trial"",""time""
""fullscreenenter"",""1"",""7129""
","
","
","""event"",""trial"",""time""
""fullscreenenter"",""1"",""7129""
","
","","","-1","","","22","17698","6645","w","elianto","#f73b6a7A"," ","-1","0","-10","[]","0","2","","","17698","36","3","3","lose","go","0"
"pit-trial","155","1146208","0.0-41.0","battery-v0.2","","""event"",""trial"",""time""
""fullscreenenter"",""1"",""7129""
","
","
","""event"",""trial"",""time""
""fullscreenenter"",""1"",""7129""
","
","","","-1","","","22","17698","6645","j","elianto","#f73b6a7A","-1","-1","1","0","[]","0","2","","","17698","37","0","4","lose","no-go","0"
"pit-trial","156","1151062","0.0-42.0","battery-v0.2","","""event"",""trial"",""time""
""fullscreenenter"",""1"",""7129""
","
","
","""event"",""trial"",""time""
""fullscreenenter"",""1"",""7129""
","
","","","-1","","","22","17698","6645","e","elianto","#f73b6a7A","-1","-1","1","0","[]","0","2","","","17698","38","2","4","lose","no-go","0"
"pit-trial","157","1154390","0.0-43.0","battery-v0.2","","""event"",""trial"",""time""
""fullscreenenter"",""1"",""7129""
","
","
","""event"",""trial"",""time""
""fullscreenenter"",""1"",""7129""
","
","","","473.20000000298023","","","22","17698","6645","w","elianto","#f73b6a7A"," "," ","1","0","[1324.4000000059605]","1","2","","","17698","39","3","3","lose","go","0"
"pit-trial","158","1158161","0.0-44.0","battery-v0.2","","""event"",""trial"",""time""
""fullscreenenter"",""1"",""7129""
","
","
","""event"",""trial"",""time""
""fullscreenenter"",""1"",""7129""
","
","","","917","","","22","17698","6645","d","elianto","#3366ff99"," "," ","1","0","[1767.5]","1","2","","","17698","40","1","1","win","go","1"
"pit-trial","159","1163015","0.0-45.0","battery-v0.2","","""event"",""trial"",""time""
""fullscreenenter"",""1"",""7129""
","
","
","""event"",""trial"",""time""
""fullscreenenter"",""1"",""7129""
","
","","","-1","","","22","17698","6645","j","elianto","#f73b6a7A","-1","-1","1","0","[]","0","2","","","17698","41","0","4","lose","no-go","0"
"pit-trial","160","1166568","0.0-46.0","battery-v0.2","","""event"",""trial"",""time""
""fullscreenenter"",""1"",""7129""
","
","
","""event"",""trial"",""time""
""fullscreenenter"",""1"",""7129""
","
","","","698","","","22","17698","6645","d","elianto","#3366ff99"," "," ","1","+10","[1549.3999999910593]","1","2","","","17698","42","1","1","win","go","0"
"pit-trial","161","1169975","0.0-47.0","battery-v0.2","","""event"",""trial"",""time""
""fullscreenenter"",""1"",""7129""
","
","
","""event"",""trial"",""time""
""fullscreenenter"",""1"",""7129""
","
","","","551.5","","","22","17698","6645","w","elianto","#f73b6a7A"," "," ","1","0","[1403.2000000029802]","1","2","","","17698","43","3","3","lose","go","0"
"pit-trial","162","1174829","0.0-48.0","battery-v0.2","","""event"",""trial"",""time""
""fullscreenenter"",""1"",""7129""
","
","
","""event"",""trial"",""time""
""fullscreenenter"",""1"",""7129""
","
","","","-1","","","22","17698","6645","e","elianto","#f73b6a7A","-1","-1","1","0","[]","0","2","","","17698","44","2","4","lose","no-go","0"
"pit-trial","163","1178705","0.0-49.0","battery-v0.2","","""event"",""trial"",""time""
""fullscreenenter"",""1"",""7129""
","
","
","""event"",""trial"",""time""
""fullscreenenter"",""1"",""7129""
","
","","","1022.1000000089407","","","22","17698","6645","s","elianto","#3366ff99","-1"," ","0","0","[1873.300000011921]","1","2","","","17698","45","4","2","win","no-go","0"
"pit-trial","164","1183559","0.0-50.0","battery-v0.2","","""event"",""trial"",""time""
""fullscreenenter"",""1"",""7129""
","
","
","""event"",""trial"",""time""
""fullscreenenter"",""1"",""7129""
","
","","","-1","","","22","17698","6645","j","elianto","#f73b6a7A","-1","-1","1","0","[]","0","2","","","17698","46","0","4","lose","no-go","0"
"pit-trial","165","1187063","0.0-51.0","battery-v0.2","","""event"",""trial"",""time""
""fullscreenenter"",""1"",""7129""
","
","
","""event"",""trial"",""time""
""fullscreenenter"",""1"",""7129""
","
","","","648.6999999880791","","","22","17698","6645","w","elianto","#f73b6a7A"," "," ","1","0","[1499.5999999940395]","1","2","","","17698","47","3","3","lose","go","0"
"pit-trial","166","1191918","0.0-52.0","battery-v0.2","","""event"",""trial"",""time""
""fullscreenenter"",""1"",""7129""
","
","
","""event"",""trial"",""time""
""fullscreenenter"",""1"",""7129""
","
","","","-1","","","22","17698","6645","e","elianto","#f73b6a7A","-1","-1","1","0","[]","0","2","","","17698","48","2","4","lose","no-go","0"
"pit-trial","167","1196772","0.0-53.0","battery-v0.2","","""event"",""trial"",""time""
""fullscreenenter"",""1"",""7129""
","
","
","""event"",""trial"",""time""
""fullscreenenter"",""1"",""7129""
","
","","","-1","","","22","17698","6645","j","elianto","#f73b6a7A","-1","-1","1","0","[]","0","2","","","17698","49","0","4","lose","no-go","0"
"pit-trial","168","1200306","0.0-54.0","battery-v0.2","","""event"",""trial"",""time""
""fullscreenenter"",""1"",""7129""
","
","
","""event"",""trial"",""time""
""fullscreenenter"",""1"",""7129""
","
","","","678.8999999910593","","","22","17698","6645","d","elianto","#3366ff99"," "," ","1","+10","[1530.7999999970198]","1","2","","","17698","50","1","1","win","go","0"
"pit-trial","169","1205162","0.0-55.0","battery-v0.2","","""event"",""trial"",""time""
""fullscreenenter"",""1"",""7129""
","
","
","""event"",""trial"",""time""
""fullscreenenter"",""1"",""7129""
","
","","","-1","","","22","17698","6645","s","elianto","#3366ff99","-1","-1","1","+10","[]","0","2","","","17698","51","4","2","win","no-go","0"
"pit-trial","170","1208620","0.0-56.0","battery-v0.2","","""event"",""trial"",""time""
""fullscreenenter"",""1"",""7129""
","
","
","""event"",""trial"",""time""
""fullscreenenter"",""1"",""7129""
","
","","","603.2000000029802","","","22","17698","6645","w","elianto","#f73b6a7A"," "," ","1","0","[1454.7000000029802]","1","2","","","17698","52","3","3","lose","go","0"
"pit-trial","171","1212068","0.0-57.0","battery-v0.2","","""event"",""trial"",""time""
""fullscreenenter"",""1"",""7129""
","
","
","""event"",""trial"",""time""
""fullscreenenter"",""1"",""7129""
","
","","","592.9000000059605","","","22","17698","6645","d","elianto","#3366ff99"," "," ","1","0","[1443.7999999970198]","1","2","","","17698","53","1","1","win","go","1"
"pit-trial","172","1216923","0.0-58.0","battery-v0.2","","""event"",""trial"",""time""
""fullscreenenter"",""1"",""7129""
","
","
","""event"",""trial"",""time""
""fullscreenenter"",""1"",""7129""
","
","","","-1","","","22","17698","6645","e","elianto","#f73b6a7A","-1","-1","1","-10","[]","0","2","","","17698","54","2","4","lose","no-go","1"
"pit-trial","173","1221779","0.0-59.0","battery-v0.2","","""event"",""trial"",""time""
""fullscreenenter"",""1"",""7129""
","
","
","""event"",""trial"",""time""
""fullscreenenter"",""1"",""7129""
","
","","","-1","","","22","17698","6645","j","elianto","#f73b6a7A","-1","-1","1","0","[]","0","2","","","17698","55","0","4","lose","no-go","0"
"pit-trial","174","1226634","0.0-60.0","battery-v0.2","","""event"",""trial"",""time""
""fullscreenenter"",""1"",""7129""
","
","
","""event"",""trial"",""time""
""fullscreenenter"",""1"",""7129""
","
","","","-1","","","22","17698","6645","s","elianto","#3366ff99","-1","-1","1","+10","[]","0","2","","","17698","56","4","2","win","no-go","0"
"pit-trial","175","1230187","0.0-61.0","battery-v0.2","","""event"",""trial"",""time""
""fullscreenenter"",""1"",""7129""
","
","
","""event"",""trial"",""time""
""fullscreenenter"",""1"",""7129""
","
","","","699.0999999940395","","","22","17698","6645","d","elianto","#3366ff99"," "," ","1","+10","[1549.7000000029802]","1","2","","","17698","57","1","1","win","go","0"
"pit-trial","176","1235042","0.0-62.0","battery-v0.2","","""event"",""trial"",""time""
""fullscreenenter"",""1"",""7129""
","
","
","""event"",""trial"",""time""
""fullscreenenter"",""1"",""7129""
","
","","","-1","","","22","17698","6645","j","elianto","#f73b6a7A","-1","-1","1","0","[]","0","2","","","17698","58","0","4","lose","no-go","0"
"pit-trial","177","1239897","0.0-63.0","battery-v0.2","","""event"",""trial"",""time""
""fullscreenenter"",""1"",""7129""
","
","
","""event"",""trial"",""time""
""fullscreenenter"",""1"",""7129""
","
","","","-1","","","22","17698","6645","s","elianto","#3366ff99","-1","-1","1","+10","[]","0","2","","","17698","59","4","2","win","no-go","0"
"pit-trial","178","1243332","0.0-64.0","battery-v0.2","","""event"",""trial"",""time""
""fullscreenenter"",""1"",""7129""
","
","
","""event"",""trial"",""time""
""fullscreenenter"",""1"",""7129""
","
","","","580.7000000029802","","","22","17698","6645","w","elianto","#f73b6a7A"," "," ","1","0","[1431.300000011921]","1","2","","","17698","60","3","3","lose","go","0"
"pit-trial","179","1247108","0.0-65.0","battery-v0.2","","""event"",""trial"",""time""
""fullscreenenter"",""1"",""7129""
","
","
","""event"",""trial"",""time""
""fullscreenenter"",""1"",""7129""
","
","","","921.7000000029802","","","22","17698","6645","w","elianto","#f73b6a7A"," "," ","1","0","[1772.7000000029802]","1","2","","","17698","61","3","3","lose","go","0"
"pit-trial","180","1251964","0.0-66.0","battery-v0.2","","""event"",""trial"",""time""
""fullscreenenter"",""1"",""7129""
","
","
","""event"",""trial"",""time""
""fullscreenenter"",""1"",""7129""
","
","","","-1","","","22","17698","6645","s","elianto","#3366ff99","-1","-1","1","+10","[]","0","2","","","17698","62","4","2","win","no-go","0"
"pit-trial","181","1256819","0.0-67.0","battery-v0.2","","""event"",""trial"",""time""
""fullscreenenter"",""1"",""7129""
","
","
","""event"",""trial"",""time""
""fullscreenenter"",""1"",""7129""
","
","","","-1","","","22","17698","6645","e","elianto","#f73b6a7A","-1","-1","1","0","[]","0","2","","","17698","63","2","4","lose","no-go","0"
"pit-trial","182","1260619","0.0-68.0","battery-v0.2","","""event"",""trial"",""time""
""fullscreenenter"",""1"",""7129""
","
","
","""event"",""trial"",""time""
""fullscreenenter"",""1"",""7129""
","
","","","944.6999999880791","","","22","17698","6645","d","elianto","#3366ff99"," "," ","1","+10","[1795.7999999970198]","1","2","","","17698","64","1","1","win","go","0"
"pit-trial","183","1264283","0.0-69.0","battery-v0.2","","""event"",""trial"",""time""
""fullscreenenter"",""1"",""7129""
","
","
","""event"",""trial"",""time""
""fullscreenenter"",""1"",""7129""
","
","","","808.7000000029802","","","22","17698","6645","w","elianto","#f73b6a7A"," "," ","1","0","[1660.1000000089407]","1","2","","","17698","65","3","3","lose","go","0"
"pit-trial","184","1269138","0.0-70.0","battery-v0.2","","""event"",""trial"",""time""
""fullscreenenter"",""1"",""7129""
","
","
","""event"",""trial"",""time""
""fullscreenenter"",""1"",""7129""
","
","","","-1","","","22","17698","6645","e","elianto","#f73b6a7A","-1","-1","1","0","[]","0","2","","","17698","66","2","4","lose","no-go","0"
"pit-trial","185","1272668","0.0-71.0","battery-v0.2","","""event"",""trial"",""time""
""fullscreenenter"",""1"",""7129""
","
","
","""event"",""trial"",""time""
""fullscreenenter"",""1"",""7129""
","
","","","675.8000000119209","","","22","17698","6645","d","elianto","#3366ff99"," "," ","1","+10","[1526.5]","1","2","","","17698","67","1","1","win","go","0"
"pit-trial","186","1277524","0.0-72.0","battery-v0.2","","""event"",""trial"",""time""
""fullscreenenter"",""1"",""7129""
","
","
","""event"",""trial"",""time""
""fullscreenenter"",""1"",""7129""
","
","","","-1","","","22","17698","6645","s","elianto","#3366ff99","-1","-1","1","+10","[]","0","2","","","17698","68","4","2","win","no-go","0"
"pit-trial","187","1282378","0.0-73.0","battery-v0.2","","""event"",""trial"",""time""
""fullscreenenter"",""1"",""7129""
","
","
","""event"",""trial"",""time""
""fullscreenenter"",""1"",""7129""
","
","","","-1","","","22","17698","6645","p","elianto","#3366ff99"," ","-1","0","0","[]","0","2","","","17698","69","5","1","win","go","0"
"pit-trial","188","1286324","0.0-74.0","battery-v0.2","","""event"",""trial"",""time""
""fullscreenenter"",""1"",""7129""
","
","
","""event"",""trial"",""time""
""fullscreenenter"",""1"",""7129""
","
","","","1091.2999999970198","","","22","17698","6645","d","elianto","#3366ff99"," "," ","1","0","[1941.7999999970198]","1","2","","","17698","70","1","1","win","go","1"
"pit-trial","189","1289859","0.0-75.0","battery-v0.2","","""event"",""trial"",""time""
""fullscreenenter"",""1"",""7129""
","
","
","""event"",""trial"",""time""
""fullscreenenter"",""1"",""7129""
","
","","","680.4000000059605","","","22","17698","6645","w","elianto","#f73b6a7A"," "," ","1","-10","[1531.4000000059605]","1","2","","","17698","71","3","3","lose","go","1"
"pit-trial","190","1294714","0.0-76.0","battery-v0.2","","""event"",""trial"",""time""
""fullscreenenter"",""1"",""7129""
","
","
","""event"",""trial"",""time""
""fullscreenenter"",""1"",""7129""
","
","","","-1","","","22","17698","6645","s","elianto","#3366ff99","-1","-1","1","+10","[]","0","2","","","17698","72","4","2","win","no-go","0"
"pit-trial","191","1298359","0.0-77.0","battery-v0.2","","""event"",""trial"",""time""
""fullscreenenter"",""1"",""7129""
","
","
","""event"",""trial"",""time""
""fullscreenenter"",""1"",""7129""
","
","","","790.5","","","22","17698","6645","p","elianto","#3366ff99"," "," ","1","+10","[1640.8999999910593]","1","2","","","17698","73","5","1","win","go","0"
"pit-trial","192","1301947","0.0-78.0","battery-v0.2","","""event"",""trial"",""time""
""fullscreenenter"",""1"",""7129""
","
","
","""event"",""trial"",""time""
""fullscreenenter"",""1"",""7129""
","
","","","732.7999999970198","","","22","17698","6645","d","elianto","#3366ff99"," "," ","1","+10","[1583.8999999910593]","1","2","","","17698","74","1","1","win","go","0"
"pit-trial","193","1305334","0.0-79.0","battery-v0.2","","""event"",""trial"",""time""
""fullscreenenter"",""1"",""7129""
","
","
","""event"",""trial"",""time""
""fullscreenenter"",""1"",""7129""
","
","","","532.5","","","22","17698","6645","s","elianto","#3366ff99","-1"," ","0","0","[1383.0999999940395]","1","2","","","17698","75","4","2","win","no-go","0"
"pit-trial","194","1308900","0.0-80.0","battery-v0.2","","""event"",""trial"",""time""
""fullscreenenter"",""1"",""7129""
","
","
","""event"",""trial"",""time""
""fullscreenenter"",""1"",""7129""
","
","","","709.9000000059605","","","22","17698","6645","w","elianto","#f73b6a7A"," "," ","1","0","[1562.1000000089407]","1","2","","","17698","76","3","3","lose","go","0"
"pit-trial","195","1313756","0.0-81.0","battery-v0.2","","""event"",""trial"",""time""
""fullscreenenter"",""1"",""7129""
","
","
","""event"",""trial"",""time""
""fullscreenenter"",""1"",""7129""
","
","","","-1","","","22","17698","6645","g","elianto","#f73b6a7A","-1","-1","1","0","[]","0","2","","","17698","77","6","4","lose","no-go","0"
"pit-trial","196","1317512","0.0-82.0","battery-v0.2","","""event"",""trial"",""time""
""fullscreenenter"",""1"",""7129""
","
","
","""event"",""trial"",""time""
""fullscreenenter"",""1"",""7129""
","
","","","900.9000000059605","","","22","17698","6645","p","elianto","#3366ff99"," "," ","1","+10","[1753.2000000029802]","1","2","","","17698","78","5","1","win","go","0"
"pit-trial","197","1322367","0.0-83.0","battery-v0.2","","""event"",""trial"",""time""
""fullscreenenter"",""1"",""7129""
","
","
","""event"",""trial"",""time""
""fullscreenenter"",""1"",""7129""
","
","","","-1","","","22","17698","6645","s","elianto","#3366ff99","-1","-1","1","+10","[]","0","2","","","17698","79","4","2","win","no-go","0"
"pit-trial","198","1326156","0.0-84.0","battery-v0.2","","""event"",""trial"",""time""
""fullscreenenter"",""1"",""7129""
","
","
","""event"",""trial"",""time""
""fullscreenenter"",""1"",""7129""
","
","","","935.0999999940395","","","22","17698","6645","w","elianto","#f73b6a7A"," "," ","1","0","[1785.5]","1","2","","","17698","80","3","3","lose","go","0"
"pit-trial","199","1329709","0.0-85.0","battery-v0.2","","""event"",""trial"",""time""
""fullscreenenter"",""1"",""7129""
","
","
","""event"",""trial"",""time""
""fullscreenenter"",""1"",""7129""
","
","","","697.9000000059605","","","22","17698","6645","p","elianto","#3366ff99"," "," ","1","+10","[1549.6000000089407]","1","2","","","17698","81","5","1","win","go","0"
"pit-trial","200","1334565","0.0-86.0","battery-v0.2","","""event"",""trial"",""time""
""fullscreenenter"",""1"",""7129""
","
","
","""event"",""trial"",""time""
""fullscreenenter"",""1"",""7129""
","
","","","-1","","","22","17698","6645","a","elianto","#f73b6a7A"," ","-1","0","-10","[]","0","2","","","17698","82","7","3","lose","go","0"
"pit-trial","201","1339419","0.0-87.0","battery-v0.2","","""event"",""trial"",""time""
""fullscreenenter"",""1"",""7129""
","
","
","""event"",""trial"",""time""
""fullscreenenter"",""1"",""7129""
","
","","","-1","","","22","17698","6645","g","elianto","#f73b6a7A","-1","-1","1","-10","[]","0","2","","","17698","83","6","4","lose","no-go","1"
"pit-trial","202","1344274","0.0-88.0","battery-v0.2","","""event"",""trial"",""time""
""fullscreenenter"",""1"",""7129""
","
","
","""event"",""trial"",""time""
""fullscreenenter"",""1"",""7129""
","
","","","-1","","","22","17698","6645","s","elianto","#3366ff99","-1","-1","1","0","[]","0","2","","","17698","84","4","2","win","no-go","1"
"pit-trial","203","1348086","0.0-89.0","battery-v0.2","","""event"",""trial"",""time""
""fullscreenenter"",""1"",""7129""
","
","
","""event"",""trial"",""time""
""fullscreenenter"",""1"",""7129""
","
","","","957.8999999910593","","","22","17698","6645","g","elianto","#f73b6a7A","-1"," ","0","-10","[1808]","1","2","","","17698","85","6","4","lose","no-go","0"
"pit-trial","204","1351573","0.0-90.0","battery-v0.2","","""event"",""trial"",""time""
""fullscreenenter"",""1"",""7129""
","
","
","""event"",""trial"",""time""
""fullscreenenter"",""1"",""7129""
","
","","","631.2000000029802","","","22","17698","6645","p","elianto","#3366ff99"," "," ","1","+10","[1483]","1","2","","","17698","86","5","1","win","go","0"
"pit-trial","205","1356428","0.0-91.0","battery-v0.2","","""event"",""trial"",""time""
""fullscreenenter"",""1"",""7129""
","
","
","""event"",""trial"",""time""
""fullscreenenter"",""1"",""7129""
","
","","","-1","","","22","17698","6645","s","elianto","#3366ff99","-1","-1","1","0","[]","0","2","","","17698","87","4","2","win","no-go","1"
"pit-trial","206","1359956","0.0-92.0","battery-v0.2","","""event"",""trial"",""time""
""fullscreenenter"",""1"",""7129""
","
","
","""event"",""trial"",""time""
""fullscreenenter"",""1"",""7129""
","
","","","673.5","","","22","17698","6645","a","elianto","#f73b6a7A"," "," ","1","0","[1524.4000000059605]","1","2","","","17698","88","7","3","lose","go","0"
"pit-trial","207","1363559","0.0-93.0","battery-v0.2","","""event"",""trial"",""time""
""fullscreenenter"",""1"",""7129""
","
","
","""event"",""trial"",""time""
""fullscreenenter"",""1"",""7129""
","
","","","747.0999999940395","","","22","17698","6645","g","elianto","#f73b6a7A","-1"," ","0","0","[1598.4000000059605]","1","2","","","17698","89","6","4","lose","no-go","1"
"pit-trial","208","1368415","0.0-94.0","battery-v0.2","","""event"",""trial"",""time""
""fullscreenenter"",""1"",""7129""
","
","
","""event"",""trial"",""time""
""fullscreenenter"",""1"",""7129""
","
","","","-1","","","22","17698","6645","s","elianto","#3366ff99","-1","-1","1","+10","[]","0","2","","","17698","90","4","2","win","no-go","0"
"pit-trial","209","1371936","0.0-95.0","battery-v0.2","","""event"",""trial"",""time""
""fullscreenenter"",""1"",""7129""
","
","
","""event"",""trial"",""time""
""fullscreenenter"",""1"",""7129""
","
","","","666","","","22","17698","6645","p","elianto","#3366ff99"," "," ","1","+10","[1517.2999999970198]","1","2","","","17698","91","5","1","win","go","0"
"pit-trial","210","1375523","0.0-96.0","battery-v0.2","","""event"",""trial"",""time""
""fullscreenenter"",""1"",""7129""
","
","
","""event"",""trial"",""time""
""fullscreenenter"",""1"",""7129""
","
","","","732.2000000029802","","","22","17698","6645","a","elianto","#f73b6a7A"," "," ","1","0","[1583.2999999970198]","1","2","","","17698","92","7","3","lose","go","0"
"pit-trial","211","1380379","0.0-97.0","battery-v0.2","","""event"",""trial"",""time""
""fullscreenenter"",""1"",""7129""
","
","
","""event"",""trial"",""time""
""fullscreenenter"",""1"",""7129""
","
","","","-1","","","22","17698","6645","l","elianto","#3366ff99","-1","-1","1","+10","[]","0","2","","","17698","93","8","2","win","no-go","0"
"pit-trial","212","1384031","0.0-98.0","battery-v0.2","","""event"",""trial"",""time""
""fullscreenenter"",""1"",""7129""
","
","
","""event"",""trial"",""time""
""fullscreenenter"",""1"",""7129""
","
","","","798.3000000119209","","","22","17698","6645","a","elianto","#f73b6a7A"," "," ","1","0","[1649.4000000059605]","1","2","","","17698","94","7","3","lose","go","0"
"pit-trial","213","1387528","0.0-99.0","battery-v0.2","","""event"",""trial"",""time""
""fullscreenenter"",""1"",""7129""
","
","
","""event"",""trial"",""time""
""fullscreenenter"",""1"",""7129""
","
","","","641.5","","","22","17698","6645","g","elianto","#f73b6a7A","-1"," ","0","-10","[1492.5999999940395]","1","2","","","17698","95","6","4","lose","no-go","0"
"pit-trial","214","1391040","0.0-100.0","battery-v0.2","","""event"",""trial"",""time""
""fullscreenenter"",""1"",""7129""
","
","
","""event"",""trial"",""time""
""fullscreenenter"",""1"",""7129""
","
","","","657.2999999970198","","","22","17698","6645","p","elianto","#3366ff99"," "," ","1","+10","[1507.699999988079]","1","2","","","17698","96","5","1","win","go","0"
"pit-trial","215","1394719","0.0-101.0","battery-v0.2","","""event"",""trial"",""time""
""fullscreenenter"",""1"",""7129""
","
","
","""event"",""trial"",""time""
""fullscreenenter"",""1"",""7129""
","
","","","824.9000000059605","","","22","17698","6645","a","elianto","#f73b6a7A"," "," ","1","-10","[1675]","1","2","","","17698","97","7","3","lose","go","1"
"pit-trial","216","1398099","0.0-102.0","battery-v0.2","","""event"",""trial"",""time""
""fullscreenenter"",""1"",""7129""
","
","
","""event"",""trial"",""time""
""fullscreenenter"",""1"",""7129""
","
","","","525.4000000059605","","","22","17698","6645","p","elianto","#3366ff99"," "," ","1","0","[1376.6000000089407]","1","2","","","17698","98","5","1","win","go","1"
"pit-trial","217","1402955","0.0-103.0","battery-v0.2","","""event"",""trial"",""time""
""fullscreenenter"",""1"",""7129""
","
","
","""event"",""trial"",""time""
""fullscreenenter"",""1"",""7129""
","
","","","-1","","","22","17698","6645","l","elianto","#3366ff99","-1","-1","1","0","[]","0","2","","","17698","99","8","2","win","no-go","1"
"pit-trial","218","1406786","0.0-104.0","battery-v0.2","","""event"",""trial"",""time""
""fullscreenenter"",""1"",""7129""
","
","
","""event"",""trial"",""time""
""fullscreenenter"",""1"",""7129""
","
","","","977.5999999940395","","","22","17698","6645","g","elianto","#f73b6a7A","-1"," ","0","-10","[1828.2000000029802]","1","2","","","17698","100","6","4","lose","no-go","0"
"pit-trial","219","1411642","0.0-105.0","battery-v0.2","","""event"",""trial"",""time""
""fullscreenenter"",""1"",""7129""
","
","
","""event"",""trial"",""time""
""fullscreenenter"",""1"",""7129""
","
","","","-1","","","22","17698","6645","g","elianto","#f73b6a7A","-1","-1","1","0","[]","0","2","","","17698","101","6","4","lose","no-go","0"
"pit-trial","220","1415723","0.0-106.0","battery-v0.2","","""event"",""trial"",""time""
""fullscreenenter"",""1"",""7129""
","
","
","""event"",""trial"",""time""
""fullscreenenter"",""1"",""7129""
","
","","","1226.5999999940395","","","22","17698","6645","u","elianto","#3366ff99","-1"," ","0","0","[2077.0999999940395]","1","2","","","17698","102","9","2","win","no-go","0"
"pit-trial","221","1419072","0.0-107.0","battery-v0.2","","""event"",""trial"",""time""
""fullscreenenter"",""1"",""7129""
","
","
","""event"",""trial"",""time""
""fullscreenenter"",""1"",""7129""
","
","","","494.70000000298023","","","22","17698","6645","l","elianto","#3366ff99","-1"," ","0","+10","[1345.5]","1","2","","","17698","103","8","2","win","no-go","1"
"pit-trial","222","1422490","0.0-108.0","battery-v0.2","","""event"",""trial"",""time""
""fullscreenenter"",""1"",""7129""
","
","
","""event"",""trial"",""time""
""fullscreenenter"",""1"",""7129""
","
","","","564.2000000029802","","","22","17698","6645","p","elianto","#3366ff99"," "," ","1","+10","[1415.2999999970198]","1","2","","","17698","104","5","1","win","go","0"
"pit-trial","223","1427344","0.0-109.0","battery-v0.2","","""event"",""trial"",""time""
""fullscreenenter"",""1"",""7129""
","
","
","""event"",""trial"",""time""
""fullscreenenter"",""1"",""7129""
","
","","","-1","","","22","17698","6645","g","elianto","#f73b6a7A","-1","-1","1","0","[]","0","2","","","17698","105","6","4","lose","no-go","0"
"pit-trial","224","1430817","0.0-110.0","battery-v0.2","","""event"",""trial"",""time""
""fullscreenenter"",""1"",""7129""
","
","
","""event"",""trial"",""time""
""fullscreenenter"",""1"",""7129""
","
","","","618.9000000059605","","","22","17698","6645","l","elianto","#3366ff99","-1"," ","0","0","[1469.6000000089407]","1","2","","","17698","106","8","2","win","no-go","0"
"pit-trial","225","1434623","0.0-111.0","battery-v0.2","","""event"",""trial"",""time""
""fullscreenenter"",""1"",""7129""
","
","
","""event"",""trial"",""time""
""fullscreenenter"",""1"",""7129""
","
","","","949.6000000089407","","","22","17698","6645","u","elianto","#3366ff99","-1"," ","0","+10","[1801.2999999970198]","1","2","","","17698","107","9","2","win","no-go","1"
"pit-trial","226","1438033","0.0-112.0","battery-v0.2","","""event"",""trial"",""time""
""fullscreenenter"",""1"",""7129""
","
","
","""event"",""trial"",""time""
""fullscreenenter"",""1"",""7129""
","
","","","556.7000000029802","","","22","17698","6645","p","elianto","#3366ff99"," "," ","1","0","[1406.800000011921]","1","2","","","17698","108","5","1","win","go","1"
"pit-trial","227","1442888","0.0-113.0","battery-v0.2","","""event"",""trial"",""time""
""fullscreenenter"",""1"",""7129""
","
","
","""event"",""trial"",""time""
""fullscreenenter"",""1"",""7129""
","
","","","-1","","","22","17698","6645","g","elianto","#f73b6a7A","-1","-1","1","0","[]","0","2","","","17698","109","6","4","lose","no-go","0"
"pit-trial","228","1446291","0.0-114.0","battery-v0.2","","""event"",""trial"",""time""
""fullscreenenter"",""1"",""7129""
","
","
","""event"",""trial"",""time""
""fullscreenenter"",""1"",""7129""
","
","","","547.5","","","22","17698","6645","u","elianto","#3366ff99","-1"," ","0","0","[1398.9000000059605]","1","2","","","17698","110","9","2","win","no-go","0"
"pit-trial","229","1449864","0.0-115.0","battery-v0.2","","""event"",""trial"",""time""
""fullscreenenter"",""1"",""7129""
","
","
","""event"",""trial"",""time""
""fullscreenenter"",""1"",""7129""
","
","","","718.2999999970198","","","22","17698","6645","l","elianto","#3366ff99","-1"," ","0","0","[1568.8999999910593]","1","2","","","17698","111","8","2","win","no-go","0"
"pit-trial","230","1453267","0.0-116.0","battery-v0.2","","""event"",""trial"",""time""
""fullscreenenter"",""1"",""7129""
","
","
","""event"",""trial"",""time""
""fullscreenenter"",""1"",""7129""
","
","","","548.8999999910593","","","22","17698","6645","p","elianto","#3366ff99"," "," ","1","+10","[1399.5]","1","2","","","17698","112","5","1","win","go","0"
"pit-trial","231","1458122","0.0-117.0","battery-v0.2","","""event"",""trial"",""time""
""fullscreenenter"",""1"",""7129""
","
","
","""event"",""trial"",""time""
""fullscreenenter"",""1"",""7129""
","
","","","-1","","","22","17698","6645","l","elianto","#3366ff99","-1","-1","1","+10","[]","0","2","","","17698","113","8","2","win","no-go","0"
"pit-trial","232","1461720","0.0-118.0","battery-v0.2","","""event"",""trial"",""time""
""fullscreenenter"",""1"",""7129""
","
","
","""event"",""trial"",""time""
""fullscreenenter"",""1"",""7129""
","
","","","743.2999999970198","","","22","17698","6645","a","elianto","#f73b6a7A"," "," ","1","0","[1593.9000000059605]","1","2","","","17698","114","7","3","lose","go","0"
"pit-trial","233","1466575","0.0-119.0","battery-v0.2","","""event"",""trial"",""time""
""fullscreenenter"",""1"",""7129""
","
","
","""event"",""trial"",""time""
""fullscreenenter"",""1"",""7129""
","
","","","-1","","","22","17698","6645","u","elianto","#3366ff99","-1","-1","1","+10","[]","0","2","","","17698","115","9","2","win","no-go","0"
"pit-trial","234","1470240","0.0-120.0","battery-v0.2","","""event"",""trial"",""time""
""fullscreenenter"",""1"",""7129""
","
","
","""event"",""trial"",""time""
""fullscreenenter"",""1"",""7129""
","
","","","810","","","22","17698","6645","p","elianto","#3366ff99"," "," ","1","+10","[1660.5999999940395]","1","2","","","17698","116","5","1","win","go","0"
"pit-trial","235","1475095","0.0-121.0","battery-v0.2","","""event"",""trial"",""time""
""fullscreenenter"",""1"",""7129""
","
","
","""event"",""trial"",""time""
""fullscreenenter"",""1"",""7129""
","
","","","-1","","","22","17698","6645","p","elianto","#3366ff99"," ","-1","0","+10","[2896.1000000089407]","1","2","","","17698","117","5","1","win","go","1"
"pit-trial","236","1479951","0.0-122.0","battery-v0.2","","""event"",""trial"",""time""
""fullscreenenter"",""1"",""7129""
","
","
","""event"",""trial"",""time""
""fullscreenenter"",""1"",""7129""
","
","","","-1","","","22","17698","6645","u","elianto","#3366ff99","-1","-1","1","0","[]","0","2","","","17698","118","9","2","win","no-go","1"
"pit-trial","237","1484806","0.0-123.0","battery-v0.2","","""event"",""trial"",""time""
""fullscreenenter"",""1"",""7129""
","
","
","""event"",""trial"",""time""
""fullscreenenter"",""1"",""7129""
","
","","","-1","","","22","17698","6645","l","elianto","#3366ff99","-1","-1","1","+10","[]","0","2","","","17698","119","8","2","win","no-go","0"
"pit-trial","238","1489661","0.0-124.0","battery-v0.2","","""event"",""trial"",""time""
""fullscreenenter"",""1"",""7129""
","
","
","""event"",""trial"",""time""
""fullscreenenter"",""1"",""7129""
","
","","","-1","","","22","17698","6645","g","elianto","#f73b6a7A","-1","-1","1","0","[]","0","2","","","17698","120","6","4","lose","no-go","0"
"pit-trial","239","1493280","0.0-125.0","battery-v0.2","","""event"",""trial"",""time""
""fullscreenenter"",""1"",""7129""
","
","
","""event"",""trial"",""time""
""fullscreenenter"",""1"",""7129""
","
","","","764.6000000089407","","","22","17698","6645","p","elianto","#3366ff99"," "," ","1","+10","[1615.5]","1","2","","","17698","121","5","1","win","go","0"
"pit-trial","240","1498134","0.0-126.0","battery-v0.2","","""event"",""trial"",""time""
""fullscreenenter"",""1"",""7129""
","
","
","""event"",""trial"",""time""
""fullscreenenter"",""1"",""7129""
","
","","","-1","","","22","17698","6645","a","elianto","#f73b6a7A"," ","-1","0","-10","[]","0","2","","","17698","122","7","3","lose","go","0"
"pit-trial","241","1501792","0.0-127.0","battery-v0.2","","""event"",""trial"",""time""
""fullscreenenter"",""1"",""7129""
","
","
","""event"",""trial"",""time""
""fullscreenenter"",""1"",""7129""
","
","","","802.7000000029802","","","22","17698","6645","l","elianto","#3366ff99","-1"," ","0","0","[1654]","1","2","","","17698","123","8","2","win","no-go","0"
"pit-trial","242","1506647","0.0-128.0","battery-v0.2","","""event"",""trial"",""time""
""fullscreenenter"",""1"",""7129""
","
","
","""event"",""trial"",""time""
""fullscreenenter"",""1"",""7129""
","
","","","-1","","","22","17698","6645","u","elianto","#3366ff99","-1","-1","1","+10","[]","0","2","","","17698","124","9","2","win","no-go","0"
"pit-trial","243","1510404","0.0-129.0","battery-v0.2","","""event"",""trial"",""time""
""fullscreenenter"",""1"",""7129""
","
","
","""event"",""trial"",""time""
""fullscreenenter"",""1"",""7129""
","
","","","903.0999999940395","","","22","17698","6645","g","elianto","#f73b6a7A","-1"," ","0","-10","[1754]","1","2","","","17698","125","6","4","lose","no-go","0"
"pit-trial","244","1515259","0.0-130.0","battery-v0.2","","""event"",""trial"",""time""
""fullscreenenter"",""1"",""7129""
","
","
","""event"",""trial"",""time""
""fullscreenenter"",""1"",""7129""
","
","","","-1","","","22","17698","6645","u","elianto","#3366ff99","-1","-1","1","+10","[]","0","2","","","17698","126","9","2","win","no-go","0"
"pit-trial","245","1520114","0.0-131.0","battery-v0.2","","""event"",""trial"",""time""
""fullscreenenter"",""1"",""7129""
","
","
","""event"",""trial"",""time""
""fullscreenenter"",""1"",""7129""
","
","","","-1","","","22","17698","6645","l","elianto","#3366ff99","-1","-1","1","+10","[]","0","2","","","17698","127","8","2","win","no-go","0"
"pit-trial","246","1523494","0.0-132.0","battery-v0.2","","""event"",""trial"",""time""
""fullscreenenter"",""1"",""7129""
","
","
","""event"",""trial"",""time""
""fullscreenenter"",""1"",""7129""
","
","","","527.1999999880791","","","22","17698","6645","a","elianto","#f73b6a7A"," "," ","1","0","[1377.7000000029802]","1","2","","","17698","128","7","3","lose","go","0"
"pit-trial","247","1527035","0.0-133.0","battery-v0.2","","""event"",""trial"",""time""
""fullscreenenter"",""1"",""7129""
","
","
","""event"",""trial"",""time""
""fullscreenenter"",""1"",""7129""
","
","","","686.4000000059605","","","22","17698","6645","a","elianto","#f73b6a7A"," "," ","1","0","[1536.7000000029802]","1","2","","","17698","129","7","3","lose","go","0"
"pit-trial","248","1531890","0.0-134.0","battery-v0.2","","""event"",""trial"",""time""
""fullscreenenter"",""1"",""7129""
","
","
","""event"",""trial"",""time""
""fullscreenenter"",""1"",""7129""
","
","","","-1","","","22","17698","6645","u","elianto","#3366ff99","-1","-1","1","+10","[]","0","2","","","17698","130","9","2","win","no-go","0"
"pit-trial","249","1536746","0.0-135.0","battery-v0.2","","""event"",""trial"",""time""
""fullscreenenter"",""1"",""7129""
","
","
","""event"",""trial"",""time""
""fullscreenenter"",""1"",""7129""
","
","","","-1","","","22","17698","6645","g","elianto","#f73b6a7A","-1","-1","1","0","[]","0","2","","","17698","131","6","4","lose","no-go","0"
"pit-trial","250","1540415","0.0-136.0","battery-v0.2","","""event"",""trial"",""time""
""fullscreenenter"",""1"",""7129""
","
","
","""event"",""trial"",""time""
""fullscreenenter"",""1"",""7129""
","
","","","815.7000000029802","","","22","17698","6645","l","elianto","#3366ff99","-1"," ","0","0","[1666.3999999910593]","1","2","","","17698","132","8","2","win","no-go","0"
"pit-trial","251","1545270","0.0-137.0","battery-v0.2","","""event"",""trial"",""time""
""fullscreenenter"",""1"",""7129""
","
","
","""event"",""trial"",""time""
""fullscreenenter"",""1"",""7129""
","
","","","-1","","","22","17698","6645","l","elianto","#3366ff99","-1","-1","1","+10","[]","0","2","","","17698","133","8","2","win","no-go","0"
"pit-trial","252","1550125","0.0-138.0","battery-v0.2","","""event"",""trial"",""time""
""fullscreenenter"",""1"",""7129""
","
","
","""event"",""trial"",""time""
""fullscreenenter"",""1"",""7129""
","
","","","-1","","","22","17698","6645","g","elianto","#f73b6a7A","-1","-1","1","-10","[]","0","2","","","17698","134","6","4","lose","no-go","1"
"pit-trial","253","1554981","0.0-139.0","battery-v0.2","","""event"",""trial"",""time""
""fullscreenenter"",""1"",""7129""
","
","
","""event"",""trial"",""time""
""fullscreenenter"",""1"",""7129""
","
","","","-1","","","22","17698","6645","u","elianto","#3366ff99","-1","-1","1","0","[]","0","2","","","17698","135","9","2","win","no-go","1"
"pit-trial","254","1558714","0.0-140.0","battery-v0.2","","""event"",""trial"",""time""
""fullscreenenter"",""1"",""7129""
","
","
","""event"",""trial"",""time""
""fullscreenenter"",""1"",""7129""
","
","","","878.7000000029802","","","22","17698","6645","a","elianto","#f73b6a7A"," "," ","1","0","[1729]","1","2","","","17698","136","7","3","lose","go","0"
"pit-trial","255","1563570","0.0-141.0","battery-v0.2","","""event"",""trial"",""time""
""fullscreenenter"",""1"",""7129""
","
","
","""event"",""trial"",""time""
""fullscreenenter"",""1"",""7129""
","
","","","-1","","","22","17698","6645","u","elianto","#3366ff99","-1","-1","1","0","[]","0","2","","","17698","137","9","2","win","no-go","1"
"pit-trial","256","1568425","0.0-142.0","battery-v0.2","","""event"",""trial"",""time""
""fullscreenenter"",""1"",""7129""
","
","
","""event"",""trial"",""time""
""fullscreenenter"",""1"",""7129""
","
","","","-1","","","22","17698","6645","g","elianto","#f73b6a7A","-1","-1","1","0","[]","0","2","","","17698","138","6","4","lose","no-go","0"
"pit-trial","257","1572173","0.0-143.0","battery-v0.2","","""event"",""trial"",""time""
""fullscreenenter"",""1"",""7129""
","
","
","""event"",""trial"",""time""
""fullscreenenter"",""1"",""7129""
","
","","","893.9000000059605","","","22","17698","6645","a","elianto","#f73b6a7A"," "," ","1","0","[1744]","1","2","","","17698","139","7","3","lose","go","0"
"pit-trial","258","1577029","0.0-144.0","battery-v0.2","","""event"",""trial"",""time""
""fullscreenenter"",""1"",""7129""
","
","
","""event"",""trial"",""time""
""fullscreenenter"",""1"",""7129""
","
","","","-1","","","22","17698","6645","l","elianto","#3366ff99","-1","-1","1","0","[]","0","2","","","17698","140","8","2","win","no-go","1"
"pit-instructions","259","1598419","0.0-145.0","battery-v0.2","","""event"",""trial"",""time""
""fullscreenenter"",""1"",""7129""
","
","
","""event"",""trial"",""time""
""fullscreenenter"",""1"",""7129""
","
","","[{""page_index"":0,""viewing_time"":12912.59999999404},{""page_index"":1,""viewing_time"":8474.70000000298}]","21387.90000000596","","","","","","","","","","","","","","","","","","","","","","","",""
"pit-trial","260","1602566","0.0-146.0","battery-v0.2","","""event"",""trial"",""time""
""fullscreenenter"",""1"",""7129""
","
","
","""event"",""trial"",""time""
""fullscreenenter"",""1"",""7129""
","
","","","1288.800000011921","","","22","17698","6645","b","elianto","#f73b6a7A","-1"," ","0","0","[2140.6000000089407]","1","3","","","17698","141","3","4","lose","no-go","1"
"pit-trial","261","1607422","0.0-147.0","battery-v0.2","","""event"",""trial"",""time""
""fullscreenenter"",""1"",""7129""
","
","
","""event"",""trial"",""time""
""fullscreenenter"",""1"",""7129""
","
","","","-1","","","22","17698","6645","n","elianto","#f73b6a7A"," ","-1","0","-10","[]","0","3","","","17698","142","0","3","lose","go","0"
"pit-trial","262","1611047","0.0-148.0","battery-v0.2","","""event"",""trial"",""time""
""fullscreenenter"",""1"",""7129""
","
","
","""event"",""trial"",""time""
""fullscreenenter"",""1"",""7129""
","
","","","770.2999999970198","","","22","17698","6645","f","elianto","#3366ff99","-1"," ","0","0","[1621.7000000029802]","1","3","","","17698","143","1","2","win","no-go","0"
"pit-trial","263","1615903","0.0-149.0","battery-v0.2","","""event"",""trial"",""time""
""fullscreenenter"",""1"",""7129""
","
","
","""event"",""trial"",""time""
""fullscreenenter"",""1"",""7129""
","
","","","-1","","","22","17698","6645","t","elianto","#f73b6a7A"," ","-1","0","-10","[]","0","3","","","17698","144","2","3","lose","go","0"
"pit-trial","264","1620759","0.0-150.0","battery-v0.2","","""event"",""trial"",""time""
""fullscreenenter"",""1"",""7129""
","
","
","""event"",""trial"",""time""
""fullscreenenter"",""1"",""7129""
","
","","","-1","","","22","17698","6645","n","elianto","#f73b6a7A"," ","-1","0","0","[]","0","3","","","17698","145","0","3","lose","go","1"
"pit-trial","265","1624260","0.0-151.0","battery-v0.2","","""event"",""trial"",""time""
""fullscreenenter"",""1"",""7129""
","
","
","""event"",""trial"",""time""
""fullscreenenter"",""1"",""7129""
","
","","","645.2999999970198","","","22","17698","6645","b","elianto","#f73b6a7A","-1"," ","0","0","[1497.1000000089407]","1","3","","","17698","146","3","4","lose","no-go","1"
"pit-trial","266","1629116","0.0-152.0","battery-v0.2","","""event"",""trial"",""time""
""fullscreenenter"",""1"",""7129""
","
","
","""event"",""trial"",""time""
""fullscreenenter"",""1"",""7129""
","
","","","-1","","","22","17698","6645","t","elianto","#f73b6a7A"," ","-1","0","-10","[]","0","3","","","17698","147","2","3","lose","go","0"
"pit-trial","267","1632744","0.0-153.0","battery-v0.2","","""event"",""trial"",""time""
""fullscreenenter"",""1"",""7129""
","
","
