"trial_type","trial_index","time_elapsed","internal_node_id","task_version","subject_id","interactions","blur_events","focus_events","fullscreenenter_events","fullscreenexit_events","success","view_history","rt","responses","num_errors","age","subject","participantId","rune","rune_set","hex","correct","choice","accuracy","outcome","keys","total_keys","block","practice","value","sub","trial","stimulus","robot","valence","action","sham"
"pavlovia","0","11","0.0-0.0","battery-v0.2","","""event"",""trial"",""time""
""fullscreenenter"",""1"",""2272""
","
","
","""event"",""trial"",""time""
""fullscreenenter"",""1"",""2272""
","
","","","","","","","","","","","","","","","","","","","","","","","","","","",""
"fullscreen","1","3263","0.0-1.0","battery-v0.2","","""event"",""trial"",""time""
""fullscreenenter"",""1"",""2272""
","
","
","""event"",""trial"",""time""
""fullscreenenter"",""1"",""2272""
","
","true","","","","","","","","","","","","","","","","","","","","","","","","","",""
"pit-instructions","2","11929","0.0-2.0-0.0","battery-v0.2","","""event"",""trial"",""time""
""fullscreenenter"",""1"",""2272""
","
","
","""event"",""trial"",""time""
""fullscreenenter"",""1"",""2272""
","
","","[{""page_index"":0,""viewing_time"":8662.39999999106}]","8663.199999988079","","","","","","","","","","","","","","","","","","","","","","","",""
"pit-comprehension","3","14864","0.0-2.0-1.0-0.0","battery-v0.2","","""event"",""trial"",""time""
""fullscreenenter"",""1"",""2272""
","
","
","""event"",""trial"",""time""
""fullscreenenter"",""1"",""2272""
","
","","","2929.300000011921","[""shark""]","0","25","9388","273","","","","","","","","","","","","","","","","","","",""
"pit-instructions","4","16160","0.0-2.0-1.0-1.0","battery-v0.2","","""event"",""trial"",""time""
""fullscreenenter"",""1"",""2272""
","
","
","""event"",""trial"",""time""
""fullscreenenter"",""1"",""2272""
","
","","[{""page_index"":0,""viewing_time"":1288}]","1288.2999999970198","","","","","","","","","","","","","","","","","","","","","","","",""
"pit-comprehension","5","18863","0.0-2.0-2.0-0.0","battery-v0.2","","""event"",""trial"",""time""
""fullscreenenter"",""1"",""2272""
","
","
","""event"",""trial"",""time""
""fullscreenenter"",""1"",""2272""
","
","","","2699.6000000089407","[""tiger""]","0","25","9388","273","","","","","","","","","","","","","","","","","","",""
"pit-instructions","6","21062","0.0-2.0-2.0-1.0","battery-v0.2","","""event"",""trial"",""time""
""fullscreenenter"",""1"",""2272""
","
","
","""event"",""trial"",""time""
""fullscreenenter"",""1"",""2272""
","
","","[{""page_index"":0,""viewing_time"":2193.7000000029802}]","2194.5","","","","","","","","","","","","","","","","","","","","","","","",""
"pit-instructions","7","121379","0.0-2.0-3.0","battery-v0.2","","""event"",""trial"",""time""
""fullscreenenter"",""1"",""2272""
","
","
","""event"",""trial"",""time""
""fullscreenenter"",""1"",""2272""
","
","","[{""page_index"":0,""viewing_time"":8461.79999999702},{""page_index"":1,""viewing_time"":7616},{""page_index"":2,""viewing_time"":6518.5},{""page_index"":3,""viewing_time"":5383.5},{""page_index"":4,""viewing_time"":6115},{""page_index"":5,""viewing_time"":6884.5},{""page_index"":6,""viewing_time"":7267.20000000298},{""page_index"":7,""viewing_time"":6450.5999999940395},{""page_index"":8,""viewing_time"":7965.600000008941},{""page_index"":9,""viewing_time"":8751.59999999404},{""page_index"":10,""viewing_time"":9150.90000000596},{""page_index"":11,""viewing_time"":8082.79999999702},{""page_index"":12,""viewing_time"":6149.5},{""page_index"":13,""viewing_time"":5517}]","100315.40000000596","","","","","","","","","","","","","","","","","","","","","","","",""
"pit-trial","8","124726","0.0-2.0-4.0-0.0","battery-v0.2","","""event"",""trial"",""time""
""fullscreenenter"",""1"",""2272""
","
","
","""event"",""trial"",""time""
""fullscreenenter"",""1"",""2272""
","
","","","485.90000000596046","","","25","9388","273","&#9784;","elianto","#FFFFF080"," "," ","1","&#10004","[1339.2999999970198]","1","0","0","","","","","","","",""
"pit-trial","9","128059","0.0-2.0-4.1-0.1","battery-v0.2","","""event"",""trial"",""time""
""fullscreenenter"",""1"",""2272""
","
","
","""event"",""trial"",""time""
""fullscreenenter"",""1"",""2272""
","
","","","468.80000001192093","","","25","9388","273","&#9784;","elianto","#FFFFF080"," "," ","1","&#10004","[1322.0999999940395]","1","0","0","","","","","","","",""
"pit-trial","10","131390","0.0-2.0-4.2-0.2","battery-v0.2","","""event"",""trial"",""time""
""fullscreenenter"",""1"",""2272""
","
","
","""event"",""trial"",""time""
""fullscreenenter"",""1"",""2272""
","
","","","471.20000000298023","","","25","9388","273","&#9784;","elianto","#FFFFF080"," "," ","1","&#10004","[1321.5999999940395]","1","0","0","","","","","","","",""
"pit-trial","11","134736","0.0-2.0-4.3-0.3","battery-v0.2","","""event"",""trial"",""time""
""fullscreenenter"",""1"",""2272""
","
","
","""event"",""trial"",""time""
""fullscreenenter"",""1"",""2272""
","
","","","492.20000000298023","","","25","9388","273","&#9784;","elianto","#FFFFF080"," "," ","1","&#10004","[1342.8999999910593]","1","0","0","","","","","","","",""
"pit-trial","12","138290","0.0-2.0-4.4-0.4","battery-v0.2","","""event"",""trial"",""time""
""fullscreenenter"",""1"",""2272""
","
","
","""event"",""trial"",""time""
""fullscreenenter"",""1"",""2272""
","
","","","695.2999999970198","","","25","9388","273","&#9784;","elianto","#FFFFF080"," "," ","1","&#10004","[1546.2000000029802]","1","0","0","","","","","","","",""
"pit-instructions","13","161330","0.0-2.0-5.0","battery-v0.2","","""event"",""trial"",""time""
""fullscreenenter"",""1"",""2272""
","
","
","""event"",""trial"",""time""
""fullscreenenter"",""1"",""2272""
","
","","[{""page_index"":0,""viewing_time"":5668.899999991059},{""page_index"":1,""viewing_time"":6865.79999999702},{""page_index"":2,""viewing_time"":5399.9000000059605},{""page_index"":3,""viewing_time"":5100.20000000298}]","23035.5","","","","","","","","","","","","","","","","","","","","","","","",""
"pit-trial","14","166194","0.0-2.0-6.0-0.0","battery-v0.2","","""event"",""trial"",""time""
""fullscreenenter"",""1"",""2272""
","
","
","""event"",""trial"",""time""
""fullscreenenter"",""1"",""2272""
","
","","","-1","","","25","9388","273","&#9854;","elianto","#FFFFF080","-1","-1","1","&#10004","[]","0","0","1","","","","","","","",""
"pit-trial","15","171060","0.0-2.0-6.1-0.1","battery-v0.2","","""event"",""trial"",""time""
""fullscreenenter"",""1"",""2272""
","
","
","""event"",""trial"",""time""
""fullscreenenter"",""1"",""2272""
","
","","","-1","","","25","9388","273","&#9854;","elianto","#FFFFF080","-1","-1","1","&#10004","[]","0","0","1","","","","","","","",""
"pit-trial","16","175925","0.0-2.0-6.2-0.2","battery-v0.2","","""event"",""trial"",""time""
""fullscreenenter"",""1"",""2272""
","
","
","""event"",""trial"",""time""
""fullscreenenter"",""1"",""2272""
","
","","","-1","","","25","9388","273","&#9854;","elianto","#FFFFF080","-1","-1","1","&#10004","[]","0","0","1","","","","","","","",""
"pit-trial","17","180784","0.0-2.0-6.3-0.3","battery-v0.2","","""event"",""trial"",""time""
""fullscreenenter"",""1"",""2272""
","
","
","""event"",""trial"",""time""
""fullscreenenter"",""1"",""2272""
","
","","","-1","","","25","9388","273","&#9854;","elianto","#FFFFF080","-1","-1","1","&#10004","[]","0","0","1","","","","","","","",""
"pit-trial","18","185648","0.0-2.0-6.4-0.4","battery-v0.2","","""event"",""trial"",""time""
""fullscreenenter"",""1"",""2272""
","
","
","""event"",""trial"",""time""
""fullscreenenter"",""1"",""2272""
","
","","","-1","","","25","9388","273","&#9854;","elianto","#FFFFF080","-1","-1","1","&#10004","[]","0","0","1","","","","","","","",""
"pit-instructions","19","313963","0.0-2.0-7.0","battery-v0.2","","""event"",""trial"",""time""
""fullscreenenter"",""1"",""2272""
","
","
","""event"",""trial"",""time""
""fullscreenenter"",""1"",""2272""
","
","","[{""page_index"":0,""viewing_time"":6909.4000000059605},{""page_index"":1,""viewing_time"":7249.79999999702},{""page_index"":2,""viewing_time"":6534.0999999940395},{""page_index"":3,""viewing_time"":6717},{""page_index"":4,""viewing_time"":5850.20000000298},{""page_index"":5,""viewing_time"":5784},{""page_index"":6,""viewing_time"":7916},{""page_index"":7,""viewing_time"":8200.79999999702},{""page_index"":8,""viewing_time"":7032.79999999702},{""page_index"":9,""viewing_time"":9149.5},{""page_index"":10,""viewing_time"":7018.300000011921},{""page_index"":11,""viewing_time"":4516.5999999940395},{""page_index"":12,""viewing_time"":8484.90000000596},{""page_index"":13,""viewing_time"":7482.5999999940395},{""page_index"":14,""viewing_time"":7017.20000000298},{""page_index"":15,""viewing_time"":6500.20000000298},{""page_index"":16,""viewing_time"":8949.09999999404},{""page_index"":17,""viewing_time"":7000.29999999702}]","128313.5","","","","","","","","","","","","","","","","","","","","","","","",""
"pit-trial","20","317487","0.0-2.0-8.0-0.0","battery-v0.2","","""event"",""trial"",""time""
""fullscreenenter"",""1"",""2272""
","
","
","""event"",""trial"",""time""
""fullscreenenter"",""1"",""2272""
","
","","","663.7000000029802","","","25","9388","273","&#9776;","elianto","#3366ff99"," "," ","1","+10","[1515.9000000059605]","1","0","1","","","","","","","",""
"pit-trial","21","321107","0.0-2.0-8.0-1.0","battery-v0.2","","""event"",""trial"",""time""
""fullscreenenter"",""1"",""2272""
","
","
","""event"",""trial"",""time""
""fullscreenenter"",""1"",""2272""
","
","","","760.8000000119209","","","25","9388","273","&#9776;","elianto","#3366ff99"," "," ","1","+10","[1610.8999999910593]","1","0","1","","","","","","","",""
"pit-trial","22","324589","0.0-2.0-8.0-2.0","battery-v0.2","","""event"",""trial"",""time""
""fullscreenenter"",""1"",""2272""
","
","
","""event"",""trial"",""time""
""fullscreenenter"",""1"",""2272""
","
","","","619","","","25","9388","273","&#9776;","elianto","#3366ff99"," "," ","1","+10","[1473]","1","0","1","","","","","","","",""
"pit-trial","23","327990","0.0-2.0-8.0-3.0","battery-v0.2","","""event"",""trial"",""time""
""fullscreenenter"",""1"",""2272""
","
","
","""event"",""trial"",""time""
""fullscreenenter"",""1"",""2272""
","
","","","547.2999999970198","","","25","9388","273","&#9776;","elianto","#3366ff99"," "," ","1","0","[1398.0999999940395]","1","0","1","","","","","","","",""
"pit-trial","24","331318","0.0-2.0-8.0-4.0","battery-v0.2","","""event"",""trial"",""time""
""fullscreenenter"",""1"",""2272""
","
","
","""event"",""trial"",""time""
""fullscreenenter"",""1"",""2272""
","
","","","469.09999999403954","","","25","9388","273","&#9776;","elianto","#3366ff99"," "," ","1","+10","[1320.800000011921]","1","0","1","","","","","","","",""
"pit-trial","25","334580","0.0-2.0-8.1-0.1","battery-v0.2","","""event"",""trial"",""time""
""fullscreenenter"",""1"",""2272""
","
","
","""event"",""trial"",""time""
""fullscreenenter"",""1"",""2272""
","
","","","401.20000000298023","","","25","9388","273","&#9776;","elianto","#3366ff99"," "," ","1","+10","[1251.2999999970198]","1","0","1","","","","","","","",""
"pit-trial","26","337927","0.0-2.0-8.1-1.1","battery-v0.2","","""event"",""trial"",""time""
""fullscreenenter"",""1"",""2272""
","
","
","""event"",""trial"",""time""
""fullscreenenter"",""1"",""2272""
","
","","","486.90000000596046","","","25","9388","273","&#9776;","elianto","#3366ff99"," "," ","1","+10","[1338.5]","1","0","1","","","","","","","",""
"pit-trial","27","341186","0.0-2.0-8.1-2.1","battery-v0.2","","""event"",""trial"",""time""
""fullscreenenter"",""1"",""2272""
","
","
","""event"",""trial"",""time""
""fullscreenenter"",""1"",""2272""
","
","","","399.59999999403954","","","25","9388","273","&#9776;","elianto","#3366ff99"," "," ","1","+10","[1250.7000000029802]","1","0","1","","","","","","","",""
"pit-trial","28","344348","0.0-2.0-8.1-3.1","battery-v0.2","","""event"",""trial"",""time""
""fullscreenenter"",""1"",""2272""
","
","
","""event"",""trial"",""time""
""fullscreenenter"",""1"",""2272""
","
","","","303.70000000298023","","","25","9388","273","&#9776;","elianto","#3366ff99"," "," ","1","0","[1154.1000000089407]","1","0","1","","","","","","","",""
"pit-trial","29","347621","0.0-2.0-8.1-4.1","battery-v0.2","","""event"",""trial"",""time""
""fullscreenenter"",""1"",""2272""
","
","
","""event"",""trial"",""time""
""fullscreenenter"",""1"",""2272""
","
","","","410.59999999403954","","","25","9388","273","&#9776;","elianto","#3366ff99"," "," ","1","+10","[1264.7999999970198]","1","0","1","","","","","","","",""
"pit-trial","30","350918","0.0-2.0-8.2-0.2","battery-v0.2","","""event"",""trial"",""time""
""fullscreenenter"",""1"",""2272""
","
","
","""event"",""trial"",""time""
""fullscreenenter"",""1"",""2272""
","
","","","438.5","","","25","9388","273","&#9776;","elianto","#3366ff99"," "," ","1","+10","[1289.7999999970198]","1","0","1","","","","","","","",""
"pit-trial","31","354150","0.0-2.0-8.2-1.2","battery-v0.2","","""event"",""trial"",""time""
""fullscreenenter"",""1"",""2272""
","
","
","""event"",""trial"",""time""
""fullscreenenter"",""1"",""2272""
","
","","","371.20000000298023","","","25","9388","273","&#9776;","elianto","#3366ff99"," "," ","1","+10","[1224]","1","0","1","","","","","","","",""
"pit-trial","32","357395","0.0-2.0-8.2-2.2","battery-v0.2","","""event"",""trial"",""time""
""fullscreenenter"",""1"",""2272""
","
","
","""event"",""trial"",""time""
""fullscreenenter"",""1"",""2272""
","
","","","382.90000000596046","","","25","9388","273","&#9776;","elianto","#3366ff99"," "," ","1","+10","[1236.300000011921]","1","0","1","","","","","","","",""
"pit-trial","33","360600","0.0-2.0-8.2-3.2","battery-v0.2","","""event"",""trial"",""time""
""fullscreenenter"",""1"",""2272""
","
","
","""event"",""trial"",""time""
""fullscreenenter"",""1"",""2272""
","
","","","343.8999999910593","","","25","9388","273","&#9776;","elianto","#3366ff99"," "," ","1","0","[1198.9000000059605]","1","0","1","","","","","","","",""
"pit-trial","34","363868","0.0-2.0-8.2-4.2","battery-v0.2","","""event"",""trial"",""time""
""fullscreenenter"",""1"",""2272""
","
","
","""event"",""trial"",""time""
""fullscreenenter"",""1"",""2272""
","
","","","407.6000000089407","","","25","9388","273","&#9776;","elianto","#3366ff99"," "," ","1","+10","[1261.2999999970198]","1","0","1","","","","","","","",""
"call-function","35","363872","0.0-2.0-9.0","battery-v0.2","","""event"",""trial"",""time""
""fullscreenenter"",""1"",""2272""
","
","
","""event"",""trial"",""time""
""fullscreenenter"",""1"",""2272""
","
","","","","","","","","","","","","","","","","","","","","","","","","","","",""
"pit-instructions","36","404165","0.0-2.0-10.0","battery-v0.2","","""event"",""trial"",""time""
""fullscreenenter"",""1"",""2272""
","
","
","""event"",""trial"",""time""
""fullscreenenter"",""1"",""2272""
","
","","[{""page_index"":0,""viewing_time"":6224},{""page_index"":1,""viewing_time"":7081.0999999940395},{""page_index"":2,""viewing_time"":9568.90000000596},{""page_index"":3,""viewing_time"":9801.70000000298},{""page_index"":4,""viewing_time"":7616.0999999940395}]","40292.5","","","","","","","","","","","","","","","","","","","","","","","",""
"pit-trial","37","407401","0.0-2.0-11.0-0.0","battery-v0.2","","""event"",""trial"",""time""
""fullscreenenter"",""1"",""2272""
","
","
","""event"",""trial"",""time""
""fullscreenenter"",""1"",""2272""
","
","","","379.79999999701977","","","25","9388","273","&#9761;","elianto","#3366ff99","-1"," ","0","0","[1231]","1","0","2","","","","","","","",""
"pit-trial","38","410524","0.0-2.0-11.0-1.0","battery-v0.2","","""event"",""trial"",""time""
""fullscreenenter"",""1"",""2272""
","
","
","""event"",""trial"",""time""
""fullscreenenter"",""1"",""2272""
","
","","","261.19999998807907","","","25","9388","273","&#9761;","elianto","#3366ff99","-1"," ","0","0","[1114.5999999940395]","1","0","2","","","","","","","",""
"pit-trial","39","415384","0.0-2.0-11.0-2.0","battery-v0.2","","""event"",""trial"",""time""
""fullscreenenter"",""1"",""2272""
","
","
","""event"",""trial"",""time""
""fullscreenenter"",""1"",""2272""
","
","","","-1","","","25","9388","273","&#9761;","elianto","#3366ff99","-1","-1","1","+10","[]","0","0","2","","","","","","","",""
"pit-trial","40","420245","0.0-2.0-11.0-3.0","battery-v0.2","","""event"",""trial"",""time""
""fullscreenenter"",""1"",""2272""
","
","
","""event"",""trial"",""time""
""fullscreenenter"",""1"",""2272""
","
","","","-1","","","25","9388","273","&#9761;","elianto","#3366ff99","-1","-1","1","0","[]","0","0","2","","","","","","","",""
"pit-trial","41","425108","0.0-2.0-11.0-4.0","battery-v0.2","","""event"",""trial"",""time""
""fullscreenenter"",""1"",""2272""
","
","
","""event"",""trial"",""time""
""fullscreenenter"",""1"",""2272""
","
","","","-1","","","25","9388","273","&#9761;","elianto","#3366ff99","-1","-1","1","+10","[]","0","0","2","","","","","","","",""
"pit-trial","42","429974","0.0-2.0-11.1-0.1","battery-v0.2","","""event"",""trial"",""time""
""fullscreenenter"",""1"",""2272""
","
","
","""event"",""trial"",""time""
""fullscreenenter"",""1"",""2272""
","
","","","-1","","","25","9388","273","&#9761;","elianto","#3366ff99","-1","-1","1","+10","[]","0","0","2","","","","","","","",""
"pit-trial","43","434831","0.0-2.0-11.1-1.1","battery-v0.2","","""event"",""trial"",""time""
""fullscreenenter"",""1"",""2272""
","
","
","""event"",""trial"",""time""
""fullscreenenter"",""1"",""2272""
","
","","","-1","","","25","9388","273","&#9761;","elianto","#3366ff99","-1","-1","1","+10","[]","0","0","2","","","","","","","",""
"pit-trial","44","439690","0.0-2.0-11.1-2.1","battery-v0.2","","""event"",""trial"",""time""
""fullscreenenter"",""1"",""2272""
","
","
","""event"",""trial"",""time""
""fullscreenenter"",""1"",""2272""
","
","","","-1","","","25","9388","273","&#9761;","elianto","#3366ff99","-1","-1","1","+10","[]","0","0","2","","","","","","","",""
"pit-trial","45","444549","0.0-2.0-11.1-3.1","battery-v0.2","","""event"",""trial"",""time""
""fullscreenenter"",""1"",""2272""
","
","
","""event"",""trial"",""time""
""fullscreenenter"",""1"",""2272""
","
","","","-1","","","25","9388","273","&#9761;","elianto","#3366ff99","-1","-1","1","0","[]","0","0","2","","","","","","","",""
"pit-trial","46","449408","0.0-2.0-11.1-4.1","battery-v0.2","","""event"",""trial"",""time""
""fullscreenenter"",""1"",""2272""
","
","
","""event"",""trial"",""time""
""fullscreenenter"",""1"",""2272""
","
","","","-1","","","25","9388","273","&#9761;","elianto","#3366ff99","-1","-1","1","+10","[]","0","0","2","","","","","","","",""
"pit-trial","47","454267","0.0-2.0-11.2-0.2","battery-v0.2","","""event"",""trial"",""time""
""fullscreenenter"",""1"",""2272""
","
","
","""event"",""trial"",""time""
""fullscreenenter"",""1"",""2272""
","
","","","-1","","","25","9388","273","&#9761;","elianto","#3366ff99","-1","-1","1","+10","[]","0","0","2","","","","","","","",""
"pit-trial","48","459127","0.0-2.0-11.2-1.2","battery-v0.2","","""event"",""trial"",""time""
""fullscreenenter"",""1"",""2272""
","
","
","""event"",""trial"",""time""
""fullscreenenter"",""1"",""2272""
","
","","","-1","","","25","9388","273","&#9761;","elianto","#3366ff99","-1","-1","1","+10","[]","0","0","2","","","","","","","",""
"pit-trial","49","463984","0.0-2.0-11.2-2.2","battery-v0.2","","""event"",""trial"",""time""
""fullscreenenter"",""1"",""2272""
","
","
","""event"",""trial"",""time""
""fullscreenenter"",""1"",""2272""
","
","","","-1","","","25","9388","273","&#9761;","elianto","#3366ff99","-1","-1","1","+10","[]","0","0","2","","","","","","","",""
"pit-trial","50","468843","0.0-2.0-11.2-3.2","battery-v0.2","","""event"",""trial"",""time""
""fullscreenenter"",""1"",""2272""
","
","
","""event"",""trial"",""time""
""fullscreenenter"",""1"",""2272""
","
","","","-1","","","25","9388","273","&#9761;","elianto","#3366ff99","-1","-1","1","0","[]","0","0","2","","","","","","","",""
"pit-trial","51","473702","0.0-2.0-11.2-4.2","battery-v0.2","","""event"",""trial"",""time""
""fullscreenenter"",""1"",""2272""
","
","
","""event"",""trial"",""time""
""fullscreenenter"",""1"",""2272""
","
","","","-1","","","25","9388","273","&#9761;","elianto","#3366ff99","-1","-1","1","+10","[]","0","0","2","","","","","","","",""
"pit-trial","52","478566","0.0-2.0-11.3-0.3","battery-v0.2","","""event"",""trial"",""time""
""fullscreenenter"",""1"",""2272""
","
","
","""event"",""trial"",""time""
""fullscreenenter"",""1"",""2272""
","
","","","-1","","","25","9388","273","&#9761;","elianto","#3366ff99","-1","-1","1","+10","[]","0","0","2","","","","","","","",""
"pit-trial","53","483424","0.0-2.0-11.3-1.3","battery-v0.2","","""event"",""trial"",""time""
""fullscreenenter"",""1"",""2272""
","
","
","""event"",""trial"",""time""
""fullscreenenter"",""1"",""2272""
","
","","","-1","","","25","9388","273","&#9761;","elianto","#3366ff99","-1","-1","1","+10","[]","0","0","2","","","","","","","",""
"pit-trial","54","488283","0.0-2.0-11.3-2.3","battery-v0.2","","""event"",""trial"",""time""
""fullscreenenter"",""1"",""2272""
","
","
","""event"",""trial"",""time""
""fullscreenenter"",""1"",""2272""
","
","","","-1","","","25","9388","273","&#9761;","elianto","#3366ff99","-1","-1","1","+10","[]","0","0","2","","","","","","","",""
"pit-trial","55","493142","0.0-2.0-11.3-3.3","battery-v0.2","","""event"",""trial"",""time""
""fullscreenenter"",""1"",""2272""
","
","
","""event"",""trial"",""time""
""fullscreenenter"",""1"",""2272""
","
","","","-1","","","25","9388","273","&#9761;","elianto","#3366ff99","-1","-1","1","0","[]","0","0","2","","","","","","","",""
"pit-trial","56","498000","0.0-2.0-11.3-4.3","battery-v0.2","","""event"",""trial"",""time""
""fullscreenenter"",""1"",""2272""
","
","
","""event"",""trial"",""time""
""fullscreenenter"",""1"",""2272""
","
","","","-1","","","25","9388","273","&#9761;","elianto","#3366ff99","-1","-1","1","+10","[]","0","0","2","","","","","","","",""
"call-function","57","498005","0.0-2.0-12.0","battery-v0.2","","""event"",""trial"",""time""
""fullscreenenter"",""1"",""2272""
","
","
","""event"",""trial"",""time""
""fullscreenenter"",""1"",""2272""
","
","","","","","","","","","","","","","","","","","","","","","","","","","","",""
"pit-instructions","58","534332","0.0-2.0-13.0","battery-v0.2","","""event"",""trial"",""time""
""fullscreenenter"",""1"",""2272""
","
","
","""event"",""trial"",""time""
""fullscreenenter"",""1"",""2272""
","
","","[{""page_index"":0,""viewing_time"":6857.600000008941},{""page_index"":1,""viewing_time"":7151},{""page_index"":2,""viewing_time"":4682.899999991059},{""page_index"":3,""viewing_time"":12251.29999999702},{""page_index"":4,""viewing_time"":5383.300000011921}]","36326.90000000596","","","","","","","","","","","","","","","","","","","","","","","",""
"pit-trial","59","537838","0.0-2.0-14.0-0.0","battery-v0.2","","""event"",""trial"",""time""
""fullscreenenter"",""1"",""2272""
","
","
","""event"",""trial"",""time""
""fullscreenenter"",""1"",""2272""
","
","","","647","","","25","9388","273","&#9826;","elianto","#f73b6a7A","-1"," ","0","-10","[1498.5999999940395]","1","0","3","","","","","","","",""
"pit-trial","60","541011","0.0-2.0-14.0-1.0","battery-v0.2","","""event"",""trial"",""time""
""fullscreenenter"",""1"",""2272""
","
","
","""event"",""trial"",""time""
""fullscreenenter"",""1"",""2272""
","
","","","314.59999999403954","","","25","9388","273","&#9826;","elianto","#f73b6a7A","-1"," ","0","-10","[1165]","1","0","3","","","","","","","",""
"pit-trial","61","545870","0.0-2.0-14.0-2.0","battery-v0.2","","""event"",""trial"",""time""
""fullscreenenter"",""1"",""2272""
","
","
","""event"",""trial"",""time""
""fullscreenenter"",""1"",""2272""
","
","","","-1","","","25","9388","273","&#9826;","elianto","#f73b6a7A","-1","-1","1","0","[]","0","0","3","","","","","","","",""
"pit-trial","62","550729","0.0-2.0-14.0-3.0","battery-v0.2","","""event"",""trial"",""time""
""fullscreenenter"",""1"",""2272""
","
","
","""event"",""trial"",""time""
""fullscreenenter"",""1"",""2272""
","
","","","-1","","","25","9388","273","&#9826;","elianto","#f73b6a7A","-1","-1","1","-10","[]","0","0","3","","","","","","","",""
"pit-trial","63","555591","0.0-2.0-14.0-4.0","battery-v0.2","","""event"",""trial"",""time""
""fullscreenenter"",""1"",""2272""
","
","
","""event"",""trial"",""time""
""fullscreenenter"",""1"",""2272""
","
","","","-1","","","25","9388","273","&#9826;","elianto","#f73b6a7A","-1","-1","1","0","[]","0","0","3","","","","","","","",""
"pit-trial","64","560456","0.0-2.0-14.1-0.1","battery-v0.2","","""event"",""trial"",""time""
""fullscreenenter"",""1"",""2272""
","
","
","""event"",""trial"",""time""
""fullscreenenter"",""1"",""2272""
","
","","","-1","","","25","9388","273","&#9826;","elianto","#f73b6a7A","-1","-1","1","0","[]","0","0","3","","","","","","","",""
"pit-trial","65","565318","0.0-2.0-14.1-1.1","battery-v0.2","","""event"",""trial"",""time""
""fullscreenenter"",""1"",""2272""
","
","
","""event"",""trial"",""time""
""fullscreenenter"",""1"",""2272""
","
","","","-1","","","25","9388","273","&#9826;","elianto","#f73b6a7A","-1","-1","1","0","[]","0","0","3","","","","","","","",""
"pit-trial","66","570177","0.0-2.0-14.1-2.1","battery-v0.2","","""event"",""trial"",""time""
""fullscreenenter"",""1"",""2272""
","
","
","""event"",""trial"",""time""
""fullscreenenter"",""1"",""2272""
","
","","","-1","","","25","9388","273","&#9826;","elianto","#f73b6a7A","-1","-1","1","0","[]","0","0","3","","","","","","","",""
"pit-trial","67","575035","0.0-2.0-14.1-3.1","battery-v0.2","","""event"",""trial"",""time""
""fullscreenenter"",""1"",""2272""
","
","
","""event"",""trial"",""time""
""fullscreenenter"",""1"",""2272""
","
","","","-1","","","25","9388","273","&#9826;","elianto","#f73b6a7A","-1","-1","1","-10","[]","0","0","3","","","","","","","",""
"pit-trial","68","579894","0.0-2.0-14.1-4.1","battery-v0.2","","""event"",""trial"",""time""
""fullscreenenter"",""1"",""2272""
","
","
","""event"",""trial"",""time""
""fullscreenenter"",""1"",""2272""
","
","","","-1","","","25","9388","273","&#9826;","elianto","#f73b6a7A","-1","-1","1","0","[]","0","0","3","","","","","","","",""
"pit-trial","69","584752","0.0-2.0-14.2-0.2","battery-v0.2","","""event"",""trial"",""time""
""fullscreenenter"",""1"",""2272""
","
","
","""event"",""trial"",""time""
""fullscreenenter"",""1"",""2272""
","
","","","-1","","","25","9388","273","&#9826;","elianto","#f73b6a7A","-1","-1","1","0","[]","0","0","3","","","","","","","",""
"pit-trial","70","589611","0.0-2.0-14.2-1.2","battery-v0.2","","""event"",""trial"",""time""
""fullscreenenter"",""1"",""2272""
","
","
","""event"",""trial"",""time""
""fullscreenenter"",""1"",""2272""
","
","","","-1","","","25","9388","273","&#9826;","elianto","#f73b6a7A","-1","-1","1","0","[]","0","0","3","","","","","","","",""
"pit-trial","71","594470","0.0-2.0-14.2-2.2","battery-v0.2","","""event"",""trial"",""time""
""fullscreenenter"",""1"",""2272""
","
","
","""event"",""trial"",""time""
""fullscreenenter"",""1"",""2272""
","
","","","-1","","","25","9388","273","&#9826;","elianto","#f73b6a7A","-1","-1","1","0","[]","0","0","3","","","","","","","",""
"pit-trial","72","599329","0.0-2.0-14.2-3.2","battery-v0.2","","""event"",""trial"",""time""
""fullscreenenter"",""1"",""2272""
","
","
","""event"",""trial"",""time""
""fullscreenenter"",""1"",""2272""
","
","","","-1","","","25","9388","273","&#9826;","elianto","#f73b6a7A","-1","-1","1","-10","[]","0","0","3","","","","","","","",""
"pit-trial","73","604187","0.0-2.0-14.2-4.2","battery-v0.2","","""event"",""trial"",""time""
""fullscreenenter"",""1"",""2272""
","
","
","""event"",""trial"",""time""
""fullscreenenter"",""1"",""2272""
","
","","","-1","","","25","9388","273","&#9826;","elianto","#f73b6a7A","-1","-1","1","0","[]","0","0","3","","","","","","","",""
"pit-trial","74","609046","0.0-2.0-14.3-0.3","battery-v0.2","","""event"",""trial"",""time""
""fullscreenenter"",""1"",""2272""
","
","
","""event"",""trial"",""time""
""fullscreenenter"",""1"",""2272""
","
","","","-1","","","25","9388","273","&#9826;","elianto","#f73b6a7A","-1","-1","1","0","[]","0","0","3","","","","","","","",""
"pit-trial","75","613905","0.0-2.0-14.3-1.3","battery-v0.2","","""event"",""trial"",""time""
""fullscreenenter"",""1"",""2272""
","
","
","""event"",""trial"",""time""
""fullscreenenter"",""1"",""2272""
","
","","","-1","","","25","9388","273","&#9826;","elianto","#f73b6a7A","-1","-1","1","0","[]","0","0","3","","","","","","","",""
"pit-trial","76","618763","0.0-2.0-14.3-2.3","battery-v0.2","","""event"",""trial"",""time""
""fullscreenenter"",""1"",""2272""
","
","
","""event"",""trial"",""time""
""fullscreenenter"",""1"",""2272""
","
","","","-1","","","25","9388","273","&#9826;","elianto","#f73b6a7A","-1","-1","1","0","[]","0","0","3","","","","","","","",""
"pit-trial","77","623621","0.0-2.0-14.3-3.3","battery-v0.2","","""event"",""trial"",""time""
""fullscreenenter"",""1"",""2272""
","
","
","""event"",""trial"",""time""
""fullscreenenter"",""1"",""2272""
","
","","","-1","","","25","9388","273","&#9826;","elianto","#f73b6a7A","-1","-1","1","-10","[]","0","0","3","","","","","","","",""
"pit-trial","78","628480","0.0-2.0-14.3-4.3","battery-v0.2","","""event"",""trial"",""time""
""fullscreenenter"",""1"",""2272""
","
","
","""event"",""trial"",""time""
""fullscreenenter"",""1"",""2272""
","
","","","-1","","","25","9388","273","&#9826;","elianto","#f73b6a7A","-1","-1","1","0","[]","0","0","3","","","","","","","",""
"call-function","79","628484","0.0-2.0-15.0","battery-v0.2","","""event"",""trial"",""time""
""fullscreenenter"",""1"",""2272""
","
","
","""event"",""trial"",""time""
""fullscreenenter"",""1"",""2272""
","
","","","","","","","","","","","","","","","","","","","","","","","","","","",""
"pit-instructions","80","654596","0.0-2.0-16.0","battery-v0.2","","""event"",""trial"",""time""
""fullscreenenter"",""1"",""2272""
","
","
","""event"",""trial"",""time""
""fullscreenenter"",""1"",""2272""
","
","","[{""page_index"":0,""viewing_time"":7029.5},{""page_index"":1,""viewing_time"":9283.20000000298},{""page_index"":2,""viewing_time"":4567.29999999702},{""page_index"":3,""viewing_time"":5231.0999999940395}]","26111.20000000298","","","","","","","","","","","","","","","","","","","","","","","",""
"pit-trial","81","657815","0.0-2.0-17.0-0.0","battery-v0.2","","""event"",""trial"",""time""
""fullscreenenter"",""1"",""2272""
","
","
","""event"",""trial"",""time""
""fullscreenenter"",""1"",""2272""
","
","","","361.80000001192093","","","25","9388","273","&#9789;","elianto","#f73b6a7A"," "," ","1","0","[1212.7999999970198]","1","0","4","","","","","","","",""
"pit-trial","82","660891","0.0-2.0-17.0-1.0","battery-v0.2","","""event"",""trial"",""time""
""fullscreenenter"",""1"",""2272""
","
","
","""event"",""trial"",""time""
""fullscreenenter"",""1"",""2272""
","
","","","212.3999999910593","","","25","9388","273","&#9789;","elianto","#f73b6a7A"," "," ","1","0","[1067.5999999940395]","1","0","4","","","","","","","",""
"pit-trial","83","663972","0.0-2.0-17.0-2.0","battery-v0.2","","""event"",""trial"",""time""
""fullscreenenter"",""1"",""2272""
","
","
","""event"",""trial"",""time""
""fullscreenenter"",""1"",""2272""
","
","","","222.1000000089407","","","25","9388","273","&#9789;","elianto","#f73b6a7A"," "," ","1","0","[1072.2999999970198]","1","0","4","","","","","","","",""
"pit-trial","84","667200","0.0-2.0-17.0-3.0","battery-v0.2","","""event"",""trial"",""time""
""fullscreenenter"",""1"",""2272""
","
","
","""event"",""trial"",""time""
""fullscreenenter"",""1"",""2272""
","
","","","364.59999999403954","","","25","9388","273","&#9789;","elianto","#f73b6a7A"," "," ","1","-10","[1218.2000000029802]","1","0","4","","","","","","","",""
"pit-trial","85","670428","0.0-2.0-17.0-4.0","battery-v0.2","","""event"",""trial"",""time""
""fullscreenenter"",""1"",""2272""
","
","
","""event"",""trial"",""time""
""fullscreenenter"",""1"",""2272""
","
","","","364.30000001192093","","","25","9388","273","&#9789;","elianto","#f73b6a7A"," "," ","1","0","[1219.0999999940395]","1","0","4","","","","","","","",""
"pit-trial","86","673623","0.0-2.0-17.1-0.1","battery-v0.2","","""event"",""trial"",""time""
""fullscreenenter"",""1"",""2272""
","
","
","""event"",""trial"",""time""
""fullscreenenter"",""1"",""2272""
","
","","","331.59999999403954","","","25","9388","273","&#9789;","elianto","#f73b6a7A"," "," ","1","0","[1183.9000000059605]","1","0","4","","","","","","","",""
"pit-trial","87","676772","0.0-2.0-17.1-1.1","battery-v0.2","","""event"",""trial"",""time""
""fullscreenenter"",""1"",""2272""
","
","
","""event"",""trial"",""time""
""fullscreenenter"",""1"",""2272""
","
","","","290.59999999403954","","","25","9388","273","&#9789;","elianto","#f73b6a7A"," "," ","1","0","[1141.2999999970198]","1","0","4","","","","","","","",""
"pit-trial","88","679854","0.0-2.0-17.1-2.1","battery-v0.2","","""event"",""trial"",""time""
""fullscreenenter"",""1"",""2272""
","
","
","""event"",""trial"",""time""
""fullscreenenter"",""1"",""2272""
","
","","","224.6000000089407","","","25","9388","273","&#9789;","elianto","#f73b6a7A"," "," ","1","0","[1074.7999999970198]","1","0","4","","","","","","","",""
"pit-trial","89","682965","0.0-2.0-17.1-3.1","battery-v0.2","","""event"",""trial"",""time""
""fullscreenenter"",""1"",""2272""
","
","
","""event"",""trial"",""time""
""fullscreenenter"",""1"",""2272""
","
","","","251.70000000298023","","","25","9388","273","&#9789;","elianto","#f73b6a7A"," "," ","1","-10","[1103]","1","0","4","","","","","","","",""
"pit-trial","90","686025","0.0-2.0-17.1-4.1","battery-v0.2","","""event"",""trial"",""time""
""fullscreenenter"",""1"",""2272""
","
","
","""event"",""trial"",""time""
""fullscreenenter"",""1"",""2272""
","
","","","197.79999999701977","","","25","9388","273","&#9789;","elianto","#f73b6a7A"," "," ","1","0","[1052.8999999910593]","1","0","4","","","","","","","",""
"pit-trial","91","689201","0.0-2.0-17.2-0.2","battery-v0.2","","""event"",""trial"",""time""
""fullscreenenter"",""1"",""2272""
","
","
","""event"",""trial"",""time""
""fullscreenenter"",""1"",""2272""
","
","","","315.3999999910593","","","25","9388","273","&#9789;","elianto","#f73b6a7A"," "," ","1","0","[1170.4000000059605]","1","0","4","","","","","","","",""
"pit-trial","92","692312","0.0-2.0-17.2-1.2","battery-v0.2","","""event"",""trial"",""time""
""fullscreenenter"",""1"",""2272""
","
","
","""event"",""trial"",""time""
""fullscreenenter"",""1"",""2272""
","
","","","247.8999999910593","","","25","9388","273","&#9789;","elianto","#f73b6a7A"," "," ","1","0","[1102.2999999970198]","1","0","4","","","","","","","",""
"pit-trial","93","695464","0.0-2.0-17.2-2.2","battery-v0.2","","""event"",""trial"",""time""
""fullscreenenter"",""1"",""2272""
","
","
","""event"",""trial"",""time""
""fullscreenenter"",""1"",""2272""
","
","","","293.09999999403954","","","25","9388","273","&#9789;","elianto","#f73b6a7A"," "," ","1","0","[1144.9000000059605]","1","0","4","","","","","","","",""
"pit-trial","94","698790","0.0-2.0-17.2-3.2","battery-v0.2","","""event"",""trial"",""time""
""fullscreenenter"",""1"",""2272""
","
","
","""event"",""trial"",""time""
""fullscreenenter"",""1"",""2272""
","
","","","467","","","25","9388","273","&#9789;","elianto","#f73b6a7A"," "," ","1","-10","[1322.0999999940395]","1","0","4","","","","","","","",""
"pit-trial","95","701896","0.0-2.0-17.2-4.2","battery-v0.2","","""event"",""trial"",""time""
""fullscreenenter"",""1"",""2272""
","
","
","""event"",""trial"",""time""
""fullscreenenter"",""1"",""2272""
","
","","","247","","","25","9388","273","&#9789;","elianto","#f73b6a7A"," "," ","1","0","[1097.0999999940395]","1","0","4","","","","","","","",""
"pit-trial","96","704929","0.0-2.0-17.3-0.3","battery-v0.2","","""event"",""trial"",""time""
""fullscreenenter"",""1"",""2272""
","
","
","""event"",""trial"",""time""
""fullscreenenter"",""1"",""2272""
","
","","","171.29999999701977","","","25","9388","273","&#9789;","elianto","#f73b6a7A"," "," ","1","0","[1025]","1","0","4","","","","","","","",""
"pit-trial","97","708135","0.0-2.0-17.3-1.3","battery-v0.2","","""event"",""trial"",""time""
""fullscreenenter"",""1"",""2272""
","
","
","""event"",""trial"",""time""
""fullscreenenter"",""1"",""2272""
","
","","","348.70000000298023","","","25","9388","273","&#9789;","elianto","#f73b6a7A"," "," ","1","0","[1198.5999999940395]","1","0","4","","","","","","","",""
"pit-trial","98","711287","0.0-2.0-17.3-2.3","battery-v0.2","","""event"",""trial"",""time""
""fullscreenenter"",""1"",""2272""
","
","
","""event"",""trial"",""time""
""fullscreenenter"",""1"",""2272""
","
","","","292.6000000089407","","","25","9388","273","&#9789;","elianto","#f73b6a7A"," "," ","1","0","[1144.2999999970198]","1","0","4","","","","","","","",""
"pit-trial","99","714311","0.0-2.0-17.3-3.3","battery-v0.2","","""event"",""trial"",""time""
""fullscreenenter"",""1"",""2272""
","
","
","""event"",""trial"",""time""
""fullscreenenter"",""1"",""2272""
","
","","","167.1000000089407","","","25","9388","273","&#9789;","elianto","#f73b6a7A"," "," ","1","-10","[1018.2000000029802]","1","0","4","","","","","","","",""
"pit-trial","100","717336","0.0-2.0-17.3-4.3","battery-v0.2","","""event"",""trial"",""time""
""fullscreenenter"",""1"",""2272""
","
","
","""event"",""trial"",""time""
""fullscreenenter"",""1"",""2272""
","
","","","169.90000000596046","","","25","9388","273","&#9789;","elianto","#f73b6a7A"," "," ","1","0","[1021.9000000059605]","1","0","4","","","","","","","",""
"call-function","101","717339","0.0-2.0-18.0","battery-v0.2","","""event"",""trial"",""time""
""fullscreenenter"",""1"",""2272""
","
","
","""event"",""trial"",""time""
""fullscreenenter"",""1"",""2272""
","
","","","","","","","","","","","","","","","","","","","","","","","","","","",""
"pit-instructions","102","787880","0.0-2.0-19.0","battery-v0.2","","""event"",""trial"",""time""
""fullscreenenter"",""1"",""2272""
","
","
","""event"",""trial"",""time""
""fullscreenenter"",""1"",""2272""
","
","","[{""page_index"":0,""viewing_time"":6375.5},{""page_index"":1,""viewing_time"":6216.29999999702},{""page_index"":2,""viewing_time"":15000.60000000894},{""page_index"":3,""viewing_time"":7533.79999999702},{""page_index"":4,""viewing_time"":8267.5},{""page_index"":5,""viewing_time"":8332.59999999404},{""page_index"":6,""viewing_time"":8383.5},{""page_index"":7,""viewing_time"":6218.4000000059605},{""page_index"":8,""viewing_time"":4214.5}]","70543","","","","","","","","","","","","","","","","","","","","","","","",""
"pit-comprehension","103","792416","0.0-2.0-20.0-0.0","battery-v0.2","","""event"",""trial"",""time""
""fullscreenenter"",""1"",""2272""
","
","
","""event"",""trial"",""time""
""fullscreenenter"",""1"",""2272""
","
","","","4532.399999991059","[""SPACE""]","0","25","9388","273","","","","","","","","","","","","","","","","","","",""
"pit-instructions","104","794849","0.0-2.0-20.0-1.0","battery-v0.2","","""event"",""trial"",""time""
""fullscreenenter"",""1"",""2272""
","
","
","""event"",""trial"",""time""
""fullscreenenter"",""1"",""2272""
","
","","[{""page_index"":0,""viewing_time"":2400.0999999940395}]","2400.9000000059605","","","","","","","","","","","","","","","","","","","","","","","",""
"pit-comprehension","105","801399","0.0-2.0-21.0-0.0","battery-v0.2","","""event"",""trial"",""time""
""fullscreenenter"",""1"",""2272""
","
","
","""event"",""trial"",""time""
""fullscreenenter"",""1"",""2272""
","
","","","6544.79999999702","[""10""]","0","25","9388","273","","","","","","","","","","","","","","","","","","",""
"pit-instructions","106","802682","0.0-2.0-21.0-1.0","battery-v0.2","","""event"",""trial"",""time""
""fullscreenenter"",""1"",""2272""
","
","
","""event"",""trial"",""time""
""fullscreenenter"",""1"",""2272""
","
","","[{""page_index"":0,""viewing_time"":1248.4000000059605}]","1248.9000000059605","","","","","","","","","","","","","","","","","","","","","","","",""
"pit-comprehension","107","809366","0.0-2.0-22.0-0.0","battery-v0.2","","""event"",""trial"",""time""
""fullscreenenter"",""1"",""2272""
","
","
","""event"",""trial"",""time""
""fullscreenenter"",""1"",""2272""
","
","","","6679.70000000298","[""0""]","0","25","9388","273","","","","","","","","","","","","","","","","","","",""
"pit-instructions","108","810731","0.0-2.0-22.0-1.0","battery-v0.2","","""event"",""trial"",""time""
""fullscreenenter"",""1"",""2272""
","
","
","""event"",""trial"",""time""
""fullscreenenter"",""1"",""2272""
","
","","[{""page_index"":0,""viewing_time"":1334.7999999970198}]","1335.2999999970198","","","","","","","","","","","","","","","","","","","","","","","",""
"pit-comprehension","109","819666","0.0-2.0-23.0-0.0","battery-v0.2","","""event"",""trial"",""time""
""fullscreenenter"",""1"",""2272""
","
","
","""event"",""trial"",""time""
""fullscreenenter"",""1"",""2272""
","
","","","8930","[""True""]","0","25","9388","273","","","","","","","","","","","","","","","","","","",""
"pit-instructions","110","821098","0.0-2.0-23.0-1.0","battery-v0.2","","""event"",""trial"",""time""
""fullscreenenter"",""1"",""2272""
","
","
","""event"",""trial"",""time""
""fullscreenenter"",""1"",""2272""
","
","","[{""page_index"":0,""viewing_time"":1399.199999988079}]","1399.7999999970198","","","","","","","","","","","","","","","","","","","","","","","",""
"pit-comprehension","111","828765","0.0-2.0-24.0-0.0","battery-v0.2","","""event"",""trial"",""time""
""fullscreenenter"",""1"",""2272""
","
","
","""event"",""trial"",""time""
""fullscreenenter"",""1"",""2272""
","
","","","7662.79999999702","[""True""]","0","25","9388","273","","","","","","","","","","","","","","","","","","",""
"pit-instructions","112","830149","0.0-2.0-24.0-1.0","battery-v0.2","","""event"",""trial"",""time""
""fullscreenenter"",""1"",""2272""
","
","
","""event"",""trial"",""time""
""fullscreenenter"",""1"",""2272""
","
","","[{""page_index"":0,""viewing_time"":1357.7000000029802}]","1358.4000000059605","","","","","","","","","","","","","","","","","","","","","","","",""
"pit-comprehension","113","836565","0.0-2.0-25.0-0.0","battery-v0.2","","""event"",""trial"",""time""
""fullscreenenter"",""1"",""2272""
","
","
","""event"",""trial"",""time""
""fullscreenenter"",""1"",""2272""
","
","","","6411.70000000298","[""True""]","0","25","9388","273","","","","","","","","","","","","","","","","","","",""
"pit-instructions","114","837715","0.0-2.0-25.0-1.0","battery-v0.2","","""event"",""trial"",""time""
""fullscreenenter"",""1"",""2272""
","
","
","""event"",""trial"",""time""
""fullscreenenter"",""1"",""2272""
","
","","[{""page_index"":0,""viewing_time"":1116.2999999970198}]","1116.7999999970198","","","","","","","","","","","","","","","","","","","","","","","",""
"pit-comprehension","115","842449","0.0-2.0-26.0-0.0","battery-v0.2","","""event"",""trial"",""time""
""fullscreenenter"",""1"",""2272""
","
","
","""event"",""trial"",""time""
""fullscreenenter"",""1"",""2272""
","
","","","4729.5","[""False""]","0","25","9388","273","","","","","","","","","","","","","","","","","","",""
"pit-instructions","116","843864","0.0-2.0-26.0-1.0","battery-v0.2","","""event"",""trial"",""time""
""fullscreenenter"",""1"",""2272""
","
","
","""event"",""trial"",""time""
""fullscreenenter"",""1"",""2272""
","
","","[{""page_index"":0,""viewing_time"":1384.7000000029802}]","1385","","","","","","","","","","","","","","","","","","","","","","","",""
"pit-instructions","117","861883","0.0-3.0","battery-v0.2","","""event"",""trial"",""time""
""fullscreenenter"",""1"",""2272""
","
","
","""event"",""trial"",""time""
""fullscreenenter"",""1"",""2272""
","
","","[{""page_index"":0,""viewing_time"":3999.5},{""page_index"":1,""viewing_time"":6015.79999999702},{""page_index"":2,""viewing_time"":8001.100000008941}]","18017.10000000894","","","","","","","","","","","","","","","","","","","","","","","",""
"pit-trial","118","865595","0.0-4.0","battery-v0.2","","""event"",""trial"",""time""
""fullscreenenter"",""1"",""2272""
","
","
","""event"",""trial"",""time""
""fullscreenenter"",""1"",""2272""
","
","","","849.5","","","25","9388","273","&#9728;","elianto","#f73b6a7A","-1"," ","0","-10","[1701.1000000089407]","1","1","","","9388","1","0","4","lose","no-go","0"
"pit-trial","119","869192","0.0-5.0","battery-v0.2","","""event"",""trial"",""time""
""fullscreenenter"",""1"",""2272""
","
","
","""event"",""trial"",""time""
""fullscreenenter"",""1"",""2272""
","
","","","738.5999999940395","","","25","9388","273","&#9733;","elianto","#3366ff99","-1"," ","0","0","[1589.5]","1","1","","","9388","2","2","2","win","no-go","0"
"pit-trial","120","872609","0.0-6.0","battery-v0.2","","""event"",""trial"",""time""
""fullscreenenter"",""1"",""2272""
","
","
","""event"",""trial"",""time""
""fullscreenenter"",""1"",""2272""
","
","","","556.7000000029802","","","25","9388","273","&#9730;","elianto","#3366ff99"," "," ","1","+10","[1407.9000000059605]","1","1","","","9388","3","1","1","win","go","0"
"pit-trial","121","876222","0.0-7.0","battery-v0.2","","""event"",""trial"",""time""
""fullscreenenter"",""1"",""2272""
","
","
","""event"",""trial"",""time""
""fullscreenenter"",""1"",""2272""
","
","","","750.2000000029802","","","25","9388","273","&#9752;","elianto","#f73b6a7A"," "," ","1","0","[1604.4000000059605]","1","1","","","9388","4","3","3","lose","go","0"
"pit-trial","122","879768","0.0-8.0","battery-v0.2","","""event"",""trial"",""time""
""fullscreenenter"",""1"",""2272""
","
","
","""event"",""trial"",""time""
""fullscreenenter"",""1"",""2272""
","
","","","688.5999999940395","","","25","9388","273","&#9728;","elianto","#f73b6a7A","-1"," ","0","-10","[1542]","1","1","","","9388","5","0","4","lose","no-go","0"
"pit-trial","123","883278","0.0-9.0","battery-v0.2","","""event"",""trial"",""time""
""fullscreenenter"",""1"",""2272""
","
","
","""event"",""trial"",""time""
""fullscreenenter"",""1"",""2272""
","
","","","651.4000000059605","","","25","9388","273","&#9733;","elianto","#3366ff99","-1"," ","0","0","[1502.2000000029802]","1","1","","","9388","6","2","2","win","no-go","0"
"pit-trial","124","886999","0.0-10.0","battery-v0.2","","""event"",""trial"",""time""
""fullscreenenter"",""1"",""2272""
","
","
","""event"",""trial"",""time""
""fullscreenenter"",""1"",""2272""
","
","","","862.9000000059605","","","25","9388","273","&#9752;","elianto","#f73b6a7A"," "," ","1","0","[1713]","1","1","","","9388","7","3","3","lose","go","0"
"pit-trial","125","890384","0.0-11.0","battery-v0.2","","""event"",""trial"",""time""
""fullscreenenter"",""1"",""2272""
","
","
","""event"",""trial"",""time""
""fullscreenenter"",""1"",""2272""
","
","","","523.7000000029802","","","25","9388","273","&#9730;","elianto","#3366ff99"," "," ","1","+10","[1375.9000000059605]","1","1","","","9388","8","1","1","win","go","0"
"pit-trial","126","895038","0.0-12.0","battery-v0.2","","""event"",""trial"",""time""
""fullscreenenter"",""1"",""2272""
","
","
","""event"",""trial"",""time""
""fullscreenenter"",""1"",""2272""
","
","","","1795.2999999970198","","","25","9388","273","&#9730;","elianto","#3366ff99"," "," ","1","+10","[2649.8999999910593]","1","1","","","9388","9","1","1","win","go","0"
"pit-trial","127","899897","0.0-13.0","battery-v0.2","","""event"",""trial"",""time""
""fullscreenenter"",""1"",""2272""
","
","
","""event"",""trial"",""time""
""fullscreenenter"",""1"",""2272""
","
","","","-1","","","25","9388","273","&#9728;","elianto","#f73b6a7A","-1","-1","1","0","[]","0","1","","","9388","10","0","4","lose","no-go","0"
"pit-trial","128","904024","0.0-14.0","battery-v0.2","","""event"",""trial"",""time""
""fullscreenenter"",""1"",""2272""
","
","
","""event"",""trial"",""time""
""fullscreenenter"",""1"",""2272""
","
","","","1269.2000000029802","","","25","9388","273","&#9752;","elianto","#f73b6a7A"," "," ","1","0","[2119.199999988079]","1","1","","","9388","11","3","3","lose","go","0"
"pit-trial","129","908336","0.0-15.0","battery-v0.2","","""event"",""trial"",""time""
""fullscreenenter"",""1"",""2272""
","
","
","""event"",""trial"",""time""
""fullscreenenter"",""1"",""2272""
","
","","","1454.3999999910593","","","25","9388","273","&#9733;","elianto","#3366ff99","-1"," ","0","0","[2305]","1","1","","","9388","12","2","2","win","no-go","0"
"pit-trial","130","913195","0.0-16.0","battery-v0.2","","""event"",""trial"",""time""
""fullscreenenter"",""1"",""2272""
","
","
","""event"",""trial"",""time""
""fullscreenenter"",""1"",""2272""
","
","","","-1","","","25","9388","273","&#9733;","elianto","#3366ff99","-1","-1","1","+10","[]","0","1","","","9388","13","2","2","win","no-go","0"
"pit-trial","131","917131","0.0-17.0","battery-v0.2","","""event"",""trial"",""time""
""fullscreenenter"",""1"",""2272""
","
","
","""event"",""trial"",""time""
""fullscreenenter"",""1"",""2272""
","
","","","1077.5","","","25","9388","273","&#9730;","elianto","#3366ff99"," "," ","1","+10","[1929]","1","1","","","9388","14","1","1","win","go","0"
"pit-trial","132","921990","0.0-18.0","battery-v0.2","","""event"",""trial"",""time""
""fullscreenenter"",""1"",""2272""
","
","
","""event"",""trial"",""time""
""fullscreenenter"",""1"",""2272""
","
","","","-1","","","25","9388","273","&#9728;","elianto","#f73b6a7A","-1","-1","1","-10","[]","0","1","","","9388","15","0","4","lose","no-go","1"
"pit-trial","133","926848","0.0-19.0","battery-v0.2","","""event"",""trial"",""time""
""fullscreenenter"",""1"",""2272""
","
","
","""event"",""trial"",""time""
""fullscreenenter"",""1"",""2272""
","
","","","-1","","","25","9388","273","&#9752;","elianto","#f73b6a7A"," ","-1","0","-10","[]","0","1","","","9388","16","3","3","lose","go","0"
"pit-trial","134","930511","0.0-20.0","battery-v0.2","","""event"",""trial"",""time""
""fullscreenenter"",""1"",""2272""
","
","
","""event"",""trial"",""time""
""fullscreenenter"",""1"",""2272""
","
","","","803.7000000029802","","","25","9388","273","&#9752;","elianto","#f73b6a7A"," "," ","1","-10","[1655.2999999970198]","1","1","","","9388","17","3","3","lose","go","1"
"pit-trial","135","934081","0.0-21.0","battery-v0.2","","""event"",""trial"",""time""
""fullscreenenter"",""1"",""2272""
","
","
","""event"",""trial"",""time""
""fullscreenenter"",""1"",""2272""
","
","","","714.4000000059605","","","25","9388","273","&#9730;","elianto","#3366ff99"," "," ","1","0","[1564.4000000059605]","1","1","","","9388","18","1","1","win","go","1"
"pit-trial","136","937523","0.0-22.0","battery-v0.2","","""event"",""trial"",""time""
""fullscreenenter"",""1"",""2272""
","
","
","""event"",""trial"",""time""
""fullscreenenter"",""1"",""2272""
","
","","","581.5","","","25","9388","273","&#9733;","elianto","#3366ff99","-1"," ","0","0","[1432.5999999940395]","1","1","","","9388","19","2","2","win","no-go","0"
"pit-trial","137","942004","0.0-23.0","battery-v0.2","","""event"",""trial"",""time""
""fullscreenenter"",""1"",""2272""
","
","
","""event"",""trial"",""time""
""fullscreenenter"",""1"",""2272""
","
","","","1625.0999999940395","","","25","9388","273","&#9728;","elianto","#f73b6a7A","-1"," ","0","0","[2475.2000000029802]","1","1","","","9388","20","0","4","lose","no-go","1"
"pit-instructions","138","986216","0.0-24.0","battery-v0.2","","""event"",""trial"",""time""
""fullscreenenter"",""1"",""2272""
","
","
","""event"",""trial"",""time""
""fullscreenenter"",""1"",""2272""
","
","","[{""page_index"":0,""viewing_time"":36892.60000000894},{""page_index"":1,""viewing_time"":7317.29999999702}]","44210.40000000596","","","","","","","","","","","","","","","","","","","","","","","",""
"pit-trial","139","990553","0.0-25.0","battery-v0.2","","""event"",""trial"",""time""
""fullscreenenter"",""1"",""2272""
","
","
","""event"",""trial"",""time""
""fullscreenenter"",""1"",""2272""
","
","","","1474.199999988079","","","25","9388","273","j","elianto","#f73b6a7A","-1"," ","0","0","[2327]","1","2","","","9388","21","0","4","lose","no-go","1"
"pit-trial","140","994067","0.0-26.0","battery-v0.2","","""event"",""trial"",""time""
""fullscreenenter"",""1"",""2272""
","
","
","""event"",""trial"",""time""
""fullscreenenter"",""1"",""2272""
","
","","","652.6999999880791","","","25","9388","273","e","elianto","#f73b6a7A","-1"," ","0","-10","[1505.2999999970198]","1","2","","","9388","22","2","4","lose","no-go","0"
"pit-trial","141","998810","0.0-27.0","battery-v0.2","","""event"",""trial"",""time""
""fullscreenenter"",""1"",""2272""
","
","
","""event"",""trial"",""time""
""fullscreenenter"",""1"",""2272""
","
","","","1883.7000000029802","","","25","9388","273","d","elianto","#3366ff99"," "," ","1","+10","[2738.3999999910593]","1","2","","","9388","23","1","1","win","go","0"
"pit-trial","142","1002942","0.0-28.0","battery-v0.2","","""event"",""trial"",""time""
""fullscreenenter"",""1"",""2272""
","
","
","""event"",""trial"",""time""
""fullscreenenter"",""1"",""2272""
","
","","","1272","","","25","9388","273","w","elianto","#f73b6a7A"," "," ","1","0","[2125.7999999970198]","1","2","","","9388","24","3","3","lose","go","0"
"pit-trial","143","1006734","0.0-29.0","battery-v0.2","","""event"",""trial"",""time""
""fullscreenenter"",""1"",""2272""
","
","
","""event"",""trial"",""time""
""fullscreenenter"",""1"",""2272""
","
","","","937.5","","","25","9388","273","w","elianto","#f73b6a7A"," "," ","1","-10","[1787.6000000089407]","1","2","","","9388","25","3","3","lose","go","1"
"pit-trial","144","1011260","0.0-30.0","battery-v0.2","","""event"",""trial"",""time""
""fullscreenenter"",""1"",""2272""
","
","
","""event"",""trial"",""time""
""fullscreenenter"",""1"",""2272""
","
","","","1662.5999999940395","","","25","9388","273","d","elianto","#3366ff99"," "," ","1","+10","[2517.2999999970198]","1","2","","","9388","26","1","1","win","go","0"
"pit-trial","145","1014757","0.0-31.0","battery-v0.2","","""event"",""trial"",""time""
""fullscreenenter"",""1"",""2272""
","
","
","""event"",""trial"",""time""
""fullscreenenter"",""1"",""2272""
","
","","","638.5","","","25","9388","273","e","elianto","#f73b6a7A","-1"," ","0","0","[1492.0999999940395]","1","2","","","9388","27","2","4","lose","no-go","1"
"pit-trial","146","1018406","0.0-32.0","battery-v0.2","","""event"",""trial"",""time""
""fullscreenenter"",""1"",""2272""
","
","
","""event"",""trial"",""time""
""fullscreenenter"",""1"",""2272""
","
","","","793.7999999970198","","","25","9388","273","j","elianto","#f73b6a7A","-1"," ","0","-10","[1644]","1","2","","","9388","28","0","4","lose","no-go","0"
"pit-trial","147","1022417","0.0-33.0","battery-v0.2","","""event"",""trial"",""time""
""fullscreenenter"",""1"",""2272""
","
","
","""event"",""trial"",""time""
""fullscreenenter"",""1"",""2272""
","
","","","1156.7999999970198","","","25","9388","273","d","elianto","#3366ff99"," "," ","1","+10","[2007.0999999940395]","1","2","","","9388","29","1","1","win","go","0"
"pit-trial","148","1025929","0.0-34.0","battery-v0.2","","""event"",""trial"",""time""
""fullscreenenter"",""1"",""2272""
","
","
","""event"",""trial"",""time""
""fullscreenenter"",""1"",""2272""
","
","","","648.1000000089407","","","25","9388","273","e","elianto","#f73b6a7A","-1"," ","0","-10","[1503.2999999970198]","1","2","","","9388","30","2","4","lose","no-go","0"
"pit-trial","149","1030201","0.0-35.0","battery-v0.2","","""event"",""trial"",""time""
""fullscreenenter"",""1"",""2272""
","
","
","""event"",""trial"",""time""
""fullscreenenter"",""1"",""2272""
","
","","","1414","","","25","9388","273","j","elianto","#f73b6a7A","-1"," ","0","-10","[2265.5]","1","2","","","9388","31","0","4","lose","no-go","0"
"pit-trial","150","1033818","0.0-36.0","battery-v0.2","","""event"",""trial"",""time""
""fullscreenenter"",""1"",""2272""
","
","
","""event"",""trial"",""time""
""fullscreenenter"",""1"",""2272""
","
","","","753.5","","","25","9388","273","w","elianto","#f73b6a7A"," "," ","1","0","[1608.3999999910593]","1","2","","","9388","32","3","3","lose","go","0"
"pit-trial","151","1038676","0.0-37.0","battery-v0.2","","""event"",""trial"",""time""
""fullscreenenter"",""1"",""2272""
","
","
","""event"",""trial"",""time""
""fullscreenenter"",""1"",""2272""
","
","","","-1","","","25","9388","273","j","elianto","#f73b6a7A","-1","-1","1","0","[]","0","2","","","9388","33","0","4","lose","no-go","0"
"pit-trial","152","1043534","0.0-38.0","battery-v0.2","","""event"",""trial"",""time""
""fullscreenenter"",""1"",""2272""
","
","
","""event"",""trial"",""time""
""fullscreenenter"",""1"",""2272""
","
","","","-1","","","25","9388","273","e","elianto","#f73b6a7A","-1","-1","1","-10","[]","0","2","","","9388","34","2","4","lose","no-go","1"
"pit-trial","153","1047226","0.0-39.0","battery-v0.2","","""event"",""trial"",""time""
""fullscreenenter"",""1"",""2272""
","
","
","""event"",""trial"",""time""
""fullscreenenter"",""1"",""2272""
","
","","","834.5","","","25","9388","273","w","elianto","#f73b6a7A"," "," ","1","-10","[1686.699999988079]","1","2","","","9388","35","3","3","lose","go","1"
"pit-trial","154","1051987","0.0-40.0","battery-v0.2","","""event"",""trial"",""time""
""fullscreenenter"",""1"",""2272""
","
","
","""event"",""trial"",""time""
""fullscreenenter"",""1"",""2272""
","
","","","1907.2999999970198","","","25","9388","273","d","elianto","#3366ff99"," "," ","1","+10","[2757.2999999970198]","1","2","","","9388","36","1","1","win","go","0"
"pit-trial","155","1056845","0.0-41.0","battery-v0.2","","""event"",""trial"",""time""
""fullscreenenter"",""1"",""2272""
","
","
","""event"",""trial"",""time""
""fullscreenenter"",""1"",""2272""
","
","","","-1","","","25","9388","273","j","elianto","#f73b6a7A","-1","-1","1","0","[]","0","2","","","9388","37","0","4","lose","no-go","0"
"pit-trial","156","1061268","0.0-42.0","battery-v0.2","","""event"",""trial"",""time""
""fullscreenenter"",""1"",""2272""
","
","
","""event"",""trial"",""time""
""fullscreenenter"",""1"",""2272""
","
","","","1563.800000011921","","","25","9388","273","w","elianto","#f73b6a7A"," "," ","1","0","[2414.6000000089407]","1","2","","","9388","38","3","3","lose","go","0"
"pit-trial","157","1065505","0.0-43.0","battery-v0.2","","""event"",""trial"",""time""
""fullscreenenter"",""1"",""2272""
","
","
","""event"",""trial"",""time""
""fullscreenenter"",""1"",""2272""
","
","","","1373.7000000029802","","","25","9388","273","d","elianto","#3366ff99"," "," ","1","+10","[2228.7999999970198]","1","2","","","9388","39","1","1","win","go","0"
"pit-trial","158","1070364","0.0-44.0","battery-v0.2","","""event"",""trial"",""time""
""fullscreenenter"",""1"",""2272""
","
","
","""event"",""trial"",""time""
""fullscreenenter"",""1"",""2272""
","
","","","-1","","","25","9388","273","e","elianto","#f73b6a7A","-1","-1","1","0","[]","0","2","","","9388","40","2","4","lose","no-go","0"
"pit-trial","159","1074643","0.0-45.0","battery-v0.2","","""event"",""trial"",""time""
""fullscreenenter"",""1"",""2272""
","
","
","""event"",""trial"",""time""
""fullscreenenter"",""1"",""2272""
","
","","","1417.5999999940395","","","25","9388","273","w","elianto","#f73b6a7A"," "," ","1","0","[2272.699999988079]","1","2","","","9388","41","3","3","lose","go","0"
"pit-trial","160","1079502","0.0-46.0","battery-v0.2","","""event"",""trial"",""time""
""fullscreenenter"",""1"",""2272""
","
","
","""event"",""trial"",""time""
""fullscreenenter"",""1"",""2272""
","
","","","-1","","","25","9388","273","j","elianto","#f73b6a7A","-1","-1","1","-10","[3388.2000000029802]","1","2","","","9388","42","0","4","lose","no-go","1"
"pit-trial","161","1083757","0.0-47.0","battery-v0.2","","""event"",""trial"",""time""
""fullscreenenter"",""1"",""2272""
","
","
","""event"",""trial"",""time""
""fullscreenenter"",""1"",""2272""
","
","","","1392.5999999940395","","","25","9388","273","d","elianto","#3366ff99"," "," ","1","+10","[2247.5]","1","2","","","9388","43","1","1","win","go","0"
"pit-trial","162","1088615","0.0-48.0","battery-v0.2","","""event"",""trial"",""time""
""fullscreenenter"",""1"",""2272""
","
","
","""event"",""trial"",""time""
""fullscreenenter"",""1"",""2272""
","
","","","-1","","","25","9388","273","e","elianto","#f73b6a7A","-1","-1","1","0","[]","0","2","","","9388","44","2","4","lose","no-go","0"
"pit-trial","163","1093474","0.0-49.0","battery-v0.2","","""event"",""trial"",""time""
""fullscreenenter"",""1"",""2272""
","
","
","""event"",""trial"",""time""
""fullscreenenter"",""1"",""2272""
","
","","","-1","","","25","9388","273","e","elianto","#f73b6a7A","-1","-1","1","0","[]","0","2","","","9388","45","2","4","lose","no-go","0"
"pit-trial","164","1098025","0.0-50.0","battery-v0.2","","""event"",""trial"",""time""
""fullscreenenter"",""1"",""2272""
","
","
","""event"",""trial"",""time""
""fullscreenenter"",""1"",""2272""
","
","","","1694.7999999970198","","","25","9388","273","w","elianto","#f73b6a7A"," "," ","1","-10","[2545.6000000089407]","1","2","","","9388","46","3","3","lose","go","1"
"pit-trial","165","1102883","0.0-51.0","battery-v0.2","","""event"",""trial"",""time""
""fullscreenenter"",""1"",""2272""
","
","
","""event"",""trial"",""time""
""fullscreenenter"",""1"",""2272""
","
","","","-1","","","25","9388","273","j","elianto","#f73b6a7A","-1","-1","1","0","[3052]","1","2","","","9388","47","0","4","lose","no-go","0"
"pit-trial","166","1107742","0.0-52.0","battery-v0.2","","""event"",""trial"",""time""
""fullscreenenter"",""1"",""2272""
","
","
","""event"",""trial"",""time""
""fullscreenenter"",""1"",""2272""
","
","","","-1","","","25","9388","273","s","elianto","#3366ff99","-1","-1","1","+10","[2855]","1","2","","","9388","48","4","2","win","no-go","0"
"pit-trial","167","1112235","0.0-53.0","battery-v0.2","","""event"",""trial"",""time""
""fullscreenenter"",""1"",""2272""
","
","
","""event"",""trial"",""time""
""fullscreenenter"",""1"",""2272""
","
","","","1631.7999999970198","","","25","9388","273","j","elianto","#f73b6a7A","-1"," ","0","0","[2486.8999999910593]","1","2","","","9388","49","0","4","lose","no-go","1"
"pit-trial","168","1115967","0.0-54.0","battery-v0.2","","""event"",""trial"",""time""
""fullscreenenter"",""1"",""2272""
","
","
","""event"",""trial"",""time""
""fullscreenenter"",""1"",""2272""
","
","","","873.2999999970198","","","25","9388","273","s","elianto","#3366ff99","-1"," ","0","0","[1728]","1","2","","","9388","50","4","2","win","no-go","0"
"pit-trial","169","1120827","0.0-55.0","battery-v0.2","","""event"",""trial"",""time""
""fullscreenenter"",""1"",""2272""
","
","
","""event"",""trial"",""time""
""fullscreenenter"",""1"",""2272""
","
","","","-1","","","25","9388","273","w","elianto","#f73b6a7A"," ","-1","0","-10","[]","0","2","","","9388","51","3","3","lose","go","0"
"pit-trial","170","1125075","0.0-56.0","battery-v0.2","","""event"",""trial"",""time""
""fullscreenenter"",""1"",""2272""
","
","
","""event"",""trial"",""time""
""fullscreenenter"",""1"",""2272""
","
","","","1388.6000000089407","","","25","9388","273","d","elianto","#3366ff99"," "," ","1","0","[2241.5999999940395]","1","2","","","9388","52","1","1","win","go","1"
"pit-trial","171","1129695","0.0-57.0","battery-v0.2","","""event"",""trial"",""time""
""fullscreenenter"",""1"",""2272""
","
","
","""event"",""trial"",""time""
""fullscreenenter"",""1"",""2272""
","
","","","1763.0999999940395","","","25","9388","273","d","elianto","#3366ff99"," "," ","1","+10","[2614.699999988079]","1","2","","","9388","53","1","1","win","go","0"
"pit-trial","172","1134554","0.0-58.0","battery-v0.2","","""event"",""trial"",""time""
""fullscreenenter"",""1"",""2272""
","
","
","""event"",""trial"",""time""
""fullscreenenter"",""1"",""2272""
","
","","","-1","","","25","9388","273","j","elianto","#f73b6a7A","-1","-1","1","0","[2902.5]","1","2","","","9388","54","0","4","lose","no-go","0"
"pit-trial","173","1139262","0.0-59.0","battery-v0.2","","""event"",""trial"",""time""
""fullscreenenter"",""1"",""2272""
","
","
","""event"",""trial"",""time""
""fullscreenenter"",""1"",""2272""
","
","","","1849.6000000089407","","","25","9388","273","s","elianto","#3366ff99","-1"," ","0","0","[2701.6000000089407]","1","2","","","9388","55","4","2","win","no-go","0"
"pit-trial","174","1143749","0.0-60.0","battery-v0.2","","""event"",""trial"",""time""
""fullscreenenter"",""1"",""2272""
","
","
","""event"",""trial"",""time""
""fullscreenenter"",""1"",""2272""
","
","","","1629.0999999940395","","","25","9388","273","e","elianto","#f73b6a7A","-1"," ","0","-10","[2479.7999999970198]","1","2","","","9388","56","2","4","lose","no-go","0"
"pit-trial","175","1148305","0.0-61.0","battery-v0.2","","""event"",""trial"",""time""
""fullscreenenter"",""1"",""2272""
","
","
","""event"",""trial"",""time""
""fullscreenenter"",""1"",""2272""
","
","","","1691.8999999910593","","","25","9388","273","s","elianto","#3366ff99","-1"," ","0","0","[2546.7999999970198]","1","2","","","9388","57","4","2","win","no-go","0"
"pit-trial","176","1153165","0.0-62.0","battery-v0.2","","""event"",""trial"",""time""
""fullscreenenter"",""1"",""2272""
","
","
","""event"",""trial"",""time""
""fullscreenenter"",""1"",""2272""
","
","","","-1","","","25","9388","273","w","elianto","#f73b6a7A"," ","-1","0","-10","[]","0","2","","","9388","58","3","3","lose","go","0"
"pit-trial","177","1157861","0.0-63.0","battery-v0.2","","""event"",""trial"",""time""
""fullscreenenter"",""1"",""2272""
","
","
","""event"",""trial"",""time""
""fullscreenenter"",""1"",""2272""
","
","","","1833","","","25","9388","273","d","elianto","#3366ff99"," "," ","1","+10","[2688.0999999940395]","1","2","","","9388","59","1","1","win","go","0"
"pit-trial","178","1162719","0.0-64.0","battery-v0.2","","""event"",""trial"",""time""
""fullscreenenter"",""1"",""2272""
","
","
","""event"",""trial"",""time""
""fullscreenenter"",""1"",""2272""
","
","","","-1","","","25","9388","273","j","elianto","#f73b6a7A","-1","-1","1","0","[2996.7000000029802]","1","2","","","9388","60","0","4","lose","no-go","0"
"pit-trial","179","1167246","0.0-65.0","battery-v0.2","","""event"",""trial"",""time""
""fullscreenenter"",""1"",""2272""
","
","
","""event"",""trial"",""time""
""fullscreenenter"",""1"",""2272""
","
","","","1664.8999999910593","","","25","9388","273","d","elianto","#3366ff99"," "," ","1","+10","[2518.8999999910593]","1","2","","","9388","61","1","1","win","go","0"
"pit-trial","180","1172106","0.0-66.0","battery-v0.2","","""event"",""trial"",""time""
""fullscreenenter"",""1"",""2272""
","
","
","""event"",""trial"",""time""
""fullscreenenter"",""1"",""2272""
","
","","","-1","","","25","9388","273","w","elianto","#f73b6a7A"," ","-1","0","-10","[]","0","2","","","9388","62","3","3","lose","go","0"
"pit-trial","181","1176192","0.0-67.0","battery-v0.2","","""event"",""trial"",""time""
""fullscreenenter"",""1"",""2272""
","
","
","""event"",""trial"",""time""
""fullscreenenter"",""1"",""2272""
","
","","","1230.300000011921","","","25","9388","273","e","elianto","#f73b6a7A","-1"," ","0","-10","[2080.5]","1","2","","","9388","63","2","4","lose","no-go","0"
"pit-trial","182","1180616","0.0-68.0","battery-v0.2","","""event"",""trial"",""time""
""fullscreenenter"",""1"",""2272""
","
","
","""event"",""trial"",""time""
""fullscreenenter"",""1"",""2272""
","
","","","1568.5","","","25","9388","273","s","elianto","#3366ff99","-1"," ","0","0","[2418.7000000029802]","1","2","","","9388","64","4","2","win","no-go","0"
"pit-trial","183","1185474","0.0-69.0","battery-v0.2","","""event"",""trial"",""time""
""fullscreenenter"",""1"",""2272""
","
","
","""event"",""trial"",""time""
""fullscreenenter"",""1"",""2272""
","
","","","-1","","","25","9388","273","e","elianto","#f73b6a7A","-1","-1","1","0","[]","0","2","","","9388","65","2","4","lose","no-go","0"
"pit-trial","184","1190332","0.0-70.0","battery-v0.2","","""event"",""trial"",""time""
""fullscreenenter"",""1"",""2272""
","
","
","""event"",""trial"",""time""
""fullscreenenter"",""1"",""2272""
","
","","","-1","","","25","9388","273","s","elianto","#3366ff99","-1","-1","1","+10","[]","0","2","","","9388","66","4","2","win","no-go","0"
"pit-trial","185","1195081","0.0-71.0","battery-v0.2","","""event"",""trial"",""time""
""fullscreenenter"",""1"",""2272""
","
","
","""event"",""trial"",""time""
""fullscreenenter"",""1"",""2272""
","
","","","1894.800000011921","","","25","9388","273","w","elianto","#f73b6a7A"," "," ","1","0","[2745.2000000029802]","1","2","","","9388","67","3","3","lose","go","0"
"pit-trial","186","1199394","0.0-72.0","battery-v0.2","","""event"",""trial"",""time""
""fullscreenenter"",""1"",""2272""
","
","
","""event"",""trial"",""time""
""fullscreenenter"",""1"",""2272""
","
","","","1457","","","25","9388","273","d","elianto","#3366ff99"," "," ","1","+10","[2308.8999999910593]","1","2","","","9388","68","1","1","win","go","0"
"pit-trial","187","1203829","0.0-73.0","battery-v0.2","","""event"",""trial"",""time""
""fullscreenenter"",""1"",""2272""
","
","
","""event"",""trial"",""time""
""fullscreenenter"",""1"",""2272""
","
","","","1575.5","","","25","9388","273","p","elianto","#3366ff99"," "," ","1","+10","[2429]","1","2","","","9388","69","5","1","win","go","0"
"pit-trial","188","1208688","0.0-74.0","battery-v0.2","","""event"",""trial"",""time""
""fullscreenenter"",""1"",""2272""
","
","
","""event"",""trial"",""time""
""fullscreenenter"",""1"",""2272""
","
","","","-1","","","25","9388","273","w","elianto","#f73b6a7A"," ","-1","0","0","[]","0","2","","","9388","70","3","3","lose","go","1"
"pit-trial","189","1212757","0.0-75.0","battery-v0.2","","""event"",""trial"",""time""
""fullscreenenter"",""1"",""2272""
","
","
","""event"",""trial"",""time""
""fullscreenenter"",""1"",""2272""
","
","","","1209.4000000059605","","","25","9388","273","s","elianto","#3366ff99","-1"," ","0","0","[2061.7999999970198]","1","2","","","9388","71","4","2","win","no-go","0"
"pit-trial","190","1217616","0.0-76.0","battery-v0.2","","""event"",""trial"",""time""
""fullscreenenter"",""1"",""2272""
","
","
","""event"",""trial"",""time""
""fullscreenenter"",""1"",""2272""
","
","","","-1","","","25","9388","273","d","elianto","#3366ff99"," ","-1","0","+10","[]","0","2","","","9388","72","1","1","win","go","1"
"pit-trial","191","1222474","0.0-77.0","battery-v0.2","","""event"",""trial"",""time""
""fullscreenenter"",""1"",""2272""
","
","
","""event"",""trial"",""time""
""fullscreenenter"",""1"",""2272""
","
","","","-1","","","25","9388","273","s","elianto","#3366ff99","-1","-1","1","+10","[]","0","2","","","9388","73","4","2","win","no-go","0"
"pit-trial","192","1226752","0.0-78.0","battery-v0.2","","""event"",""trial"",""time""
""fullscreenenter"",""1"",""2272""
","
","
","""event"",""trial"",""time""
""fullscreenenter"",""1"",""2272""
","
","","","1420.9000000059605","","","25","9388","273","d","elianto","#3366ff99"," "," ","1","+10","[2271.7000000029802]","1","2","","","9388","74","1","1","win","go","0"
"pit-trial","193","1231042","0.0-79.0","battery-v0.2","","""event"",""trial"",""time""
""fullscreenenter"",""1"",""2272""
","
","
","""event"",""trial"",""time""
""fullscreenenter"",""1"",""2272""
","
","","","1430.5999999940395","","","25","9388","273","p","elianto","#3366ff99"," "," ","1","+10","[2285]","1","2","","","9388","75","5","1","win","go","0"
"pit-trial","194","1235900","0.0-80.0","battery-v0.2","","""event"",""trial"",""time""
""fullscreenenter"",""1"",""2272""
","
","
","""event"",""trial"",""time""
""fullscreenenter"",""1"",""2272""
","
","","","-1","","","25","9388","273","w","elianto","#f73b6a7A"," ","-1","0","0","[3020.1000000089407]","1","2","","","9388","76","3","3","lose","go","1"
"pit-trial","195","1240021","0.0-81.0","battery-v0.2","","""event"",""trial"",""time""
""fullscreenenter"",""1"",""2272""
","
","
","""event"",""trial"",""time""
""fullscreenenter"",""1"",""2272""
","
","","","1262.2000000029802","","","25","9388","273","s","elianto","#3366ff99","-1"," ","0","0","[2113.5999999940395]","1","2","","","9388","77","4","2","win","no-go","0"
"pit-trial","196","1244010","0.0-82.0","battery-v0.2","","""event"",""trial"",""time""
""fullscreenenter"",""1"",""2272""
","
","
","""event"",""trial"",""time""
""fullscreenenter"",""1"",""2272""
","
","","","1131.7999999970198","","","25","9388","273","p","elianto","#3366ff99"," "," ","1","+10","[1982.4000000059605]","1","2","","","9388","78","5","1","win","go","0"
"pit-trial","197","1248636","0.0-83.0","battery-v0.2","","""event"",""trial"",""time""
""fullscreenenter"",""1"",""2272""
","
","
","""event"",""trial"",""time""
""fullscreenenter"",""1"",""2272""
","
","","","1768.5","","","25","9388","273","w","elianto","#f73b6a7A"," "," ","1","0","[2619]","1","2","","","9388","79","3","3","lose","go","0"
"pit-trial","198","1252629","0.0-84.0","battery-v0.2","","""event"",""trial"",""time""
""fullscreenenter"",""1"",""2272""
","
","
","""event"",""trial"",""time""
""fullscreenenter"",""1"",""2272""
","
","","","1135","","","25","9388","273","g","elianto","#f73b6a7A","-1"," ","0","-10","[1988.7000000029802,2074]","2","2","","","9388","80","6","4","lose","no-go","0"
"pit-trial","199","1256588","0.0-85.0","battery-v0.2","","""event"",""trial"",""time""
""fullscreenenter"",""1"",""2272""
","
","
","""event"",""trial"",""time""
""fullscreenenter"",""1"",""2272""
","
","","","1102.1000000089407","","","25","9388","273","a","elianto","#f73b6a7A"," "," ","1","0","[1954.1000000089407]","1","2","","","9388","81","7","3","lose","go","0"
"pit-trial","200","1260977","0.0-86.0","battery-v0.2","","""event"",""trial"",""time""
""fullscreenenter"",""1"",""2272""
","
","
","""event"",""trial"",""time""
""fullscreenenter"",""1"",""2272""
","
","","","1530.2000000029802","","","25","9388","273","g","elianto","#f73b6a7A","-1"," ","0","-10","[2384.3999999910593]","1","2","","","9388","82","6","4","lose","no-go","0"
"pit-trial","201","1265836","0.0-87.0","battery-v0.2","","""event"",""trial"",""time""
""fullscreenenter"",""1"",""2272""
","
","
","""event"",""trial"",""time""
""fullscreenenter"",""1"",""2272""
","
","","","-1","","","25","9388","273","s","elianto","#3366ff99","-1","-1","1","+10","[]","0","2","","","9388","83","4","2","win","no-go","0"
"pit-trial","202","1270236","0.0-88.0","battery-v0.2","","""event"",""trial"",""time""
""fullscreenenter"",""1"",""2272""
","
","
","""event"",""trial"",""time""
""fullscreenenter"",""1"",""2272""
","
","","","1536.5","","","25","9388","273","p","elianto","#3366ff99"," "," ","1","+10","[2390.4000000059605]","1","2","","","9388","84","5","1","win","go","0"
"pit-trial","203","1274450","0.0-89.0","battery-v0.2","","""event"",""trial"",""time""
""fullscreenenter"",""1"",""2272""
","
","
","""event"",""trial"",""time""
""fullscreenenter"",""1"",""2272""
","
","","","1355.4000000059605","","","25","9388","273","p","elianto","#3366ff99"," "," ","1","+10","[2210.4000000059605]","1","2","","","9388","85","5","1","win","go","0"
"pit-trial","204","1278711","0.0-90.0","battery-v0.2","","""event"",""trial"",""time""
""fullscreenenter"",""1"",""2272""
","
","
","""event"",""trial"",""time""
""fullscreenenter"",""1"",""2272""
","
","","","1401.5999999940395","","","25","9388","273","g","elianto","#f73b6a7A","-1"," ","0","-10","[2256.699999988079]","1","2","","","9388","86","6","4","lose","no-go","0"
"pit-trial","205","1283175","0.0-91.0","battery-v0.2","","""event"",""trial"",""time""
""fullscreenenter"",""1"",""2272""
","
","
","""event"",""trial"",""time""
""fullscreenenter"",""1"",""2272""
","
","","","1605.9000000059605","","","25","9388","273","a","elianto","#f73b6a7A"," "," ","1","0","[2456.699999988079]","1","2","","","9388","87","7","3","lose","go","0"
"pit-trial","206","1288033","0.0-92.0","battery-v0.2","","""event"",""trial"",""time""
""fullscreenenter"",""1"",""2272""
","
","
","""event"",""trial"",""time""
""fullscreenenter"",""1"",""2272""
","
","","","-1","","","25","9388","273","s","elianto","#3366ff99","-1","-1","1","+10","[]","0","2","","","9388","88","4","2","win","no-go","0"
"pit-trial","207","1292259","0.0-93.0","battery-v0.2","","""event"",""trial"",""time""
""fullscreenenter"",""1"",""2272""
","
","
","""event"",""trial"",""time""
""fullscreenenter"",""1"",""2272""
","
","","","1369.0999999940395","","","25","9388","273","p","elianto","#3366ff99"," "," ","1","+10","[2219.5]","1","2","","","9388","89","5","1","win","go","0"
"pit-trial","208","1297118","0.0-94.0","battery-v0.2","","""event"",""trial"",""time""
""fullscreenenter"",""1"",""2272""
","
","
","""event"",""trial"",""time""
""fullscreenenter"",""1"",""2272""
","
","","","-1","","","25","9388","273","g","elianto","#f73b6a7A","-1","-1","1","0","[]","0","2","","","9388","90","6","4","lose","no-go","0"
"pit-trial","209","1301977","0.0-95.0","battery-v0.2","","""event"",""trial"",""time""
""fullscreenenter"",""1"",""2272""
","
","
","""event"",""trial"",""time""
""fullscreenenter"",""1"",""2272""
","
","","","-1","","","25","9388","273","s","elianto","#3366ff99","-1","-1","1","0","[3233.4000000059605]","1","2","","","9388","91","4","2","win","no-go","1"
"pit-trial","210","1306836","0.0-96.0","battery-v0.2","","""event"",""trial"",""time""
""fullscreenenter"",""1"",""2272""
","
","
","""event"",""trial"",""time""
""fullscreenenter"",""1"",""2272""
","
","","","-1","","","25","9388","273","a","elianto","#f73b6a7A"," ","-1","0","-10","[]","0","2","","","9388","92","7","3","lose","go","0"
"pit-trial","211","1311125","0.0-97.0","battery-v0.2","","""event"",""trial"",""time""
""fullscreenenter"",""1"",""2272""
","
","
","""event"",""trial"",""time""
""fullscreenenter"",""1"",""2272""
","
","","","1426.6000000089407","","","25","9388","273","a","elianto","#f73b6a7A"," "," ","1","0","[2281.4000000059605]","1","2","","","9388","93","7","3","lose","go","0"
"pit-trial","212","1315984","0.0-98.0","battery-v0.2","","""event"",""trial"",""time""
""fullscreenenter"",""1"",""2272""
","
","
","""event"",""trial"",""time""
""fullscreenenter"",""1"",""2272""
","
","","","-1","","","25","9388","273","g","elianto","#f73b6a7A","-1","-1","1","0","[]","0","2","","","9388","94","6","4","lose","no-go","0"
"pit-trial","213","1320564","0.0-99.0","battery-v0.2","","""event"",""trial"",""time""
""fullscreenenter"",""1"",""2272""
","
","
","""event"",""trial"",""time""
""fullscreenenter"",""1"",""2272""
","
","","","1724.4000000059605","","","25","9388","273","p","elianto","#3366ff99"," "," ","1","+10","[2575]","1","2","","","9388","95","5","1","win","go","0"
"pit-trial","214","1325422","0.0-100.0","battery-v0.2","","""event"",""trial"",""time""
""fullscreenenter"",""1"",""2272""
","
","
","""event"",""trial"",""time""
""fullscreenenter"",""1"",""2272""
","
","","","-1","","","25","9388","273","l","elianto","#3366ff99","-1","-1","1","+10","[3187]","1","2","","","9388","96","8","2","win","no-go","0"
"pit-trial","215","1330282","0.0-101.0","battery-v0.2","","""event"",""trial"",""time""
""fullscreenenter"",""1"",""2272""
","
","
","""event"",""trial"",""time""
""fullscreenenter"",""1"",""2272""
","
","","","-1","","","25","9388","273","g","elianto","#f73b6a7A","-1","-1","1","0","[]","0","2","","","9388","97","6","4","lose","no-go","0"
"pit-trial","216","1335140","0.0-102.0","battery-v0.2","","""event"",""trial"",""time""
""fullscreenenter"",""1"",""2272""
","
","
","""event"",""trial"",""time""
""fullscreenenter"",""1"",""2272""
","
","","","-1","","","25","9388","273","l","elianto","#3366ff99","-1","-1","1","+10","[]","0","2","","","9388","98","8","2","win","no-go","0"
"pit-trial","217","1339702","0.0-103.0","battery-v0.2","","""event"",""trial"",""time""
""fullscreenenter"",""1"",""2272""
","
","
","""event"",""trial"",""time""
""fullscreenenter"",""1"",""2272""
","
","","","1703.6000000089407","","","25","9388","273","p","elianto","#3366ff99"," "," ","1","+10","[2554.2000000029802]","1","2","","","9388","99","5","1","win","go","0"
"pit-trial","218","1344561","0.0-104.0","battery-v0.2","","""event"",""trial"",""time""
""fullscreenenter"",""1"",""2272""
","
","
","""event"",""trial"",""time""
""fullscreenenter"",""1"",""2272""
","
","","","-1","","","25","9388","273","a","elianto","#f73b6a7A"," ","-1","0","-10","[3180.7999999970198]","1","2","","","9388","100","7","3","lose","go","0"
"pit-trial","219","1349420","0.0-105.0","battery-v0.2","","""event"",""trial"",""time""
""fullscreenenter"",""1"",""2272""
","
","
","""event"",""trial"",""time""
""fullscreenenter"",""1"",""2272""
","
","","","-1","","","25","9388","273","g","elianto","#f73b6a7A","-1","-1","1","-10","[]","0","2","","","9388","101","6","4","lose","no-go","1"
"pit-trial","220","1354278","0.0-106.0","battery-v0.2","","""event"",""trial"",""time""
""fullscreenenter"",""1"",""2272""
","
","
","""event"",""trial"",""time""
""fullscreenenter"",""1"",""2272""
","
","","","-1","","","25","9388","273","l","elianto","#3366ff99","-1","-1","1","+10","[]","0","2","","","9388","102","8","2","win","no-go","0"
"pit-trial","221","1358562","0.0-107.0","battery-v0.2","","""event"",""trial"",""time""
""fullscreenenter"",""1"",""2272""
","
","
","""event"",""trial"",""time""
""fullscreenenter"",""1"",""2272""
","
","","","1423.7999999970198","","","25","9388","273","p","elianto","#3366ff99"," "," ","1","+10","[2277.2000000029802]","1","2","","","9388","103","5","1","win","go","0"
"pit-trial","222","1362777","0.0-108.0","battery-v0.2","","""event"",""trial"",""time""
""fullscreenenter"",""1"",""2272""
","
","
","""event"",""trial"",""time""
""fullscreenenter"",""1"",""2272""
","
","","","1355.300000011921","","","25","9388","273","u","elianto","#3366ff99","-1"," ","0","0","[2206.2999999970198]","1","2","","","9388","104","9","2","win","no-go","0"
"pit-trial","223","1367635","0.0-109.0","battery-v0.2","","""event"",""trial"",""time""
""fullscreenenter"",""1"",""2272""
","
","
","""event"",""trial"",""time""
""fullscreenenter"",""1"",""2272""
","
","","","-1","","","25","9388","273","l","elianto","#3366ff99","-1","-1","1","0","[]","0","2","","","9388","105","8","2","win","no-go","1"
"pit-trial","224","1372122","0.0-110.0","battery-v0.2","","""event"",""trial"",""time""
""fullscreenenter"",""1"",""2272""
","
","
","""event"",""trial"",""time""
""fullscreenenter"",""1"",""2272""
","
","","","1625.1000000089407","","","25","9388","273","p","elianto","#3366ff99"," "," ","1","+10","[2479.7000000029802]","1","2","","","9388","106","5","1","win","go","0"
"pit-trial","225","1376981","0.0-111.0","battery-v0.2","","""event"",""trial"",""time""
""fullscreenenter"",""1"",""2272""
","
","
","""event"",""trial"",""time""
""fullscreenenter"",""1"",""2272""
","
","","","-1","","","25","9388","273","u","elianto","#3366ff99","-1","-1","1","+10","[]","0","2","","","9388","107","9","2","win","no-go","0"
"pit-trial","226","1381840","0.0-112.0","battery-v0.2","","""event"",""trial"",""time""
""fullscreenenter"",""1"",""2272""
","
","
","""event"",""trial"",""time""
""fullscreenenter"",""1"",""2272""
","
","","","-1","","","25","9388","273","g","elianto","#f73b6a7A","-1","-1","1","0","[]","0","2","","","9388","108","6","4","lose","no-go","0"
"pit-trial","227","1386698","0.0-113.0","battery-v0.2","","""event"",""trial"",""time""
""fullscreenenter"",""1"",""2272""
","
","
","""event"",""trial"",""time""
""fullscreenenter"",""1"",""2272""
","
","","","-1","","","25","9388","273","g","elianto","#f73b6a7A","-1","-1","1","-10","[]","0","2","","","9388","109","6","4","lose","no-go","1"
"pit-trial","228","1391441","0.0-114.0","battery-v0.2","","""event"",""trial"",""time""
""fullscreenenter"",""1"",""2272""
","
","
","""event"",""trial"",""time""
""fullscreenenter"",""1"",""2272""
","
","","","1888.7999999970198","","","25","9388","273","p","elianto","#3366ff99"," "," ","1","+10","[2739.7999999970198]","1","2","","","9388","110","5","1","win","go","0"
"pit-trial","229","1396299","0.0-115.0","battery-v0.2","","""event"",""trial"",""time""
""fullscreenenter"",""1"",""2272""
","
","
","""event"",""trial"",""time""
""fullscreenenter"",""1"",""2272""
","
","","","-1","","","25","9388","273","u","elianto","#3366ff99","-1","-1","1","0","[]","0","2","","","9388","111","9","2","win","no-go","1"
"pit-trial","230","1401158","0.0-116.0","battery-v0.2","","""event"",""trial"",""time""
""fullscreenenter"",""1"",""2272""
","
","
","""event"",""trial"",""time""
""fullscreenenter"",""1"",""2272""
","
","","","-1","","","25","9388","273","l","elianto","#3366ff99","-1","-1","1","+10","[]","0","2","","","9388","112","8","2","win","no-go","0"
"pit-trial","231","1405477","0.0-117.0","battery-v0.2","","""event"",""trial"",""time""
""fullscreenenter"",""1"",""2272""
","
","
","""event"",""trial"",""time""
""fullscreenenter"",""1"",""2272""
","
","","","1461.2000000029802","","","25","9388","273","u","elianto","#3366ff99","-1"," ","0","0","[2313.300000011921]","1","2","","","9388","113","9","2","win","no-go","0"
"pit-trial","232","1410219","0.0-118.0","battery-v0.2","","""event"",""trial"",""time""
""fullscreenenter"",""1"",""2272""
","
","
","""event"",""trial"",""time""
""fullscreenenter"",""1"",""2272""
","
","","","1885.3999999910593","","","25","9388","273","p","elianto","#3366ff99"," "," ","1","+10","[2735.5999999940395]","1","2","","","9388","114","5","1","win","go","0"
"pit-trial","233","1415078","0.0-119.0","battery-v0.2","","""event"",""trial"",""time""
""fullscreenenter"",""1"",""2272""
","
","
","""event"",""trial"",""time""
""fullscreenenter"",""1"",""2272""
","
","","","-1","","","25","9388","273","l","elianto","#3366ff99","-1","-1","1","0","[]","0","2","","","9388","115","8","2","win","no-go","1"
"pit-trial","234","1419762","0.0-120.0","battery-v0.2","","""event"",""trial"",""time""
""fullscreenenter"",""1"",""2272""
","
","
","""event"",""trial"",""time""
""fullscreenenter"",""1"",""2272""
","
","","","1823.5999999940395","","","25","9388","273","a","elianto","#f73b6a7A"," "," ","1","-10","[2677.2999999970198]","1","2","","","9388","116","7","3","lose","go","1"
"pit-trial","235","1424621","0.0-121.0","battery-v0.2","","""event"",""trial"",""time""
""fullscreenenter"",""1"",""2272""
","
","
","""event"",""trial"",""time""
""fullscreenenter"",""1"",""2272""
","
","","","-1","","","25","9388","273","l","elianto","#3366ff99","-1","-1","1","+10","[]","0","2","","","9388","117","8","2","win","no-go","0"
"pit-trial","236","1429131","0.0-122.0","battery-v0.2","","""event"",""trial"",""time""
""fullscreenenter"",""1"",""2272""
","
","
","""event"",""trial"",""time""
""fullscreenenter"",""1"",""2272""
","
","","","1650.2999999970198","","","25","9388","273","p","elianto","#3366ff99"," "," ","1","+10","[2505.1000000089407]","1","2","","","9388","118","5","1","win","go","0"
"pit-trial","237","1433990","0.0-123.0","battery-v0.2","","""event"",""trial"",""time""
""fullscreenenter"",""1"",""2272""
","
","
","""event"",""trial"",""time""
""fullscreenenter"",""1"",""2272""
","
","","","-1","","","25","9388","273","g","elianto","#f73b6a7A","-1","-1","1","0","[]","0","2","","","9388","119","6","4","lose","no-go","0"
"pit-trial","238","1438849","0.0-124.0","battery-v0.2","","""event"",""trial"",""time""
""fullscreenenter"",""1"",""2272""
","
","
","""event"",""trial"",""time""
""fullscreenenter"",""1"",""2272""
","
","","","-1","","","25","9388","273","u","elianto","#3366ff99","-1","-1","1","+10","[]","0","2","","","9388","120","9","2","win","no-go","0"
"pit-trial","239","1443504","0.0-125.0","battery-v0.2","","""event"",""trial"",""time""
""fullscreenenter"",""1"",""2272""
","
","
","""event"",""trial"",""time""
""fullscreenenter"",""1"",""2272""
","
","","","1793.7000000029802","","","25","9388","273","p","elianto","#3366ff99"," "," ","1","0","[2648.7000000029802]","1","2","","","9388","121","5","1","win","go","1"
"pit-trial","240","1448362","0.0-126.0","battery-v0.2","","""event"",""trial"",""time""
""fullscreenenter"",""1"",""2272""
","
","
","""event"",""trial"",""time""
""fullscreenenter"",""1"",""2272""
","
","","","-1","","","25","9388","273","l","elianto","#3366ff99","-1","-1","1","0","[]","0","2","","","9388","122","8","2","win","no-go","1"
"pit-trial","241","1453221","0.0-127.0","battery-v0.2","","""event"",""trial"",""time""
""fullscreenenter"",""1"",""2272""
","
","
","""event"",""trial"",""time""
""fullscreenenter"",""1"",""2272""
","
","","","-1","","","25","9388","273","a","elianto","#f73b6a7A"," ","-1","0","-10","[2893.2000000029802]","1","2","","","9388","123","7","3","lose","go","0"
"pit-trial","242","1458080","0.0-128.0","battery-v0.2","","""event"",""trial"",""time""
""fullscreenenter"",""1"",""2272""
","
","
","""event"",""trial"",""time""
""fullscreenenter"",""1"",""2272""
","
","","","-1","","","25","9388","273","u","elianto","#3366ff99","-1","-1","1","0","[]","0","2","","","9388","124","9","2","win","no-go","1"
"pit-trial","243","1462939","0.0-129.0","battery-v0.2","","""event"",""trial"",""time""
""fullscreenenter"",""1"",""2272""
","
","
","""event"",""trial"",""time""
""fullscreenenter"",""1"",""2272""
","
","","","-1","","","25","9388","273","g","elianto","#f73b6a7A","-1","-1","1","-10","[]","0","2","","","9388","125","6","4","lose","no-go","1"
"pit-trial","244","1467799","0.0-130.0","battery-v0.2","","""event"",""trial"",""time""
""fullscreenenter"",""1"",""2272""
","
","
","""event"",""trial"",""time""
""fullscreenenter"",""1"",""2272""
","
","","","-1","","","25","9388","273","a","elianto","#f73b6a7A"," ","-1","0","-10","[3538.0999999940395]","1","2","","","9388","126","7","3","lose","go","0"
"pit-trial","245","1472656","0.0-131.0","battery-v0.2","","""event"",""trial"",""time""
""fullscreenenter"",""1"",""2272""
","
","
","""event"",""trial"",""time""
""fullscreenenter"",""1"",""2272""
","
","","","-1","","","25","9388","273","l","elianto","#3366ff99","-1","-1","1","+10","[]","0","2","","","9388","127","8","2","win","no-go","0"
"pit-trial","246","1477515","0.0-132.0","battery-v0.2","","""event"",""trial"",""time""
""fullscreenenter"",""1"",""2272""
","
","
","""event"",""trial"",""time""
""fullscreenenter"",""1"",""2272""
","
","","","-1","","","25","9388","273","u","elianto","#3366ff99","-1","-1","1","+10","[]","0","2","","","9388","128","9","2","win","no-go","0"
"pit-trial","247","1481932","0.0-133.0","battery-v0.2","","""event"",""trial"",""time""
""fullscreenenter"",""1"",""2272""
","
","
","""event"",""trial"",""time""
""fullscreenenter"",""1"",""2272""
","
","","","1560.4000000059605","","","25","9388","273","a","elianto","#f73b6a7A"," "," ","1","0","[2411.2999999970198]","1","2","","","9388","129","7","3","lose","go","0"
"pit-trial","248","1486791","0.0-134.0","battery-v0.2","","""event"",""trial"",""time""
""fullscreenenter"",""1"",""2272""
","
","
","""event"",""trial"",""time""
""fullscreenenter"",""1"",""2272""
","
","","","-1","","","25","9388","273","l","elianto","#3366ff99","-1","-1","1","+10","[]","0","2","","","9388","130","8","2","win","no-go","0"
"pit-trial","249","1491649","0.0-135.0","battery-v0.2","","""event"",""trial"",""time""
""fullscreenenter"",""1"",""2272""
","
","
","""event"",""trial"",""time""
""fullscreenenter"",""1"",""2272""
","
","","","-1","","","25","9388","273","g","elianto","#f73b6a7A","-1","-1","1","-10","[]","0","2","","","9388","131","6","4","lose","no-go","1"
"pit-trial","250","1496507","0.0-136.0","battery-v0.2","","""event"",""trial"",""time""
""fullscreenenter"",""1"",""2272""
","
","
","""event"",""trial"",""time""
""fullscreenenter"",""1"",""2272""
","
","","","-1","","","25","9388","273","u","elianto","#3366ff99","-1","-1","1","0","[]","0","2","","","9388","132","9","2","win","no-go","1"
"pit-trial","251","1501366","0.0-137.0","battery-v0.2","","""event"",""trial"",""time""
""fullscreenenter"",""1"",""2272""
","
","
","""event"",""trial"",""time""
""fullscreenenter"",""1"",""2272""
","
","","","-1","","","25","9388","273","g","elianto","#f73b6a7A","-1","-1","1","0","[]","0","2","","","9388","133","6","4","lose","no-go","0"
"pit-trial","252","1506225","0.0-138.0","battery-v0.2","","""event"",""trial"",""time""
""fullscreenenter"",""1"",""2272""
","
","
","""event"",""trial"",""time""
""fullscreenenter"",""1"",""2272""
","
","","","-1","","","25","9388","273","l","elianto","#3366ff99","-1","-1","1","+10","[]","0","2","","","9388","134","8","2","win","no-go","0"
"pit-trial","253","1511084","0.0-139.0","battery-v0.2","","""event"",""trial"",""time""
""fullscreenenter"",""1"",""2272""
","
","
","""event"",""trial"",""time""
""fullscreenenter"",""1"",""2272""
","
","","","-1","","","25","9388","273","u","elianto","#3366ff99","-1","-1","1","+10","[]","0","2","","","9388","135","9","2","win","no-go","0"
"pit-trial","254","1515803","0.0-140.0","battery-v0.2","","""event"",""trial"",""time""
""fullscreenenter"",""1"",""2272""
","
","
","""event"",""trial"",""time""
""fullscreenenter"",""1"",""2272""
","
","","","1856.5","","","25","9388","273","a","elianto","#f73b6a7A"," "," ","1","0","[2711.7000000029802]","1","2","","","9388","136","7","3","lose","go","0"
"pit-trial","255","1520662","0.0-141.0","battery-v0.2","","""event"",""trial"",""time""
""fullscreenenter"",""1"",""2272""
","
","
","""event"",""trial"",""time""
""fullscreenenter"",""1"",""2272""
","
","","","-1","","","25","9388","273","l","elianto","#3366ff99","-1","-1","1","+10","[]","0","2","","","9388","137","8","2","win","no-go","0"
"pit-trial","256","1525520","0.0-142.0","battery-v0.2","","""event"",""trial"",""time""
""fullscreenenter"",""1"",""2272""
","
","
","""event"",""trial"",""time""
""fullscreenenter"",""1"",""2272""
","
","","","-1","","","25","9388","273","a","elianto","#f73b6a7A"," ","-1","0","0","[]","0","2","","","9388","138","7","3","lose","go","1"
"pit-trial","257","1530379","0.0-143.0","battery-v0.2","","""event"",""trial"",""time""
""fullscreenenter"",""1"",""2272""
","
","
","""event"",""trial"",""time""
""fullscreenenter"",""1"",""2272""
","
","","","-1","","","25","9388","273","g","elianto","#f73b6a7A","-1","-1","1","-10","[]","0","2","","","9388","139","6","4","lose","no-go","1"
"pit-trial","258","1535237","0.0-144.0","battery-v0.2","","""event"",""trial"",""time""
""fullscreenenter"",""1"",""2272""
","
","
","""event"",""trial"",""time""
""fullscreenenter"",""1"",""2272""
","
","","","-1","","","25","9388","273","u","elianto","#3366ff99","-1","-1","1","+10","[]","0","2","","","9388","140","9","2","win","no-go","0"
"pit-instructions","259","2047174","0.0-145.0","battery-v0.2","","""event"",""trial"",""time""
""fullscreenenter"",""1"",""2272""
","
","
","""event"",""trial"",""time""
""fullscreenenter"",""1"",""2272""
","
","","[{""page_index"":0,""viewing_time"":502009.299999997},{""page_index"":1,""viewing_time"":9951.800000011921}]","511961.799999997","","","","","","","","","","","","","","","","","","","","","","","",""
"pit-trial","260","2052039","0.0-146.0","battery-v0.2","","""event"",""trial"",""time""
""fullscreenenter"",""1"",""2272""
","
","
","""event"",""trial"",""time""
""fullscreenenter"",""1"",""2272""
","
","","","-1","","","25","9388","273","b","elianto","#f73b6a7A","-1","-1","1","-10","[]","0","3","","","9388","141","3","4","lose","no-go","1"
"pit-trial","261","2056903","0.0-147.0","battery-v0.2","","""event"",""trial"",""time""
""fullscreenenter"",""1"",""2272""
","
","
","""event"",""trial"",""time""
""fullscreenenter"",""1"",""2272""
","
","","","-1","","","25","9388","273","n","elianto","#f73b6a7A"," ","-1","0","-10","[]","0","3","","","9388","142","0","3","lose","go","0"
"pit-trial","262","2061767","0.0-148.0","battery-v0.2","","""event"",""trial"",""time""
""fullscreenenter"",""1"",""2272""
","
","
","""event"",""trial"",""time""
""fullscreenenter"",""1"",""2272""
","
","","","-1","","","25","9388","273","t","elianto","#f73b6a7A"," ","-1","0","-10","[]","0","3","","","9388","143","2","3","lose","go","0"
"pit-trial","263","2066630","0.0-149.0","battery-v0.2","","""event"",""trial"",""time""
""fullscreenenter"",""1"",""2272""
","
","
","""event"",""trial"",""time""
""fullscreenenter"",""1"",""2272""
","
","","","-1","","","25","9388","273","f","elianto","#3366ff99","-1","-1","1","+10","[]","0","3","","","9388","144","1","2","win","no-go","0"
"pit-trial","264","2071489","0.0-150.0","battery-v0.2","","""event"",""trial"",""time""
""fullscreenenter"",""1"",""2272""
","
","
","""event"",""trial"",""time""
""fullscreenenter"",""1"",""2272""
","
","","","-1","","","25","9388","273","n","elianto","#f73b6a7A"," ","-1","0","0","[]","0","3","","","9388","145","0","3","lose","go","1"
"pit-trial","265","2076347","0.0-151.0","battery-v0.2","","""event"",""trial"",""time""
""fullscreenenter"",""1"",""2272""
","
","
","""event"",""trial"",""time""
""fullscreenenter"",""1"",""2272""
","
","","","-1","","","25","9388","273","t","elianto","#f73b6a7A"," ","-1","0","-10","[]","0","3","","","9388","146","2","3","lose","go","0"
"pit-trial","266","2081207","0.0-152.0","battery-v0.2","","""event"",""trial"",""time""
""fullscreenenter"",""1"",""2272""
","
","
","""event"",""trial"",""time""
""fullscreenenter"",""1"",""2272""
","
","","","-1","","","25","9388","273","b","elianto","#f73b6a7A","-1","-1","1","0","[]","0","3","","","9388","147","3","4","lose","no-go","0"
"pit-trial","267","2086066","0.0-153.0","battery-v0.2","","""event"",""trial"",""time""
""fullscreenenter"",""1"",""2272""
","
","
","""event"",""trial"",""time""
""fullscreenenter"",""1"",""2272""
","
","","","-1","","","25","9388","273","f","elianto","#3366ff99","-1","-1","1","+10","[]","0","3","","","9388","148","1","2","win","no-go","0"
"pit-trial","268","2090924","0.0-154.0","battery-v0.2","","""event"",""trial"",""time""
""fullscreenenter"",""1"",""2272""
","
","
","""event"",""trial"",""time""
""fullscreenenter"",""1"",""2272""
","
