"trial_type","trial_index","time_elapsed","internal_node_id","task_version","subject_id","interactions","blur_events","focus_events","fullscreenenter_events","fullscreenexit_events","success","view_history","rt","responses","num_errors","age","subject","participantId","rune","rune_set","hex","correct","choice","accuracy","outcome","keys","total_keys","block","practice","value","sub","trial","stimulus","robot","valence","action","sham"
"pavlovia","0","9","0.0-0.0","battery-v0.2","","""event"",""trial"",""time""
""fullscreenenter"",""1"",""11581""
","
","
","""event"",""trial"",""time""
""fullscreenenter"",""1"",""11581""
","
","","","","","","","","","","","","","","","","","","","","","","","","","","",""
"fullscreen","1","12519","0.0-1.0","battery-v0.2","","""event"",""trial"",""time""
""fullscreenenter"",""1"",""11581""
","
","
","""event"",""trial"",""time""
""fullscreenenter"",""1"",""11581""
","
","true","","","","","","","","","","","","","","","","","","","","","","","","","",""
"pit-instructions","2","18731","0.0-2.0-0.0","battery-v0.2","","""event"",""trial"",""time""
""fullscreenenter"",""1"",""11581""
","
","
","""event"",""trial"",""time""
""fullscreenenter"",""1"",""11581""
","
","","[{""page_index"":0,""viewing_time"":6207}]","6208","","","","","","","","","","","","","","","","","","","","","","","",""
"pit-comprehension","3","23011","0.0-2.0-1.0-0.0","battery-v0.2","","""event"",""trial"",""time""
""fullscreenenter"",""1"",""11581""
","
","
","""event"",""trial"",""time""
""fullscreenenter"",""1"",""11581""
","
","","","4265","[""shark""]","0","11","16591","6533","","","","","","","","","","","","","","","","","","",""
"pit-instructions","4","24430","0.0-2.0-1.0-1.0","battery-v0.2","","""event"",""trial"",""time""
""fullscreenenter"",""1"",""11581""
","
","
","""event"",""trial"",""time""
""fullscreenenter"",""1"",""11581""
","
","","[{""page_index"":0,""viewing_time"":1413}]","1414.0000000000036","","","","","","","","","","","","","","","","","","","","","","","",""
"pit-comprehension","5","27499","0.0-2.0-2.0-0.0","battery-v0.2","","""event"",""trial"",""time""
""fullscreenenter"",""1"",""11581""
","
","
","""event"",""trial"",""time""
""fullscreenenter"",""1"",""11581""
","
","","","3064","[""tiger""]","0","11","16591","6533","","","","","","","","","","","","","","","","","","",""
"pit-instructions","6","29057","0.0-2.0-2.0-1.0","battery-v0.2","","""event"",""trial"",""time""
""fullscreenenter"",""1"",""11581""
","
","
","""event"",""trial"",""time""
""fullscreenenter"",""1"",""11581""
","
","","[{""page_index"":0,""viewing_time"":1551}]","1552","","","","","","","","","","","","","","","","","","","","","","","",""
"pit-instructions","7","133821","0.0-2.0-3.0","battery-v0.2","","""event"",""trial"",""time""
""fullscreenenter"",""1"",""11581""
","
","
","""event"",""trial"",""time""
""fullscreenenter"",""1"",""11581""
","
","","[{""page_index"":0,""viewing_time"":8231},{""page_index"":1,""viewing_time"":5740.000000000007},{""page_index"":2,""viewing_time"":6375},{""page_index"":3,""viewing_time"":5295.999999999993},{""page_index"":4,""viewing_time"":7282.000000000007},{""page_index"":5,""viewing_time"":6028.999999999993},{""page_index"":6,""viewing_time"":6015},{""page_index"":7,""viewing_time"":6058},{""page_index"":8,""viewing_time"":11571.000000000015},{""page_index"":9,""viewing_time"":11643.999999999985},{""page_index"":10,""viewing_time"":13171},{""page_index"":11,""viewing_time"":6716},{""page_index"":12,""viewing_time"":6050},{""page_index"":13,""viewing_time"":4580}]","104759.00000000003","","","","","","","","","","","","","","","","","","","","","","","",""
"pit-trial","8","137496","0.0-2.0-4.0-0.0","battery-v0.2","","""event"",""trial"",""time""
""fullscreenenter"",""1"",""11581""
","
","
","""event"",""trial"",""time""
""fullscreenenter"",""1"",""11581""
","
","","","818","","","11","16591","6533","&#9784;","elianto","#FFFFF080"," "," ","1","&#10004","[1667.999999999971]","1","0","0","","","","","","","",""
"pit-trial","9","140539","0.0-2.0-4.1-0.1","battery-v0.2","","""event"",""trial"",""time""
""fullscreenenter"",""1"",""11581""
","
","
","""event"",""trial"",""time""
""fullscreenenter"",""1"",""11581""
","
","","","188","","","11","16591","6533","&#9784;","elianto","#FFFFF080"," "," ","1","&#10004","[1037.999999999971]","1","0","0","","","","","","","",""
"pit-trial","10","143531","0.0-2.0-4.2-0.2","battery-v0.2","","""event"",""trial"",""time""
""fullscreenenter"",""1"",""11581""
","
","
","""event"",""trial"",""time""
""fullscreenenter"",""1"",""11581""
","
","","","135","","","11","16591","6533","&#9784;","elianto","#FFFFF080"," "," ","1","&#10004","[986]","1","0","0","","","","","","","",""
"pit-trial","11","146495","0.0-2.0-4.3-0.3","battery-v0.2","","""event"",""trial"",""time""
""fullscreenenter"",""1"",""11581""
","
","
","""event"",""trial"",""time""
""fullscreenenter"",""1"",""11581""
","
","","","109","","","11","16591","6533","&#9784;","elianto","#FFFFF080"," "," ","1","&#10004","[959,2671]","2","0","0","","","","","","","",""
"pit-trial","12","150116","0.0-2.0-4.4-0.4","battery-v0.2","","""event"",""trial"",""time""
""fullscreenenter"",""1"",""11581""
","
","
","""event"",""trial"",""time""
""fullscreenenter"",""1"",""11581""
","
","","","765","","","11","16591","6533","&#9784;","elianto","#FFFFF080"," "," ","1","&#10004","[336,826,1616]","3","0","0","","","","","","","",""
"pit-instructions","13","174496","0.0-2.0-5.0","battery-v0.2","","""event"",""trial"",""time""
""fullscreenenter"",""1"",""11581""
","
","
","""event"",""trial"",""time""
""fullscreenenter"",""1"",""11581""
","
","","[{""page_index"":0,""viewing_time"":5361},{""page_index"":1,""viewing_time"":5943},{""page_index"":2,""viewing_time"":4281},{""page_index"":3,""viewing_time"":8789}]","24374","","","","","","","","","","","","","","","","","","","","","","","",""
"pit-trial","14","179352","0.0-2.0-6.0-0.0","battery-v0.2","","""event"",""trial"",""time""
""fullscreenenter"",""1"",""11581""
","
","
","""event"",""trial"",""time""
""fullscreenenter"",""1"",""11581""
","
","","","-1","","","11","16591","6533","&#9854;","elianto","#FFFFF080","-1","-1","1","&#10004","[]","0","0","1","","","","","","","",""
"pit-trial","15","184207","0.0-2.0-6.1-0.1","battery-v0.2","","""event"",""trial"",""time""
""fullscreenenter"",""1"",""11581""
","
","
","""event"",""trial"",""time""
""fullscreenenter"",""1"",""11581""
","
","","","-1","","","11","16591","6533","&#9854;","elianto","#FFFFF080","-1","-1","1","&#10004","[]","0","0","1","","","","","","","",""
"pit-trial","16","189063","0.0-2.0-6.2-0.2","battery-v0.2","","""event"",""trial"",""time""
""fullscreenenter"",""1"",""11581""
","
","
","""event"",""trial"",""time""
""fullscreenenter"",""1"",""11581""
","
","","","-1","","","11","16591","6533","&#9854;","elianto","#FFFFF080","-1","-1","1","&#10004","[]","0","0","1","","","","","","","",""
"pit-trial","17","193919","0.0-2.0-6.3-0.3","battery-v0.2","","""event"",""trial"",""time""
""fullscreenenter"",""1"",""11581""
","
","
","""event"",""trial"",""time""
""fullscreenenter"",""1"",""11581""
","
","","","-1","","","11","16591","6533","&#9854;","elianto","#FFFFF080","-1","-1","1","&#10004","[]","0","0","1","","","","","","","",""
"pit-trial","18","198775","0.0-2.0-6.4-0.4","battery-v0.2","","""event"",""trial"",""time""
""fullscreenenter"",""1"",""11581""
","
","
","""event"",""trial"",""time""
""fullscreenenter"",""1"",""11581""
","
","","","-1","","","11","16591","6533","&#9854;","elianto","#FFFFF080","-1","-1","1","&#10004","[]","0","0","1","","","","","","","",""
"pit-instructions","19","323667","0.0-2.0-7.0","battery-v0.2","","""event"",""trial"",""time""
""fullscreenenter"",""1"",""11581""
","
","
","""event"",""trial"",""time""
""fullscreenenter"",""1"",""11581""
","
","","[{""page_index"":0,""viewing_time"":5355.999999999971},{""page_index"":1,""viewing_time"":9547},{""page_index"":2,""viewing_time"":9338},{""page_index"":3,""viewing_time"":6639},{""page_index"":4,""viewing_time"":5246},{""page_index"":5,""viewing_time"":6089},{""page_index"":6,""viewing_time"":5410.000000000029},{""page_index"":7,""viewing_time"":7641.999999999971},{""page_index"":8,""viewing_time"":6341},{""page_index"":9,""viewing_time"":6329},{""page_index"":10,""viewing_time"":7157},{""page_index"":11,""viewing_time"":4900},{""page_index"":12,""viewing_time"":6542},{""page_index"":13,""viewing_time"":7140.000000000058},{""page_index"":14,""viewing_time"":8490.999999999942},{""page_index"":15,""viewing_time"":7046},{""page_index"":16,""viewing_time"":8285},{""page_index"":17,""viewing_time"":7388}]","124886.99999999997","","","","","","","","","","","","","","","","","","","","","","","",""
"pit-trial","20","328525","0.0-2.0-8.0-0.0","battery-v0.2","","""event"",""trial"",""time""
""fullscreenenter"",""1"",""11581""
","
","
","""event"",""trial"",""time""
""fullscreenenter"",""1"",""11581""
","
","","","-1","","","11","16591","6533","&#9776;","elianto","#3366ff99"," ","-1","0","0","[3036]","1","0","1","","","","","","","",""
"pit-trial","21","331888","0.0-2.0-8.0-1.0","battery-v0.2","","""event"",""trial"",""time""
""fullscreenenter"",""1"",""11581""
","
","
","""event"",""trial"",""time""
""fullscreenenter"",""1"",""11581""
","
","","","506","","","11","16591","6533","&#9776;","elianto","#3366ff99"," "," ","1","+10","[1357]","1","0","1","","","","","","","",""
"pit-trial","22","334861","0.0-2.0-8.0-2.0","battery-v0.2","","""event"",""trial"",""time""
""fullscreenenter"",""1"",""11581""
","
","
","""event"",""trial"",""time""
""fullscreenenter"",""1"",""11581""
","
","","","118.00000000005821","","","11","16591","6533","&#9776;","elianto","#3366ff99"," "," ","1","+10","[969.0000000000582]","1","0","1","","","","","","","",""
"pit-trial","23","338430","0.0-2.0-8.0-3.0","battery-v0.2","","""event"",""trial"",""time""
""fullscreenenter"",""1"",""11581""
","
","
","""event"",""trial"",""time""
""fullscreenenter"",""1"",""11581""
","
","","","714","","","11","16591","6533","&#9776;","elianto","#3366ff99"," "," ","1","0","[791,1564,2446,2847.000000000058]","4","0","1","","","","","","","",""
"pit-trial","24","341418","0.0-2.0-8.0-4.0","battery-v0.2","","""event"",""trial"",""time""
""fullscreenenter"",""1"",""11581""
","
","
","""event"",""trial"",""time""
""fullscreenenter"",""1"",""11581""
","
","","","132","","","11","16591","6533","&#9776;","elianto","#3366ff99"," "," ","1","+10","[983,1756]","2","0","1","","","","","","","",""
"pit-trial","25","344344","0.0-2.0-8.1-0.1","battery-v0.2","","""event"",""trial"",""time""
""fullscreenenter"",""1"",""11581""
","
","
","""event"",""trial"",""time""
""fullscreenenter"",""1"",""11581""
","
","","","72","","","11","16591","6533","&#9776;","elianto","#3366ff99"," "," ","1","+10","[922.0000000000582]","1","0","1","","","","","","","",""
"pit-trial","26","347241","0.0-2.0-8.1-1.1","battery-v0.2","","""event"",""trial"",""time""
""fullscreenenter"",""1"",""11581""
","
","
","""event"",""trial"",""time""
""fullscreenenter"",""1"",""11581""
","
","","","43","","","11","16591","6533","&#9776;","elianto","#3366ff99"," "," ","1","+10","[894,2027]","2","0","1","","","","","","","",""
"pit-trial","27","350201","0.0-2.0-8.1-2.1","battery-v0.2","","""event"",""trial"",""time""
""fullscreenenter"",""1"",""11581""
","
","
","""event"",""trial"",""time""
""fullscreenenter"",""1"",""11581""
","
","","","103","","","11","16591","6533","&#9776;","elianto","#3366ff99"," "," ","1","+10","[955]","1","0","1","","","","","","","",""
"pit-trial","28","353062","0.0-2.0-8.1-3.1","battery-v0.2","","""event"",""trial"",""time""
""fullscreenenter"",""1"",""11581""
","
","
","""event"",""trial"",""time""
""fullscreenenter"",""1"",""11581""
","
","","","6","","","11","16591","6533","&#9776;","elianto","#3366ff99"," "," ","1","0","[857]","1","0","1","","","","","","","",""
"pit-trial","29","355965","0.0-2.0-8.1-4.1","battery-v0.2","","""event"",""trial"",""time""
""fullscreenenter"",""1"",""11581""
","
","
","""event"",""trial"",""time""
""fullscreenenter"",""1"",""11581""
","
","","","49","","","11","16591","6533","&#9776;","elianto","#3366ff99"," "," ","1","+10","[900]","1","0","1","","","","","","","",""
"pit-trial","30","359097","0.0-2.0-8.2-0.2","battery-v0.2","","""event"",""trial"",""time""
""fullscreenenter"",""1"",""11581""
","
","
","""event"",""trial"",""time""
""fullscreenenter"",""1"",""11581""
","
","","","275.9999999999418","","","11","16591","6533","&#9776;","elianto","#3366ff99"," "," ","1","+10","[590.9999999999418,1126.9999999999418]","2","0","1","","","","","","","",""
"pit-trial","31","362104","0.0-2.0-8.2-1.2","battery-v0.2","","""event"",""trial"",""time""
""fullscreenenter"",""1"",""11581""
","
","
","""event"",""trial"",""time""
""fullscreenenter"",""1"",""11581""
","
","","","152","","","11","16591","6533","&#9776;","elianto","#3366ff99"," "," ","1","+10","[1002]","1","0","1","","","","","","","",""
"pit-trial","32","365050","0.0-2.0-8.2-2.2","battery-v0.2","","""event"",""trial"",""time""
""fullscreenenter"",""1"",""11581""
","
","
","""event"",""trial"",""time""
""fullscreenenter"",""1"",""11581""
","
","","","90","","","11","16591","6533","&#9776;","elianto","#3366ff99"," "," ","1","+10","[942]","1","0","1","","","","","","","",""
"pit-trial","33","368095","0.0-2.0-8.2-3.2","battery-v0.2","","""event"",""trial"",""time""
""fullscreenenter"",""1"",""11581""
","
","
","""event"",""trial"",""time""
""fullscreenenter"",""1"",""11581""
","
","","","189.0000000000582","","","11","16591","6533","&#9776;","elianto","#3366ff99"," "," ","1","0","[1040.0000000000582,1889]","2","0","1","","","","","","","",""
"pit-trial","34","371148","0.0-2.0-8.2-4.2","battery-v0.2","","""event"",""trial"",""time""
""fullscreenenter"",""1"",""11581""
","
","
","""event"",""trial"",""time""
""fullscreenenter"",""1"",""11581""
","
","","","199","","","11","16591","6533","&#9776;","elianto","#3366ff99"," "," ","1","+10","[1049.9999999999418]","1","0","1","","","","","","","",""
"call-function","35","371152","0.0-2.0-9.0","battery-v0.2","","""event"",""trial"",""time""
""fullscreenenter"",""1"",""11581""
","
","
","""event"",""trial"",""time""
""fullscreenenter"",""1"",""11581""
","
","","","","","","","","","","","","","","","","","","","","","","","","","","",""
"pit-instructions","36","420976","0.0-2.0-10.0","battery-v0.2","","""event"",""trial"",""time""
""fullscreenenter"",""1"",""11581""
","
","
","""event"",""trial"",""time""
""fullscreenenter"",""1"",""11581""
","
","","[{""page_index"":0,""viewing_time"":7778},{""page_index"":1,""viewing_time"":3600},{""page_index"":0,""viewing_time"":3968},{""page_index"":1,""viewing_time"":6166},{""page_index"":2,""viewing_time"":10826},{""page_index"":3,""viewing_time"":9877.000000000058},{""page_index"":4,""viewing_time"":7607.999999999942}]","49824","","","","","","","","","","","","","","","","","","","","","","","",""
"pit-trial","37","424580","0.0-2.0-11.0-0.0","battery-v0.2","","""event"",""trial"",""time""
""fullscreenenter"",""1"",""11581""
","
","
","""event"",""trial"",""time""
""fullscreenenter"",""1"",""11581""
","
","","","749","","","11","16591","6533","&#9761;","elianto","#3366ff99","-1"," ","0","0","[1600]","1","0","2","","","","","","","",""
"pit-trial","38","428330","0.0-2.0-11.0-1.0","battery-v0.2","","""event"",""trial"",""time""
""fullscreenenter"",""1"",""11581""
","
","
","""event"",""trial"",""time""
""fullscreenenter"",""1"",""11581""
","
","","","895","","","11","16591","6533","&#9761;","elianto","#3366ff99","-1"," ","0","0","[1746]","1","0","2","","","","","","","",""
"pit-trial","39","433186","0.0-2.0-11.0-2.0","battery-v0.2","","""event"",""trial"",""time""
""fullscreenenter"",""1"",""11581""
","
","
","""event"",""trial"",""time""
""fullscreenenter"",""1"",""11581""
","
","","","-1","","","11","16591","6533","&#9761;","elianto","#3366ff99","-1","-1","1","+10","[]","0","0","2","","","","","","","",""
"pit-trial","40","438042","0.0-2.0-11.0-3.0","battery-v0.2","","""event"",""trial"",""time""
""fullscreenenter"",""1"",""11581""
","
","
","""event"",""trial"",""time""
""fullscreenenter"",""1"",""11581""
","
","","","-1","","","11","16591","6533","&#9761;","elianto","#3366ff99","-1","-1","1","0","[]","0","0","2","","","","","","","",""
"pit-trial","41","442898","0.0-2.0-11.0-4.0","battery-v0.2","","""event"",""trial"",""time""
""fullscreenenter"",""1"",""11581""
","
","
","""event"",""trial"",""time""
""fullscreenenter"",""1"",""11581""
","
","","","-1","","","11","16591","6533","&#9761;","elianto","#3366ff99","-1","-1","1","+10","[]","0","0","2","","","","","","","",""
"pit-trial","42","446216","0.0-2.0-11.1-0.1","battery-v0.2","","""event"",""trial"",""time""
""fullscreenenter"",""1"",""11581""
","
","
","""event"",""trial"",""time""
""fullscreenenter"",""1"",""11581""
","
","","","464","","","11","16591","6533","&#9761;","elianto","#3366ff99","-1"," ","0","0","[380,1314,2400]","3","0","2","","","","","","","",""
"pit-trial","43","451071","0.0-2.0-11.1-1.1","battery-v0.2","","""event"",""trial"",""time""
""fullscreenenter"",""1"",""11581""
","
","
","""event"",""trial"",""time""
""fullscreenenter"",""1"",""11581""
","
","","","-1","","","11","16591","6533","&#9761;","elianto","#3366ff99","-1","-1","1","+10","[]","0","0","2","","","","","","","",""
"pit-trial","44","455927","0.0-2.0-11.1-2.1","battery-v0.2","","""event"",""trial"",""time""
""fullscreenenter"",""1"",""11581""
","
","
","""event"",""trial"",""time""
""fullscreenenter"",""1"",""11581""
","
","","","-1","","","11","16591","6533","&#9761;","elianto","#3366ff99","-1","-1","1","+10","[]","0","0","2","","","","","","","",""
"pit-trial","45","460783","0.0-2.0-11.1-3.1","battery-v0.2","","""event"",""trial"",""time""
""fullscreenenter"",""1"",""11581""
","
","
","""event"",""trial"",""time""
""fullscreenenter"",""1"",""11581""
","
","","","-1","","","11","16591","6533","&#9761;","elianto","#3366ff99","-1","-1","1","0","[]","0","0","2","","","","","","","",""
"pit-trial","46","465639","0.0-2.0-11.1-4.1","battery-v0.2","","""event"",""trial"",""time""
""fullscreenenter"",""1"",""11581""
","
","
","""event"",""trial"",""time""
""fullscreenenter"",""1"",""11581""
","
","","","-1","","","11","16591","6533","&#9761;","elianto","#3366ff99","-1","-1","1","+10","[]","0","0","2","","","","","","","",""
"pit-trial","47","470495","0.0-2.0-11.2-0.2","battery-v0.2","","""event"",""trial"",""time""
""fullscreenenter"",""1"",""11581""
","
","
","""event"",""trial"",""time""
""fullscreenenter"",""1"",""11581""
","
","","","-1","","","11","16591","6533","&#9761;","elianto","#3366ff99","-1","-1","1","+10","[]","0","0","2","","","","","","","",""
"pit-trial","48","475351","0.0-2.0-11.2-1.2","battery-v0.2","","""event"",""trial"",""time""
""fullscreenenter"",""1"",""11581""
","
","
","""event"",""trial"",""time""
""fullscreenenter"",""1"",""11581""
","
","","","-1","","","11","16591","6533","&#9761;","elianto","#3366ff99","-1","-1","1","+10","[]","0","0","2","","","","","","","",""
"pit-trial","49","480207","0.0-2.0-11.2-2.2","battery-v0.2","","""event"",""trial"",""time""
""fullscreenenter"",""1"",""11581""
","
","
","""event"",""trial"",""time""
""fullscreenenter"",""1"",""11581""
","
","","","-1","","","11","16591","6533","&#9761;","elianto","#3366ff99","-1","-1","1","+10","[]","0","0","2","","","","","","","",""
"pit-trial","50","485063","0.0-2.0-11.2-3.2","battery-v0.2","","""event"",""trial"",""time""
""fullscreenenter"",""1"",""11581""
","
","
","""event"",""trial"",""time""
""fullscreenenter"",""1"",""11581""
","
","","","-1","","","11","16591","6533","&#9761;","elianto","#3366ff99","-1","-1","1","0","[]","0","0","2","","","","","","","",""
"pit-trial","51","489919","0.0-2.0-11.2-4.2","battery-v0.2","","""event"",""trial"",""time""
""fullscreenenter"",""1"",""11581""
","
","
","""event"",""trial"",""time""
""fullscreenenter"",""1"",""11581""
","
","","","-1","","","11","16591","6533","&#9761;","elianto","#3366ff99","-1","-1","1","+10","[]","0","0","2","","","","","","","",""
"pit-trial","52","494774","0.0-2.0-11.3-0.3","battery-v0.2","","""event"",""trial"",""time""
""fullscreenenter"",""1"",""11581""
","
","
","""event"",""trial"",""time""
""fullscreenenter"",""1"",""11581""
","
","","","-1","","","11","16591","6533","&#9761;","elianto","#3366ff99","-1","-1","1","+10","[]","0","0","2","","","","","","","",""
"pit-trial","53","499630","0.0-2.0-11.3-1.3","battery-v0.2","","""event"",""trial"",""time""
""fullscreenenter"",""1"",""11581""
","
","
","""event"",""trial"",""time""
""fullscreenenter"",""1"",""11581""
","
","","","-1","","","11","16591","6533","&#9761;","elianto","#3366ff99","-1","-1","1","+10","[]","0","0","2","","","","","","","",""
"pit-trial","54","504485","0.0-2.0-11.3-2.3","battery-v0.2","","""event"",""trial"",""time""
""fullscreenenter"",""1"",""11581""
","
","
","""event"",""trial"",""time""
""fullscreenenter"",""1"",""11581""
","
","","","-1","","","11","16591","6533","&#9761;","elianto","#3366ff99","-1","-1","1","+10","[]","0","0","2","","","","","","","",""
"pit-trial","55","509340","0.0-2.0-11.3-3.3","battery-v0.2","","""event"",""trial"",""time""
""fullscreenenter"",""1"",""11581""
","
","
","""event"",""trial"",""time""
""fullscreenenter"",""1"",""11581""
","
","","","-1","","","11","16591","6533","&#9761;","elianto","#3366ff99","-1","-1","1","0","[]","0","0","2","","","","","","","",""
"pit-trial","56","514196","0.0-2.0-11.3-4.3","battery-v0.2","","""event"",""trial"",""time""
""fullscreenenter"",""1"",""11581""
","
","
","""event"",""trial"",""time""
""fullscreenenter"",""1"",""11581""
","
","","","-1","","","11","16591","6533","&#9761;","elianto","#3366ff99","-1","-1","1","+10","[]","0","0","2","","","","","","","",""
"call-function","57","514199","0.0-2.0-12.0","battery-v0.2","","""event"",""trial"",""time""
""fullscreenenter"",""1"",""11581""
","
","
","""event"",""trial"",""time""
""fullscreenenter"",""1"",""11581""
","
","","","","","","","","","","","","","","","","","","","","","","","","","","",""
"pit-instructions","58","546497","0.0-2.0-13.0","battery-v0.2","","""event"",""trial"",""time""
""fullscreenenter"",""1"",""11581""
","
","
","""event"",""trial"",""time""
""fullscreenenter"",""1"",""11581""
","
","","[{""page_index"":0,""viewing_time"":4609.000000000058},{""page_index"":1,""viewing_time"":7086.999999999942},{""page_index"":2,""viewing_time"":3457},{""page_index"":3,""viewing_time"":11439},{""page_index"":4,""viewing_time"":5704}]","32296","","","","","","","","","","","","","","","","","","","","","","","",""
"pit-trial","59","550835","0.0-2.0-14.0-0.0","battery-v0.2","","""event"",""trial"",""time""
""fullscreenenter"",""1"",""11581""
","
","
","""event"",""trial"",""time""
""fullscreenenter"",""1"",""11581""
","
","","","1484","","","11","16591","6533","&#9826;","elianto","#f73b6a7A","-1"," ","0","-10","[2334]","1","0","3","","","","","","","",""
"pit-trial","60","555690","0.0-2.0-14.0-1.0","battery-v0.2","","""event"",""trial"",""time""
""fullscreenenter"",""1"",""11581""
","
","
","""event"",""trial"",""time""
""fullscreenenter"",""1"",""11581""
","
","","","-1","","","11","16591","6533","&#9826;","elianto","#f73b6a7A","-1","-1","1","0","[]","0","0","3","","","","","","","",""
"pit-trial","61","560545","0.0-2.0-14.0-2.0","battery-v0.2","","""event"",""trial"",""time""
""fullscreenenter"",""1"",""11581""
","
","
","""event"",""trial"",""time""
""fullscreenenter"",""1"",""11581""
","
","","","-1","","","11","16591","6533","&#9826;","elianto","#f73b6a7A","-1","-1","1","0","[]","0","0","3","","","","","","","",""
"pit-trial","62","565400","0.0-2.0-14.0-3.0","battery-v0.2","","""event"",""trial"",""time""
""fullscreenenter"",""1"",""11581""
","
","
","""event"",""trial"",""time""
""fullscreenenter"",""1"",""11581""
","
","","","-1","","","11","16591","6533","&#9826;","elianto","#f73b6a7A","-1","-1","1","-10","[]","0","0","3","","","","","","","",""
"pit-trial","63","570255","0.0-2.0-14.0-4.0","battery-v0.2","","""event"",""trial"",""time""
""fullscreenenter"",""1"",""11581""
","
","
","""event"",""trial"",""time""
""fullscreenenter"",""1"",""11581""
","
","","","-1","","","11","16591","6533","&#9826;","elianto","#f73b6a7A","-1","-1","1","0","[]","0","0","3","","","","","","","",""
"pit-trial","64","575112","0.0-2.0-14.1-0.1","battery-v0.2","","""event"",""trial"",""time""
""fullscreenenter"",""1"",""11581""
","
","
","""event"",""trial"",""time""
""fullscreenenter"",""1"",""11581""
","
","","","-1","","","11","16591","6533","&#9826;","elianto","#f73b6a7A","-1","-1","1","0","[]","0","0","3","","","","","","","",""
"pit-trial","65","579967","0.0-2.0-14.1-1.1","battery-v0.2","","""event"",""trial"",""time""
""fullscreenenter"",""1"",""11581""
","
","
","""event"",""trial"",""time""
""fullscreenenter"",""1"",""11581""
","
","","","-1","","","11","16591","6533","&#9826;","elianto","#f73b6a7A","-1","-1","1","0","[]","0","0","3","","","","","","","",""
"pit-trial","66","584821","0.0-2.0-14.1-2.1","battery-v0.2","","""event"",""trial"",""time""
""fullscreenenter"",""1"",""11581""
","
","
","""event"",""trial"",""time""
""fullscreenenter"",""1"",""11581""
","
","","","-1","","","11","16591","6533","&#9826;","elianto","#f73b6a7A","-1","-1","1","0","[]","0","0","3","","","","","","","",""
"pit-trial","67","589676","0.0-2.0-14.1-3.1","battery-v0.2","","""event"",""trial"",""time""
""fullscreenenter"",""1"",""11581""
","
","
","""event"",""trial"",""time""
""fullscreenenter"",""1"",""11581""
","
","","","-1","","","11","16591","6533","&#9826;","elianto","#f73b6a7A","-1","-1","1","-10","[]","0","0","3","","","","","","","",""
"pit-trial","68","592587","0.0-2.0-14.1-4.1","battery-v0.2","","""event"",""trial"",""time""
""fullscreenenter"",""1"",""11581""
","
","
","""event"",""trial"",""time""
""fullscreenenter"",""1"",""11581""
","
","","","53","","","11","16591","6533","&#9826;","elianto","#f73b6a7A","-1"," ","0","-10","[212,906,1389,1672,1989]","5","0","3","","","","","","","",""
"pit-trial","69","597443","0.0-2.0-14.2-0.2","battery-v0.2","","""event"",""trial"",""time""
""fullscreenenter"",""1"",""11581""
","
","
","""event"",""trial"",""time""
""fullscreenenter"",""1"",""11581""
","
","","","-1","","","11","16591","6533","&#9826;","elianto","#f73b6a7A","-1","-1","1","0","[103,705,4248,4765.000000000116]","4","0","3","","","","","","","",""
"pit-trial","70","600452","0.0-2.0-14.2-1.2","battery-v0.2","","""event"",""trial"",""time""
""fullscreenenter"",""1"",""11581""
","
","
","""event"",""trial"",""time""
""fullscreenenter"",""1"",""11581""
","
","","","154","","","11","16591","6533","&#9826;","elianto","#f73b6a7A","-1"," ","0","-10","[389,734,1005,1628,1919,2158,2358,2512,2740]","9","0","3","","","","","","","",""
"pit-trial","71","605307","0.0-2.0-14.2-2.2","battery-v0.2","","""event"",""trial"",""time""
""fullscreenenter"",""1"",""11581""
","
","
","""event"",""trial"",""time""
""fullscreenenter"",""1"",""11581""
","
","","","-1","","","11","16591","6533","&#9826;","elianto","#f73b6a7A","-1","-1","1","0","[3917]","1","0","3","","","","","","","",""
"pit-trial","72","610162","0.0-2.0-14.2-3.2","battery-v0.2","","""event"",""trial"",""time""
""fullscreenenter"",""1"",""11581""
","
","
","""event"",""trial"",""time""
""fullscreenenter"",""1"",""11581""
","
","","","-1","","","11","16591","6533","&#9826;","elianto","#f73b6a7A","-1","-1","1","-10","[121,573,3195,3746,4094,4374,4785]","7","0","3","","","","","","","",""
"pit-trial","73","615019","0.0-2.0-14.2-4.2","battery-v0.2","","""event"",""trial"",""time""
""fullscreenenter"",""1"",""11581""
","
","
","""event"",""trial"",""time""
""fullscreenenter"",""1"",""11581""
","
","","","-1","","","11","16591","6533","&#9826;","elianto","#f73b6a7A","-1","-1","1","0","[124,308]","2","0","3","","","","","","","",""
"pit-trial","74","619178","0.0-2.0-14.3-0.3","battery-v0.2","","""event"",""trial"",""time""
""fullscreenenter"",""1"",""11581""
","
","
","""event"",""trial"",""time""
""fullscreenenter"",""1"",""11581""
","
","","","1303","","","11","16591","6533","&#9826;","elianto","#f73b6a7A","-1"," ","0","-10","[2154,3366,4107]","3","0","3","","","","","","","",""
"pit-trial","75","622861","0.0-2.0-14.3-1.3","battery-v0.2","","""event"",""trial"",""time""
""fullscreenenter"",""1"",""11581""
","
","
","""event"",""trial"",""time""
""fullscreenenter"",""1"",""11581""
","
","","","829","","","11","16591","6533","&#9826;","elianto","#f73b6a7A","-1"," ","0","-10","[1679]","1","0","3","","","","","","","",""
"pit-trial","76","627717","0.0-2.0-14.3-2.3","battery-v0.2","","""event"",""trial"",""time""
""fullscreenenter"",""1"",""11581""
","
","
","""event"",""trial"",""time""
""fullscreenenter"",""1"",""11581""
","
","","","-1","","","11","16591","6533","&#9826;","elianto","#f73b6a7A","-1","-1","1","0","[]","0","0","3","","","","","","","",""
"pit-trial","77","632571","0.0-2.0-14.3-3.3","battery-v0.2","","""event"",""trial"",""time""
""fullscreenenter"",""1"",""11581""
","
","
","""event"",""trial"",""time""
""fullscreenenter"",""1"",""11581""
","
","","","-1","","","11","16591","6533","&#9826;","elianto","#f73b6a7A","-1","-1","1","-10","[]","0","0","3","","","","","","","",""
"pit-trial","78","637427","0.0-2.0-14.3-4.3","battery-v0.2","","""event"",""trial"",""time""
""fullscreenenter"",""1"",""11581""
","
","
","""event"",""trial"",""time""
""fullscreenenter"",""1"",""11581""
","
","","","-1","","","11","16591","6533","&#9826;","elianto","#f73b6a7A","-1","-1","1","0","[]","0","0","3","","","","","","","",""
"call-function","79","637430","0.0-2.0-15.0","battery-v0.2","","""event"",""trial"",""time""
""fullscreenenter"",""1"",""11581""
","
","
","""event"",""trial"",""time""
""fullscreenenter"",""1"",""11581""
","
","","","","","","","","","","","","","","","","","","","","","","","","","","",""
"pit-instructions","80","662287","0.0-2.0-16.0","battery-v0.2","","""event"",""trial"",""time""
""fullscreenenter"",""1"",""11581""
","
","
","""event"",""trial"",""time""
""fullscreenenter"",""1"",""11581""
","
","","[{""page_index"":0,""viewing_time"":6564},{""page_index"":1,""viewing_time"":8046},{""page_index"":2,""viewing_time"":4327},{""page_index"":3,""viewing_time"":5919}]","24856","","","","","","","","","","","","","","","","","","","","","","","",""
"pit-trial","81","666044","0.0-2.0-17.0-0.0","battery-v0.2","","""event"",""trial"",""time""
""fullscreenenter"",""1"",""11581""
","
","
","""event"",""trial"",""time""
""fullscreenenter"",""1"",""11581""
","
","","","901","","","11","16591","6533","&#9789;","elianto","#f73b6a7A"," "," ","1","0","[1752,2836,3743]","3","0","4","","","","","","","",""
"pit-trial","82","669217","0.0-2.0-17.0-1.0","battery-v0.2","","""event"",""trial"",""time""
""fullscreenenter"",""1"",""11581""
","
","
","""event"",""trial"",""time""
""fullscreenenter"",""1"",""11581""
","
","","","318","","","11","16591","6533","&#9789;","elianto","#f73b6a7A"," "," ","1","0","[253,1169]","2","0","4","","","","","","","",""
"pit-trial","83","672130","0.0-2.0-17.0-2.0","battery-v0.2","","""event"",""trial"",""time""
""fullscreenenter"",""1"",""11581""
","
","
","""event"",""trial"",""time""
""fullscreenenter"",""1"",""11581""
","
","","","59","","","11","16591","6533","&#9789;","elianto","#f73b6a7A"," "," ","1","0","[909,2241]","2","0","4","","","","","","","",""
"pit-trial","84","675079","0.0-2.0-17.0-3.0","battery-v0.2","","""event"",""trial"",""time""
""fullscreenenter"",""1"",""11581""
","
","
","""event"",""trial"",""time""
""fullscreenenter"",""1"",""11581""
","
","","","93","","","11","16591","6533","&#9789;","elianto","#f73b6a7A"," "," ","1","-10","[943,2436,2710]","3","0","4","","","","","","","",""
"pit-trial","85","678174","0.0-2.0-17.0-4.0","battery-v0.2","","""event"",""trial"",""time""
""fullscreenenter"",""1"",""11581""
","
","
","""event"",""trial"",""time""
""fullscreenenter"",""1"",""11581""
","
","","","238.99999999988358","","","11","16591","6533","&#9789;","elianto","#f73b6a7A"," "," ","1","0","[147.99999999988358,406.9999999998836,1089.9999999998836]","3","0","4","","","","","","","",""
"pit-trial","86","681093","0.0-2.0-17.1-0.1","battery-v0.2","","""event"",""trial"",""time""
""fullscreenenter"",""1"",""11581""
","
","
","""event"",""trial"",""time""
""fullscreenenter"",""1"",""11581""
","
","","","61.999999999883585","","","11","16591","6533","&#9789;","elianto","#f73b6a7A"," "," ","1","0","[912.9999999998836]","1","0","4","","","","","","","",""
"pit-trial","87","684018","0.0-2.0-17.1-1.1","battery-v0.2","","""event"",""trial"",""time""
""fullscreenenter"",""1"",""11581""
","
","
","""event"",""trial"",""time""
""fullscreenenter"",""1"",""11581""
","
","","","69","","","11","16591","6533","&#9789;","elianto","#f73b6a7A"," "," ","1","0","[921,2216]","2","0","4","","","","","","","",""
"pit-trial","88","687383","0.0-2.0-17.1-2.1","battery-v0.2","","""event"",""trial"",""time""
""fullscreenenter"",""1"",""11581""
","
","
","""event"",""trial"",""time""
""fullscreenenter"",""1"",""11581""
","
","","","508","","","11","16591","6533","&#9789;","elianto","#f73b6a7A"," "," ","1","0","[1359,1755]","2","0","4","","","","","","","",""
"pit-trial","89","690381","0.0-2.0-17.1-3.1","battery-v0.2","","""event"",""trial"",""time""
""fullscreenenter"",""1"",""11581""
","
","
","""event"",""trial"",""time""
""fullscreenenter"",""1"",""11581""
","
","","","143.00000000011642","","","11","16591","6533","&#9789;","elianto","#f73b6a7A"," "," ","1","-10","[994.0000000001164]","1","0","4","","","","","","","",""
"pit-trial","90","693264","0.0-2.0-17.1-4.1","battery-v0.2","","""event"",""trial"",""time""
""fullscreenenter"",""1"",""11581""
","
","
","""event"",""trial"",""time""
""fullscreenenter"",""1"",""11581""
","
","","","28","","","11","16591","6533","&#9789;","elianto","#f73b6a7A"," "," ","1","0","[879]","1","0","4","","","","","","","",""
"pit-trial","91","696402","0.0-2.0-17.2-0.2","battery-v0.2","","""event"",""trial"",""time""
""fullscreenenter"",""1"",""11581""
","
","
","""event"",""trial"",""time""
""fullscreenenter"",""1"",""11581""
","
","","","283","","","11","16591","6533","&#9789;","elianto","#f73b6a7A"," "," ","1","0","[1133]","1","0","4","","","","","","","",""
"pit-trial","92","699396","0.0-2.0-17.2-1.2","battery-v0.2","","""event"",""trial"",""time""
""fullscreenenter"",""1"",""11581""
","
","
","""event"",""trial"",""time""
""fullscreenenter"",""1"",""11581""
","
","","","138","","","11","16591","6533","&#9789;","elianto","#f73b6a7A"," "," ","1","0","[989]","1","0","4","","","","","","","",""
"pit-trial","93","702381","0.0-2.0-17.2-2.2","battery-v0.2","","""event"",""trial"",""time""
""fullscreenenter"",""1"",""11581""
","
","
","""event"",""trial"",""time""
""fullscreenenter"",""1"",""11581""
","
","","","131.00000000011642","","","11","16591","6533","&#9789;","elianto","#f73b6a7A"," "," ","1","0","[981.0000000001164]","1","0","4","","","","","","","",""
"pit-trial","94","706214","0.0-2.0-17.2-3.2","battery-v0.2","","""event"",""trial"",""time""
""fullscreenenter"",""1"",""11581""
","
","
","""event"",""trial"",""time""
""fullscreenenter"",""1"",""11581""
","
","","","978","","","11","16591","6533","&#9789;","elianto","#f73b6a7A"," "," ","1","-10","[1829,3162,3475,3713]","4","0","4","","","","","","","",""
"pit-trial","95","709518","0.0-2.0-17.2-4.2","battery-v0.2","","""event"",""trial"",""time""
""fullscreenenter"",""1"",""11581""
","
","
","""event"",""trial"",""time""
""fullscreenenter"",""1"",""11581""
","
","","","449","","","11","16591","6533","&#9789;","elianto","#f73b6a7A"," "," ","1","0","[409,678,1300,1842,2237,2589,2945]","7","0","4","","","","","","","",""
"pit-trial","96","713172","0.0-2.0-17.3-0.3","battery-v0.2","","""event"",""trial"",""time""
""fullscreenenter"",""1"",""11581""
","
","
","""event"",""trial"",""time""
""fullscreenenter"",""1"",""11581""
","
","","","795","","","11","16591","6533","&#9789;","elianto","#f73b6a7A"," "," ","1","0","[119.00000000011642,337,1649,2717]","4","0","4","","","","","","","",""
"pit-trial","97","716898","0.0-2.0-17.3-1.3","battery-v0.2","","""event"",""trial"",""time""
""fullscreenenter"",""1"",""11581""
","
","
","""event"",""trial"",""time""
""fullscreenenter"",""1"",""11581""
","
","","","872","","","11","16591","6533","&#9789;","elianto","#f73b6a7A"," "," ","1","0","[1722]","1","0","4","","","","","","","",""
"pit-trial","98","720245","0.0-2.0-17.3-2.3","battery-v0.2","","""event"",""trial"",""time""
""fullscreenenter"",""1"",""11581""
","
","
","""event"",""trial"",""time""
""fullscreenenter"",""1"",""11581""
","
","","","492","","","11","16591","6533","&#9789;","elianto","#f73b6a7A"," "," ","1","0","[1342]","1","0","4","","","","","","","",""
"pit-trial","99","723928","0.0-2.0-17.3-3.3","battery-v0.2","","""event"",""trial"",""time""
""fullscreenenter"",""1"",""11581""
","
","
","""event"",""trial"",""time""
""fullscreenenter"",""1"",""11581""
","
","","","828","","","11","16591","6533","&#9789;","elianto","#f73b6a7A"," "," ","1","-10","[1678]","1","0","4","","","","","","","",""
"pit-trial","100","727389","0.0-2.0-17.3-4.3","battery-v0.2","","""event"",""trial"",""time""
""fullscreenenter"",""1"",""11581""
","
","
","""event"",""trial"",""time""
""fullscreenenter"",""1"",""11581""
","
","","","606","","","11","16591","6533","&#9789;","elianto","#f73b6a7A"," "," ","1","0","[1456,2621.0000000001164,3165]","3","0","4","","","","","","","",""
"call-function","101","727392","0.0-2.0-18.0","battery-v0.2","","""event"",""trial"",""time""
""fullscreenenter"",""1"",""11581""
","
","
","""event"",""trial"",""time""
""fullscreenenter"",""1"",""11581""
","
","","","","","","","","","","","","","","","","","","","","","","","","","","",""
"pit-instructions","102","794255","0.0-2.0-19.0","battery-v0.2","","""event"",""trial"",""time""
""fullscreenenter"",""1"",""11581""
","
","
","""event"",""trial"",""time""
""fullscreenenter"",""1"",""11581""
","
","","[{""page_index"":0,""viewing_time"":8890},{""page_index"":1,""viewing_time"":5233.000000000116},{""page_index"":2,""viewing_time"":12802.999999999884},{""page_index"":3,""viewing_time"":6987},{""page_index"":4,""viewing_time"":7924},{""page_index"":5,""viewing_time"":8179},{""page_index"":6,""viewing_time"":7997},{""page_index"":7,""viewing_time"":5276},{""page_index"":8,""viewing_time"":3573}]","66863.00000000012","","","","","","","","","","","","","","","","","","","","","","","",""
"pit-comprehension","103","801530","0.0-2.0-20.0-0.0","battery-v0.2","","""event"",""trial"",""time""
""fullscreenenter"",""1"",""11581""
","
","
","""event"",""trial"",""time""
""fullscreenenter"",""1"",""11581""
","
","","","7270.000000000116","[""SPACE""]","0","11","16591","6533","","","","","","","","","","","","","","","","","","",""
"pit-instructions","104","804960","0.0-2.0-20.0-1.0","battery-v0.2","","""event"",""trial"",""time""
""fullscreenenter"",""1"",""11581""
","
","
","""event"",""trial"",""time""
""fullscreenenter"",""1"",""11581""
","
","","[{""page_index"":0,""viewing_time"":3366}]","3366","","","","","","","","","","","","","","","","","","","","","","","",""
"pit-comprehension","105","811784","0.0-2.0-21.0-0.0","battery-v0.2","","""event"",""trial"",""time""
""fullscreenenter"",""1"",""11581""
","
","
","""event"",""trial"",""time""
""fullscreenenter"",""1"",""11581""
","
","","","6820.000000000116","[""10""]","0","11","16591","6533","","","","","","","","","","","","","","","","","","",""
"pit-instructions","106","813442","0.0-2.0-21.0-1.0","battery-v0.2","","""event"",""trial"",""time""
""fullscreenenter"",""1"",""11581""
","
","
","""event"",""trial"",""time""
""fullscreenenter"",""1"",""11581""
","
","","[{""page_index"":0,""viewing_time"":1595}]","1595","","","","","","","","","","","","","","","","","","","","","","","",""
"pit-comprehension","107","820281","0.0-2.0-22.0-0.0","battery-v0.2","","""event"",""trial"",""time""
""fullscreenenter"",""1"",""11581""
","
","
","""event"",""trial"",""time""
""fullscreenenter"",""1"",""11581""
","
","","","6833","[""0""]","0","11","16591","6533","","","","","","","","","","","","","","","","","","",""
"pit-instructions","108","821887","0.0-2.0-22.0-1.0","battery-v0.2","","""event"",""trial"",""time""
""fullscreenenter"",""1"",""11581""
","
","
","""event"",""trial"",""time""
""fullscreenenter"",""1"",""11581""
","
","","[{""page_index"":0,""viewing_time"":1540}]","1541","","","","","","","","","","","","","","","","","","","","","","","",""
"pit-comprehension","109","836595","0.0-2.0-23.0-0.0","battery-v0.2","","""event"",""trial"",""time""
""fullscreenenter"",""1"",""11581""
","
","
","""event"",""trial"",""time""
""fullscreenenter"",""1"",""11581""
","
","","","14703","[""True""]","0","11","16591","6533","","","","","","","","","","","","","","","","","","",""
"pit-instructions","110","838207","0.0-2.0-23.0-1.0","battery-v0.2","","""event"",""trial"",""time""
""fullscreenenter"",""1"",""11581""
","
","
","""event"",""trial"",""time""
""fullscreenenter"",""1"",""11581""
","
","","[{""page_index"":0,""viewing_time"":1546}]","1547.0000000001164","","","","","","","","","","","","","","","","","","","","","","","",""
"pit-comprehension","111","845726","0.0-2.0-24.0-0.0","battery-v0.2","","""event"",""trial"",""time""
""fullscreenenter"",""1"",""11581""
","
","
","""event"",""trial"",""time""
""fullscreenenter"",""1"",""11581""
","
","","","7515","[""True""]","0","11","16591","6533","","","","","","","","","","","","","","","","","","",""
"pit-instructions","112","848060","0.0-2.0-24.0-1.0","battery-v0.2","","""event"",""trial"",""time""
""fullscreenenter"",""1"",""11581""
","
","
","""event"",""trial"",""time""
""fullscreenenter"",""1"",""11581""
","
","","[{""page_index"":0,""viewing_time"":2269}]","2270","","","","","","","","","","","","","","","","","","","","","","","",""
"pit-comprehension","113","854346","0.0-2.0-25.0-0.0","battery-v0.2","","""event"",""trial"",""time""
""fullscreenenter"",""1"",""11581""
","
","
","""event"",""trial"",""time""
""fullscreenenter"",""1"",""11581""
","
","","","6282.999999999884","[""True""]","0","11","16591","6533","","","","","","","","","","","","","","","","","","",""
"pit-instructions","114","855947","0.0-2.0-25.0-1.0","battery-v0.2","","""event"",""trial"",""time""
""fullscreenenter"",""1"",""11581""
","
","
","""event"",""trial"",""time""
""fullscreenenter"",""1"",""11581""
","
","","[{""page_index"":0,""viewing_time"":1488.9999999998836}]","1489.9999999998836","","","","","","","","","","","","","","","","","","","","","","","",""
"pit-comprehension","115","860719","0.0-2.0-26.0-0.0","battery-v0.2","","""event"",""trial"",""time""
""fullscreenenter"",""1"",""11581""
","
","
","""event"",""trial"",""time""
""fullscreenenter"",""1"",""11581""
","
","","","4767","[""False""]","0","11","16591","6533","","","","","","","","","","","","","","","","","","",""
"pit-instructions","116","862294","0.0-2.0-26.0-1.0","battery-v0.2","","""event"",""trial"",""time""
""fullscreenenter"",""1"",""11581""
","
","
","""event"",""trial"",""time""
""fullscreenenter"",""1"",""11581""
","
","","[{""page_index"":0,""viewing_time"":1505}]","1507","","","","","","","","","","","","","","","","","","","","","","","",""
"pit-instructions","117","878439","0.0-3.0","battery-v0.2","","""event"",""trial"",""time""
""fullscreenenter"",""1"",""11581""
","
","
","""event"",""trial"",""time""
""fullscreenenter"",""1"",""11581""
","
","","[{""page_index"":0,""viewing_time"":4013},{""page_index"":1,""viewing_time"":5957},{""page_index"":2,""viewing_time"":6171.000000000116}]","16142","","","","","","","","","","","","","","","","","","","","","","","",""
"pit-trial","118","882218","0.0-4.0","battery-v0.2","","""event"",""trial"",""time""
""fullscreenenter"",""1"",""11581""
","
","
","""event"",""trial"",""time""
""fullscreenenter"",""1"",""11581""
","
","","","919","","","11","16591","6533","&#9728;","elianto","#f73b6a7A","-1"," ","0","-10","[1770]","1","1","","","16591","1","0","4","lose","no-go","0"
"pit-trial","119","885626","0.0-5.0","battery-v0.2","","""event"",""trial"",""time""
""fullscreenenter"",""1"",""11581""
","
","
","""event"",""trial"",""time""
""fullscreenenter"",""1"",""11581""
","
","","","552","","","11","16591","6533","&#9733;","elianto","#3366ff99","-1"," ","0","+10","[1402]","1","1","","","16591","2","2","2","win","no-go","1"
"pit-trial","120","889426","0.0-6.0","battery-v0.2","","""event"",""trial"",""time""
""fullscreenenter"",""1"",""11581""
","
","
","""event"",""trial"",""time""
""fullscreenenter"",""1"",""11581""
","
","","","945","","","11","16591","6533","&#9730;","elianto","#3366ff99"," "," ","1","+10","[1795]","1","1","","","16591","3","1","1","win","go","0"
"pit-trial","121","893394","0.0-7.0","battery-v0.2","","""event"",""trial"",""time""
""fullscreenenter"",""1"",""11581""
","
","
","""event"",""trial"",""time""
""fullscreenenter"",""1"",""11581""
","
","","","1113","","","11","16591","6533","&#9752;","elianto","#f73b6a7A"," "," ","1","0","[1964]","1","1","","","16591","4","3","3","lose","go","0"
"pit-trial","122","898250","0.0-8.0","battery-v0.2","","""event"",""trial"",""time""
""fullscreenenter"",""1"",""11581""
","
","
","""event"",""trial"",""time""
""fullscreenenter"",""1"",""11581""
","
","","","-1","","","11","16591","6533","&#9728;","elianto","#f73b6a7A","-1","-1","1","0","[]","0","1","","","16591","5","0","4","lose","no-go","0"
"pit-trial","123","902032","0.0-9.0","battery-v0.2","","""event"",""trial"",""time""
""fullscreenenter"",""1"",""11581""
","
","
","""event"",""trial"",""time""
""fullscreenenter"",""1"",""11581""
","
","","","926","","","11","16591","6533","&#9730;","elianto","#3366ff99"," "," ","1","+10","[1777]","1","1","","","16591","6","1","1","win","go","0"
"pit-trial","124","905732","0.0-10.0","battery-v0.2","","""event"",""trial"",""time""
""fullscreenenter"",""1"",""11581""
","
","
","""event"",""trial"",""time""
""fullscreenenter"",""1"",""11581""
","
","","","844.9999999998836","","","11","16591","6533","&#9752;","elianto","#f73b6a7A"," "," ","1","0","[1695]","1","1","","","16591","7","3","3","lose","go","0"
"pit-trial","125","909281","0.0-11.0","battery-v0.2","","""event"",""trial"",""time""
""fullscreenenter"",""1"",""11581""
","
","
","""event"",""trial"",""time""
""fullscreenenter"",""1"",""11581""
","
","","","695","","","11","16591","6533","&#9733;","elianto","#3366ff99","-1"," ","0","0","[1545]","1","1","","","16591","8","2","2","win","no-go","0"
"pit-trial","126","912712","0.0-12.0","battery-v0.2","","""event"",""trial"",""time""
""fullscreenenter"",""1"",""11581""
","
","
","""event"",""trial"",""time""
""fullscreenenter"",""1"",""11581""
","
","","","574.9999999998836","","","11","16591","6533","&#9733;","elianto","#3366ff99","-1"," ","0","0","[1425.9999999998836]","1","1","","","16591","9","2","2","win","no-go","0"
"pit-trial","127","916733","0.0-13.0","battery-v0.2","","""event"",""trial"",""time""
""fullscreenenter"",""1"",""11581""
","
","
","""event"",""trial"",""time""
""fullscreenenter"",""1"",""11581""
","
","","","1165","","","11","16591","6533","&#9752;","elianto","#f73b6a7A"," "," ","1","-10","[2016]","1","1","","","16591","10","3","3","lose","go","1"
"pit-trial","128","921589","0.0-14.0","battery-v0.2","","""event"",""trial"",""time""
""fullscreenenter"",""1"",""11581""
","
","
","""event"",""trial"",""time""
""fullscreenenter"",""1"",""11581""
","
","","","-1","","","11","16591","6533","&#9728;","elianto","#f73b6a7A","-1","-1","1","0","[]","0","1","","","16591","11","0","4","lose","no-go","0"
"pit-trial","129","925552","0.0-15.0","battery-v0.2","","""event"",""trial"",""time""
""fullscreenenter"",""1"",""11581""
","
","
","""event"",""trial"",""time""
""fullscreenenter"",""1"",""11581""
","
","","","1108","","","11","16591","6533","&#9730;","elianto","#3366ff99"," "," ","1","+10","[1960]","1","1","","","16591","12","1","1","win","go","0"
"pit-trial","130","930408","0.0-16.0","battery-v0.2","","""event"",""trial"",""time""
""fullscreenenter"",""1"",""11581""
","
","
","""event"",""trial"",""time""
""fullscreenenter"",""1"",""11581""
","
","","","-1","","","11","16591","6533","&#9728;","elianto","#f73b6a7A","-1","-1","1","0","[]","0","1","","","16591","13","0","4","lose","no-go","0"
"pit-trial","131","934581","0.0-17.0","battery-v0.2","","""event"",""trial"",""time""
""fullscreenenter"",""1"",""11581""
","
","
","""event"",""trial"",""time""
""fullscreenenter"",""1"",""11581""
","
","","","1317","","","11","16591","6533","&#9730;","elianto","#3366ff99"," "," ","1","+10","[2168]","1","1","","","16591","14","1","1","win","go","0"
"pit-trial","132","939017","0.0-18.0","battery-v0.2","","""event"",""trial"",""time""
""fullscreenenter"",""1"",""11581""
","
","
","""event"",""trial"",""time""
""fullscreenenter"",""1"",""11581""
","
","","","1581","","","11","16591","6533","&#9752;","elianto","#f73b6a7A"," "," ","1","0","[2431]","1","1","","","16591","15","3","3","lose","go","0"
"pit-trial","133","943009","0.0-19.0","battery-v0.2","","""event"",""trial"",""time""
""fullscreenenter"",""1"",""11581""
","
","
","""event"",""trial"",""time""
""fullscreenenter"",""1"",""11581""
","
","","","1136","","","11","16591","6533","&#9733;","elianto","#3366ff99","-1"," ","0","0","[1987]","1","1","","","16591","16","2","2","win","no-go","0"
"pit-trial","134","947244","0.0-20.0","battery-v0.2","","""event"",""trial"",""time""
""fullscreenenter"",""1"",""11581""
","
","
","""event"",""trial"",""time""
""fullscreenenter"",""1"",""11581""
","
","","","1378","","","11","16591","6533","&#9752;","elianto","#f73b6a7A"," "," ","1","-10","[2230]","1","1","","","16591","17","3","3","lose","go","1"
"pit-trial","135","952077","0.0-21.0","battery-v0.2","","""event"",""trial"",""time""
""fullscreenenter"",""1"",""11581""
","
","
","""event"",""trial"",""time""
""fullscreenenter"",""1"",""11581""
","
","","","1977","","","11","16591","6533","&#9733;","elianto","#3366ff99","-1"," ","0","0","[2827]","1","1","","","16591","18","2","2","win","no-go","0"
"pit-trial","136","956358","0.0-22.0","battery-v0.2","","""event"",""trial"",""time""
""fullscreenenter"",""1"",""11581""
","
","
","""event"",""trial"",""time""
""fullscreenenter"",""1"",""11581""
","
","","","1425.0000000001164","","","11","16591","6533","&#9730;","elianto","#3366ff99"," "," ","1","+10","[2276.0000000001164]","1","1","","","16591","19","1","1","win","go","0"
"pit-trial","137","961214","0.0-23.0","battery-v0.2","","""event"",""trial"",""time""
""fullscreenenter"",""1"",""11581""
","
","
","""event"",""trial"",""time""
""fullscreenenter"",""1"",""11581""
","
","","","-1","","","11","16591","6533","&#9728;","elianto","#f73b6a7A","-1","-1","1","0","[]","0","1","","","16591","20","0","4","lose","no-go","0"
"pit-instructions","138","974946","0.0-24.0","battery-v0.2","","""event"",""trial"",""time""
""fullscreenenter"",""1"",""11581""
","
","
","""event"",""trial"",""time""
""fullscreenenter"",""1"",""11581""
","
","","[{""page_index"":0,""viewing_time"":5646},{""page_index"":1,""viewing_time"":8081}]","13729","","","","","","","","","","","","","","","","","","","","","","","",""
"pit-trial","139","979804","0.0-25.0","battery-v0.2","","""event"",""trial"",""time""
""fullscreenenter"",""1"",""11581""
","
","
","""event"",""trial"",""time""
""fullscreenenter"",""1"",""11581""
","
","","","-1","","","11","16591","6533","h","elianto","#f73b6a7A","-1","-1","1","-10","[]","0","2","","","16591","21","3","4","lose","no-go","1"
"pit-trial","140","983592","0.0-26.0","battery-v0.2","","""event"",""trial"",""time""
""fullscreenenter"",""1"",""11581""
","
","
","""event"",""trial"",""time""
""fullscreenenter"",""1"",""11581""
","
","","","932","","","11","16591","6533","y","elianto","#f73b6a7A"," "," ","1","0","[1783]","1","2","","","16591","22","2","3","lose","go","0"
"pit-trial","141","986466","0.0-27.0","battery-v0.2","","""event"",""trial"",""time""
""fullscreenenter"",""1"",""11581""
","
","
","""event"",""trial"",""time""
""fullscreenenter"",""1"",""11581""
","
","","","20","","","11","16591","6533","r","elianto","#3366ff99","-1"," ","0","+10","[870]","1","2","","","16591","23","1","2","win","no-go","1"
"pit-trial","142","990196","0.0-28.0","battery-v0.2","","""event"",""trial"",""time""
""fullscreenenter"",""1"",""11581""
","
","
","""event"",""trial"",""time""
""fullscreenenter"",""1"",""11581""
","
","","","877","","","11","16591","6533","m","elianto","#f73b6a7A"," "," ","1","0","[1727]","1","2","","","16591","24","0","3","lose","go","0"
"pit-trial","143","993903","0.0-29.0","battery-v0.2","","""event"",""trial"",""time""
""fullscreenenter"",""1"",""11581""
","
","
","""event"",""trial"",""time""
""fullscreenenter"",""1"",""11581""
","
","","","852","","","11","16591","6533","y","elianto","#f73b6a7A"," "," ","1","-10","[1702]","1","2","","","16591","25","2","3","lose","go","1"
"pit-trial","144","997485","0.0-30.0","battery-v0.2","","""event"",""trial"",""time""
""fullscreenenter"",""1"",""11581""
","
","
","""event"",""trial"",""time""
""fullscreenenter"",""1"",""11581""
","
","","","726","","","11","16591","6533","m","elianto","#f73b6a7A"," "," ","1","0","[1578,2298]","2","2","","","16591","26","0","3","lose","go","0"
"pit-trial","145","1000960","0.0-31.0","battery-v0.2","","""event"",""trial"",""time""
""fullscreenenter"",""1"",""11581""
","
","
","""event"",""trial"",""time""
""fullscreenenter"",""1"",""11581""
","
","","","619","","","11","16591","6533","r","elianto","#3366ff99","-1"," ","0","0","[1470]","1","2","","","16591","27","1","2","win","no-go","0"
"pit-trial","146","1005391","0.0-32.0","battery-v0.2","","""event"",""trial"",""time""
""fullscreenenter"",""1"",""11581""
","
","
","""event"",""trial"",""time""
""fullscreenenter"",""1"",""11581""
","
","","","1575.0000000001164","","","11","16591","6533","h","elianto","#f73b6a7A","-1"," ","0","-10","[2427.0000000001164]","1","2","","","16591","28","3","4","lose","no-go","0"
"pit-trial","147","1008800","0.0-33.0","battery-v0.2","","""event"",""trial"",""time""
""fullscreenenter"",""1"",""11581""
","
","
","""event"",""trial"",""time""
""fullscreenenter"",""1"",""11581""
","
","","","553","","","11","16591","6533","r","elianto","#3366ff99","-1"," ","0","0","[407,1404]","2","2","","","16591","29","1","2","win","no-go","0"
"pit-trial","148","1013656","0.0-34.0","battery-v0.2","","""event"",""trial"",""time""
""fullscreenenter"",""1"",""11581""
","
","
","""event"",""trial"",""time""
""fullscreenenter"",""1"",""11581""
","
","","","-1","","","11","16591","6533","m","elianto","#f73b6a7A"," ","-1","0","-10","[]","0","2","","","16591","30","0","3","lose","go","0"
"pit-trial","149","1018512","0.0-35.0","battery-v0.2","","""event"",""trial"",""time""
""fullscreenenter"",""1"",""11581""
","
","
","""event"",""trial"",""time""
""fullscreenenter"",""1"",""11581""
","
","","","-1","","","11","16591","6533","y","elianto","#f73b6a7A"," ","-1","0","-10","[]","0","2","","","16591","31","2","3","lose","go","0"
"pit-trial","150","1023368","0.0-36.0","battery-v0.2","","""event"",""trial"",""time""
""fullscreenenter"",""1"",""11581""
","
","
","""event"",""trial"",""time""
""fullscreenenter"",""1"",""11581""
","
","","","-1","","","11","16591","6533","h","elianto","#f73b6a7A","-1","-1","1","0","[]","0","2","","","16591","32","3","4","lose","no-go","0"
"pit-trial","151","1028224","0.0-37.0","battery-v0.2","","""event"",""trial"",""time""
""fullscreenenter"",""1"",""11581""
","
","
","""event"",""trial"",""time""
""fullscreenenter"",""1"",""11581""
","
","","","-1","","","11","16591","6533","y","elianto","#f73b6a7A"," ","-1","0","-10","[]","0","2","","","16591","33","2","3","lose","go","0"
"pit-trial","152","1033080","0.0-38.0","battery-v0.2","","""event"",""trial"",""time""
""fullscreenenter"",""1"",""11581""
","
","
","""event"",""trial"",""time""
""fullscreenenter"",""1"",""11581""
","
","","","-1","","","11","16591","6533","r","elianto","#3366ff99","-1","-1","1","+10","[]","0","2","","","16591","34","1","2","win","no-go","0"
"pit-trial","153","1037935","0.0-39.0","battery-v0.2","","""event"",""trial"",""time""
""fullscreenenter"",""1"",""11581""
","
","
","""event"",""trial"",""time""
""fullscreenenter"",""1"",""11581""
","
","","","-1","","","11","16591","6533","m","elianto","#f73b6a7A"," ","-1","0","-10","[]","0","2","","","16591","35","0","3","lose","go","0"
"pit-trial","154","1041780","0.0-40.0","battery-v0.2","","""event"",""trial"",""time""
""fullscreenenter"",""1"",""11581""
","
","
","""event"",""trial"",""time""
""fullscreenenter"",""1"",""11581""
","
","","","988.0000000001164","","","11","16591","6533","h","elianto","#f73b6a7A","-1"," ","0","-10","[119,646,1839,2536.0000000001164]","4","2","","","16591","36","3","4","lose","no-go","0"
"pit-trial","155","1046636","0.0-41.0","battery-v0.2","","""event"",""trial"",""time""
""fullscreenenter"",""1"",""11581""
","
","
","""event"",""trial"",""time""
""fullscreenenter"",""1"",""11581""
","
","","","-1","","","11","16591","6533","r","elianto","#3366ff99","-1","-1","1","+10","[4292.999999999884]","1","2","","","16591","37","1","2","win","no-go","0"
"pit-trial","156","1050502","0.0-42.0","battery-v0.2","","""event"",""trial"",""time""
""fullscreenenter"",""1"",""11581""
","
","
","""event"",""trial"",""time""
""fullscreenenter"",""1"",""11581""
","
","","","1012","","","11","16591","6533","h","elianto","#f73b6a7A","-1"," ","0","-10","[1862,2918,3319,3585.000000000233]","4","2","","","16591","38","3","4","lose","no-go","0"
"pit-trial","157","1053524","0.0-43.0","battery-v0.2","","""event"",""trial"",""time""
""fullscreenenter"",""1"",""11581""
","
","
","""event"",""trial"",""time""
""fullscreenenter"",""1"",""11581""
","
","","","166.00000000023283","","","11","16591","6533","m","elianto","#f73b6a7A"," "," ","1","0","[30,291,561,793,1016.0000000002328,1186,1378,1584,1760,1922,2060,2222,2381.000000000233,2527,2673,2838]","16","2","","","16591","39","0","3","lose","go","0"
"pit-trial","158","1056464","0.0-44.0","battery-v0.2","","""event"",""trial"",""time""
""fullscreenenter"",""1"",""11581""
","
","
","""event"",""trial"",""time""
""fullscreenenter"",""1"",""11581""
","
","","","85","","","11","16591","6533","y","elianto","#f73b6a7A"," "," ","1","0","[240,392,539,672,816,935,1057,1191,1320,1430,1559,1708,1868,2025,2180,2316,2444,2583,2732,2880]","20","2","","","16591","40","2","3","lose","go","0"
"pit-trial","159","1059346","0.0-45.0","battery-v0.2","","""event"",""trial"",""time""
""fullscreenenter"",""1"",""11581""
","
","
","""event"",""trial"",""time""
""fullscreenenter"",""1"",""11581""
","
","","","26","","","11","16591","6533","y","elianto","#f73b6a7A"," "," ","1","0","[104,274,441,589,727.0000000002328,877,1030,1188,1346,1508,1663,1837,1985,2120,2287,2430,2589,2757]","18","2","","","16591","41","2","3","lose","go","0"
"pit-trial","160","1062294","0.0-46.0","battery-v0.2","","""event"",""trial"",""time""
""fullscreenenter"",""1"",""11581""
","
","
","""event"",""trial"",""time""
""fullscreenenter"",""1"",""11581""
","
","","","93","","","11","16591","6533","m","elianto","#f73b6a7A"," "," ","1","-10","[32.99999999976717,214.99999999976717,384.99999999976717,554.9999999997672,723.9999999997672,943.9999999997672,1080.9999999997672,1238.9999999997672,1392.9999999997672,1531.9999999997672,1675.9999999997672,1822.9999999997672,1987.9999999997672,2136.999999999767,2298,2466.999999999767,2619.999999999767,2757.999999999767,2902.999999999767]","19","2","","","16591","42","0","3","lose","go","1"
"pit-trial","161","1065190","0.0-47.0","battery-v0.2","","""event"",""trial"",""time""
""fullscreenenter"",""1"",""11581""
","
","
","""event"",""trial"",""time""
""fullscreenenter"",""1"",""11581""
","
","","","41","","","11","16591","6533","r","elianto","#3366ff99","-1"," ","0","0","[98,235,373,721,892,1050]","6","2","","","16591","43","1","2","win","no-go","0"
"pit-trial","162","1070046","0.0-48.0","battery-v0.2","","""event"",""trial"",""time""
""fullscreenenter"",""1"",""11581""
","
","
","""event"",""trial"",""time""
""fullscreenenter"",""1"",""11581""
","
","","","-1","","","11","16591","6533","h","elianto","#f73b6a7A","-1","-1","1","-10","[]","0","2","","","16591","44","3","4","lose","no-go","1"
"pit-trial","163","1074902","0.0-49.0","battery-v0.2","","""event"",""trial"",""time""
""fullscreenenter"",""1"",""11581""
","
","
","""event"",""trial"",""time""
""fullscreenenter"",""1"",""11581""
","
","","","-1","","","11","16591","6533","m","elianto","#f73b6a7A"," ","-1","0","-10","[]","0","2","","","16591","45","0","3","lose","go","0"
"pit-trial","164","1079757","0.0-50.0","battery-v0.2","","""event"",""trial"",""time""
""fullscreenenter"",""1"",""11581""
","
","
","""event"",""trial"",""time""
""fullscreenenter"",""1"",""11581""
","
","","","-1","","","11","16591","6533","y","elianto","#f73b6a7A"," ","-1","0","-10","[]","0","2","","","16591","46","2","3","lose","go","0"
"pit-trial","165","1084612","0.0-51.0","battery-v0.2","","""event"",""trial"",""time""
""fullscreenenter"",""1"",""11581""
","
","
","""event"",""trial"",""time""
""fullscreenenter"",""1"",""11581""
","
","","","-1","","","11","16591","6533","r","elianto","#3366ff99","-1","-1","1","+10","[]","0","2","","","16591","47","1","2","win","no-go","0"
"pit-trial","166","1089468","0.0-52.0","battery-v0.2","","""event"",""trial"",""time""
""fullscreenenter"",""1"",""11581""
","
","
","""event"",""trial"",""time""
""fullscreenenter"",""1"",""11581""
","
","","","-1","","","11","16591","6533","h","elianto","#f73b6a7A","-1","-1","1","0","[]","0","2","","","16591","48","3","4","lose","no-go","0"
"pit-trial","167","1094324","0.0-53.0","battery-v0.2","","""event"",""trial"",""time""
""fullscreenenter"",""1"",""11581""
","
","
","""event"",""trial"",""time""
""fullscreenenter"",""1"",""11581""
","
","","","-1","","","11","16591","6533","r","elianto","#3366ff99","-1","-1","1","+10","[]","0","2","","","16591","49","1","2","win","no-go","0"
"pit-trial","168","1099179","0.0-54.0","battery-v0.2","","""event"",""trial"",""time""
""fullscreenenter"",""1"",""11581""
","
","
","""event"",""trial"",""time""
""fullscreenenter"",""1"",""11581""
","
","","","-1","","","11","16591","6533","y","elianto","#f73b6a7A"," ","-1","0","-10","[]","0","2","","","16591","50","2","3","lose","go","0"
"pit-trial","169","1104034","0.0-55.0","battery-v0.2","","""event"",""trial"",""time""
""fullscreenenter"",""1"",""11581""
","
","
","""event"",""trial"",""time""
""fullscreenenter"",""1"",""11581""
","
","","","-1","","","11","16591","6533","h","elianto","#f73b6a7A","-1","-1","1","0","[]","0","2","","","16591","51","3","4","lose","no-go","0"
"pit-trial","170","1108890","0.0-56.0","battery-v0.2","","""event"",""trial"",""time""
""fullscreenenter"",""1"",""11581""
","
","
","""event"",""trial"",""time""
""fullscreenenter"",""1"",""11581""
","
","","","-1","","","11","16591","6533","m","elianto","#f73b6a7A"," ","-1","0","-10","[]","0","2","","","16591","52","0","3","lose","go","0"
"pit-trial","171","1113745","0.0-57.0","battery-v0.2","","""event"",""trial"",""time""
""fullscreenenter"",""1"",""11581""
","
","
","""event"",""trial"",""time""
""fullscreenenter"",""1"",""11581""
","
","","","-1","","","11","16591","6533","y","elianto","#f73b6a7A"," ","-1","0","-10","[]","0","2","","","16591","53","2","3","lose","go","0"
"pit-trial","172","1118600","0.0-58.0","battery-v0.2","","""event"",""trial"",""time""
""fullscreenenter"",""1"",""11581""
","
","
","""event"",""trial"",""time""
""fullscreenenter"",""1"",""11581""
","
","","","-1","","","11","16591","6533","h","elianto","#f73b6a7A","-1","-1","1","0","[]","0","2","","","16591","54","3","4","lose","no-go","0"
"pit-trial","173","1122247","0.0-59.0","battery-v0.2","","""event"",""trial"",""time""
""fullscreenenter"",""1"",""11581""
","
","
","""event"",""trial"",""time""
""fullscreenenter"",""1"",""11581""
","
","","","792","","","11","16591","6533","r","elianto","#3366ff99","-1"," ","0","0","[1643,3129]","2","2","","","16591","55","1","2","win","no-go","0"
"pit-trial","174","1127103","0.0-60.0","battery-v0.2","","""event"",""trial"",""time""
""fullscreenenter"",""1"",""11581""
","
","
","""event"",""trial"",""time""
""fullscreenenter"",""1"",""11581""
","
","","","-1","","","11","16591","6533","m","elianto","#f73b6a7A"," ","-1","0","-10","[]","0","2","","","16591","56","0","3","lose","go","0"
"pit-trial","175","1131959","0.0-61.0","battery-v0.2","","""event"",""trial"",""time""
""fullscreenenter"",""1"",""11581""
","
","
","""event"",""trial"",""time""
""fullscreenenter"",""1"",""11581""
","
","","","-1","","","11","16591","6533","m","elianto","#f73b6a7A"," ","-1","0","0","[]","0","2","","","16591","57","0","3","lose","go","1"
"pit-trial","176","1136815","0.0-62.0","battery-v0.2","","""event"",""trial"",""time""
""fullscreenenter"",""1"",""11581""
","
","
","""event"",""trial"",""time""
""fullscreenenter"",""1"",""11581""
","
","","","-1","","","11","16591","6533","z","elianto","#3366ff99"," ","-1","0","0","[]","0","2","","","16591","58","4","1","win","go","0"
"pit-trial","177","1141671","0.0-63.0","battery-v0.2","","""event"",""trial"",""time""
""fullscreenenter"",""1"",""11581""
","
","
","""event"",""trial"",""time""
""fullscreenenter"",""1"",""11581""
","
","","","-1","","","11","16591","6533","y","elianto","#f73b6a7A"," ","-1","0","-10","[]","0","2","","","16591","59","2","3","lose","go","0"
"pit-trial","178","1146526","0.0-64.0","battery-v0.2","","""event"",""trial"",""time""
""fullscreenenter"",""1"",""11581""
","
","
","""event"",""trial"",""time""
""fullscreenenter"",""1"",""11581""
","
","","","-1","","","11","16591","6533","h","elianto","#f73b6a7A","-1","-1","1","0","[]","0","2","","","16591","60","3","4","lose","no-go","0"
"pit-trial","179","1151214","0.0-65.0","battery-v0.2","","""event"",""trial"",""time""
""fullscreenenter"",""1"",""11581""
","
","
","""event"",""trial"",""time""
""fullscreenenter"",""1"",""11581""
","
","","","1834","","","11","16591","6533","z","elianto","#3366ff99"," "," ","1","+10","[2684]","1","2","","","16591","61","4","1","win","go","0"
"pit-trial","180","1156069","0.0-66.0","battery-v0.2","","""event"",""trial"",""time""
""fullscreenenter"",""1"",""11581""
","
","
","""event"",""trial"",""time""
""fullscreenenter"",""1"",""11581""
","
","","","-1","","","11","16591","6533","h","elianto","#f73b6a7A","-1","-1","1","-10","[]","0","2","","","16591","62","3","4","lose","no-go","1"
"pit-trial","181","1159771","0.0-67.0","battery-v0.2","","""event"",""trial"",""time""
""fullscreenenter"",""1"",""11581""
","
","
","""event"",""trial"",""time""
""fullscreenenter"",""1"",""11581""
","
","","","846","","","11","16591","6533","y","elianto","#f73b6a7A"," "," ","1","0","[1696]","1","2","","","16591","63","2","3","lose","go","0"
"pit-trial","182","1164084","0.0-68.0","battery-v0.2","","""event"",""trial"",""time""
""fullscreenenter"",""1"",""11581""
","
","
","""event"",""trial"",""time""
""fullscreenenter"",""1"",""11581""
","
","","","1455","","","11","16591","6533","r","elianto","#3366ff99","-1"," ","0","0","[2308]","1","2","","","16591","64","1","2","win","no-go","0"
"pit-trial","183","1168484","0.0-69.0","battery-v0.2","","""event"",""trial"",""time""
""fullscreenenter"",""1"",""11581""
","
","
","""event"",""trial"",""time""
""fullscreenenter"",""1"",""11581""
","
","","","1545.0000000002328","","","11","16591","6533","c","elianto","#3366ff99","-1"," ","0","0","[2396.000000000233]","1","2","","","16591","65","5","2","win","no-go","0"
"pit-trial","184","1173340","0.0-70.0","battery-v0.2","","""event"",""trial"",""time""
""fullscreenenter"",""1"",""11581""
","
","
","""event"",""trial"",""time""
""fullscreenenter"",""1"",""11581""
","
","","","-1","","","11","16591","6533","r","elianto","#3366ff99","-1","-1","1","+10","[]","0","2","","","16591","66","1","2","win","no-go","0"
"pit-trial","185","1178196","0.0-71.0","battery-v0.2","","""event"",""trial"",""time""
""fullscreenenter"",""1"",""11581""
","
","
","""event"",""trial"",""time""
""fullscreenenter"",""1"",""11581""
","
","","","-1","","","11","16591","6533","h","elianto","#f73b6a7A","-1","-1","1","0","[]","0","2","","","16591","67","3","4","lose","no-go","0"
"pit-trial","186","1183051","0.0-72.0","battery-v0.2","","""event"",""trial"",""time""
""fullscreenenter"",""1"",""11581""
","
","
","""event"",""trial"",""time""
""fullscreenenter"",""1"",""11581""
","
","","","-1","","","11","16591","6533","z","elianto","#3366ff99"," ","-1","0","0","[]","0","2","","","16591","68","4","1","win","go","0"
"pit-trial","187","1186653","0.0-73.0","battery-v0.2","","""event"",""trial"",""time""
""fullscreenenter"",""1"",""11581""
","
","
","""event"",""trial"",""time""
""fullscreenenter"",""1"",""11581""
","
","","","746.9999999997672","","","11","16591","6533","z","elianto","#3366ff99"," "," ","1","+10","[1599]","1","2","","","16591","69","4","1","win","go","0"
"pit-trial","188","1190589","0.0-74.0","battery-v0.2","","""event"",""trial"",""time""
""fullscreenenter"",""1"",""11581""
","
","
","""event"",""trial"",""time""
""fullscreenenter"",""1"",""11581""
","
","","","1081","","","11","16591","6533","c","elianto","#3366ff99","-1"," ","0","+10","[1931]","1","2","","","16591","70","5","2","win","no-go","1"
"pit-trial","189","1195445","0.0-75.0","battery-v0.2","","""event"",""trial"",""time""
""fullscreenenter"",""1"",""11581""
","
","
","""event"",""trial"",""time""
""fullscreenenter"",""1"",""11581""
","
","","","-1","","","11","16591","6533","r","elianto","#3366ff99","-1","-1","1","0","[]","0","2","","","16591","71","1","2","win","no-go","1"
"pit-trial","190","1199475","0.0-76.0","battery-v0.2","","""event"",""trial"",""time""
""fullscreenenter"",""1"",""11581""
","
","
","""event"",""trial"",""time""
""fullscreenenter"",""1"",""11581""
","
","","","1174","","","11","16591","6533","y","elianto","#f73b6a7A"," "," ","1","0","[2024]","1","2","","","16591","72","2","3","lose","go","0"
"pit-trial","191","1202893","0.0-77.0","battery-v0.2","","""event"",""trial"",""time""
""fullscreenenter"",""1"",""11581""
","
","
","""event"",""trial"",""time""
""fullscreenenter"",""1"",""11581""
","
","","","562","","","11","16591","6533","r","elianto","#3366ff99","-1"," ","0","0","[1413]","1","2","","","16591","73","1","2","win","no-go","0"
"pit-trial","192","1206904","0.0-78.0","battery-v0.2","","""event"",""trial"",""time""
""fullscreenenter"",""1"",""11581""
","
","
","""event"",""trial"",""time""
""fullscreenenter"",""1"",""11581""
","
","","","1154","","","11","16591","6533","h","elianto","#f73b6a7A","-1"," ","0","-10","[2006]","1","2","","","16591","74","3","4","lose","no-go","0"
"pit-trial","193","1211760","0.0-79.0","battery-v0.2","","""event"",""trial"",""time""
""fullscreenenter"",""1"",""11581""
","
","
","""event"",""trial"",""time""
""fullscreenenter"",""1"",""11581""
","
","","","-1","","","11","16591","6533","z","elianto","#3366ff99"," ","-1","0","0","[]","0","2","","","16591","75","4","1","win","go","0"
"pit-trial","194","1216615","0.0-80.0","battery-v0.2","","""event"",""trial"",""time""
""fullscreenenter"",""1"",""11581""
","
","
","""event"",""trial"",""time""
""fullscreenenter"",""1"",""11581""
","
","","","-1","","","11","16591","6533","c","elianto","#3366ff99","-1","-1","1","0","[2935]","1","2","","","16591","76","5","2","win","no-go","1"
"pit-trial","195","1220756","0.0-81.0","battery-v0.2","","""event"",""trial"",""time""
""fullscreenenter"",""1"",""11581""
","
","
","""event"",""trial"",""time""
""fullscreenenter"",""1"",""11581""
","
","","","1285","","","11","16591","6533","z","elianto","#3366ff99"," "," ","1","+10","[2135.999999999767]","1","2","","","16591","77","4","1","win","go","0"
"pit-trial","196","1225007","0.0-82.0","battery-v0.2","","""event"",""trial"",""time""
""fullscreenenter"",""1"",""11581""
","
","
","""event"",""trial"",""time""
""fullscreenenter"",""1"",""11581""
","
","","","1396","","","11","16591","6533","h","elianto","#f73b6a7A","-1"," ","0","-10","[2247]","1","2","","","16591","78","3","4","lose","no-go","0"
"pit-trial","197","1228696","0.0-83.0","battery-v0.2","","""event"",""trial"",""time""
""fullscreenenter"",""1"",""11581""
","
","
","""event"",""trial"",""time""
""fullscreenenter"",""1"",""11581""
","
","","","833","","","11","16591","6533","c","elianto","#3366ff99","-1"," ","0","0","[1684]","1","2","","","16591","79","5","2","win","no-go","0"
"pit-trial","198","1233553","0.0-84.0","battery-v0.2","","""event"",""trial"",""time""
""fullscreenenter"",""1"",""11581""
","
","
","""event"",""trial"",""time""
""fullscreenenter"",""1"",""11581""
","
","","","-1","","","11","16591","6533","z","elianto","#3366ff99"," ","-1","0","0","[3726.000000000233]","1","2","","","16591","80","4","1","win","go","0"
"pit-trial","199","1236959","0.0-85.0","battery-v0.2","","""event"",""trial"",""time""
""fullscreenenter"",""1"",""11581""
","
","
","""event"",""trial"",""time""
""fullscreenenter"",""1"",""11581""
","
","","","551.9999999997672","","","11","16591","6533","z","elianto","#3366ff99"," "," ","1","+10","[807,1402]","2","2","","","16591","81","4","1","win","go","0"
"pit-trial","200","1241815","0.0-86.0","battery-v0.2","","""event"",""trial"",""time""
""fullscreenenter"",""1"",""11581""
","
","
","""event"",""trial"",""time""
""fullscreenenter"",""1"",""11581""
","
","","","-1","","","11","16591","6533","h","elianto","#f73b6a7A","-1","-1","1","0","[]","0","2","","","16591","82","3","4","lose","no-go","0"
"pit-trial","201","1246670","0.0-87.0","battery-v0.2","","""event"",""trial"",""time""
""fullscreenenter"",""1"",""11581""
","
","
","""event"",""trial"",""time""
""fullscreenenter"",""1"",""11581""
","
","","","-1","","","11","16591","6533","t","elianto","#f73b6a7A","-1","-1","1","0","[]","0","2","","","16591","83","7","4","lose","no-go","0"
"pit-trial","202","1250025","0.0-88.0","battery-v0.2","","""event"",""trial"",""time""
""fullscreenenter"",""1"",""11581""
","
","
","""event"",""trial"",""time""
""fullscreenenter"",""1"",""11581""
","
","","","500","","","11","16591","6533","c","elianto","#3366ff99","-1"," ","0","0","[1351]","1","2","","","16591","84","5","2","win","no-go","0"
"pit-trial","203","1254881","0.0-89.0","battery-v0.2","","""event"",""trial"",""time""
""fullscreenenter"",""1"",""11581""
","
","
","""event"",""trial"",""time""
""fullscreenenter"",""1"",""11581""
","
","","","-1","","","11","16591","6533","z","elianto","#3366ff99"," ","-1","0","0","[]","0","2","","","16591","85","4","1","win","go","0"
"pit-trial","204","1259736","0.0-90.0","battery-v0.2","","""event"",""trial"",""time""
""fullscreenenter"",""1"",""11581""
","
","
","""event"",""trial"",""time""
""fullscreenenter"",""1"",""11581""
","
","","","-1","","","11","16591","6533","b","elianto","#f73b6a7A"," ","-1","0","-10","[]","0","2","","","16591","86","6","3","lose","go","0"
"pit-trial","205","1264591","0.0-91.0","battery-v0.2","","""event"",""trial"",""time""
""fullscreenenter"",""1"",""11581""
","
","
","""event"",""trial"",""time""
""fullscreenenter"",""1"",""11581""
","
","","","-1","","","11","16591","6533","c","elianto","#3366ff99","-1","-1","1","+10","[]","0","2","","","16591","87","5","2","win","no-go","0"
"pit-trial","206","1269241","0.0-92.0","battery-v0.2","","""event"",""trial"",""time""
""fullscreenenter"",""1"",""11581""
","
","
","""event"",""trial"",""time""
""fullscreenenter"",""1"",""11581""
","
","","","1793.9999999997672","","","11","16591","6533","t","elianto","#f73b6a7A","-1"," ","0","-10","[2644]","1","2","","","16591","88","7","4","lose","no-go","0"
"pit-trial","207","1274097","0.0-93.0","battery-v0.2","","""event"",""trial"",""time""
""fullscreenenter"",""1"",""11581""
","
","
","""event"",""trial"",""time""
""fullscreenenter"",""1"",""11581""
","
","","","-1","","","11","16591","6533","z","elianto","#3366ff99"," ","-1","0","0","[]","0","2","","","16591","89","4","1","win","go","0"
"pit-trial","208","1278186","0.0-94.0","battery-v0.2","","""event"",""trial"",""time""
""fullscreenenter"",""1"",""11581""
","
","
","""event"",""trial"",""time""
""fullscreenenter"",""1"",""11581""
","
","","","1234","","","11","16591","6533","c","elianto","#3366ff99","-1"," ","0","0","[2084]","1","2","","","16591","90","5","2","win","no-go","0"
"pit-trial","209","1282363","0.0-95.0","battery-v0.2","","""event"",""trial"",""time""
""fullscreenenter"",""1"",""11581""
","
","
","""event"",""trial"",""time""
""fullscreenenter"",""1"",""11581""
","
","","","1322","","","11","16591","6533","b","elianto","#f73b6a7A"," "," ","1","0","[2172]","1","2","","","16591","91","6","3","lose","go","0"
"pit-trial","210","1286786","0.0-96.0","battery-v0.2","","""event"",""trial"",""time""
""fullscreenenter"",""1"",""11581""
","
","
","""event"",""trial"",""time""
""fullscreenenter"",""1"",""11581""
","
","","","1569","","","11","16591","6533","t","elianto","#f73b6a7A","-1"," ","0","-10","[2419]","1","2","","","16591","92","7","4","lose","no-go","0"
"pit-trial","211","1291020","0.0-97.0","battery-v0.2","","""event"",""trial"",""time""
""fullscreenenter"",""1"",""11581""
","
","
","""event"",""trial"",""time""
""fullscreenenter"",""1"",""11581""
","
","","","1380","","","11","16591","6533","f","elianto","#3366ff99"," "," ","1","+10","[2230]","1","2","","","16591","93","8","1","win","go","0"
"pit-trial","212","1294829","0.0-98.0","battery-v0.2","","""event"",""trial"",""time""
""fullscreenenter"",""1"",""11581""
","
","
","""event"",""trial"",""time""
""fullscreenenter"",""1"",""11581""
","
","","","954","","","11","16591","6533","t","elianto","#f73b6a7A","-1"," ","0","-10","[1804]","1","2","","","16591","94","7","4","lose","no-go","0"
"pit-trial","213","1298532","0.0-99.0","battery-v0.2","","""event"",""trial"",""time""
""fullscreenenter"",""1"",""11581""
","
","
","""event"",""trial"",""time""
""fullscreenenter"",""1"",""11581""
","
","","","848","","","11","16591","6533","b","elianto","#f73b6a7A"," "," ","1","0","[1698]","1","2","","","16591","95","6","3","lose","go","0"
"pit-trial","214","1301866","0.0-100.0","battery-v0.2","","""event"",""trial"",""time""
""fullscreenenter"",""1"",""11581""
","
","
","""event"",""trial"",""time""
""fullscreenenter"",""1"",""11581""
","
","","","479","","","11","16591","6533","c","elianto","#3366ff99","-1"," ","0","0","[1330]","1","2","","","16591","96","5","2","win","no-go","0"
"pit-trial","215","1306721","0.0-101.0","battery-v0.2","","""event"",""trial"",""time""
""fullscreenenter"",""1"",""11581""
","
","
","""event"",""trial"",""time""
""fullscreenenter"",""1"",""11581""
","
","","","-1","","","11","16591","6533","b","elianto","#f73b6a7A"," ","-1","0","-10","[]","0","2","","","16591","97","6","3","lose","go","0"
"pit-trial","216","1311344","0.0-102.0","battery-v0.2","","""event"",""trial"",""time""
""fullscreenenter"",""1"",""11581""
","
","
","""event"",""trial"",""time""
""fullscreenenter"",""1"",""11581""
","
","","","1769","","","11","16591","6533","t","elianto","#f73b6a7A","-1"," ","0","-10","[2618.999999999767]","1","2","","","16591","98","7","4","lose","no-go","0"
"pit-trial","217","1316199","0.0-103.0","battery-v0.2","","""event"",""trial"",""time""
""fullscreenenter"",""1"",""11581""
","
","
","""event"",""trial"",""time""
""fullscreenenter"",""1"",""11581""
","
","","","-1","","","11","16591","6533","f","elianto","#3366ff99"," ","-1","0","0","[]","0","2","","","16591","99","8","1","win","go","0"
"pit-trial","218","1319689","0.0-104.0","battery-v0.2","","""event"",""trial"",""time""
""fullscreenenter"",""1"",""11581""
","
","
","""event"",""trial"",""time""
""fullscreenenter"",""1"",""11581""
","
","","","634","","","11","16591","6533","c","elianto","#3366ff99","-1"," ","0","0","[1485]","1","2","","","16591","100","5","2","win","no-go","0"
"pit-trial","219","1324545","0.0-105.0","battery-v0.2","","""event"",""trial"",""time""
""fullscreenenter"",""1"",""11581""
","
","
","""event"",""trial"",""time""
""fullscreenenter"",""1"",""11581""
","
","","","-1","","","11","16591","6533","c","elianto","#3366ff99","-1","-1","1","+10","[]","0","2","","","16591","101","5","2","win","no-go","0"
"pit-trial","220","1329401","0.0-106.0","battery-v0.2","","""event"",""trial"",""time""
""fullscreenenter"",""1"",""11581""
","
","
","""event"",""trial"",""time""
""fullscreenenter"",""1"",""11581""
","
","","","-1","","","11","16591","6533","n","elianto","#3366ff99"," ","-1","0","0","[]","0","2","","","16591","102","9","1","win","go","0"
"pit-trial","221","1333305","0.0-107.0","battery-v0.2","","""event"",""trial"",""time""
""fullscreenenter"",""1"",""11581""
","
","
","""event"",""trial"",""time""
""fullscreenenter"",""1"",""11581""
","
","","","1048","","","11","16591","6533","f","elianto","#3366ff99"," "," ","1","+10","[1899]","1","2","","","16591","103","8","1","win","go","0"
"pit-trial","222","1337322","0.0-108.0","battery-v0.2","","""event"",""trial"",""time""
""fullscreenenter"",""1"",""11581""
","
","
","""event"",""trial"",""time""
""fullscreenenter"",""1"",""11581""
","
","","","1162","","","11","16591","6533","t","elianto","#f73b6a7A","-1"," ","0","-10","[2013]","1","2","","","16591","104","7","4","lose","no-go","0"
"pit-trial","223","1340773","0.0-109.0","battery-v0.2","","""event"",""trial"",""time""
""fullscreenenter"",""1"",""11581""
","
","
","""event"",""trial"",""time""
""fullscreenenter"",""1"",""11581""
","
","","","596","","","11","16591","6533","f","elianto","#3366ff99"," "," ","1","+10","[1447.0000000002328]","1","2","","","16591","105","8","1","win","go","0"
"pit-trial","224","1345629","0.0-110.0","battery-v0.2","","""event"",""trial"",""time""
""fullscreenenter"",""1"",""11581""
","
","
","""event"",""trial"",""time""
""fullscreenenter"",""1"",""11581""
","
","","","-1","","","11","16591","6533","b","elianto","#f73b6a7A"," ","-1","0","-10","[]","0","2","","","16591","106","6","3","lose","go","0"
"pit-trial","225","1349402","0.0-111.0","battery-v0.2","","""event"",""trial"",""time""
""fullscreenenter"",""1"",""11581""
","
","
","""event"",""trial"",""time""
""fullscreenenter"",""1"",""11581""
","
","","","916.9999999997672","","","11","16591","6533","n","elianto","#3366ff99"," "," ","1","+10","[1768]","1","2","","","16591","107","9","1","win","go","0"
"pit-trial","226","1353315","0.0-112.0","battery-v0.2","","""event"",""trial"",""time""
""fullscreenenter"",""1"",""11581""
","
","
","""event"",""trial"",""time""
""fullscreenenter"",""1"",""11581""
","
","","","1045","","","11","16591","6533","z","elianto","#3366ff99"," "," ","1","+10","[1895]","1","2","","","16591","108","4","1","win","go","0"
"pit-trial","227","1357171","0.0-113.0","battery-v0.2","","""event"",""trial"",""time""
""fullscreenenter"",""1"",""11581""
","
","
","""event"",""trial"",""time""
""fullscreenenter"",""1"",""11581""
","
","","","995","","","11","16591","6533","n","elianto","#3366ff99"," "," ","1","0","[1847]","1","2","","","16591","109","9","1","win","go","1"
"pit-trial","228","1361496","0.0-114.0","battery-v0.2","","""event"",""trial"",""time""
""fullscreenenter"",""1"",""11581""
","
","
","""event"",""trial"",""time""
""fullscreenenter"",""1"",""11581""
","
","","","1470","","","11","16591","6533","f","elianto","#3366ff99"," "," ","1","+10","[2320]","1","2","","","16591","110","8","1","win","go","0"
"pit-trial","229","1365859","0.0-115.0","battery-v0.2","","""event"",""trial"",""time""
""fullscreenenter"",""1"",""11581""
","
","
","""event"",""trial"",""time""
""fullscreenenter"",""1"",""11581""
","
","","","1507","","","11","16591","6533","c","elianto","#3366ff99","-1"," ","0","+10","[2358]","1","2","","","16591","111","5","2","win","no-go","1"
"pit-trial","230","1369853","0.0-116.0","battery-v0.2","","""event"",""trial"",""time""
""fullscreenenter"",""1"",""11581""
","
","
","""event"",""trial"",""time""
""fullscreenenter"",""1"",""11581""
","
","","","1139","","","11","16591","6533","b","elianto","#f73b6a7A"," "," ","1","-10","[1989]","1","2","","","16591","112","6","3","lose","go","1"
"pit-trial","231","1373533","0.0-117.0","battery-v0.2","","""event"",""trial"",""time""
""fullscreenenter"",""1"",""11581""
","
","
","""event"",""trial"",""time""
""fullscreenenter"",""1"",""11581""
","
","","","824","","","11","16591","6533","n","elianto","#3366ff99"," "," ","1","+10","[1676]","1","2","","","16591","113","9","1","win","go","0"
"pit-trial","232","1377953","0.0-118.0","battery-v0.2","","""event"",""trial"",""time""
""fullscreenenter"",""1"",""11581""
","
","
","""event"",""trial"",""time""
""fullscreenenter"",""1"",""11581""
","
","","","1562","","","11","16591","6533","f","elianto","#3366ff99"," "," ","1","+10","[2415]","1","2","","","16591","114","8","1","win","go","0"
"pit-trial","233","1381710","0.0-119.0","battery-v0.2","","""event"",""trial"",""time""
""fullscreenenter"",""1"",""11581""
","
","
","""event"",""trial"",""time""
""fullscreenenter"",""1"",""11581""
","
","","","902","","","11","16591","6533","c","elianto","#3366ff99","-1"," ","0","0","[1752]","1","2","","","16591","115","5","2","win","no-go","0"
"pit-trial","234","1386565","0.0-120.0","battery-v0.2","","""event"",""trial"",""time""
""fullscreenenter"",""1"",""11581""
","
","
","""event"",""trial"",""time""
""fullscreenenter"",""1"",""11581""
","
","","","-1","","","11","16591","6533","b","elianto","#f73b6a7A"," ","-1","0","-10","[]","0","2","","","16591","116","6","3","lose","go","0"
"pit-trial","235","1391421","0.0-121.0","battery-v0.2","","""event"",""trial"",""time""
""fullscreenenter"",""1"",""11581""
","
","
","""event"",""trial"",""time""
""fullscreenenter"",""1"",""11581""
","
","","","-1","","","11","16591","6533","b","elianto","#f73b6a7A"," ","-1","0","-10","[]","0","2","","","16591","117","6","3","lose","go","0"
"pit-trial","236","1395972","0.0-122.0","battery-v0.2","","""event"",""trial"",""time""
""fullscreenenter"",""1"",""11581""
","
","
","""event"",""trial"",""time""
""fullscreenenter"",""1"",""11581""
","
","","","1697","","","11","16591","6533","c","elianto","#3366ff99","-1"," ","0","+10","[2548]","1","2","","","16591","118","5","2","win","no-go","1"
"pit-trial","237","1399406","0.0-123.0","battery-v0.2","","""event"",""trial"",""time""
""fullscreenenter"",""1"",""11581""
","
","
","""event"",""trial"",""time""
""fullscreenenter"",""1"",""11581""
","
","","","579","","","11","16591","6533","n","elianto","#3366ff99"," "," ","1","+10","[1429]","1","2","","","16591","119","9","1","win","go","0"
"pit-trial","238","1403071","0.0-124.0","battery-v0.2","","""event"",""trial"",""time""
""fullscreenenter"",""1"",""11581""
","
","
","""event"",""trial"",""time""
""fullscreenenter"",""1"",""11581""
","
","","","808","","","11","16591","6533","f","elianto","#3366ff99"," "," ","1","0","[1660]","1","2","","","16591","120","8","1","win","go","1"
"pit-trial","239","1407202","0.0-125.0","battery-v0.2","","""event"",""trial"",""time""
""fullscreenenter"",""1"",""11581""
","
","
","""event"",""trial"",""time""
""fullscreenenter"",""1"",""11581""
","
","","","1275.9999999997672","","","11","16591","6533","t","elianto","#f73b6a7A","-1"," ","0","0","[2127]","1","2","","","16591","121","7","4","lose","no-go","1"
"pit-trial","240","1410923","0.0-126.0","battery-v0.2","","""event"",""trial"",""time""
""fullscreenenter"",""1"",""11581""
","
","
","""event"",""trial"",""time""
""fullscreenenter"",""1"",""11581""
","
","","","865","","","11","16591","6533","f","elianto","#3366ff99"," "," ","1","0","[1716]","1","2","","","16591","122","8","1","win","go","1"
"pit-trial","241","1415778","0.0-127.0","battery-v0.2","","""event"",""trial"",""time""
""fullscreenenter"",""1"",""11581""
","
","
","""event"",""trial"",""time""
""fullscreenenter"",""1"",""11581""
","
","","","-1","","","11","16591","6533","b","elianto","#f73b6a7A"," ","-1","0","-10","[4170.999999999767]","1","2","","","16591","123","6","3","lose","go","0"
"pit-trial","242","1419267","0.0-128.0","battery-v0.2","","""event"",""trial"",""time""
""fullscreenenter"",""1"",""11581""
","
","
","""event"",""trial"",""time""
""fullscreenenter"",""1"",""11581""
","
","","","634","","","11","16591","6533","n","elianto","#3366ff99"," "," ","1","+10","[1483.9999999997672,3023.999999999767]","2","2","","","16591","124","9","1","win","go","0"
"pit-trial","243","1422890","0.0-129.0","battery-v0.2","","""event"",""trial"",""time""
""fullscreenenter"",""1"",""11581""
","
","
","""event"",""trial"",""time""
""fullscreenenter"",""1"",""11581""
","
","","","769","","","11","16591","6533","n","elianto","#3366ff99"," "," ","1","+10","[1620]","1","2","","","16591","125","9","1","win","go","0"
"pit-trial","244","1426636","0.0-130.0","battery-v0.2","","""event"",""trial"",""time""
""fullscreenenter"",""1"",""11581""
","
","
","""event"",""trial"",""time""
""fullscreenenter"",""1"",""11581""
","
","","","890","","","11","16591","6533","f","elianto","#3366ff99"," "," ","1","+10","[1741]","1","2","","","16591","126","8","1","win","go","0"
"pit-trial","245","1430385","0.0-131.0","battery-v0.2","","""event"",""trial"",""time""
""fullscreenenter"",""1"",""11581""
","
","
","""event"",""trial"",""time""
""fullscreenenter"",""1"",""11581""
","
","","","893","","","11","16591","6533","t","elianto","#f73b6a7A","-1"," ","0","0","[1744,3394]","2","2","","","16591","127","7","4","lose","no-go","1"
"pit-trial","246","1434073","0.0-132.0","battery-v0.2","","""event"",""trial"",""time""
""fullscreenenter"",""1"",""11581""
","
","
","""event"",""trial"",""time""
""fullscreenenter"",""1"",""11581""
","
","","","833","","","11","16591","6533","b","elianto","#f73b6a7A"," "," ","1","0","[1684,2871]","2","2","","","16591","128","6","3","lose","go","0"
"pit-trial","247","1437548","0.0-133.0","battery-v0.2","","""event"",""trial"",""time""
""fullscreenenter"",""1"",""11581""
","
","
","""event"",""trial"",""time""
""fullscreenenter"",""1"",""11581""
","
","","","619","","","11","16591","6533","f","elianto","#3366ff99"," "," ","1","+10","[1471]","1","2","","","16591","129","8","1","win","go","0"
"pit-trial","248","1441246","0.0-134.0","battery-v0.2","","""event"",""trial"",""time""
""fullscreenenter"",""1"",""11581""
","
","
","""event"",""trial"",""time""
""fullscreenenter"",""1"",""11581""
","
","","","844","","","11","16591","6533","t","elianto","#f73b6a7A","-1"," ","0","-10","[1693.9999999997672,3520.999999999767]","2","2","","","16591","130","7","4","lose","no-go","0"
"pit-trial","249","1444671","0.0-135.0","battery-v0.2","","""event"",""trial"",""time""
""fullscreenenter"",""1"",""11581""
","
","
","""event"",""trial"",""time""
""fullscreenenter"",""1"",""11581""
","
","","","569","","","11","16591","6533","n","elianto","#3366ff99"," "," ","1","+10","[294,1420]","2","2","","","16591","131","9","1","win","go","0"
"pit-trial","250","1448348","0.0-136.0","battery-v0.2","","""event"",""trial"",""time""
""fullscreenenter"",""1"",""11581""
","
","
","""event"",""trial"",""time""
""fullscreenenter"",""1"",""11581""
","
","","","821","","","11","16591","6533","b","elianto","#f73b6a7A"," "," ","1","0","[1672]","1","2","","","16591","132","6","3","lose","go","0"
"pit-trial","251","1453204","0.0-137.0","battery-v0.2","","""event"",""trial"",""time""
""fullscreenenter"",""1"",""11581""
","
","
","""event"",""trial"",""time""
""fullscreenenter"",""1"",""11581""
","
","","","-1","","","11","16591","6533","f","elianto","#3366ff99"," ","-1","0","+10","[]","0","2","","","16591","133","8","1","win","go","1"
"pit-trial","252","1457244","0.0-138.0","battery-v0.2","","""event"",""trial"",""time""
""fullscreenenter"",""1"",""11581""
","
","
","""event"",""trial"",""time""
""fullscreenenter"",""1"",""11581""
","
","","","1187","","","11","16591","6533","t","elianto","#f73b6a7A","-1"," ","0","0","[2037]","1","2","","","16591","134","7","4","lose","no-go","1"
"pit-trial","253","1462100","0.0-139.0","battery-v0.2","","""event"",""trial"",""time""
""fullscreenenter"",""1"",""11581""
","
","
","""event"",""trial"",""time""
""fullscreenenter"",""1"",""11581""
","
","","","-1","","","11","16591","6533","b","elianto","#f73b6a7A"," ","-1","0","-10","[]","0","2","","","16591","135","6","3","lose","go","0"
"pit-trial","254","1465721","0.0-140.0","battery-v0.2","","""event"",""trial"",""time""
""fullscreenenter"",""1"",""11581""
","
","
","""event"",""trial"",""time""
""fullscreenenter"",""1"",""11581""
","
","","","765.9999999997672","","","11","16591","6533","n","elianto","#3366ff99"," "," ","1","0","[1616]","1","2","","","16591","136","9","1","win","go","1"
"pit-trial","255","1470578","0.0-141.0","battery-v0.2","","""event"",""trial"",""time""
""fullscreenenter"",""1"",""11581""
","
","
","""event"",""trial"",""time""
""fullscreenenter"",""1"",""11581""
","
","","","-1","","","11","16591","6533","n","elianto","#3366ff99"," ","-1","0","0","[]","0","2","","","16591","137","9","1","win","go","0"
"pit-trial","256","1475434","0.0-142.0","battery-v0.2","","""event"",""trial"",""time""
""fullscreenenter"",""1"",""11581""
","
","
","""event"",""trial"",""time""
""fullscreenenter"",""1"",""11581""
","
","","","-1","","","11","16591","6533","t","elianto","#f73b6a7A","-1","-1","1","0","[]","0","2","","","16591","138","7","4","lose","no-go","0"
"pit-trial","257","1480277","0.0-143.0","battery-v0.2","","""event"",""trial"",""time""
""fullscreenenter"",""1"",""11581""
","
","
","""event"",""trial"",""time""
""fullscreenenter"",""1"",""11581""
","
","","","1988","","","11","16591","6533","b","elianto","#f73b6a7A"," "," ","1","0","[2839]","1","2","","","16591","139","6","3","lose","go","0"
"pit-trial","258","1484040","0.0-144.0","battery-v0.2","","""event"",""trial"",""time""
""fullscreenenter"",""1"",""11581""
","
","
","""event"",""trial"",""time""
""fullscreenenter"",""1"",""11581""
","
","","","906","","","11","16591","6533","f","elianto","#3366ff99"," "," ","1","+10","[1756.9999999997672]","1","2","","","16591","140","8","1","win","go","0"
"pit-instructions","259","1499460","0.0-145.0","battery-v0.2","","""event"",""trial"",""time""
""fullscreenenter"",""1"",""11581""
","
","
","""event"",""trial"",""time""
""fullscreenenter"",""1"",""11581""
","
","","[{""page_index"":0,""viewing_time"":5600},{""page_index"":1,""viewing_time"":9815}]","15417","","","","","","","","","","","","","","","","","","","","","","","",""
"pit-trial","260","1503367","0.0-146.0","battery-v0.2","","""event"",""trial"",""time""
""fullscreenenter"",""1"",""11581""
","
","
","""event"",""trial"",""time""
""fullscreenenter"",""1"",""11581""
","
","","","1049","","","11","16591","6533","e","elianto","#f73b6a7A","-1"," ","0","-10","[1900]","1","3","","","16591","141","2","4","lose","no-go","0"
"pit-trial","261","1506981","0.0-147.0","battery-v0.2","","""event"",""trial"",""time""
""fullscreenenter"",""1"",""11581""
","
","
","""event"",""trial"",""time""
""fullscreenenter"",""1"",""11581""
","
","","","758","","","11","16591","6533","d","elianto","#3366ff99"," "," ","1","+10","[1609]","1","3","","","16591","142","1","1","win","go","0"
"pit-trial","262","1511837","0.0-148.0","battery-v0.2","","""event"",""trial"",""time""
""fullscreenenter"",""1"",""11581""
","
","
","""event"",""trial"",""time""
""fullscreenenter"",""1"",""11581""
","
","","","-1","","","11","16591","6533","j","elianto","#f73b6a7A","-1","-1","1","0","[]","0","3","","","16591","143","0","4","lose","no-go","0"
"pit-trial","263","1516693","0.0-149.0","battery-v0.2","","""event"",""trial"",""time""
""fullscreenenter"",""1"",""11581""
","
","
","""event"",""trial"",""time""
""fullscreenenter"",""1"",""11581""
","
","","","-1","","","11","16591","6533","w","elianto","#f73b6a7A"," ","-1","0","0","[]","0","3","","","16591","144","3","3","lose","go","1"
"pit-trial","264","1521549","0.0-150.0","battery-v0.2","","""event"",""trial"",""time""
""fullscreenenter"",""1"",""11581""
","
","
","""event"",""trial"",""time""
""fullscreenenter"",""1"",""11581""
","
","","","-1","","","11","16591","6533","j","elianto","#f73b6a7A","-1","-1","1","-10","[]","0","3","","","16591","145","0","4","lose","no-go","1"
"pit-trial","265","1525009","0.0-151.0","battery-v0.2","","""event"",""trial"",""time""
""fullscreenenter"",""1"",""11581""
","
","
","""event"",""trial"",""time""
""fullscreenenter"",""1"",""11581""
","
","","","606","","","11","16591","6533","d","elianto","#3366ff99"," "," ","1","+10","[1456]","1","3","","","16591","146","1","1","win","go","0"
"pit-trial","266","1529020","0.0-152.0","battery-v0.2","","""event"",""trial"",""time""
""fullscreenenter"",""1"",""11581""
","
","
","""event"",""trial"",""time""
""fullscreenenter"",""1"",""11581""
","
","","","1155","","","11","16591","6533","e","elianto","#f73b6a7A","-1"," ","0","-10","[2005]","1","3","","","16591","147","2","4","lose","no-go","0"
"pit-trial","267","1533875","0.0-153.0","battery-v0.2","","""event"",""trial"",""time""
""fullscreenenter"",""1"",""11581""
","
","
","""event"",""trial"",""time""
""fullscreenenter"",""1"",""11581""
","
","","","-1","","","11","16591","6533","w","elianto","#f73b6a7A"," ","-1","0","-10","[]","0","3","","","16591","148","3","3","lose","go","0"
"pit-trial","268","1538730","0.0-154.0","battery-v0.2","","""event"",""trial"",""time""
""fullscreenenter"",""1"",""11581""
","
","
","""event"",""trial"",""time""
""fullscreenenter"",""1"",""11581""
","
","","","-1","","","11","16591","6533","e","elianto","#f73b6a7A","-1","-1","1","0","[]","0","3","","","16591","149","2","4","lose","no-go","0"
"pit-trial","269","1542237","0.0-155.0","battery-v0.2","","""event"",""trial"",""time""
""fullscreenenter"",""1"",""11581""
","
","
","""event"",""trial"",""time""
""fullscreenenter"",""1"",""11581""
","
","","","652","","","11","16591","6533","d","elianto","#3366ff99"," "," ","1","+10","[1502]","1","3","","","16591","150","1","1","win","go","0"
"pit-trial","270","1547092","0.0-156.0","battery-v0.2","","""event"",""trial"",""time""
""fullscreenenter"",""1"",""11581""
","
","
","""event"",""trial"",""time""
