"trial_type","trial_index","time_elapsed","internal_node_id","task_version","subject_id","interactions","blur_events","focus_events","fullscreenenter_events","fullscreenexit_events","success","view_history","rt","responses","num_errors","age","subject","participantId","rune","rune_set","hex","correct","choice","accuracy","outcome","keys","total_keys","block","practice","value","sub","trial","stimulus","robot","valence","action","sham"
"pavlovia","0","7","0.0-0.0","battery-v0.2","","""event"",""trial"",""time""
""fullscreenenter"",""1"",""1996""
","
","
","""event"",""trial"",""time""
""fullscreenenter"",""1"",""1996""
","
","","","","","","","","","","","","","","","","","","","","","","","","","","",""
"fullscreen","1","2989","0.0-1.0","battery-v0.2","","""event"",""trial"",""time""
""fullscreenenter"",""1"",""1996""
","
","
","""event"",""trial"",""time""
""fullscreenenter"",""1"",""1996""
","
","true","","","","","","","","","","","","","","","","","","","","","","","","","",""
"pit-instructions","2","7684","0.0-2.0-0.0","battery-v0.2","","""event"",""trial"",""time""
""fullscreenenter"",""1"",""1996""
","
","
","""event"",""trial"",""time""
""fullscreenenter"",""1"",""1996""
","
","","[{""page_index"":0,""viewing_time"":4693.299999952316}]","4693.700000047684","","","","","","","","","","","","","","","","","","","","","","","",""
"pit-comprehension","3","18446","0.0-2.0-1.0-0.0","battery-v0.2","","""event"",""trial"",""time""
""fullscreenenter"",""1"",""1996""
","
","
","""event"",""trial"",""time""
""fullscreenenter"",""1"",""1996""
","
","","","10759.299999952316","[""shark""]","0","12","13637","5867","","","","","","","","","","","","","","","","","","",""
"pit-instructions","4","19739","0.0-2.0-1.0-1.0","battery-v0.2","","""event"",""trial"",""time""
""fullscreenenter"",""1"",""1996""
","
","
","""event"",""trial"",""time""
""fullscreenenter"",""1"",""1996""
","
","","[{""page_index"":0,""viewing_time"":1284.1000001430511}]","1284.3000001907349","","","","","","","","","","","","","","","","","","","","","","","",""
"pit-comprehension","5","22831","0.0-2.0-2.0-0.0","battery-v0.2","","""event"",""trial"",""time""
""fullscreenenter"",""1"",""1996""
","
","
","""event"",""trial"",""time""
""fullscreenenter"",""1"",""1996""
","
","","","3090.100000143051","[""tiger""]","0","12","13637","5867","","","","","","","","","","","","","","","","","","",""
"pit-instructions","6","24359","0.0-2.0-2.0-1.0","battery-v0.2","","""event"",""trial"",""time""
""fullscreenenter"",""1"",""1996""
","
","
","""event"",""trial"",""time""
""fullscreenenter"",""1"",""1996""
","
","","[{""page_index"":0,""viewing_time"":1525.3999998569489}]","1525.6999998092651","","","","","","","","","","","","","","","","","","","","","","","",""
"pit-instructions","7","141378","0.0-2.0-3.0","battery-v0.2","","""event"",""trial"",""time""
""fullscreenenter"",""1"",""1996""
","
","
","""event"",""trial"",""time""
""fullscreenenter"",""1"",""1996""
","
","","[{""page_index"":0,""viewing_time"":10420},{""page_index"":1,""viewing_time"":7434.400000095367},{""page_index"":2,""viewing_time"":6978.099999904633},{""page_index"":3,""viewing_time"":5833},{""page_index"":4,""viewing_time"":9159.700000047684},{""page_index"":5,""viewing_time"":5581.400000095367},{""page_index"":6,""viewing_time"":7170},{""page_index"":7,""viewing_time"":7572.5},{""page_index"":8,""viewing_time"":7319.099999904633},{""page_index"":9,""viewing_time"":17355.900000095367},{""page_index"":10,""viewing_time"":7060.899999856949},{""page_index"":11,""viewing_time"":10341},{""page_index"":12,""viewing_time"":7421},{""page_index"":13,""viewing_time"":7370.700000047684}]","117017.90000009537","","","","","","","","","","","","","","","","","","","","","","","",""
"pit-trial","8","144388","0.0-2.0-4.0-0.0","battery-v0.2","","""event"",""trial"",""time""
""fullscreenenter"",""1"",""1996""
","
","
","""event"",""trial"",""time""
""fullscreenenter"",""1"",""1996""
","
","","","151.5","","","12","13637","5867","&#9784;","elianto","#FFFFF080"," "," ","1","&#10004","[1003.5]","1","0","0","","","","","","","",""
"pit-trial","9","147849","0.0-2.0-4.1-0.1","battery-v0.2","","""event"",""trial"",""time""
""fullscreenenter"",""1"",""1996""
","
","
","""event"",""trial"",""time""
""fullscreenenter"",""1"",""1996""
","
","","","603.4000000953674","","","12","13637","5867","&#9784;","elianto","#FFFFF080"," "," ","1","&#10004","[1457.3000001907349]","1","0","0","","","","","","","",""
"pit-trial","10","151301","0.0-2.0-4.2-0.2","battery-v0.2","","""event"",""trial"",""time""
""fullscreenenter"",""1"",""1996""
","
","
","""event"",""trial"",""time""
""fullscreenenter"",""1"",""1996""
","
","","","588.5999999046326","","","12","13637","5867","&#9784;","elianto","#FFFFF080"," "," ","1","&#10004","[1443.7000000476837]","1","0","0","","","","","","","",""
"pit-trial","11","154755","0.0-2.0-4.3-0.3","battery-v0.2","","""event"",""trial"",""time""
""fullscreenenter"",""1"",""1996""
","
","
","""event"",""trial"",""time""
""fullscreenenter"",""1"",""1996""
","
","","","591.4000000953674","","","12","13637","5867","&#9784;","elianto","#FFFFF080"," "," ","1","&#10004","[1447.8999998569489]","1","0","0","","","","","","","",""
"pit-trial","12","158099","0.0-2.0-4.4-0.4","battery-v0.2","","""event"",""trial"",""time""
""fullscreenenter"",""1"",""1996""
","
","
","""event"",""trial"",""time""
""fullscreenenter"",""1"",""1996""
","
","","","485.2000000476837","","","12","13637","5867","&#9784;","elianto","#FFFFF080"," "," ","1","&#10004","[1337.6999998092651]","1","0","0","","","","","","","",""
"pit-instructions","13","188826","0.0-2.0-5.0","battery-v0.2","","""event"",""trial"",""time""
""fullscreenenter"",""1"",""1996""
","
","
","""event"",""trial"",""time""
""fullscreenenter"",""1"",""1996""
","
","","[{""page_index"":0,""viewing_time"":12648.299999952316},{""page_index"":1,""viewing_time"":7388.800000190735},{""page_index"":2,""viewing_time"":5419.5},{""page_index"":3,""viewing_time"":5268.699999809265}]","30725.60000014305","","","","","","","","","","","","","","","","","","","","","","","",""
"pit-trial","14","193694","0.0-2.0-6.0-0.0","battery-v0.2","","""event"",""trial"",""time""
""fullscreenenter"",""1"",""1996""
","
","
","""event"",""trial"",""time""
""fullscreenenter"",""1"",""1996""
","
","","","-1","","","12","13637","5867","&#9854;","elianto","#FFFFF080","-1","-1","1","&#10004","[]","0","0","1","","","","","","","",""
"pit-trial","15","198568","0.0-2.0-6.1-0.1","battery-v0.2","","""event"",""trial"",""time""
""fullscreenenter"",""1"",""1996""
","
","
","""event"",""trial"",""time""
""fullscreenenter"",""1"",""1996""
","
","","","-1","","","12","13637","5867","&#9854;","elianto","#FFFFF080","-1","-1","1","&#10004","[]","0","0","1","","","","","","","",""
"pit-trial","16","203427","0.0-2.0-6.2-0.2","battery-v0.2","","""event"",""trial"",""time""
""fullscreenenter"",""1"",""1996""
","
","
","""event"",""trial"",""time""
""fullscreenenter"",""1"",""1996""
","
","","","-1","","","12","13637","5867","&#9854;","elianto","#FFFFF080","-1","-1","1","&#10004","[]","0","0","1","","","","","","","",""
"pit-trial","17","208301","0.0-2.0-6.3-0.3","battery-v0.2","","""event"",""trial"",""time""
""fullscreenenter"",""1"",""1996""
","
","
","""event"",""trial"",""time""
""fullscreenenter"",""1"",""1996""
","
","","","-1","","","12","13637","5867","&#9854;","elianto","#FFFFF080","-1","-1","1","&#10004","[]","0","0","1","","","","","","","",""
"pit-trial","18","213181","0.0-2.0-6.4-0.4","battery-v0.2","","""event"",""trial"",""time""
""fullscreenenter"",""1"",""1996""
","
","
","""event"",""trial"",""time""
""fullscreenenter"",""1"",""1996""
","
","","","-1","","","12","13637","5867","&#9854;","elianto","#FFFFF080","-1","-1","1","&#10004","[]","0","0","1","","","","","","","",""
"pit-instructions","19","362660","0.0-2.0-7.0","battery-v0.2","","""event"",""trial"",""time""
""fullscreenenter"",""1"",""1996""
","
","
","""event"",""trial"",""time""
""fullscreenenter"",""1"",""1996""
","
","","[{""page_index"":0,""viewing_time"":6072.900000095367},{""page_index"":1,""viewing_time"":7627.700000047684},{""page_index"":2,""viewing_time"":5393.200000047684},{""page_index"":3,""viewing_time"":8334.899999856949},{""page_index"":4,""viewing_time"":7307.700000047684},{""page_index"":5,""viewing_time"":7095.599999904633},{""page_index"":6,""viewing_time"":6108.900000095367},{""page_index"":7,""viewing_time"":24445.599999904633},{""page_index"":8,""viewing_time"":12062.400000095367},{""page_index"":9,""viewing_time"":6906.200000047684},{""page_index"":10,""viewing_time"":7375.799999952316},{""page_index"":11,""viewing_time"":6605.299999952316},{""page_index"":12,""viewing_time"":7401.5},{""page_index"":13,""viewing_time"":6994},{""page_index"":14,""viewing_time"":8151.200000047684},{""page_index"":15,""viewing_time"":6381.299999952316},{""page_index"":16,""viewing_time"":8440.5},{""page_index"":17,""viewing_time"":6772.400000095367}]","149477.40000009537","","","","","","","","","","","","","","","","","","","","","","","",""
"pit-trial","20","366020","0.0-2.0-8.0-0.0","battery-v0.2","","""event"",""trial"",""time""
""fullscreenenter"",""1"",""1996""
","
","
","""event"",""trial"",""time""
""fullscreenenter"",""1"",""1996""
","
","","","493.2999999523163","","","12","13637","5867","&#9776;","elianto","#3366ff99"," "," ","1","+10","[1345.1999998092651]","1","0","1","","","","","","","",""
"pit-trial","21","369480","0.0-2.0-8.0-1.0","battery-v0.2","","""event"",""trial"",""time""
""fullscreenenter"",""1"",""1996""
","
","
","""event"",""trial"",""time""
""fullscreenenter"",""1"",""1996""
","
","","","597.8999998569489","","","12","13637","5867","&#9776;","elianto","#3366ff99"," "," ","1","+10","[1448.6999998092651]","1","0","1","","","","","","","",""
"pit-trial","22","372880","0.0-2.0-8.0-2.0","battery-v0.2","","""event"",""trial"",""time""
""fullscreenenter"",""1"",""1996""
","
","
","""event"",""trial"",""time""
""fullscreenenter"",""1"",""1996""
","
","","","531.5999999046326","","","12","13637","5867","&#9776;","elianto","#3366ff99"," "," ","1","+10","[1389.2000000476837]","1","0","1","","","","","","","",""
"pit-trial","23","376468","0.0-2.0-8.0-3.0","battery-v0.2","","""event"",""trial"",""time""
""fullscreenenter"",""1"",""1996""
","
","
","""event"",""trial"",""time""
""fullscreenenter"",""1"",""1996""
","
","","","724.7000000476837","","","12","13637","5867","&#9776;","elianto","#3366ff99"," "," ","1","0","[1581.5999999046326]","1","0","1","","","","","","","",""
"pit-trial","24","379900","0.0-2.0-8.0-4.0","battery-v0.2","","""event"",""trial"",""time""
""fullscreenenter"",""1"",""1996""
","
","
","""event"",""trial"",""time""
""fullscreenenter"",""1"",""1996""
","
","","","564.8999998569489","","","12","13637","5867","&#9776;","elianto","#3366ff99"," "," ","1","+10","[1416.5]","1","0","1","","","","","","","",""
"pit-trial","25","383350","0.0-2.0-8.1-0.1","battery-v0.2","","""event"",""trial"",""time""
""fullscreenenter"",""1"",""1996""
","
","
","""event"",""trial"",""time""
""fullscreenenter"",""1"",""1996""
","
","","","579.8000001907349","","","12","13637","5867","&#9776;","elianto","#3366ff99"," "," ","1","+10","[1432.7000000476837]","1","0","1","","","","","","","",""
"pit-trial","26","387162","0.0-2.0-8.1-1.1","battery-v0.2","","""event"",""trial"",""time""
""fullscreenenter"",""1"",""1996""
","
","
","""event"",""trial"",""time""
""fullscreenenter"",""1"",""1996""
","
","","","954.0999999046326","","","12","13637","5867","&#9776;","elianto","#3366ff99"," "," ","1","+10","[1806.9000000953674]","1","0","1","","","","","","","",""
"pit-trial","27","390589","0.0-2.0-8.1-2.1","battery-v0.2","","""event"",""trial"",""time""
""fullscreenenter"",""1"",""1996""
","
","
","""event"",""trial"",""time""
""fullscreenenter"",""1"",""1996""
","
","","","563.9000000953674","","","12","13637","5867","&#9776;","elianto","#3366ff99"," "," ","1","+10","[1419.5]","1","0","1","","","","","","","",""
"pit-trial","28","393983","0.0-2.0-8.1-3.1","battery-v0.2","","""event"",""trial"",""time""
""fullscreenenter"",""1"",""1996""
","
","
","""event"",""trial"",""time""
""fullscreenenter"",""1"",""1996""
","
","","","531.1000001430511","","","12","13637","5867","&#9776;","elianto","#3366ff99"," "," ","1","0","[1392.6000001430511]","1","0","1","","","","","","","",""
"pit-trial","29","397368","0.0-2.0-8.1-4.1","battery-v0.2","","""event"",""trial"",""time""
""fullscreenenter"",""1"",""1996""
","
","
","""event"",""trial"",""time""
""fullscreenenter"",""1"",""1996""
","
","","","531.5999999046326","","","12","13637","5867","&#9776;","elianto","#3366ff99"," "," ","1","+10","[1382.5999999046326,3286.5]","2","0","1","","","","","","","",""
"pit-trial","30","401288","0.0-2.0-8.2-0.2","battery-v0.2","","""event"",""trial"",""time""
""fullscreenenter"",""1"",""1996""
","
","
","""event"",""trial"",""time""
""fullscreenenter"",""1"",""1996""
","
","","","1066.4000000953674","","","12","13637","5867","&#9776;","elianto","#3366ff99"," "," ","1","+10","[1917]","1","0","1","","","","","","","",""
"pit-trial","31","404664","0.0-2.0-8.2-1.2","battery-v0.2","","""event"",""trial"",""time""
""fullscreenenter"",""1"",""1996""
","
","
","""event"",""trial"",""time""
""fullscreenenter"",""1"",""1996""
","
","","","522.7000000476837","","","12","13637","5867","&#9776;","elianto","#3366ff99"," "," ","1","+10","[1373.5]","1","0","1","","","","","","","",""
"pit-trial","32","408088","0.0-2.0-8.2-2.2","battery-v0.2","","""event"",""trial"",""time""
""fullscreenenter"",""1"",""1996""
","
","
","""event"",""trial"",""time""
""fullscreenenter"",""1"",""1996""
","
","","","571.2999999523163","","","12","13637","5867","&#9776;","elianto","#3366ff99"," "," ","1","+10","[1422.0999999046326]","1","0","1","","","","","","","",""
"pit-trial","33","411943","0.0-2.0-8.2-3.2","battery-v0.2","","""event"",""trial"",""time""
""fullscreenenter"",""1"",""1996""
","
","
","""event"",""trial"",""time""
""fullscreenenter"",""1"",""1996""
","
","","","1003","","","12","13637","5867","&#9776;","elianto","#3366ff99"," "," ","1","0","[1853.2000000476837]","1","0","1","","","","","","","",""
"pit-trial","34","415368","0.0-2.0-8.2-4.2","battery-v0.2","","""event"",""trial"",""time""
""fullscreenenter"",""1"",""1996""
","
","
","""event"",""trial"",""time""
""fullscreenenter"",""1"",""1996""
","
","","","572.5","","","12","13637","5867","&#9776;","elianto","#3366ff99"," "," ","1","+10","[1422.7000000476837]","1","0","1","","","","","","","",""
"call-function","35","415369","0.0-2.0-9.0","battery-v0.2","","""event"",""trial"",""time""
""fullscreenenter"",""1"",""1996""
","
","
","""event"",""trial"",""time""
""fullscreenenter"",""1"",""1996""
","
","","","","","","","","","","","","","","","","","","","","","","","","","","",""
"pit-instructions","36","459046","0.0-2.0-10.0","battery-v0.2","","""event"",""trial"",""time""
""fullscreenenter"",""1"",""1996""
","
","
","""event"",""trial"",""time""
""fullscreenenter"",""1"",""1996""
","
","","[{""page_index"":0,""viewing_time"":6009},{""page_index"":1,""viewing_time"":8605.799999952316},{""page_index"":2,""viewing_time"":12524.700000047684},{""page_index"":3,""viewing_time"":8108.900000095367},{""page_index"":4,""viewing_time"":8428.599999904633}]","43677.200000047684","","","","","","","","","","","","","","","","","","","","","","","",""
"pit-trial","37","463909","0.0-2.0-11.0-0.0","battery-v0.2","","""event"",""trial"",""time""
""fullscreenenter"",""1"",""1996""
","
","
","""event"",""trial"",""time""
""fullscreenenter"",""1"",""1996""
","
","","","-1","","","12","13637","5867","&#9761;","elianto","#3366ff99","-1","-1","1","+10","[]","0","0","2","","","","","","","",""
"pit-trial","38","468781","0.0-2.0-11.0-1.0","battery-v0.2","","""event"",""trial"",""time""
""fullscreenenter"",""1"",""1996""
","
","
","""event"",""trial"",""time""
""fullscreenenter"",""1"",""1996""
","
","","","-1","","","12","13637","5867","&#9761;","elianto","#3366ff99","-1","-1","1","+10","[]","0","0","2","","","","","","","",""
"pit-trial","39","473650","0.0-2.0-11.0-2.0","battery-v0.2","","""event"",""trial"",""time""
""fullscreenenter"",""1"",""1996""
","
","
","""event"",""trial"",""time""
""fullscreenenter"",""1"",""1996""
","
","","","-1","","","12","13637","5867","&#9761;","elianto","#3366ff99","-1","-1","1","+10","[]","0","0","2","","","","","","","",""
"pit-trial","40","478513","0.0-2.0-11.0-3.0","battery-v0.2","","""event"",""trial"",""time""
""fullscreenenter"",""1"",""1996""
","
","
","""event"",""trial"",""time""
""fullscreenenter"",""1"",""1996""
","
","","","-1","","","12","13637","5867","&#9761;","elianto","#3366ff99","-1","-1","1","0","[]","0","0","2","","","","","","","",""
"pit-trial","41","483394","0.0-2.0-11.0-4.0","battery-v0.2","","""event"",""trial"",""time""
""fullscreenenter"",""1"",""1996""
","
","
","""event"",""trial"",""time""
""fullscreenenter"",""1"",""1996""
","
","","","-1","","","12","13637","5867","&#9761;","elianto","#3366ff99","-1","-1","1","+10","[]","0","0","2","","","","","","","",""
"pit-trial","42","488261","0.0-2.0-11.1-0.1","battery-v0.2","","""event"",""trial"",""time""
""fullscreenenter"",""1"",""1996""
","
","
","""event"",""trial"",""time""
""fullscreenenter"",""1"",""1996""
","
","","","-1","","","12","13637","5867","&#9761;","elianto","#3366ff99","-1","-1","1","+10","[]","0","0","2","","","","","","","",""
"pit-trial","43","493114","0.0-2.0-11.1-1.1","battery-v0.2","","""event"",""trial"",""time""
""fullscreenenter"",""1"",""1996""
","
","
","""event"",""trial"",""time""
""fullscreenenter"",""1"",""1996""
","
","","","-1","","","12","13637","5867","&#9761;","elianto","#3366ff99","-1","-1","1","+10","[]","0","0","2","","","","","","","",""
"pit-trial","44","497966","0.0-2.0-11.1-2.1","battery-v0.2","","""event"",""trial"",""time""
""fullscreenenter"",""1"",""1996""
","
","
","""event"",""trial"",""time""
""fullscreenenter"",""1"",""1996""
","
","","","-1","","","12","13637","5867","&#9761;","elianto","#3366ff99","-1","-1","1","+10","[]","0","0","2","","","","","","","",""
"pit-trial","45","502820","0.0-2.0-11.1-3.1","battery-v0.2","","""event"",""trial"",""time""
""fullscreenenter"",""1"",""1996""
","
","
","""event"",""trial"",""time""
""fullscreenenter"",""1"",""1996""
","
","","","-1","","","12","13637","5867","&#9761;","elianto","#3366ff99","-1","-1","1","0","[]","0","0","2","","","","","","","",""
"pit-trial","46","507674","0.0-2.0-11.1-4.1","battery-v0.2","","""event"",""trial"",""time""
""fullscreenenter"",""1"",""1996""
","
","
","""event"",""trial"",""time""
""fullscreenenter"",""1"",""1996""
","
","","","-1","","","12","13637","5867","&#9761;","elianto","#3366ff99","-1","-1","1","+10","[]","0","0","2","","","","","","","",""
"pit-trial","47","512528","0.0-2.0-11.2-0.2","battery-v0.2","","""event"",""trial"",""time""
""fullscreenenter"",""1"",""1996""
","
","
","""event"",""trial"",""time""
""fullscreenenter"",""1"",""1996""
","
","","","-1","","","12","13637","5867","&#9761;","elianto","#3366ff99","-1","-1","1","+10","[]","0","0","2","","","","","","","",""
"pit-trial","48","517380","0.0-2.0-11.2-1.2","battery-v0.2","","""event"",""trial"",""time""
""fullscreenenter"",""1"",""1996""
","
","
","""event"",""trial"",""time""
""fullscreenenter"",""1"",""1996""
","
","","","-1","","","12","13637","5867","&#9761;","elianto","#3366ff99","-1","-1","1","+10","[]","0","0","2","","","","","","","",""
"pit-trial","49","522234","0.0-2.0-11.2-2.2","battery-v0.2","","""event"",""trial"",""time""
""fullscreenenter"",""1"",""1996""
","
","
","""event"",""trial"",""time""
""fullscreenenter"",""1"",""1996""
","
","","","-1","","","12","13637","5867","&#9761;","elianto","#3366ff99","-1","-1","1","+10","[]","0","0","2","","","","","","","",""
"pit-trial","50","527087","0.0-2.0-11.2-3.2","battery-v0.2","","""event"",""trial"",""time""
""fullscreenenter"",""1"",""1996""
","
","
","""event"",""trial"",""time""
""fullscreenenter"",""1"",""1996""
","
","","","-1","","","12","13637","5867","&#9761;","elianto","#3366ff99","-1","-1","1","0","[]","0","0","2","","","","","","","",""
"pit-trial","51","531942","0.0-2.0-11.2-4.2","battery-v0.2","","""event"",""trial"",""time""
""fullscreenenter"",""1"",""1996""
","
","
","""event"",""trial"",""time""
""fullscreenenter"",""1"",""1996""
","
","","","-1","","","12","13637","5867","&#9761;","elianto","#3366ff99","-1","-1","1","+10","[]","0","0","2","","","","","","","",""
"pit-trial","52","536795","0.0-2.0-11.3-0.3","battery-v0.2","","""event"",""trial"",""time""
""fullscreenenter"",""1"",""1996""
","
","
","""event"",""trial"",""time""
""fullscreenenter"",""1"",""1996""
","
","","","-1","","","12","13637","5867","&#9761;","elianto","#3366ff99","-1","-1","1","+10","[]","0","0","2","","","","","","","",""
"pit-trial","53","541647","0.0-2.0-11.3-1.3","battery-v0.2","","""event"",""trial"",""time""
""fullscreenenter"",""1"",""1996""
","
","
","""event"",""trial"",""time""
""fullscreenenter"",""1"",""1996""
","
","","","-1","","","12","13637","5867","&#9761;","elianto","#3366ff99","-1","-1","1","+10","[]","0","0","2","","","","","","","",""
"pit-trial","54","546501","0.0-2.0-11.3-2.3","battery-v0.2","","""event"",""trial"",""time""
""fullscreenenter"",""1"",""1996""
","
","
","""event"",""trial"",""time""
""fullscreenenter"",""1"",""1996""
","
","","","-1","","","12","13637","5867","&#9761;","elianto","#3366ff99","-1","-1","1","+10","[]","0","0","2","","","","","","","",""
"pit-trial","55","551353","0.0-2.0-11.3-3.3","battery-v0.2","","""event"",""trial"",""time""
""fullscreenenter"",""1"",""1996""
","
","
","""event"",""trial"",""time""
""fullscreenenter"",""1"",""1996""
","
","","","-1","","","12","13637","5867","&#9761;","elianto","#3366ff99","-1","-1","1","0","[]","0","0","2","","","","","","","",""
"pit-trial","56","556207","0.0-2.0-11.3-4.3","battery-v0.2","","""event"",""trial"",""time""
""fullscreenenter"",""1"",""1996""
","
","
","""event"",""trial"",""time""
""fullscreenenter"",""1"",""1996""
","
","","","-1","","","12","13637","5867","&#9761;","elianto","#3366ff99","-1","-1","1","+10","[]","0","0","2","","","","","","","",""
"call-function","57","556208","0.0-2.0-12.0","battery-v0.2","","""event"",""trial"",""time""
""fullscreenenter"",""1"",""1996""
","
","
","""event"",""trial"",""time""
""fullscreenenter"",""1"",""1996""
","
","","","","","","","","","","","","","","","","","","","","","","","","","","",""
"pit-instructions","58","593044","0.0-2.0-13.0","battery-v0.2","","""event"",""trial"",""time""
""fullscreenenter"",""1"",""1996""
","
","
","""event"",""trial"",""time""
""fullscreenenter"",""1"",""1996""
","
","","[{""page_index"":0,""viewing_time"":6625.900000095367},{""page_index"":1,""viewing_time"":8346.799999952316},{""page_index"":2,""viewing_time"":5517.200000047684},{""page_index"":3,""viewing_time"":11825.299999952316},{""page_index"":4,""viewing_time"":4521.100000143051}]","36836.60000014305","","","","","","","","","","","","","","","","","","","","","","","",""
"pit-trial","59","596523","0.0-2.0-14.0-0.0","battery-v0.2","","""event"",""trial"",""time""
""fullscreenenter"",""1"",""1996""
","
","
","""event"",""trial"",""time""
""fullscreenenter"",""1"",""1996""
","
","","","617","","","12","13637","5867","&#9826;","elianto","#f73b6a7A","-1"," ","0","-10","[1472.7000000476837]","1","0","3","","","","","","","",""
"pit-trial","60","601388","0.0-2.0-14.0-1.0","battery-v0.2","","""event"",""trial"",""time""
""fullscreenenter"",""1"",""1996""
","
","
","""event"",""trial"",""time""
""fullscreenenter"",""1"",""1996""
","
","","","-1","","","12","13637","5867","&#9826;","elianto","#f73b6a7A","-1","-1","1","0","[]","0","0","3","","","","","","","",""
"pit-trial","61","606254","0.0-2.0-14.0-2.0","battery-v0.2","","""event"",""trial"",""time""
""fullscreenenter"",""1"",""1996""
","
","
","""event"",""trial"",""time""
""fullscreenenter"",""1"",""1996""
","
","","","-1","","","12","13637","5867","&#9826;","elianto","#f73b6a7A","-1","-1","1","0","[]","0","0","3","","","","","","","",""
"pit-trial","62","611131","0.0-2.0-14.0-3.0","battery-v0.2","","""event"",""trial"",""time""
""fullscreenenter"",""1"",""1996""
","
","
","""event"",""trial"",""time""
""fullscreenenter"",""1"",""1996""
","
","","","-1","","","12","13637","5867","&#9826;","elianto","#f73b6a7A","-1","-1","1","-10","[]","0","0","3","","","","","","","",""
"pit-trial","63","615997","0.0-2.0-14.0-4.0","battery-v0.2","","""event"",""trial"",""time""
""fullscreenenter"",""1"",""1996""
","
","
","""event"",""trial"",""time""
""fullscreenenter"",""1"",""1996""
","
","","","-1","","","12","13637","5867","&#9826;","elianto","#f73b6a7A","-1","-1","1","0","[]","0","0","3","","","","","","","",""
"pit-trial","64","620879","0.0-2.0-14.1-0.1","battery-v0.2","","""event"",""trial"",""time""
""fullscreenenter"",""1"",""1996""
","
","
","""event"",""trial"",""time""
""fullscreenenter"",""1"",""1996""
","
","","","-1","","","12","13637","5867","&#9826;","elianto","#f73b6a7A","-1","-1","1","0","[]","0","0","3","","","","","","","",""
"pit-trial","65","625733","0.0-2.0-14.1-1.1","battery-v0.2","","""event"",""trial"",""time""
""fullscreenenter"",""1"",""1996""
","
","
","""event"",""trial"",""time""
""fullscreenenter"",""1"",""1996""
","
","","","-1","","","12","13637","5867","&#9826;","elianto","#f73b6a7A","-1","-1","1","0","[]","0","0","3","","","","","","","",""
"pit-trial","66","630587","0.0-2.0-14.1-2.1","battery-v0.2","","""event"",""trial"",""time""
""fullscreenenter"",""1"",""1996""
","
","
","""event"",""trial"",""time""
""fullscreenenter"",""1"",""1996""
","
","","","-1","","","12","13637","5867","&#9826;","elianto","#f73b6a7A","-1","-1","1","0","[]","0","0","3","","","","","","","",""
"pit-trial","67","635441","0.0-2.0-14.1-3.1","battery-v0.2","","""event"",""trial"",""time""
""fullscreenenter"",""1"",""1996""
","
","
","""event"",""trial"",""time""
""fullscreenenter"",""1"",""1996""
","
","","","-1","","","12","13637","5867","&#9826;","elianto","#f73b6a7A","-1","-1","1","-10","[]","0","0","3","","","","","","","",""
"pit-trial","68","640300","0.0-2.0-14.1-4.1","battery-v0.2","","""event"",""trial"",""time""
""fullscreenenter"",""1"",""1996""
","
","
","""event"",""trial"",""time""
""fullscreenenter"",""1"",""1996""
","
","","","-1","","","12","13637","5867","&#9826;","elianto","#f73b6a7A","-1","-1","1","0","[]","0","0","3","","","","","","","",""
"pit-trial","69","645154","0.0-2.0-14.2-0.2","battery-v0.2","","""event"",""trial"",""time""
""fullscreenenter"",""1"",""1996""
","
","
","""event"",""trial"",""time""
""fullscreenenter"",""1"",""1996""
","
","","","-1","","","12","13637","5867","&#9826;","elianto","#f73b6a7A","-1","-1","1","0","[]","0","0","3","","","","","","","",""
"pit-trial","70","650017","0.0-2.0-14.2-1.2","battery-v0.2","","""event"",""trial"",""time""
""fullscreenenter"",""1"",""1996""
","
","
","""event"",""trial"",""time""
""fullscreenenter"",""1"",""1996""
","
","","","-1","","","12","13637","5867","&#9826;","elianto","#f73b6a7A","-1","-1","1","0","[]","0","0","3","","","","","","","",""
"pit-trial","71","654870","0.0-2.0-14.2-2.2","battery-v0.2","","""event"",""trial"",""time""
""fullscreenenter"",""1"",""1996""
","
","
","""event"",""trial"",""time""
""fullscreenenter"",""1"",""1996""
","
","","","-1","","","12","13637","5867","&#9826;","elianto","#f73b6a7A","-1","-1","1","0","[]","0","0","3","","","","","","","",""
"pit-trial","72","659723","0.0-2.0-14.2-3.2","battery-v0.2","","""event"",""trial"",""time""
""fullscreenenter"",""1"",""1996""
","
","
","""event"",""trial"",""time""
""fullscreenenter"",""1"",""1996""
","
","","","-1","","","12","13637","5867","&#9826;","elianto","#f73b6a7A","-1","-1","1","-10","[]","0","0","3","","","","","","","",""
"pit-trial","73","664584","0.0-2.0-14.2-4.2","battery-v0.2","","""event"",""trial"",""time""
""fullscreenenter"",""1"",""1996""
","
","
","""event"",""trial"",""time""
""fullscreenenter"",""1"",""1996""
","
","","","-1","","","12","13637","5867","&#9826;","elianto","#f73b6a7A","-1","-1","1","0","[]","0","0","3","","","","","","","",""
"pit-trial","74","669437","0.0-2.0-14.3-0.3","battery-v0.2","","""event"",""trial"",""time""
""fullscreenenter"",""1"",""1996""
","
","
","""event"",""trial"",""time""
""fullscreenenter"",""1"",""1996""
","
","","","-1","","","12","13637","5867","&#9826;","elianto","#f73b6a7A","-1","-1","1","0","[]","0","0","3","","","","","","","",""
"pit-trial","75","674290","0.0-2.0-14.3-1.3","battery-v0.2","","""event"",""trial"",""time""
""fullscreenenter"",""1"",""1996""
","
","
","""event"",""trial"",""time""
""fullscreenenter"",""1"",""1996""
","
","","","-1","","","12","13637","5867","&#9826;","elianto","#f73b6a7A","-1","-1","1","0","[]","0","0","3","","","","","","","",""
"pit-trial","76","679144","0.0-2.0-14.3-2.3","battery-v0.2","","""event"",""trial"",""time""
""fullscreenenter"",""1"",""1996""
","
","
","""event"",""trial"",""time""
""fullscreenenter"",""1"",""1996""
","
","","","-1","","","12","13637","5867","&#9826;","elianto","#f73b6a7A","-1","-1","1","0","[]","0","0","3","","","","","","","",""
"pit-trial","77","683998","0.0-2.0-14.3-3.3","battery-v0.2","","""event"",""trial"",""time""
""fullscreenenter"",""1"",""1996""
","
","
","""event"",""trial"",""time""
""fullscreenenter"",""1"",""1996""
","
","","","-1","","","12","13637","5867","&#9826;","elianto","#f73b6a7A","-1","-1","1","-10","[]","0","0","3","","","","","","","",""
"pit-trial","78","688851","0.0-2.0-14.3-4.3","battery-v0.2","","""event"",""trial"",""time""
""fullscreenenter"",""1"",""1996""
","
","
","""event"",""trial"",""time""
""fullscreenenter"",""1"",""1996""
","
","","","-1","","","12","13637","5867","&#9826;","elianto","#f73b6a7A","-1","-1","1","0","[]","0","0","3","","","","","","","",""
"call-function","79","688852","0.0-2.0-15.0","battery-v0.2","","""event"",""trial"",""time""
""fullscreenenter"",""1"",""1996""
","
","
","""event"",""trial"",""time""
""fullscreenenter"",""1"",""1996""
","
","","","","","","","","","","","","","","","","","","","","","","","","","","",""
"pit-instructions","80","716468","0.0-2.0-16.0","battery-v0.2","","""event"",""trial"",""time""
""fullscreenenter"",""1"",""1996""
","
","
","""event"",""trial"",""time""
""fullscreenenter"",""1"",""1996""
","
","","[{""page_index"":0,""viewing_time"":6755.800000190735},{""page_index"":1,""viewing_time"":8813.099999904633},{""page_index"":2,""viewing_time"":6195.900000095367},{""page_index"":3,""viewing_time"":5850.199999809265}]","27615.300000190735","","","","","","","","","","","","","","","","","","","","","","","",""
"pit-trial","81","720971","0.0-2.0-17.0-0.0","battery-v0.2","","""event"",""trial"",""time""
""fullscreenenter"",""1"",""1996""
","
","
","""event"",""trial"",""time""
""fullscreenenter"",""1"",""1996""
","
","","","1636.4000000953674","","","12","13637","5867","&#9789;","elianto","#f73b6a7A"," "," ","1","0","[2498.100000143051]","1","0","4","","","","","","","",""
"pit-trial","82","725832","0.0-2.0-17.0-1.0","battery-v0.2","","""event"",""trial"",""time""
""fullscreenenter"",""1"",""1996""
","
","
","""event"",""trial"",""time""
""fullscreenenter"",""1"",""1996""
","
","","","-1","","","12","13637","5867","&#9789;","elianto","#f73b6a7A"," ","-1","0","-10","[]","0","0","4","","","","","","","",""
"pit-trial","83","729667","0.0-2.0-17.0-2.0","battery-v0.2","","""event"",""trial"",""time""
""fullscreenenter"",""1"",""1996""
","
","
","""event"",""trial"",""time""
""fullscreenenter"",""1"",""1996""
","
","","","970.7000000476837","","","12","13637","5867","&#9789;","elianto","#f73b6a7A"," "," ","1","0","[1821]","1","0","4","","","","","","","",""
"pit-trial","84","732747","0.0-2.0-17.0-3.0","battery-v0.2","","""event"",""trial"",""time""
""fullscreenenter"",""1"",""1996""
","
","
","""event"",""trial"",""time""
""fullscreenenter"",""1"",""1996""
","
","","","210.40000009536743","","","12","13637","5867","&#9789;","elianto","#f73b6a7A"," "," ","1","-10","[1073.7999999523163]","1","0","4","","","","","","","",""
"pit-trial","85","736170","0.0-2.0-17.0-4.0","battery-v0.2","","""event"",""trial"",""time""
""fullscreenenter"",""1"",""1996""
","
","
","""event"",""trial"",""time""
""fullscreenenter"",""1"",""1996""
","
","","","558.2000000476837","","","12","13637","5867","&#9789;","elianto","#f73b6a7A"," "," ","1","0","[1409.6000001430511]","1","0","4","","","","","","","",""
"pit-trial","86","739646","0.0-2.0-17.1-0.1","battery-v0.2","","""event"",""trial"",""time""
""fullscreenenter"",""1"",""1996""
","
","
","""event"",""trial"",""time""
""fullscreenenter"",""1"",""1996""
","
","","","606.7999999523163","","","12","13637","5867","&#9789;","elianto","#f73b6a7A"," "," ","1","0","[1467]","1","0","4","","","","","","","",""
"pit-trial","87","743276","0.0-2.0-17.1-1.1","battery-v0.2","","""event"",""trial"",""time""
""fullscreenenter"",""1"",""1996""
","
","
","""event"",""trial"",""time""
""fullscreenenter"",""1"",""1996""
","
","","","772.5999999046326","","","12","13637","5867","&#9789;","elianto","#f73b6a7A"," "," ","1","0","[1623.2999999523163]","1","0","4","","","","","","","",""
"pit-trial","88","746368","0.0-2.0-17.1-2.1","battery-v0.2","","""event"",""trial"",""time""
""fullscreenenter"",""1"",""1996""
","
","
","""event"",""trial"",""time""
""fullscreenenter"",""1"",""1996""
","
","","","235.30000019073486","","","12","13637","5867","&#9789;","elianto","#f73b6a7A"," "," ","1","0","[1089.7000000476837]","1","0","4","","","","","","","",""
"pit-trial","89","749727","0.0-2.0-17.1-3.1","battery-v0.2","","""event"",""trial"",""time""
""fullscreenenter"",""1"",""1996""
","
","
","""event"",""trial"",""time""
""fullscreenenter"",""1"",""1996""
","
","","","506","","","12","13637","5867","&#9789;","elianto","#f73b6a7A"," "," ","1","-10","[686.9000000953674,1356.7000000476837]","2","0","4","","","","","","","",""
"pit-trial","90","753631","0.0-2.0-17.1-4.1","battery-v0.2","","""event"",""trial"",""time""
""fullscreenenter"",""1"",""1996""
","
","
","""event"",""trial"",""time""
""fullscreenenter"",""1"",""1996""
","
","","","1051.2999999523163","","","12","13637","5867","&#9789;","elianto","#f73b6a7A"," "," ","1","0","[1902]","1","0","4","","","","","","","",""
"pit-trial","91","756910","0.0-2.0-17.2-0.2","battery-v0.2","","""event"",""trial"",""time""
""fullscreenenter"",""1"",""1996""
","
","
","""event"",""trial"",""time""
""fullscreenenter"",""1"",""1996""
","
","","","426.2999999523163","","","12","13637","5867","&#9789;","elianto","#f73b6a7A"," "," ","1","0","[1276.7000000476837]","1","0","4","","","","","","","",""
"pit-trial","92","760183","0.0-2.0-17.2-1.2","battery-v0.2","","""event"",""trial"",""time""
""fullscreenenter"",""1"",""1996""
","
","
","""event"",""trial"",""time""
""fullscreenenter"",""1"",""1996""
","
","","","419.59999990463257","","","12","13637","5867","&#9789;","elianto","#f73b6a7A"," "," ","1","0","[1270.5]","1","0","4","","","","","","","",""
"pit-trial","93","763615","0.0-2.0-17.2-2.2","battery-v0.2","","""event"",""trial"",""time""
""fullscreenenter"",""1"",""1996""
","
","
","""event"",""trial"",""time""
""fullscreenenter"",""1"",""1996""
","
","","","578.8000001907349","","","12","13637","5867","&#9789;","elianto","#f73b6a7A"," "," ","1","0","[1430]","1","0","4","","","","","","","",""
"pit-trial","94","768470","0.0-2.0-17.2-3.2","battery-v0.2","","""event"",""trial"",""time""
""fullscreenenter"",""1"",""1996""
","
","
","""event"",""trial"",""time""
""fullscreenenter"",""1"",""1996""
","
","","","-1","","","12","13637","5867","&#9789;","elianto","#f73b6a7A"," ","-1","0","0","[]","0","0","4","","","","","","","",""
"pit-trial","95","772534","0.0-2.0-17.2-4.2","battery-v0.2","","""event"",""trial"",""time""
""fullscreenenter"",""1"",""1996""
","
","
","""event"",""trial"",""time""
""fullscreenenter"",""1"",""1996""
","
","","","1211.6999998092651","","","12","13637","5867","&#9789;","elianto","#f73b6a7A"," "," ","1","0","[2062.199999809265]","1","0","4","","","","","","","",""
"pit-trial","96","776190","0.0-2.0-17.3-0.3","battery-v0.2","","""event"",""trial"",""time""
""fullscreenenter"",""1"",""1996""
","
","
","""event"",""trial"",""time""
""fullscreenenter"",""1"",""1996""
","
","","","802.2999999523163","","","12","13637","5867","&#9789;","elianto","#f73b6a7A"," "," ","1","0","[1652.7999999523163,2980.699999809265]","2","0","4","","","","","","","",""
"pit-trial","97","779302","0.0-2.0-17.3-1.3","battery-v0.2","","""event"",""trial"",""time""
""fullscreenenter"",""1"",""1996""
","
","
","""event"",""trial"",""time""
""fullscreenenter"",""1"",""1996""
","
","","","259.10000014305115","","","12","13637","5867","&#9789;","elianto","#f73b6a7A"," "," ","1","0","[1110.1000001430511]","1","0","4","","","","","","","",""
"pit-trial","98","782302","0.0-2.0-17.3-2.3","battery-v0.2","","""event"",""trial"",""time""
""fullscreenenter"",""1"",""1996""
","
","
","""event"",""trial"",""time""
""fullscreenenter"",""1"",""1996""
","
","","","146.69999980926514","","","12","13637","5867","&#9789;","elianto","#f73b6a7A"," "," ","1","0","[997.0999999046326]","1","0","4","","","","","","","",""
"pit-trial","99","787155","0.0-2.0-17.3-3.3","battery-v0.2","","""event"",""trial"",""time""
""fullscreenenter"",""1"",""1996""
","
","
","""event"",""trial"",""time""
""fullscreenenter"",""1"",""1996""
","
","","","-1","","","12","13637","5867","&#9789;","elianto","#f73b6a7A"," ","-1","0","0","[]","0","0","4","","","","","","","",""
"pit-trial","100","790686","0.0-2.0-17.3-4.3","battery-v0.2","","""event"",""trial"",""time""
""fullscreenenter"",""1"",""1996""
","
","
","""event"",""trial"",""time""
""fullscreenenter"",""1"",""1996""
","
","","","678.7999999523163","","","12","13637","5867","&#9789;","elianto","#f73b6a7A"," "," ","1","0","[1529.5]","1","0","4","","","","","","","",""
"call-function","101","790688","0.0-2.0-18.0","battery-v0.2","","""event"",""trial"",""time""
""fullscreenenter"",""1"",""1996""
","
","
","""event"",""trial"",""time""
""fullscreenenter"",""1"",""1996""
","
","","","","","","","","","","","","","","","","","","","","","","","","","","",""
"pit-instructions","102","866310","0.0-2.0-19.0","battery-v0.2","","""event"",""trial"",""time""
""fullscreenenter"",""1"",""1996""
","
","
","""event"",""trial"",""time""
""fullscreenenter"",""1"",""1996""
","
","","[{""page_index"":0,""viewing_time"":6837.899999856949},{""page_index"":1,""viewing_time"":8459.100000143051},{""page_index"":2,""viewing_time"":12118.599999904633},{""page_index"":3,""viewing_time"":5772.200000047684},{""page_index"":4,""viewing_time"":10181.099999904633},{""page_index"":5,""viewing_time"":9137.400000095367},{""page_index"":6,""viewing_time"":8378.200000047684},{""page_index"":7,""viewing_time"":11012},{""page_index"":8,""viewing_time"":3725}]","75621.79999995232","","","","","","","","","","","","","","","","","","","","","","","",""
"pit-comprehension","103","870929","0.0-2.0-20.0-0.0","battery-v0.2","","""event"",""trial"",""time""
""fullscreenenter"",""1"",""1996""
","
","
","""event"",""trial"",""time""
""fullscreenenter"",""1"",""1996""
","
","","","4615.5","[""SPACE""]","0","12","13637","5867","","","","","","","","","","","","","","","","","","",""
"pit-instructions","104","873500","0.0-2.0-20.0-1.0","battery-v0.2","","""event"",""trial"",""time""
""fullscreenenter"",""1"",""1996""
","
","
","""event"",""trial"",""time""
""fullscreenenter"",""1"",""1996""
","
","","[{""page_index"":0,""viewing_time"":2545.600000143051}]","2545.800000190735","","","","","","","","","","","","","","","","","","","","","","","",""
"pit-comprehension","105","878911","0.0-2.0-21.0-0.0","battery-v0.2","","""event"",""trial"",""time""
""fullscreenenter"",""1"",""1996""
","
","
","""event"",""trial"",""time""
""fullscreenenter"",""1"",""1996""
","
","","","5409.399999856949","[""10""]","0","12","13637","5867","","","","","","","","","","","","","","","","","","",""
"pit-instructions","106","884151","0.0-2.0-21.0-1.0","battery-v0.2","","""event"",""trial"",""time""
""fullscreenenter"",""1"",""1996""
","
","
","""event"",""trial"",""time""
""fullscreenenter"",""1"",""1996""
","
","","[{""page_index"":0,""viewing_time"":5219.200000047684}]","5219.5","","","","","","","","","","","","","","","","","","","","","","","",""
"pit-comprehension","107","890819","0.0-2.0-22.0-0.0","battery-v0.2","","""event"",""trial"",""time""
""fullscreenenter"",""1"",""1996""
","
","
","""event"",""trial"",""time""
""fullscreenenter"",""1"",""1996""
","
","","","6666.5","[""-10""]","1","12","13637","5867","","","","","","","","","","","","","","","","","","",""
"pit-instructions","108","898571","0.0-2.0-22.0-1.0","battery-v0.2","","""event"",""trial"",""time""
""fullscreenenter"",""1"",""1996""
","
","
","""event"",""trial"",""time""
""fullscreenenter"",""1"",""1996""
","
","","[{""page_index"":0,""viewing_time"":7727.399999856949}]","7727.700000047684","","","","","","","","","","","","","","","","","","","","","","","",""
"pit-instructions","109","899826","0.0-2.0-22.0-2.0-0.0","battery-v0.2","","""event"",""trial"",""time""
""fullscreenenter"",""1"",""1996""
","
","
","""event"",""trial"",""time""
""fullscreenenter"",""1"",""1996""
","
","","[{""page_index"":0,""viewing_time"":1253.8000001907349}]","1254","","","","","","","","","","","","","","","","","","","","","","","",""
"pit-comprehension","110","906281","0.0-2.0-22.1-0.1","battery-v0.2","","""event"",""trial"",""time""
""fullscreenenter"",""1"",""1996""
","
","
","""event"",""trial"",""time""
""fullscreenenter"",""1"",""1996""
","
","","","6453.599999904633","[""0""]","0","12","13637","5867","","","","","","","","","","","","","","","","","","",""
"pit-instructions","111","909283","0.0-2.0-22.1-1.1","battery-v0.2","","""event"",""trial"",""time""
""fullscreenenter"",""1"",""1996""
","
","
","""event"",""trial"",""time""
""fullscreenenter"",""1"",""1996""
","
","","[{""page_index"":0,""viewing_time"":2980.800000190735}]","2981.100000143051","","","","","","","","","","","","","","","","","","","","","","","",""
"pit-comprehension","112","926458","0.0-2.0-23.0-0.0","battery-v0.2","","""event"",""trial"",""time""
""fullscreenenter"",""1"",""1996""
","
","
","""event"",""trial"",""time""
""fullscreenenter"",""1"",""1996""
","
","","","17173","[""True""]","0","12","13637","5867","","","","","","","","","","","","","","","","","","",""
"pit-instructions","113","931766","0.0-2.0-23.0-1.0","battery-v0.2","","""event"",""trial"",""time""
""fullscreenenter"",""1"",""1996""
","
","
","""event"",""trial"",""time""
""fullscreenenter"",""1"",""1996""
","
","","[{""page_index"":0,""viewing_time"":5281.899999856949}]","5282.199999809265","","","","","","","","","","","","","","","","","","","","","","","",""
"pit-comprehension","114","940547","0.0-2.0-24.0-0.0","battery-v0.2","","""event"",""trial"",""time""
""fullscreenenter"",""1"",""1996""
","
","
","""event"",""trial"",""time""
""fullscreenenter"",""1"",""1996""
","
","","","8779","[""True""]","0","12","13637","5867","","","","","","","","","","","","","","","","","","",""
"pit-instructions","115","943146","0.0-2.0-24.0-1.0","battery-v0.2","","""event"",""trial"",""time""
""fullscreenenter"",""1"",""1996""
","
","
","""event"",""trial"",""time""
""fullscreenenter"",""1"",""1996""
","
","","[{""page_index"":0,""viewing_time"":2577.4000000953674}]","2577.5999999046326","","","","","","","","","","","","","","","","","","","","","","","",""
"pit-comprehension","116","951843","0.0-2.0-25.0-0.0","battery-v0.2","","""event"",""trial"",""time""
""fullscreenenter"",""1"",""1996""
","
","
","""event"",""trial"",""time""
""fullscreenenter"",""1"",""1996""
","
","","","8695.299999952316","[""True""]","0","12","13637","5867","","","","","","","","","","","","","","","","","","",""
"pit-instructions","117","953958","0.0-2.0-25.0-1.0","battery-v0.2","","""event"",""trial"",""time""
""fullscreenenter"",""1"",""1996""
","
","
","""event"",""trial"",""time""
""fullscreenenter"",""1"",""1996""
","
","","[{""page_index"":0,""viewing_time"":2089.699999809265}]","2090","","","","","","","","","","","","","","","","","","","","","","","",""
"pit-comprehension","118","959469","0.0-2.0-26.0-0.0","battery-v0.2","","""event"",""trial"",""time""
""fullscreenenter"",""1"",""1996""
","
","
","""event"",""trial"",""time""
""fullscreenenter"",""1"",""1996""
","
","","","5509.799999952316","[""False""]","0","12","13637","5867","","","","","","","","","","","","","","","","","","",""
"pit-instructions","119","963617","0.0-2.0-26.0-1.0","battery-v0.2","","""event"",""trial"",""time""
""fullscreenenter"",""1"",""1996""
","
","
","""event"",""trial"",""time""
""fullscreenenter"",""1"",""1996""
","
","","[{""page_index"":0,""viewing_time"":4125.900000095367}]","4126.100000143051","","","","","","","","","","","","","","","","","","","","","","","",""
"pit-instructions","120","995100","0.0-3.0","battery-v0.2","","""event"",""trial"",""time""
""fullscreenenter"",""1"",""1996""
","
","
","""event"",""trial"",""time""
""fullscreenenter"",""1"",""1996""
","
","","[{""page_index"":0,""viewing_time"":4589},{""page_index"":1,""viewing_time"":7587.299999952316},{""page_index"":2,""viewing_time"":19305.799999952316}]","31482.199999809265","","","","","","","","","","","","","","","","","","","","","","","",""
"pit-trial","121","998838","0.0-4.0","battery-v0.2","","""event"",""trial"",""time""
""fullscreenenter"",""1"",""1996""
","
","
","""event"",""trial"",""time""
""fullscreenenter"",""1"",""1996""
","
","","","877.7000000476837","","","12","13637","5867","&#9733;","elianto","#3366ff99","-1"," ","0","0","[1734.5]","1","1","","","13637","1","2","2","win","no-go","0"
"pit-trial","122","1003000","0.0-5.0","battery-v0.2","","""event"",""trial"",""time""
""fullscreenenter"",""1"",""1996""
","
","
","""event"",""trial"",""time""
""fullscreenenter"",""1"",""1996""
","
","","","1295.5","","","12","13637","5867","&#9730;","elianto","#3366ff99"," "," ","1","+10","[2149]","1","1","","","13637","2","1","1","win","go","0"
"pit-trial","123","1007879","0.0-6.0","battery-v0.2","","""event"",""trial"",""time""
""fullscreenenter"",""1"",""1996""
","
","
","""event"",""trial"",""time""
""fullscreenenter"",""1"",""1996""
","
","","","-1","","","12","13637","5867","&#9752;","elianto","#f73b6a7A"," ","-1","0","0","[]","0","1","","","13637","3","3","3","lose","go","1"
"pit-trial","124","1012723","0.0-7.0","battery-v0.2","","""event"",""trial"",""time""
""fullscreenenter"",""1"",""1996""
","
","
","""event"",""trial"",""time""
""fullscreenenter"",""1"",""1996""
","
","","","1969.5999999046326","","","12","13637","5867","&#9728;","elianto","#f73b6a7A","-1"," ","0","-10","[2830.5]","1","1","","","13637","4","0","4","lose","no-go","0"
"pit-trial","125","1016822","0.0-8.0","battery-v0.2","","""event"",""trial"",""time""
""fullscreenenter"",""1"",""1996""
","
","
","""event"",""trial"",""time""
""fullscreenenter"",""1"",""1996""
","
","","","1245.2999999523163","","","12","13637","5867","&#9733;","elianto","#3366ff99","-1"," ","0","+10","[2095.9000000953674]","1","1","","","13637","5","2","2","win","no-go","1"
"pit-trial","126","1021676","0.0-9.0","battery-v0.2","","""event"",""trial"",""time""
""fullscreenenter"",""1"",""1996""
","
","
","""event"",""trial"",""time""
""fullscreenenter"",""1"",""1996""
","
","","","-1","","","12","13637","5867","&#9752;","elianto","#f73b6a7A"," ","-1","0","-10","[]","0","1","","","13637","6","3","3","lose","go","0"
"pit-trial","127","1025487","0.0-10.0","battery-v0.2","","""event"",""trial"",""time""
""fullscreenenter"",""1"",""1996""
","
","
","""event"",""trial"",""time""
""fullscreenenter"",""1"",""1996""
","
","","","958.5999999046326","","","12","13637","5867","&#9728;","elianto","#f73b6a7A","-1"," ","0","-10","[1809.2000000476837]","1","1","","","13637","7","0","4","lose","no-go","0"
"pit-trial","128","1029605","0.0-11.0","battery-v0.2","","""event"",""trial"",""time""
""fullscreenenter"",""1"",""1996""
","
","
","""event"",""trial"",""time""
""fullscreenenter"",""1"",""1996""
","
","","","1264.9000000953674","","","12","13637","5867","&#9730;","elianto","#3366ff99"," "," ","1","0","[2115.2000000476837]","1","1","","","13637","8","1","1","win","go","1"
"pit-trial","129","1034459","0.0-12.0","battery-v0.2","","""event"",""trial"",""time""
""fullscreenenter"",""1"",""1996""
","
","
","""event"",""trial"",""time""
""fullscreenenter"",""1"",""1996""
","
","","","-1","","","12","13637","5867","&#9752;","elianto","#f73b6a7A"," ","-1","0","0","[]","0","1","","","13637","9","3","3","lose","go","1"
"pit-trial","130","1039312","0.0-13.0","battery-v0.2","","""event"",""trial"",""time""
""fullscreenenter"",""1"",""1996""
","
","
","""event"",""trial"",""time""
""fullscreenenter"",""1"",""1996""
","
","","","-1","","","12","13637","5867","&#9728;","elianto","#f73b6a7A","-1","-1","1","0","[]","0","1","","","13637","10","0","4","lose","no-go","0"
"pit-trial","131","1043501","0.0-14.0","battery-v0.2","","""event"",""trial"",""time""
""fullscreenenter"",""1"",""1996""
","
","
","""event"",""trial"",""time""
""fullscreenenter"",""1"",""1996""
","
","","","1335.5","","","12","13637","5867","&#9733;","elianto","#3366ff99","-1"," ","0","0","[2186.7000000476837]","1","1","","","13637","11","2","2","win","no-go","0"
"pit-trial","132","1048354","0.0-15.0","battery-v0.2","","""event"",""trial"",""time""
""fullscreenenter"",""1"",""1996""
","
","
","""event"",""trial"",""time""
""fullscreenenter"",""1"",""1996""
","
","","","-1","","","12","13637","5867","&#9730;","elianto","#3366ff99"," ","-1","0","0","[]","0","1","","","13637","12","1","1","win","go","0"
"pit-trial","133","1053207","0.0-16.0","battery-v0.2","","""event"",""trial"",""time""
""fullscreenenter"",""1"",""1996""
","
","
","""event"",""trial"",""time""
""fullscreenenter"",""1"",""1996""
","
","","","-1","","","12","13637","5867","&#9752;","elianto","#f73b6a7A"," ","-1","0","-10","[]","0","1","","","13637","13","3","3","lose","go","0"
"pit-trial","134","1057367","0.0-17.0","battery-v0.2","","""event"",""trial"",""time""
""fullscreenenter"",""1"",""1996""
","
","
","""event"",""trial"",""time""
""fullscreenenter"",""1"",""1996""
","
","","","1306.8999998569489","","","12","13637","5867","&#9730;","elianto","#3366ff99"," "," ","1","+10","[2157.0999999046326]","1","1","","","13637","14","1","1","win","go","0"
"pit-trial","135","1060855","0.0-18.0","battery-v0.2","","""event"",""trial"",""time""
""fullscreenenter"",""1"",""1996""
","
","
","""event"",""trial"",""time""
""fullscreenenter"",""1"",""1996""
","
","","","633.4000000953674","","","12","13637","5867","&#9733;","elianto","#3366ff99","-1"," ","0","0","[1484.5,2620.5]","2","1","","","13637","15","2","2","win","no-go","0"
"pit-trial","136","1065709","0.0-19.0","battery-v0.2","","""event"",""trial"",""time""
""fullscreenenter"",""1"",""1996""
","
","
","""event"",""trial"",""time""
""fullscreenenter"",""1"",""1996""
","
","","","-1","","","12","13637","5867","&#9728;","elianto","#f73b6a7A","-1","-1","1","0","[]","0","1","","","13637","16","0","4","lose","no-go","0"
"pit-trial","137","1070562","0.0-20.0","battery-v0.2","","""event"",""trial"",""time""
""fullscreenenter"",""1"",""1996""
","
","
","""event"",""trial"",""time""
""fullscreenenter"",""1"",""1996""
","
","","","-1","","","12","13637","5867","&#9730;","elianto","#3366ff99"," ","-1","0","0","[]","0","1","","","13637","17","1","1","win","go","0"
"pit-trial","138","1075415","0.0-21.0","battery-v0.2","","""event"",""trial"",""time""
""fullscreenenter"",""1"",""1996""
","
","
","""event"",""trial"",""time""
""fullscreenenter"",""1"",""1996""
","
","","","-1","","","12","13637","5867","&#9752;","elianto","#f73b6a7A"," ","-1","0","-10","[]","0","1","","","13637","18","3","3","lose","go","0"
"pit-trial","139","1079303","0.0-22.0","battery-v0.2","","""event"",""trial"",""time""
""fullscreenenter"",""1"",""1996""
","
","
","""event"",""trial"",""time""
""fullscreenenter"",""1"",""1996""
","
","","","1033.9000000953674","","","12","13637","5867","&#9733;","elianto","#3366ff99","-1"," ","0","0","[1885.9000000953674]","1","1","","","13637","19","2","2","win","no-go","0"
"pit-trial","140","1084156","0.0-23.0","battery-v0.2","","""event"",""trial"",""time""
""fullscreenenter"",""1"",""1996""
","
","
","""event"",""trial"",""time""
""fullscreenenter"",""1"",""1996""
","
","","","-1","","","12","13637","5867","&#9728;","elianto","#f73b6a7A","-1","-1","1","-10","[]","0","1","","","13637","20","0","4","lose","no-go","1"
"pit-instructions","141","1101851","0.0-24.0","battery-v0.2","","""event"",""trial"",""time""
""fullscreenenter"",""1"",""1996""
","
","
","""event"",""trial"",""time""
""fullscreenenter"",""1"",""1996""
","
","","[{""page_index"":0,""viewing_time"":10402.700000047684},{""page_index"":1,""viewing_time"":7289.700000047684}]","17692.799999952316","","","","","","","","","","","","","","","","","","","","","","","",""
"pit-trial","142","1105747","0.0-25.0","battery-v0.2","","""event"",""trial"",""time""
""fullscreenenter"",""1"",""1996""
","
","
","""event"",""trial"",""time""
""fullscreenenter"",""1"",""1996""
","
","","","1037","","","12","13637","5867","f","elianto","#3366ff99"," "," ","1","+10","[1887.8000001907349]","1","2","","","13637","21","1","1","win","go","0"
"pit-trial","143","1110608","0.0-26.0","battery-v0.2","","""event"",""trial"",""time""
""fullscreenenter"",""1"",""1996""
","
","
","""event"",""trial"",""time""
""fullscreenenter"",""1"",""1996""
","
","","","-1","","","12","13637","5867","t","elianto","#f73b6a7A","-1","-1","1","-10","[]","0","2","","","13637","22","2","4","lose","no-go","1"
"pit-trial","144","1114782","0.0-27.0","battery-v0.2","","""event"",""trial"",""time""
""fullscreenenter"",""1"",""1996""
","
","
","""event"",""trial"",""time""
""fullscreenenter"",""1"",""1996""
","
","","","1314.5","","","12","13637","5867","b","elianto","#f73b6a7A"," "," ","1","-10","[2164.5]","1","2","","","13637","23","3","3","lose","go","1"
"pit-trial","145","1119003","0.0-28.0","battery-v0.2","","""event"",""trial"",""time""
""fullscreenenter"",""1"",""1996""
","
","
","""event"",""trial"",""time""
""fullscreenenter"",""1"",""1996""
","
","","","1348.5","","","12","13637","5867","n","elianto","#f73b6a7A","-1"," ","0","-10","[2205.5]","1","2","","","13637","24","0","4","lose","no-go","0"
"pit-trial","146","1123870","0.0-29.0","battery-v0.2","","""event"",""trial"",""time""
""fullscreenenter"",""1"",""1996""
","
","
","""event"",""trial"",""time""
""fullscreenenter"",""1"",""1996""
","
","","","-1","","","12","13637","5867","n","elianto","#f73b6a7A","-1","-1","1","0","[]","0","2","","","13637","25","0","4","lose","no-go","0"
"pit-trial","147","1127573","0.0-30.0","battery-v0.2","","""event"",""trial"",""time""
""fullscreenenter"",""1"",""1996""
","
","
","""event"",""trial"",""time""
""fullscreenenter"",""1"",""1996""
","
","","","833.6000001430511","","","12","13637","5867","f","elianto","#3366ff99"," "," ","1","+10","[1685.2999999523163]","1","2","","","13637","26","1","1","win","go","0"
"pit-trial","148","1131718","0.0-31.0","battery-v0.2","","""event"",""trial"",""time""
""fullscreenenter"",""1"",""1996""
","
","
","""event"",""trial"",""time""
""fullscreenenter"",""1"",""1996""
","
","","","1291.3999998569489","","","12","13637","5867","t","elianto","#f73b6a7A","-1"," ","0","0","[2143.0999999046326]","1","2","","","13637","27","2","4","lose","no-go","1"
"pit-trial","149","1135630","0.0-32.0","battery-v0.2","","""event"",""trial"",""time""
""fullscreenenter"",""1"",""1996""
","
","
","""event"",""trial"",""time""
""fullscreenenter"",""1"",""1996""
","
","","","1058.7000000476837","","","12","13637","5867","b","elianto","#f73b6a7A"," "," ","1","0","[1909.7000000476837]","1","2","","","13637","28","3","3","lose","go","0"
"pit-trial","150","1139493","0.0-33.0","battery-v0.2","","""event"",""trial"",""time""
""fullscreenenter"",""1"",""1996""
","
","
","""event"",""trial"",""time""
""fullscreenenter"",""1"",""1996""
","
","","","1011.0999999046326","","","12","13637","5867","b","elianto","#f73b6a7A"," "," ","1","0","[1861.7999999523163]","1","2","","","13637","29","3","3","lose","go","0"
"pit-trial","151","1143198","0.0-34.0","battery-v0.2","","""event"",""trial"",""time""
""fullscreenenter"",""1"",""1996""
","
","
","""event"",""trial"",""time""
""fullscreenenter"",""1"",""1996""
","
","","","851.1000001430511","","","12","13637","5867","f","elianto","#3366ff99"," "," ","1","+10","[1701.9000000953674]","1","2","","","13637","30","1","1","win","go","0"
"pit-trial","152","1146975","0.0-35.0","battery-v0.2","","""event"",""trial"",""time""
""fullscreenenter"",""1"",""1996""
","
","
","""event"",""trial"",""time""
""fullscreenenter"",""1"",""1996""
","
","","","924.2000000476837","","","12","13637","5867","n","elianto","#f73b6a7A","-1"," ","0","-10","[1774.7999999523163]","1","2","","","13637","31","0","4","lose","no-go","0"
"pit-trial","153","1150590","0.0-36.0","battery-v0.2","","""event"",""trial"",""time""
""fullscreenenter"",""1"",""1996""
","
","
","""event"",""trial"",""time""
""fullscreenenter"",""1"",""1996""
","
","","","757.1999998092651","","","12","13637","5867","t","elianto","#f73b6a7A","-1"," ","0","0","[1613.1999998092651]","1","2","","","13637","32","2","4","lose","no-go","1"
"pit-trial","154","1154751","0.0-37.0","battery-v0.2","","""event"",""trial"",""time""
""fullscreenenter"",""1"",""1996""
","
","
","""event"",""trial"",""time""
""fullscreenenter"",""1"",""1996""
","
","","","1308.1999998092651","","","12","13637","5867","t","elianto","#f73b6a7A","-1"," ","0","0","[2158.2999999523163]","1","2","","","13637","33","2","4","lose","no-go","1"
"pit-trial","155","1159604","0.0-38.0","battery-v0.2","","""event"",""trial"",""time""
""fullscreenenter"",""1"",""1996""
","
","
","""event"",""trial"",""time""
""fullscreenenter"",""1"",""1996""
","
","","","-1","","","12","13637","5867","n","elianto","#f73b6a7A","-1","-1","1","0","[]","0","2","","","13637","34","0","4","lose","no-go","0"
"pit-trial","156","1163415","0.0-39.0","battery-v0.2","","""event"",""trial"",""time""
""fullscreenenter"",""1"",""1996""
","
","
","""event"",""trial"",""time""
""fullscreenenter"",""1"",""1996""
","
","","","957.5","","","12","13637","5867","b","elianto","#f73b6a7A"," "," ","1","0","[1808.0999999046326]","1","2","","","13637","35","3","3","lose","go","0"
"pit-trial","157","1167382","0.0-40.0","battery-v0.2","","""event"",""trial"",""time""
""fullscreenenter"",""1"",""1996""
","
","
","""event"",""trial"",""time""
""fullscreenenter"",""1"",""1996""
","
","","","1115.0999999046326","","","12","13637","5867","f","elianto","#3366ff99"," "," ","1","+10","[1965.2000000476837]","1","2","","","13637","36","1","1","win","go","0"
"pit-trial","158","1170973","0.0-41.0","battery-v0.2","","""event"",""trial"",""time""
""fullscreenenter"",""1"",""1996""
","
","
","""event"",""trial"",""time""
""fullscreenenter"",""1"",""1996""
","
","","","738","","","12","13637","5867","f","elianto","#3366ff99"," "," ","1","+10","[1588.3999998569489]","1","2","","","13637","37","1","1","win","go","0"
"pit-trial","159","1175825","0.0-42.0","battery-v0.2","","""event"",""trial"",""time""
""fullscreenenter"",""1"",""1996""
","
","
","""event"",""trial"",""time""
""fullscreenenter"",""1"",""1996""
","
","","","-1","","","12","13637","5867","n","elianto","#f73b6a7A","-1","-1","1","0","[]","0","2","","","13637","38","0","4","lose","no-go","0"
"pit-trial","160","1179718","0.0-43.0","battery-v0.2","","""event"",""trial"",""time""
""fullscreenenter"",""1"",""1996""
","
","
","""event"",""trial"",""time""
""fullscreenenter"",""1"",""1996""
","
","","","1040.1000001430511","","","12","13637","5867","b","elianto","#f73b6a7A"," "," ","1","0","[1890.6000001430511]","1","2","","","13637","39","3","3","lose","go","0"
"pit-trial","161","1183678","0.0-44.0","battery-v0.2","","""event"",""trial"",""time""
""fullscreenenter"",""1"",""1996""
","
","
","""event"",""trial"",""time""
""fullscreenenter"",""1"",""1996""
","
","","","1106.1000001430511","","","12","13637","5867","t","elianto","#f73b6a7A","-1"," ","0","0","[1956.9000000953674]","1","2","","","13637","40","2","4","lose","no-go","1"
"pit-trial","162","1187255","0.0-45.0","battery-v0.2","","""event"",""trial"",""time""
""fullscreenenter"",""1"",""1996""
","
","
","""event"",""trial"",""time""
""fullscreenenter"",""1"",""1996""
","
","","","725.2999999523163","","","12","13637","5867","f","elianto","#3366ff99"," "," ","1","0","[1575.3999998569489]","1","2","","","13637","41","1","1","win","go","1"
"pit-trial","163","1192108","0.0-46.0","battery-v0.2","","""event"",""trial"",""time""
""fullscreenenter"",""1"",""1996""
","
","
","""event"",""trial"",""time""
""fullscreenenter"",""1"",""1996""
","
","","","-1","","","12","13637","5867","n","elianto","#f73b6a7A","-1","-1","1","0","[]","0","2","","","13637","42","0","4","lose","no-go","0"
"pit-trial","164","1195886","0.0-47.0","battery-v0.2","","""event"",""trial"",""time""
""fullscreenenter"",""1"",""1996""
","
","
","""event"",""trial"",""time""
""fullscreenenter"",""1"",""1996""
","
","","","925.4000000953674","","","12","13637","5867","t","elianto","#f73b6a7A","-1"," ","0","-10","[1775.5]","1","2","","","13637","43","2","4","lose","no-go","0"
"pit-trial","165","1199982","0.0-48.0","battery-v0.2","","""event"",""trial"",""time""
""fullscreenenter"",""1"",""1996""
","
","
","""event"",""trial"",""time""
""fullscreenenter"",""1"",""1996""
","
","","","1242.5","","","12","13637","5867","b","elianto","#f73b6a7A"," "," ","1","0","[2093.5]","1","2","","","13637","44","3","3","lose","go","0"
"pit-trial","166","1204834","0.0-49.0","battery-v0.2","","""event"",""trial"",""time""
""fullscreenenter"",""1"",""1996""
","
","
","""event"",""trial"",""time""
""fullscreenenter"",""1"",""1996""
","
","","","-1","","","12","13637","5867","n","elianto","#f73b6a7A","-1","-1","1","0","[]","0","2","","","13637","45","0","4","lose","no-go","0"
"pit-trial","167","1208687","0.0-50.0","battery-v0.2","","""event"",""trial"",""time""
""fullscreenenter"",""1"",""1996""
","
","
","""event"",""trial"",""time""
""fullscreenenter"",""1"",""1996""
","
","","","999.2000000476837","","","12","13637","5867","c","elianto","#3366ff99","-1"," ","0","0","[1850]","1","2","","","13637","46","4","2","win","no-go","0"
"pit-trial","168","1212293","0.0-51.0","battery-v0.2","","""event"",""trial"",""time""
""fullscreenenter"",""1"",""1996""
","
","
","""event"",""trial"",""time""
""fullscreenenter"",""1"",""1996""
","
","","","753.5","","","12","13637","5867","t","elianto","#f73b6a7A","-1"," ","0","-10","[1604]","1","2","","","13637","47","2","4","lose","no-go","0"
"pit-trial","169","1216766","0.0-52.0","battery-v0.2","","""event"",""trial"",""time""
""fullscreenenter"",""1"",""1996""
","
","
","""event"",""trial"",""time""
""fullscreenenter"",""1"",""1996""
","
","","","1620","","","12","13637","5867","b","elianto","#f73b6a7A"," "," ","1","0","[2470.2000000476837]","1","2","","","13637","48","3","3","lose","go","0"
"pit-trial","170","1220862","0.0-53.0","battery-v0.2","","""event"",""trial"",""time""
""fullscreenenter"",""1"",""1996""
","
","
","""event"",""trial"",""time""
""fullscreenenter"",""1"",""1996""
","
","","","1243.6999998092651","","","12","13637","5867","b","elianto","#f73b6a7A"," "," ","1","0","[2093.7999999523163]","1","2","","","13637","49","3","3","lose","go","0"
"pit-trial","171","1224264","0.0-54.0","battery-v0.2","","""event"",""trial"",""time""
""fullscreenenter"",""1"",""1996""
","
","
","""event"",""trial"",""time""
""fullscreenenter"",""1"",""1996""
","
","","","545","","","12","13637","5867","f","elianto","#3366ff99"," "," ","1","+10","[1396.4000000953674]","1","2","","","13637","50","1","1","win","go","0"
"pit-trial","172","1227742","0.0-55.0","battery-v0.2","","""event"",""trial"",""time""
""fullscreenenter"",""1"",""1996""
","
","
","""event"",""trial"",""time""
""fullscreenenter"",""1"",""1996""
","
","","","624.5","","","12","13637","5867","c","elianto","#3366ff99","-1"," ","0","0","[1475.5999999046326]","1","2","","","13637","51","4","2","win","no-go","0"
"pit-trial","173","1232595","0.0-56.0","battery-v0.2","","""event"",""trial"",""time""
""fullscreenenter"",""1"",""1996""
","
","
","""event"",""trial"",""time""
""fullscreenenter"",""1"",""1996""
","
","","","-1","","","12","13637","5867","n","elianto","#f73b6a7A","-1","-1","1","0","[]","0","2","","","13637","52","0","4","lose","no-go","0"
"pit-trial","174","1236847","0.0-57.0","battery-v0.2","","""event"",""trial"",""time""
""fullscreenenter"",""1"",""1996""
","
","
","""event"",""trial"",""time""
""fullscreenenter"",""1"",""1996""
","
","","","1399.4000000953674","","","12","13637","5867","c","elianto","#3366ff99","-1"," ","0","0","[2249.5]","1","2","","","13637","53","4","2","win","no-go","0"
"pit-trial","175","1241699","0.0-58.0","battery-v0.2","","""event"",""trial"",""time""
""fullscreenenter"",""1"",""1996""
","
","
","""event"",""trial"",""time""
""fullscreenenter"",""1"",""1996""
","
","","","-1","","","12","13637","5867","n","elianto","#f73b6a7A","-1","-1","1","0","[]","0","2","","","13637","54","0","4","lose","no-go","0"
"pit-trial","176","1245830","0.0-59.0","battery-v0.2","","""event"",""trial"",""time""
""fullscreenenter"",""1"",""1996""
","
","
","""event"",""trial"",""time""
""fullscreenenter"",""1"",""1996""
","
","","","1277.4000000953674","","","12","13637","5867","f","elianto","#3366ff99"," "," ","1","+10","[2128.0999999046326]","1","2","","","13637","55","1","1","win","go","0"
"pit-trial","177","1249494","0.0-60.0","battery-v0.2","","""event"",""trial"",""time""
""fullscreenenter"",""1"",""1996""
","
","
","""event"",""trial"",""time""
""fullscreenenter"",""1"",""1996""
","
","","","810.8999998569489","","","12","13637","5867","t","elianto","#f73b6a7A","-1"," ","0","-10","[1661.2999999523163]","1","2","","","13637","56","2","4","lose","no-go","0"
"pit-trial","178","1253413","0.0-61.0","battery-v0.2","","""event"",""trial"",""time""
""fullscreenenter"",""1"",""1996""
","
","
","""event"",""trial"",""time""
""fullscreenenter"",""1"",""1996""
","
","","","1066.3000001907349","","","12","13637","5867","b","elianto","#f73b6a7A"," "," ","1","-10","[1917]","1","2","","","13637","57","3","3","lose","go","1"
"pit-trial","179","1256797","0.0-62.0","battery-v0.2","","""event"",""trial"",""time""
""fullscreenenter"",""1"",""1996""
","
","
","""event"",""trial"",""time""
""fullscreenenter"",""1"",""1996""
","
","","","531.2000000476837","","","12","13637","5867","c","elianto","#3366ff99","-1"," ","0","0","[1381.7999999523163]","1","2","","","13637","58","4","2","win","no-go","0"
"pit-trial","180","1260862","0.0-63.0","battery-v0.2","","""event"",""trial"",""time""
""fullscreenenter"",""1"",""1996""
","
","
","""event"",""trial"",""time""
""fullscreenenter"",""1"",""1996""
","
","","","1210.2999999523163","","","12","13637","5867","f","elianto","#3366ff99"," "," ","1","+10","[2061.2000000476837]","1","2","","","13637","59","1","1","win","go","0"
"pit-trial","181","1265726","0.0-64.0","battery-v0.2","","""event"",""trial"",""time""
""fullscreenenter"",""1"",""1996""
","
","
","""event"",""trial"",""time""
""fullscreenenter"",""1"",""1996""
","
","","","-1","","","12","13637","5867","n","elianto","#f73b6a7A","-1","-1","1","0","[]","0","2","","","13637","60","0","4","lose","no-go","0"
"pit-trial","182","1269557","0.0-65.0","battery-v0.2","","""event"",""trial"",""time""
""fullscreenenter"",""1"",""1996""
","
","
","""event"",""trial"",""time""
""fullscreenenter"",""1"",""1996""
","
","","","978.2000000476837","","","12","13637","5867","t","elianto","#f73b6a7A","-1"," ","0","0","[1828.8000001907349]","1","2","","","13637","61","2","4","lose","no-go","1"
"pit-trial","183","1273518","0.0-66.0","battery-v0.2","","""event"",""trial"",""time""
""fullscreenenter"",""1"",""1996""
","
","
","""event"",""trial"",""time""
""fullscreenenter"",""1"",""1996""
","
","","","1108.2999999523163","","","12","13637","5867","b","elianto","#f73b6a7A"," "," ","1","-10","[1958.5999999046326]","1","2","","","13637","62","3","3","lose","go","1"
"pit-trial","184","1278370","0.0-67.0","battery-v0.2","","""event"",""trial"",""time""
""fullscreenenter"",""1"",""1996""
","
","
","""event"",""trial"",""time""
""fullscreenenter"",""1"",""1996""
","
","","","-1","","","12","13637","5867","c","elianto","#3366ff99","-1","-1","1","+10","[]","0","2","","","13637","63","4","2","win","no-go","0"
"pit-trial","185","1282100","0.0-68.0","battery-v0.2","","""event"",""trial"",""time""
""fullscreenenter"",""1"",""1996""
","
","
","""event"",""trial"",""time""
""fullscreenenter"",""1"",""1996""
","
","","","877.4000000953674","","","12","13637","5867","f","elianto","#3366ff99"," "," ","1","+10","[1728.3000001907349]","1","2","","","13637","64","1","1","win","go","0"
"pit-trial","186","1285840","0.0-69.0","battery-v0.2","","""event"",""trial"",""time""
""fullscreenenter"",""1"",""1996""
","
","
","""event"",""trial"",""time""
""fullscreenenter"",""1"",""1996""
","
","","","886.2000000476837","","","12","13637","5867","f","elianto","#3366ff99"," "," ","1","+10","[1736.8999998569489]","1","2","","","13637","65","1","1","win","go","0"
"pit-trial","187","1289878","0.0-70.0","battery-v0.2","","""event"",""trial"",""time""
""fullscreenenter"",""1"",""1996""
","
","
","""event"",""trial"",""time""
""fullscreenenter"",""1"",""1996""
","
","","","1185.6000001430511","","","12","13637","5867","t","elianto","#f73b6a7A","-1"," ","0","-10","[2035.7999999523163]","1","2","","","13637","66","2","4","lose","no-go","0"
"pit-trial","188","1294238","0.0-71.0","battery-v0.2","","""event"",""trial"",""time""
""fullscreenenter"",""1"",""1996""
","
","
","""event"",""trial"",""time""
""fullscreenenter"",""1"",""1996""
","
","","","1505.8000001907349","","","12","13637","5867","b","elianto","#f73b6a7A"," "," ","1","0","[2357.100000143051]","1","2","","","13637","67","3","3","lose","go","0"
"pit-trial","189","1299091","0.0-72.0","battery-v0.2","","""event"",""trial"",""time""
""fullscreenenter"",""1"",""1996""
","
","
","""event"",""trial"",""time""
""fullscreenenter"",""1"",""1996""
","
","","","-1","","","12","13637","5867","c","elianto","#3366ff99","-1","-1","1","0","[]","0","2","","","13637","68","4","2","win","no-go","1"
"pit-trial","190","1302982","0.0-73.0","battery-v0.2","","""event"",""trial"",""time""
""fullscreenenter"",""1"",""1996""
","
","
","""event"",""trial"",""time""
""fullscreenenter"",""1"",""1996""
","
","","","1038.5","","","12","13637","5867","c","elianto","#3366ff99","-1"," ","0","0","[1888.5999999046326]","1","2","","","13637","69","4","2","win","no-go","0"
"pit-trial","191","1307836","0.0-74.0","battery-v0.2","","""event"",""trial"",""time""
""fullscreenenter"",""1"",""1996""
","
","
","""event"",""trial"",""time""
""fullscreenenter"",""1"",""1996""
","
","","","-1","","","12","13637","5867","z","elianto","#3366ff99"," ","-1","0","0","[]","0","2","","","13637","70","5","1","win","go","0"
"pit-trial","192","1311893","0.0-75.0","battery-v0.2","","""event"",""trial"",""time""
""fullscreenenter"",""1"",""1996""
","
","
","""event"",""trial"",""time""
""fullscreenenter"",""1"",""1996""
","
","","","1204","","","12","13637","5867","b","elianto","#f73b6a7A"," "," ","1","0","[2055]","1","2","","","13637","71","3","3","lose","go","0"
"pit-trial","193","1315573","0.0-76.0","battery-v0.2","","""event"",""trial"",""time""
""fullscreenenter"",""1"",""1996""
","
","
","""event"",""trial"",""time""
""fullscreenenter"",""1"",""1996""
","
","","","826.1000001430511","","","12","13637","5867","f","elianto","#3366ff99"," "," ","1","+10","[1676.9000000953674]","1","2","","","13637","72","1","1","win","go","0"
"pit-trial","194","1320426","0.0-77.0","battery-v0.2","","""event"",""trial"",""time""
""fullscreenenter"",""1"",""1996""
","
","
","""event"",""trial"",""time""
""fullscreenenter"",""1"",""1996""
","
","","","-1","","","12","13637","5867","c","elianto","#3366ff99","-1","-1","1","+10","[]","0","2","","","13637","73","4","2","win","no-go","0"
"pit-trial","195","1323877","0.0-78.0","battery-v0.2","","""event"",""trial"",""time""
""fullscreenenter"",""1"",""1996""
","
","
","""event"",""trial"",""time""
""fullscreenenter"",""1"",""1996""
","
","","","599.5","","","12","13637","5867","f","elianto","#3366ff99"," "," ","1","+10","[1449.6999998092651]","1","2","","","13637","74","1","1","win","go","0"
"pit-trial","196","1327877","0.0-79.0","battery-v0.2","","""event"",""trial"",""time""
""fullscreenenter"",""1"",""1996""
","
","
","""event"",""trial"",""time""
""fullscreenenter"",""1"",""1996""
","
","","","1147.7000000476837","","","12","13637","5867","b","elianto","#f73b6a7A"," "," ","1","0","[1998.1000001430511]","1","2","","","13637","75","3","3","lose","go","0"
"pit-trial","197","1332389","0.0-80.0","battery-v0.2","","""event"",""trial"",""time""
""fullscreenenter"",""1"",""1996""
","
","
","""event"",""trial"",""time""
""fullscreenenter"",""1"",""1996""
","
","","","1659.6000001430511","","","12","13637","5867","z","elianto","#3366ff99"," "," ","1","+10","[2509.5999999046326]","1","2","","","13637","76","5","1","win","go","0"
"pit-trial","198","1337243","0.0-81.0","battery-v0.2","","""event"",""trial"",""time""
""fullscreenenter"",""1"",""1996""
","
","
","""event"",""trial"",""time""
""fullscreenenter"",""1"",""1996""
","
","","","-1","","","12","13637","5867","c","elianto","#3366ff99","-1","-1","1","+10","[]","0","2","","","13637","77","4","2","win","no-go","0"
"pit-trial","199","1341878","0.0-82.0","battery-v0.2","","""event"",""trial"",""time""
""fullscreenenter"",""1"",""1996""
","
","
","""event"",""trial"",""time""
""fullscreenenter"",""1"",""1996""
","
","","","1783","","","12","13637","5867","h","elianto","#f73b6a7A","-1"," ","0","-10","[2633.2000000476837]","1","2","","","13637","78","6","4","lose","no-go","0"
"pit-trial","200","1346534","0.0-83.0","battery-v0.2","","""event"",""trial"",""time""
""fullscreenenter"",""1"",""1996""
","
","
","""event"",""trial"",""time""
""fullscreenenter"",""1"",""1996""
","
","","","1802.6000001430511","","","12","13637","5867","z","elianto","#3366ff99"," "," ","1","0","[2652.9000000953674]","1","2","","","13637","79","5","1","win","go","1"
"pit-trial","201","1350661","0.0-84.0","battery-v0.2","","""event"",""trial"",""time""
""fullscreenenter"",""1"",""1996""
","
","
","""event"",""trial"",""time""
""fullscreenenter"",""1"",""1996""
","
","","","1274.2000000476837","","","12","13637","5867","b","elianto","#f73b6a7A"," "," ","1","0","[2124.9000000953674]","1","2","","","13637","80","3","3","lose","go","0"
"pit-trial","202","1355181","0.0-85.0","battery-v0.2","","""event"",""trial"",""time""
""fullscreenenter"",""1"",""1996""
","
","
","""event"",""trial"",""time""
""fullscreenenter"",""1"",""1996""
","
","","","1668.4000000953674","","","12","13637","5867","z","elianto","#3366ff99"," "," ","1","0","[2518.600000143051]","1","2","","","13637","81","5","1","win","go","1"
"pit-trial","203","1360038","0.0-86.0","battery-v0.2","","""event"",""trial"",""time""
""fullscreenenter"",""1"",""1996""
","
","
","""event"",""trial"",""time""
""fullscreenenter"",""1"",""1996""
","
","","","-1","","","12","13637","5867","y","elianto","#f73b6a7A"," ","-1","0","-10","[]","0","2","","","13637","82","7","3","lose","go","0"
"pit-trial","204","1364891","0.0-87.0","battery-v0.2","","""event"",""trial"",""time""
""fullscreenenter"",""1"",""1996""
","
","
","""event"",""trial"",""time""
""fullscreenenter"",""1"",""1996""
","
","","","-1","","","12","13637","5867","c","elianto","#3366ff99","-1","-1","1","0","[]","0","2","","","13637","83","4","2","win","no-go","1"
"pit-trial","205","1369151","0.0-88.0","battery-v0.2","","""event"",""trial"",""time""
""fullscreenenter"",""1"",""1996""
","
","
","""event"",""trial"",""time""
""fullscreenenter"",""1"",""1996""
","
","","","1405","","","12","13637","5867","h","elianto","#f73b6a7A","-1"," ","0","-10","[2255.800000190735]","1","2","","","13637","84","6","4","lose","no-go","0"
"pit-trial","206","1374003","0.0-89.0","battery-v0.2","","""event"",""trial"",""time""
""fullscreenenter"",""1"",""1996""
","
","
","""event"",""trial"",""time""
""fullscreenenter"",""1"",""1996""
","
","","","-1","","","12","13637","5867","c","elianto","#3366ff99","-1","-1","1","+10","[]","0","2","","","13637","85","4","2","win","no-go","0"
"pit-trial","207","1378856","0.0-90.0","battery-v0.2","","""event"",""trial"",""time""
""fullscreenenter"",""1"",""1996""
","
","
","""event"",""trial"",""time""
""fullscreenenter"",""1"",""1996""
","
","","","-1","","","12","13637","5867","h","elianto","#f73b6a7A","-1","-1","1","0","[]","0","2","","","13637","86","6","4","lose","no-go","0"
"pit-trial","208","1383709","0.0-91.0","battery-v0.2","","""event"",""trial"",""time""
""fullscreenenter"",""1"",""1996""
","
","
","""event"",""trial"",""time""
""fullscreenenter"",""1"",""1996""
","
","","","-1","","","12","13637","5867","y","elianto","#f73b6a7A"," ","-1","0","-10","[]","0","2","","","13637","87","7","3","lose","go","0"
"pit-trial","209","1387813","0.0-92.0","battery-v0.2","","""event"",""trial"",""time""
""fullscreenenter"",""1"",""1996""
","
","
","""event"",""trial"",""time""
""fullscreenenter"",""1"",""1996""
","
","","","1251","","","12","13637","5867","z","elianto","#3366ff99"," "," ","1","0","[271.5,2101.7999999523163,3583,3927.5]","4","2","","","13637","88","5","1","win","go","1"
"pit-trial","210","1392664","0.0-93.0","battery-v0.2","","""event"",""trial"",""time""
""fullscreenenter"",""1"",""1996""
","
","
","""event"",""trial"",""time""
""fullscreenenter"",""1"",""1996""
","
","","","-1","","","12","13637","5867","y","elianto","#f73b6a7A"," ","-1","0","-10","[]","0","2","","","13637","89","7","3","lose","go","0"
"pit-trial","211","1397517","0.0-94.0","battery-v0.2","","""event"",""trial"",""time""
""fullscreenenter"",""1"",""1996""
","
","
","""event"",""trial"",""time""
""fullscreenenter"",""1"",""1996""
","
","","","-1","","","12","13637","5867","h","elianto","#f73b6a7A","-1","-1","1","0","[]","0","2","","","13637","90","6","4","lose","no-go","0"
"pit-trial","212","1402371","0.0-95.0","battery-v0.2","","""event"",""trial"",""time""
""fullscreenenter"",""1"",""1996""
","
","
","""event"",""trial"",""time""
""fullscreenenter"",""1"",""1996""
","
","","","-1","","","12","13637","5867","c","elianto","#3366ff99","-1","-1","1","+10","[]","0","2","","","13637","91","4","2","win","no-go","0"
"pit-trial","213","1406109","0.0-96.0","battery-v0.2","","""event"",""trial"",""time""
""fullscreenenter"",""1"",""1996""
","
","
","""event"",""trial"",""time""
""fullscreenenter"",""1"",""1996""
","
","","","885.5","","","12","13637","5867","z","elianto","#3366ff99"," "," ","1","+10","[1735.9000000953674]","1","2","","","13637","92","5","1","win","go","0"
"pit-trial","214","1409886","0.0-97.0","battery-v0.2","","""event"",""trial"",""time""
""fullscreenenter"",""1"",""1996""
","
","
","""event"",""trial"",""time""
""fullscreenenter"",""1"",""1996""
","
","","","922.8999998569489","","","12","13637","5867","r","elianto","#3366ff99","-1"," ","0","0","[1773.8999998569489]","1","2","","","13637","93","8","2","win","no-go","0"
"pit-trial","215","1414533","0.0-98.0","battery-v0.2","","""event"",""trial"",""time""
""fullscreenenter"",""1"",""1996""
","
","
","""event"",""trial"",""time""
""fullscreenenter"",""1"",""1996""
","
","","","1795.2999999523163","","","12","13637","5867","y","elianto","#f73b6a7A"," "," ","1","-10","[2645.7000000476837]","1","2","","","13637","94","7","3","lose","go","1"
"pit-trial","216","1419388","0.0-99.0","battery-v0.2","","""event"",""trial"",""time""
""fullscreenenter"",""1"",""1996""
","
","
","""event"",""trial"",""time""
""fullscreenenter"",""1"",""1996""
","
","","","-1","","","12","13637","5867","h","elianto","#f73b6a7A","-1","-1","1","0","[]","0","2","","","13637","95","6","4","lose","no-go","0"
"pit-trial","217","1423269","0.0-100.0","battery-v0.2","","""event"",""trial"",""time""
""fullscreenenter"",""1"",""1996""
","
","
","""event"",""trial"",""time""
""fullscreenenter"",""1"",""1996""
","
","","","1029.3999998569489","","","12","13637","5867","z","elianto","#3366ff99"," "," ","1","+10","[1879.8999998569489]","1","2","","","13637","96","5","1","win","go","0"
"pit-trial","218","1428123","0.0-101.0","battery-v0.2","","""event"",""trial"",""time""
""fullscreenenter"",""1"",""1996""
","
","
","""event"",""trial"",""time""
""fullscreenenter"",""1"",""1996""
","
","","","-1","","","12","13637","5867","h","elianto","#f73b6a7A","-1","-1","1","0","[]","0","2","","","13637","97","6","4","lose","no-go","0"
"pit-trial","219","1432741","0.0-102.0","battery-v0.2","","""event"",""trial"",""time""
""fullscreenenter"",""1"",""1996""
","
","
","""event"",""trial"",""time""
""fullscreenenter"",""1"",""1996""
","
","","","1765.2000000476837","","","12","13637","5867","r","elianto","#3366ff99","-1"," ","0","0","[2616.100000143051]","1","2","","","13637","98","8","2","win","no-go","0"
"pit-trial","220","1436541","0.0-103.0","battery-v0.2","","""event"",""trial"",""time""
""fullscreenenter"",""1"",""1996""
","
","
","""event"",""trial"",""time""
""fullscreenenter"",""1"",""1996""
","
","","","945.7999999523163","","","12","13637","5867","z","elianto","#3366ff99"," "," ","1","0","[1796.7000000476837]","1","2","","","13637","99","5","1","win","go","1"
"pit-trial","221","1441229","0.0-104.0","battery-v0.2","","""event"",""trial"",""time""
""fullscreenenter"",""1"",""1996""
","
","
","""event"",""trial"",""time""
""fullscreenenter"",""1"",""1996""
","
","","","1835.9000000953674","","","12","13637","5867","y","elianto","#f73b6a7A"," "," ","1","0","[2686.7000000476837]","1","2","","","13637","100","7","3","lose","go","0"
"pit-trial","222","1445389","0.0-105.0","battery-v0.2","","""event"",""trial"",""time""
""fullscreenenter"",""1"",""1996""
","
","
","""event"",""trial"",""time""
""fullscreenenter"",""1"",""1996""
","
","","","1307.4000000953674","","","12","13637","5867","m","elianto","#3366ff99","-1"," ","0","0","[2157.399999856949]","1","2","","","13637","101","9","2","win","no-go","0"
"pit-trial","223","1449237","0.0-106.0","battery-v0.2","","""event"",""trial"",""time""
""fullscreenenter"",""1"",""1996""
","
","
","""event"",""trial"",""time""
""fullscreenenter"",""1"",""1996""
","
","","","995.7999999523163","","","12","13637","5867","z","elianto","#3366ff99"," "," ","1","+10","[1846]","1","2","","","13637","102","5","1","win","go","0"
"pit-trial","224","1454090","0.0-107.0","battery-v0.2","","""event"",""trial"",""time""
""fullscreenenter"",""1"",""1996""
","
","
","""event"",""trial"",""time""
""fullscreenenter"",""1"",""1996""
","
","","","-1","","","12","13637","5867","h","elianto","#f73b6a7A","-1","-1","1","0","[]","0","2","","","13637","103","6","4","lose","no-go","0"
"pit-trial","225","1458984","0.0-108.0","battery-v0.2","","""event"",""trial"",""time""
""fullscreenenter"",""1"",""1996""
","
","
","""event"",""trial"",""time""
""fullscreenenter"",""1"",""1996""
","
","","","-1","","","12","13637","5867","r","elianto","#3366ff99","-1","-1","1","+10","[]","0","2","","","13637","104","8","2","win","no-go","0"
"pit-trial","226","1463836","0.0-109.0","battery-v0.2","","""event"",""trial"",""time""
""fullscreenenter"",""1"",""1996""
","
","
","""event"",""trial"",""time""
""fullscreenenter"",""1"",""1996""
","
","","","-1","","","12","13637","5867","h","elianto","#f73b6a7A","-1","-1","1","0","[]","0","2","","","13637","105","6","4","lose","no-go","0"
"pit-trial","227","1468689","0.0-110.0","battery-v0.2","","""event"",""trial"",""time""
""fullscreenenter"",""1"",""1996""
","
","
","""event"",""trial"",""time""
""fullscreenenter"",""1"",""1996""
","
","","","-1","","","12","13637","5867","m","elianto","#3366ff99","-1","-1","1","+10","[]","0","2","","","13637","106","9","2","win","no-go","0"
"pit-trial","228","1473093","0.0-111.0","battery-v0.2","","""event"",""trial"",""time""
""fullscreenenter"",""1"",""1996""
","
","
","""event"",""trial"",""time""
""fullscreenenter"",""1"",""1996""
","
","","","1550.9000000953674","","","12","13637","5867","z","elianto","#3366ff99"," "," ","1","+10","[2401.5999999046326]","1","2","","","13637","107","5","1","win","go","0"
"pit-trial","229","1477460","0.0-112.0","battery-v0.2","","""event"",""trial"",""time""
""fullscreenenter"",""1"",""1996""
","
","
","""event"",""trial"",""time""
""fullscreenenter"",""1"",""1996""
","
","","","1515.2999999523163","","","12","13637","5867","r","elianto","#3366ff99","-1"," ","0","+10","[2365.2999999523163]","1","2","","","13637","108","8","2","win","no-go","1"
"pit-trial","230","1481348","0.0-113.0","battery-v0.2","","""event"",""trial"",""time""
""fullscreenenter"",""1"",""1996""
","
","
","""event"",""trial"",""time""
""fullscreenenter"",""1"",""1996""
","
","","","1035.4000000953674","","","12","13637","5867","z","elianto","#3366ff99"," "," ","1","+10","[1885.9000000953674]","1","2","","","13637","109","5","1","win","go","0"
"pit-trial","231","1486202","0.0-114.0","battery-v0.2","","""event"",""trial"",""time""
""fullscreenenter"",""1"",""1996""
","
","
","""event"",""trial"",""time""
""fullscreenenter"",""1"",""1996""
","
","","","-1","","","12","13637","5867","m","elianto","#3366ff99","-1","-1","1","+10","[]","0","2","","","13637","110","9","2","win","no-go","0"
"pit-trial","232","1491055","0.0-115.0","battery-v0.2","","""event"",""trial"",""time""
""fullscreenenter"",""1"",""1996""
","
","
","""event"",""trial"",""time""
""fullscreenenter"",""1"",""1996""
","
","","","-1","","","12","13637","5867","r","elianto","#3366ff99","-1","-1","1","+10","[]","0","2","","","13637","111","8","2","win","no-go","0"
"pit-trial","233","1495908","0.0-116.0","battery-v0.2","","""event"",""trial"",""time""
""fullscreenenter"",""1"",""1996""
","
","
","""event"",""trial"",""time""
""fullscreenenter"",""1"",""1996""
","
","","","-1","","","12","13637","5867","h","elianto","#f73b6a7A","-1","-1","1","0","[]","0","2","","","13637","112","6","4","lose","no-go","0"
"pit-trial","234","1499590","0.0-117.0","battery-v0.2","","""event"",""trial"",""time""
""fullscreenenter"",""1"",""1996""
","
","
","""event"",""trial"",""time""
""fullscreenenter"",""1"",""1996""
","
","","","828.9000000953674","","","12","13637","5867","z","elianto","#3366ff99"," "," ","1","+10","[1679.4000000953674]","1","2","","","13637","113","5","1","win","go","0"
"pit-trial","235","1504444","0.0-118.0","battery-v0.2","","""event"",""trial"",""time""
""fullscreenenter"",""1"",""1996""
","
","
","""event"",""trial"",""time""
""fullscreenenter"",""1"",""1996""
","
","","","-1","","","12","13637","5867","r","elianto","#3366ff99","-1","-1","1","+10","[]","0","2","","","13637","114","8","2","win","no-go","0"
"pit-trial","236","1508820","0.0-119.0","battery-v0.2","","""event"",""trial"",""time""
""fullscreenenter"",""1"",""1996""
","
","
","""event"",""trial"",""time""
""fullscreenenter"",""1"",""1996""
","
","","","1524.4000000953674","","","12","13637","5867","y","elianto","#f73b6a7A"," "," ","1","-10","[2374.5999999046326]","1","2","","","13637","115","7","3","lose","go","1"
"pit-trial","237","1513672","0.0-120.0","battery-v0.2","","""event"",""trial"",""time""
""fullscreenenter"",""1"",""1996""
","
","
","""event"",""trial"",""time""
""fullscreenenter"",""1"",""1996""
","
","","","-1","","","12","13637","5867","m","elianto","#3366ff99","-1","-1","1","+10","[]","0","2","","","13637","116","9","2","win","no-go","0"
"pit-trial","238","1518525","0.0-121.0","battery-v0.2","","""event"",""trial"",""time""
""fullscreenenter"",""1"",""1996""
","
","
","""event"",""trial"",""time""
""fullscreenenter"",""1"",""1996""
","
","","","-1","","","12","13637","5867","h","elianto","#f73b6a7A","-1","-1","1","0","[]","0","2","","","13637","117","6","4","lose","no-go","0"
"pit-trial","239","1522085","0.0-122.0","battery-v0.2","","""event"",""trial"",""time""
""fullscreenenter"",""1"",""1996""
","
","
","""event"",""trial"",""time""
""fullscreenenter"",""1"",""1996""
","
","","","707.5","","","12","13637","5867","z","elianto","#3366ff99"," "," ","1","+10","[1558.4000000953674]","1","2","","","13637","118","5","1","win","go","0"
"pit-trial","240","1526937","0.0-123.0","battery-v0.2","","""event"",""trial"",""time""
""fullscreenenter"",""1"",""1996""
","
","
","""event"",""trial"",""time""
""fullscreenenter"",""1"",""1996""
","
","","","-1","","","12","13637","5867","r","elianto","#3366ff99","-1","-1","1","+10","[]","0","2","","","13637","119","8","2","win","no-go","0"
"pit-trial","241","1531791","0.0-124.0","battery-v0.2","","""event"",""trial"",""time""
""fullscreenenter"",""1"",""1996""
","
","
","""event"",""trial"",""time""
""fullscreenenter"",""1"",""1996""
","
","","","-1","","","12","13637","5867","m","elianto","#3366ff99","-1","-1","1","+10","[]","0","2","","","13637","120","9","2","win","no-go","0"
"pit-trial","242","1536644","0.0-125.0","battery-v0.2","","""event"",""trial"",""time""
""fullscreenenter"",""1"",""1996""
","
","
","""event"",""trial"",""time""
""fullscreenenter"",""1"",""1996""
","
","","","-1","","","12","13637","5867","m","elianto","#3366ff99","-1","-1","1","0","[]","0","2","","","13637","121","9","2","win","no-go","1"
"pit-trial","243","1540436","0.0-126.0","battery-v0.2","","""event"",""trial"",""time""
""fullscreenenter"",""1"",""1996""
","
","
","""event"",""trial"",""time""
""fullscreenenter"",""1"",""1996""
","
","","","940.5999999046326","","","12","13637","5867","z","elianto","#3366ff99"," "," ","1","+10","[1790.5999999046326]","1","2","","","13637","122","5","1","win","go","0"
"pit-trial","244","1544174","0.0-127.0","battery-v0.2","","""event"",""trial"",""time""
""fullscreenenter"",""1"",""1996""
","
","
","""event"",""trial"",""time""
""fullscreenenter"",""1"",""1996""
","
","","","883.7000000476837","","","12","13637","5867","y","elianto","#f73b6a7A"," "," ","1","-10","[1734.5]","1","2","","","13637","123","7","3","lose","go","1"
"pit-trial","245","1548125","0.0-128.0","battery-v0.2","","""event"",""trial"",""time""
""fullscreenenter"",""1"",""1996""
","
","
","""event"",""trial"",""time""
""fullscreenenter"",""1"",""1996""
","
","","","1098","","","12","13637","5867","r","elianto","#3366ff99","-1"," ","0","+10","[1948.6000001430511]","1","2","","","13637","124","8","2","win","no-go","1"
"pit-trial","246","1552980","0.0-129.0","battery-v0.2","","""event"",""trial"",""time""
""fullscreenenter"",""1"",""1996""
","
","
","""event"",""trial"",""time""
""fullscreenenter"",""1"",""1996""
","
","","","-1","","","12","13637","5867","h","elianto","#f73b6a7A","-1","-1","1","0","[]","0","2","","","13637","125","6","4","lose","no-go","0"
"pit-trial","247","1557832","0.0-130.0","battery-v0.2","","""event"",""trial"",""time""
""fullscreenenter"",""1"",""1996""
","
","
","""event"",""trial"",""time""
""fullscreenenter"",""1"",""1996""
","
","","","-1","","","12","13637","5867","m","elianto","#3366ff99","-1","-1","1","+10","[]","0","2","","","13637","126","9","2","win","no-go","0"
"pit-trial","248","1561533","0.0-131.0","battery-v0.2","","""event"",""trial"",""time""
""fullscreenenter"",""1"",""1996""
","
","
","""event"",""trial"",""time""
""fullscreenenter"",""1"",""1996""
","
","","","848.9000000953674","","","12","13637","5867","y","elianto","#f73b6a7A"," "," ","1","0","[1700.1000001430511]","1","2","","","13637","127","7","3","lose","go","0"
"pit-trial","249","1565157","0.0-132.0","battery-v0.2","","""event"",""trial"",""time""
""fullscreenenter"",""1"",""1996""
","
","
","""event"",""trial"",""time""
""fullscreenenter"",""1"",""1996""
","
","","","770.1999998092651","","","12","13637","5867","r","elianto","#3366ff99","-1"," ","0","0","[1620.7000000476837]","1","2","","","13637","128","8","2","win","no-go","0"
"pit-trial","250","1568772","0.0-133.0","battery-v0.2","","""event"",""trial"",""time""
""fullscreenenter"",""1"",""1996""
","
","
","""event"",""trial"",""time""
""fullscreenenter"",""1"",""1996""
","
","","","756.4000000953674","","","12","13637","5867","y","elianto","#f73b6a7A"," "," ","1","0","[1613.7000000476837]","1","2","","","13637","129","7","3","lose","go","0"
"pit-trial","251","1573626","0.0-134.0","battery-v0.2","","""event"",""trial"",""time""
""fullscreenenter"",""1"",""1996""
","
","
","""event"",""trial"",""time""
""fullscreenenter"",""1"",""1996""
","
","","","-1","","","12","13637","5867","m","elianto","#3366ff99","-1","-1","1","+10","[]","0","2","","","13637","130","9","2","win","no-go","0"
"pit-trial","252","1578479","0.0-135.0","battery-v0.2","","""event"",""trial"",""time""
""fullscreenenter"",""1"",""1996""
","
","
","""event"",""trial"",""time""
""fullscreenenter"",""1"",""1996""
","
","","","-1","","","12","13637","5867","r","elianto","#3366ff99","-1","-1","1","+10","[]","0","2","","","13637","131","8","2","win","no-go","0"
"pit-trial","253","1583333","0.0-136.0","battery-v0.2","","""event"",""trial"",""time""
""fullscreenenter"",""1"",""1996""
","
","
","""event"",""trial"",""time""
""fullscreenenter"",""1"",""1996""
","
","","","-1","","","12","13637","5867","h","elianto","#f73b6a7A","-1","-1","1","0","[]","0","2","","","13637","132","6","4","lose","no-go","0"
"pit-trial","254","1588186","0.0-137.0","battery-v0.2","","""event"",""trial"",""time""
""fullscreenenter"",""1"",""1996""
","
","
","""event"",""trial"",""time""
""fullscreenenter"",""1"",""1996""
","
","","","-1","","","12","13637","5867","h","elianto","#f73b6a7A","-1","-1","1","0","[]","0","2","","","13637","133","6","4","lose","no-go","0"
"pit-trial","255","1591941","0.0-138.0","battery-v0.2","","""event"",""trial"",""time""
""fullscreenenter"",""1"",""1996""
","
","
","""event"",""trial"",""time""
""fullscreenenter"",""1"",""1996""
","
","","","901.2999999523163","","","12","13637","5867","y","elianto","#f73b6a7A"," "," ","1","0","[1751.5]","1","2","","","13637","134","7","3","lose","go","0"
"pit-trial","256","1596793","0.0-139.0","battery-v0.2","","""event"",""trial"",""time""
""fullscreenenter"",""1"",""1996""
","
","
","""event"",""trial"",""time""
""fullscreenenter"",""1"",""1996""
","
","","","-1","","","12","13637","5867","m","elianto","#3366ff99","-1","-1","1","+10","[]","0","2","","","13637","135","9","2","win","no-go","0"
"pit-trial","257","1601647","0.0-140.0","battery-v0.2","","""event"",""trial"",""time""
""fullscreenenter"",""1"",""1996""
","
","
","""event"",""trial"",""time""
""fullscreenenter"",""1"",""1996""
","
","","","-1","","","12","13637","5867","r","elianto","#3366ff99","-1","-1","1","0","[]","0","2","","","13637","136","8","2","win","no-go","1"
"pit-trial","258","1606501","0.0-141.0","battery-v0.2","","""event"",""trial"",""time""
""fullscreenenter"",""1"",""1996""
","
","
","""event"",""trial"",""time""
""fullscreenenter"",""1"",""1996""
","
","","","-1","","","12","13637","5867","h","elianto","#f73b6a7A","-1","-1","1","0","[]","0","2","","","13637","137","6","4","lose","no-go","0"
"pit-trial","259","1610301","0.0-142.0","battery-v0.2","","""event"",""trial"",""time""
""fullscreenenter"",""1"",""1996""
","
","
","""event"",""trial"",""time""
""fullscreenenter"",""1"",""1996""
","
","","","947.1000001430511","","","12","13637","5867","m","elianto","#3366ff99","-1"," ","0","0","[1797.5]","1","2","","","13637","138","9","2","win","no-go","0"
"pit-trial","260","1615006","0.0-143.0","battery-v0.2","","""event"",""trial"",""time""
""fullscreenenter"",""1"",""1996""
","
","
","""event"",""trial"",""time""
""fullscreenenter"",""1"",""1996""
","
","","","1852.2000000476837","","","12","13637","5867","y","elianto","#f73b6a7A"," "," ","1","0","[2702.7000000476837]","1","2","","","13637","139","7","3","lose","go","0"
"pit-trial","261","1619860","0.0-144.0","battery-v0.2","","""event"",""trial"",""time""
""fullscreenenter"",""1"",""1996""
","
","
","""event"",""trial"",""time""
""fullscreenenter"",""1"",""1996""
","
","","","-1","","","12","13637","5867","r","elianto","#3366ff99","-1","-1","1","+10","[]","0","2","","","13637","140","8","2","win","no-go","0"
"pit-instructions","262","1662830","0.0-145.0","battery-v0.2","","""event"",""trial"",""time""
""fullscreenenter"",""1"",""1996""
","
","
","""event"",""trial"",""time""
""fullscreenenter"",""1"",""1996""
","
","","[{""page_index"":0,""viewing_time"":34827.5},{""page_index"":1,""viewing_time"":8140.599999904633}]","42968.40000009537","","","","","","","","","","","","","","","","","","","","","","","",""
"pit-trial","263","1666685","0.0-146.0","battery-v0.2","","""event"",""trial"",""time""
""fullscreenenter"",""1"",""1996""
","
","
","""event"",""trial"",""time""
""fullscreenenter"",""1"",""1996""
","
","","","983.8000001907349","","","12","13637","5867","l","elianto","#3366ff99","-1"," ","0","0","[1843.2999999523163]","1","3","","","13637","141","1","2","win","no-go","0"
"pit-trial","264","1670655","0.0-147.0","battery-v0.2","","""event"",""trial"",""time""
""fullscreenenter"",""1"",""1996""
","
","
","""event"",""trial"",""time""
""fullscreenenter"",""1"",""1996""
","
","","","1105.2999999523163","","","12","13637","5867","u","elianto","#f73b6a7A"," "," ","1","0","[1964.4000000953674]","1","3","","","13637","142","0","3","lose","go","0"
"pit-trial","265","1674239","0.0-148.0","battery-v0.2","","""event"",""trial"",""time""
""fullscreenenter"",""1"",""1996""
","
","
","""event"",""trial"",""time""
""fullscreenenter"",""1"",""1996""
","
","","","714.3000001907349","","","12","13637","5867","g","elianto","#f73b6a7A","-1"," ","0","0","[1570.7000000476837]","1","3","","","13637","143","3","4","lose","no-go","1"
"pit-trial","266","1678164","0.0-149.0","battery-v0.2","","""event"",""trial"",""time""
""fullscreenenter"",""1"",""1996""
","
","
","""event"",""trial"",""time""
""fullscreenenter"",""1"",""1996""
","
