"trial_type","trial_index","time_elapsed","internal_node_id","task_version","subject_id","interactions","blur_events","focus_events","fullscreenenter_events","fullscreenexit_events","success","view_history","rt","responses","num_errors","age","subject","participantId","rune","rune_set","hex","correct","choice","accuracy","outcome","keys","total_keys","block","practice","value","sub","trial","stimulus","robot","valence","action","sham"
"pavlovia","0","4","0.0-0.0","battery-v0.2","","""event"",""trial"",""time""
""fullscreenenter"",""1"",""1609""
","
","
","""event"",""trial"",""time""
""fullscreenenter"",""1"",""1609""
","
","","","","","","","","","","","","","","","","","","","","","","","","","","",""
"fullscreen","1","2603","0.0-1.0","battery-v0.2","","""event"",""trial"",""time""
""fullscreenenter"",""1"",""1609""
","
","
","""event"",""trial"",""time""
""fullscreenenter"",""1"",""1609""
","
","true","","","","","","","","","","","","","","","","","","","","","","","","","",""
"pit-instructions","2","7217","0.0-2.0-0.0","battery-v0.2","","""event"",""trial"",""time""
""fullscreenenter"",""1"",""1609""
","
","
","""event"",""trial"",""time""
""fullscreenenter"",""1"",""1609""
","
","","[{""page_index"":0,""viewing_time"":4610.699999988079}]","4610.9000000059605","","","","","","","","","","","","","","","","","","","","","","","",""
"pit-comprehension","3","9906","0.0-2.0-1.0-0.0","battery-v0.2","","""event"",""trial"",""time""
""fullscreenenter"",""1"",""1609""
","
","
","""event"",""trial"",""time""
""fullscreenenter"",""1"",""1609""
","
","","","2687","[""shark""]","0","16","3782","828","","","","","","","","","","","","","","","","","","",""
"pit-instructions","4","11073","0.0-2.0-1.0-1.0","battery-v0.2","","""event"",""trial"",""time""
""fullscreenenter"",""1"",""1609""
","
","
","""event"",""trial"",""time""
""fullscreenenter"",""1"",""1609""
","
","","[{""page_index"":0,""viewing_time"":1160.9000000059605}]","1161","","","","","","","","","","","","","","","","","","","","","","","",""
"pit-comprehension","5","14338","0.0-2.0-2.0-0.0","battery-v0.2","","""event"",""trial"",""time""
""fullscreenenter"",""1"",""1609""
","
","
","""event"",""trial"",""time""
""fullscreenenter"",""1"",""1609""
","
","","","3262.899999976158","[""tiger""]","0","16","3782","828","","","","","","","","","","","","","","","","","","",""
"pit-instructions","6","15281","0.0-2.0-2.0-1.0","battery-v0.2","","""event"",""trial"",""time""
""fullscreenenter"",""1"",""1609""
","
","
","""event"",""trial"",""time""
""fullscreenenter"",""1"",""1609""
","
","","[{""page_index"":0,""viewing_time"":941.6999999880791}]","941.9000000059605","","","","","","","","","","","","","","","","","","","","","","","",""
"pit-instructions","7","110338","0.0-2.0-3.0","battery-v0.2","","""event"",""trial"",""time""
""fullscreenenter"",""1"",""1609""
","
","
","""event"",""trial"",""time""
""fullscreenenter"",""1"",""1609""
","
","","[{""page_index"":0,""viewing_time"":10982.300000011921},{""page_index"":1,""viewing_time"":6864.5999999940395},{""page_index"":2,""viewing_time"":6359.4000000059605},{""page_index"":3,""viewing_time"":5176.300000011921},{""page_index"":4,""viewing_time"":6327.399999976158},{""page_index"":5,""viewing_time"":5432.100000023842},{""page_index"":6,""viewing_time"":7080.399999976158},{""page_index"":7,""viewing_time"":6039.800000011921},{""page_index"":8,""viewing_time"":6120.199999988079},{""page_index"":9,""viewing_time"":8287.800000011921},{""page_index"":10,""viewing_time"":7040.699999988079},{""page_index"":11,""viewing_time"":7895.600000023842},{""page_index"":12,""viewing_time"":6520.5999999940395},{""page_index"":13,""viewing_time"":4927.799999982119}]","95055.40000000596","","","","","","","","","","","","","","","","","","","","","","","",""
"pit-trial","8","113716","0.0-2.0-4.0-0.0","battery-v0.2","","""event"",""trial"",""time""
""fullscreenenter"",""1"",""1609""
","
","
","""event"",""trial"",""time""
""fullscreenenter"",""1"",""1609""
","
","","","508.90000000596046","","","16","3782","828","&#9784;","elianto","#FFFFF080"," "," ","1","&#10004","[1361.0999999940395]","1","0","0","","","","","","","",""
"pit-trial","9","116986","0.0-2.0-4.1-0.1","battery-v0.2","","""event"",""trial"",""time""
""fullscreenenter"",""1"",""1609""
","
","
","""event"",""trial"",""time""
""fullscreenenter"",""1"",""1609""
","
","","","396.89999997615814","","","16","3782","828","&#9784;","elianto","#FFFFF080"," "," ","1","&#10004","[1253.0999999940395]","1","0","0","","","","","","","",""
"pit-trial","10","120243","0.0-2.0-4.2-0.2","battery-v0.2","","""event"",""trial"",""time""
""fullscreenenter"",""1"",""1609""
","
","
","""event"",""trial"",""time""
""fullscreenenter"",""1"",""1609""
","
","","","385.2999999821186","","","16","3782","828","&#9784;","elianto","#FFFFF080"," "," ","1","&#10004","[1238.5999999940395]","1","0","0","","","","","","","",""
"pit-trial","11","123574","0.0-2.0-4.3-0.3","battery-v0.2","","""event"",""trial"",""time""
""fullscreenenter"",""1"",""1609""
","
","
","""event"",""trial"",""time""
""fullscreenenter"",""1"",""1609""
","
","","","466.7000000178814","","","16","3782","828","&#9784;","elianto","#FFFFF080"," "," ","1","&#10004","[1324.300000011921]","1","0","0","","","","","","","",""
"pit-trial","12","126543","0.0-2.0-4.4-0.4","battery-v0.2","","""event"",""trial"",""time""
""fullscreenenter"",""1"",""1609""
","
","
","""event"",""trial"",""time""
""fullscreenenter"",""1"",""1609""
","
","","","111.7999999821186","","","16","3782","828","&#9784;","elianto","#FFFFF080"," "," ","1","&#10004","[961.6999999880791]","1","0","0","","","","","","","",""
"pit-instructions","13","148634","0.0-2.0-5.0","battery-v0.2","","""event"",""trial"",""time""
""fullscreenenter"",""1"",""1609""
","
","
","""event"",""trial"",""time""
""fullscreenenter"",""1"",""1609""
","
","","[{""page_index"":0,""viewing_time"":5356.5999999940395},{""page_index"":1,""viewing_time"":5600.4000000059605},{""page_index"":2,""viewing_time"":5255.700000017881},{""page_index"":3,""viewing_time"":5873}]","22085.90000000596","","","","","","","","","","","","","","","","","","","","","","","",""
"pit-trial","14","153496","0.0-2.0-6.0-0.0","battery-v0.2","","""event"",""trial"",""time""
""fullscreenenter"",""1"",""1609""
","
","
","""event"",""trial"",""time""
""fullscreenenter"",""1"",""1609""
","
","","","-1","","","16","3782","828","&#9854;","elianto","#FFFFF080","-1","-1","1","&#10004","[]","0","0","1","","","","","","","",""
"pit-trial","15","158369","0.0-2.0-6.1-0.1","battery-v0.2","","""event"",""trial"",""time""
""fullscreenenter"",""1"",""1609""
","
","
","""event"",""trial"",""time""
""fullscreenenter"",""1"",""1609""
","
","","","-1","","","16","3782","828","&#9854;","elianto","#FFFFF080","-1","-1","1","&#10004","[]","0","0","1","","","","","","","",""
"pit-trial","16","163231","0.0-2.0-6.2-0.2","battery-v0.2","","""event"",""trial"",""time""
""fullscreenenter"",""1"",""1609""
","
","
","""event"",""trial"",""time""
""fullscreenenter"",""1"",""1609""
","
","","","-1","","","16","3782","828","&#9854;","elianto","#FFFFF080","-1","-1","1","&#10004","[]","0","0","1","","","","","","","",""
"pit-trial","17","168123","0.0-2.0-6.3-0.3","battery-v0.2","","""event"",""trial"",""time""
""fullscreenenter"",""1"",""1609""
","
","
","""event"",""trial"",""time""
""fullscreenenter"",""1"",""1609""
","
","","","-1","","","16","3782","828","&#9854;","elianto","#FFFFF080","-1","-1","1","&#10004","[]","0","0","1","","","","","","","",""
"pit-trial","18","172983","0.0-2.0-6.4-0.4","battery-v0.2","","""event"",""trial"",""time""
""fullscreenenter"",""1"",""1609""
","
","
","""event"",""trial"",""time""
""fullscreenenter"",""1"",""1609""
","
","","","-1","","","16","3782","828","&#9854;","elianto","#FFFFF080","-1","-1","1","&#10004","[]","0","0","1","","","","","","","",""
"pit-instructions","19","290226","0.0-2.0-7.0","battery-v0.2","","""event"",""trial"",""time""
""fullscreenenter"",""1"",""1609""
","
","
","""event"",""trial"",""time""
""fullscreenenter"",""1"",""1609""
","
","","[{""page_index"":0,""viewing_time"":6118.399999976158},{""page_index"":1,""viewing_time"":6760.800000011921},{""page_index"":2,""viewing_time"":5871.0999999940395},{""page_index"":3,""viewing_time"":6152.5},{""page_index"":4,""viewing_time"":5823.800000011921},{""page_index"":5,""viewing_time"":5551.5999999940395},{""page_index"":6,""viewing_time"":4304.4000000059605},{""page_index"":7,""viewing_time"":7512},{""page_index"":8,""viewing_time"":8431.90000000596},{""page_index"":9,""viewing_time"":6536.0999999940395},{""page_index"":10,""viewing_time"":6439.699999988079},{""page_index"":11,""viewing_time"":5480.5},{""page_index"":12,""viewing_time"":7160},{""page_index"":13,""viewing_time"":8096.300000011921},{""page_index"":14,""viewing_time"":7639.4000000059605},{""page_index"":15,""viewing_time"":6312.5999999940395},{""page_index"":16,""viewing_time"":6215.299999982119},{""page_index"":17,""viewing_time"":6832}]","117238.69999998808","","","","","","","","","","","","","","","","","","","","","","","",""
"pit-trial","20","293573","0.0-2.0-8.0-0.0","battery-v0.2","","""event"",""trial"",""time""
""fullscreenenter"",""1"",""1609""
","
","
","""event"",""trial"",""time""
""fullscreenenter"",""1"",""1609""
","
","","","476.19999998807907","","","16","3782","828","&#9776;","elianto","#3366ff99"," "," ","1","+10","[1328.5999999940395]","1","0","1","","","","","","","",""
"pit-trial","21","296879","0.0-2.0-8.0-1.0","battery-v0.2","","""event"",""trial"",""time""
""fullscreenenter"",""1"",""1609""
","
","
","""event"",""trial"",""time""
""fullscreenenter"",""1"",""1609""
","
","","","438.19999998807907","","","16","3782","828","&#9776;","elianto","#3366ff99"," "," ","1","+10","[1289.300000011921]","1","0","1","","","","","","","",""
"pit-trial","22","300159","0.0-2.0-8.0-2.0","battery-v0.2","","""event"",""trial"",""time""
""fullscreenenter"",""1"",""1609""
","
","
","""event"",""trial"",""time""
""fullscreenenter"",""1"",""1609""
","
","","","422.59999999403954","","","16","3782","828","&#9776;","elianto","#3366ff99"," "," ","1","+10","[1277.199999988079]","1","0","1","","","","","","","",""
"pit-trial","23","303433","0.0-2.0-8.0-3.0","battery-v0.2","","""event"",""trial"",""time""
""fullscreenenter"",""1"",""1609""
","
","
","""event"",""trial"",""time""
""fullscreenenter"",""1"",""1609""
","
","","","407.59999999403954","","","16","3782","828","&#9776;","elianto","#3366ff99"," "," ","1","0","[1257.7000000178814]","1","0","1","","","","","","","",""
"pit-trial","24","307025","0.0-2.0-8.0-4.0","battery-v0.2","","""event"",""trial"",""time""
""fullscreenenter"",""1"",""1609""
","
","
","""event"",""trial"",""time""
""fullscreenenter"",""1"",""1609""
","
","","","726.3999999761581","","","16","3782","828","&#9776;","elianto","#3366ff99"," "," ","1","+10","[1583.0999999940395]","1","0","1","","","","","","","",""
"pit-trial","25","310602","0.0-2.0-8.1-0.1","battery-v0.2","","""event"",""trial"",""time""
""fullscreenenter"",""1"",""1609""
","
","
","""event"",""trial"",""time""
""fullscreenenter"",""1"",""1609""
","
","","","689.5","","","16","3782","828","&#9776;","elianto","#3366ff99"," "," ","1","+10","[1556.3999999761581]","1","0","1","","","","","","","",""
"pit-trial","26","313628","0.0-2.0-8.1-1.1","battery-v0.2","","""event"",""trial"",""time""
""fullscreenenter"",""1"",""1609""
","
","
","""event"",""trial"",""time""
""fullscreenenter"",""1"",""1609""
","
","","","169.19999998807907","","","16","3782","828","&#9776;","elianto","#3366ff99"," "," ","1","+10","[1022.7000000178814,1551.800000011921,1968]","3","0","1","","","","","","","",""
"pit-trial","27","316952","0.0-2.0-8.1-2.1","battery-v0.2","","""event"",""trial"",""time""
""fullscreenenter"",""1"",""1609""
","
","
","""event"",""trial"",""time""
""fullscreenenter"",""1"",""1609""
","
","","","461","","","16","3782","828","&#9776;","elianto","#3366ff99"," "," ","1","+10","[1318.4000000059605,1526.800000011921]","2","0","1","","","","","","","",""
"pit-trial","28","320095","0.0-2.0-8.1-3.1","battery-v0.2","","""event"",""trial"",""time""
""fullscreenenter"",""1"",""1609""
","
","
","""event"",""trial"",""time""
""fullscreenenter"",""1"",""1609""
","
","","","284.90000000596046","","","16","3782","828","&#9776;","elianto","#3366ff99"," "," ","1","0","[1135.4000000059605,2071.300000011921,2855.800000011921]","3","0","1","","","","","","","",""
"pit-trial","29","323043","0.0-2.0-8.1-4.1","battery-v0.2","","""event"",""trial"",""time""
""fullscreenenter"",""1"",""1609""
","
","
","""event"",""trial"",""time""
""fullscreenenter"",""1"",""1609""
","
","","","92","","","16","3782","828","&#9776;","elianto","#3366ff99"," "," ","1","+10","[600,945.0999999940395,1625.5999999940395,1794.5999999940395,2668.300000011921]","5","0","1","","","","","","","",""
"pit-trial","30","325985","0.0-2.0-8.2-0.2","battery-v0.2","","""event"",""trial"",""time""
""fullscreenenter"",""1"",""1609""
","
","
","""event"",""trial"",""time""
""fullscreenenter"",""1"",""1609""
","
","","","84.90000000596046","","","16","3782","828","&#9776;","elianto","#3366ff99"," "," ","1","+10","[935,1463.5,2159.0999999940395,2438.2000000178814]","4","0","1","","","","","","","",""
"pit-trial","31","329177","0.0-2.0-8.2-1.2","battery-v0.2","","""event"",""trial"",""time""
""fullscreenenter"",""1"",""1609""
","
","
","""event"",""trial"",""time""
""fullscreenenter"",""1"",""1609""
","
","","","332","","","16","3782","828","&#9776;","elianto","#3366ff99"," "," ","1","+10","[133.69999998807907,359.39999997615814,717.7999999821186,1182.699999988079,1797.699999988079,3094.5999999940395]","6","0","1","","","","","","","",""
"pit-trial","32","332328","0.0-2.0-8.2-2.2","battery-v0.2","","""event"",""trial"",""time""
""fullscreenenter"",""1"",""1609""
","
","
","""event"",""trial"",""time""
""fullscreenenter"",""1"",""1609""
","
","","","292.5","","","16","3782","828","&#9776;","elianto","#3366ff99"," "," ","1","+10","[766.5999999940395,1143.7000000178814,1502.5,1950.800000011921,2510.300000011921]","5","0","1","","","","","","","",""
"pit-trial","33","335521","0.0-2.0-8.2-3.2","battery-v0.2","","""event"",""trial"",""time""
""fullscreenenter"",""1"",""1609""
","
","
","""event"",""trial"",""time""
""fullscreenenter"",""1"",""1609""
","
","","","332.90000000596046","","","16","3782","828","&#9776;","elianto","#3366ff99"," "," ","1","0","[1187.2000000178814,1962.2000000178814]","2","0","1","","","","","","","",""
"pit-trial","34","338584","0.0-2.0-8.2-4.2","battery-v0.2","","""event"",""trial"",""time""
""fullscreenenter"",""1"",""1609""
","
","
","""event"",""trial"",""time""
""fullscreenenter"",""1"",""1609""
","
","","","204.7000000178814","","","16","3782","828","&#9776;","elianto","#3366ff99"," "," ","1","+10","[61.69999998807907,326.19999998807907,1055.5999999940395,2437.5999999940395]","4","0","1","","","","","","","",""
"call-function","35","338587","0.0-2.0-9.0","battery-v0.2","","""event"",""trial"",""time""
""fullscreenenter"",""1"",""1609""
","
","
","""event"",""trial"",""time""
""fullscreenenter"",""1"",""1609""
","
","","","","","","","","","","","","","","","","","","","","","","","","","","",""
"pit-instructions","36","379875","0.0-2.0-10.0","battery-v0.2","","""event"",""trial"",""time""
""fullscreenenter"",""1"",""1609""
","
","
","""event"",""trial"",""time""
""fullscreenenter"",""1"",""1609""
","
","","[{""page_index"":0,""viewing_time"":7302.300000011921},{""page_index"":1,""viewing_time"":8151.800000011921},{""page_index"":2,""viewing_time"":9855.899999976158},{""page_index"":3,""viewing_time"":8728.800000011921},{""page_index"":4,""viewing_time"":7248.5999999940395}]","41287.60000002384","","","","","","","","","","","","","","","","","","","","","","","",""
"pit-trial","37","383064","0.0-2.0-11.0-0.0","battery-v0.2","","""event"",""trial"",""time""
""fullscreenenter"",""1"",""1609""
","
","
","""event"",""trial"",""time""
""fullscreenenter"",""1"",""1609""
","
","","","331.69999998807907","","","16","3782","828","&#9761;","elianto","#3366ff99","-1"," ","0","0","[1183]","1","0","2","","","","","","","",""
"pit-trial","38","387945","0.0-2.0-11.0-1.0","battery-v0.2","","""event"",""trial"",""time""
""fullscreenenter"",""1"",""1609""
","
","
","""event"",""trial"",""time""
""fullscreenenter"",""1"",""1609""
","
","","","-1","","","16","3782","828","&#9761;","elianto","#3366ff99","-1","-1","1","+10","[]","0","0","2","","","","","","","",""
"pit-trial","39","391976","0.0-2.0-11.0-2.0","battery-v0.2","","""event"",""trial"",""time""
""fullscreenenter"",""1"",""1609""
","
","
","""event"",""trial"",""time""
""fullscreenenter"",""1"",""1609""
","
","","","1173.4000000059605","","","16","3782","828","&#9761;","elianto","#3366ff99","-1"," ","0","0","[2025.5]","1","0","2","","","","","","","",""
"pit-trial","40","396859","0.0-2.0-11.0-3.0","battery-v0.2","","""event"",""trial"",""time""
""fullscreenenter"",""1"",""1609""
","
","
","""event"",""trial"",""time""
""fullscreenenter"",""1"",""1609""
","
","","","-1","","","16","3782","828","&#9761;","elianto","#3366ff99","-1","-1","1","0","[]","0","0","2","","","","","","","",""
"pit-trial","41","401750","0.0-2.0-11.0-4.0","battery-v0.2","","""event"",""trial"",""time""
""fullscreenenter"",""1"",""1609""
","
","
","""event"",""trial"",""time""
""fullscreenenter"",""1"",""1609""
","
","","","-1","","","16","3782","828","&#9761;","elianto","#3366ff99","-1","-1","1","+10","[]","0","0","2","","","","","","","",""
"pit-trial","42","406626","0.0-2.0-11.1-0.1","battery-v0.2","","""event"",""trial"",""time""
""fullscreenenter"",""1"",""1609""
","
","
","""event"",""trial"",""time""
""fullscreenenter"",""1"",""1609""
","
","","","-1","","","16","3782","828","&#9761;","elianto","#3366ff99","-1","-1","1","+10","[]","0","0","2","","","","","","","",""
"pit-trial","43","411496","0.0-2.0-11.1-1.1","battery-v0.2","","""event"",""trial"",""time""
""fullscreenenter"",""1"",""1609""
","
","
","""event"",""trial"",""time""
""fullscreenenter"",""1"",""1609""
","
","","","-1","","","16","3782","828","&#9761;","elianto","#3366ff99","-1","-1","1","+10","[]","0","0","2","","","","","","","",""
"pit-trial","44","414552","0.0-2.0-11.1-2.1","battery-v0.2","","""event"",""trial"",""time""
""fullscreenenter"",""1"",""1609""
","
","
","""event"",""trial"",""time""
""fullscreenenter"",""1"",""1609""
","
","","","195.5","","","16","3782","828","&#9761;","elianto","#3366ff99","-1"," ","0","0","[1049.199999988079]","1","0","2","","","","","","","",""
"pit-trial","45","417552","0.0-2.0-11.1-3.1","battery-v0.2","","""event"",""trial"",""time""
""fullscreenenter"",""1"",""1609""
","
","
","""event"",""trial"",""time""
""fullscreenenter"",""1"",""1609""
","
","","","137.5","","","16","3782","828","&#9761;","elianto","#3366ff99","-1"," ","0","+10","[990.5]","1","0","2","","","","","","","",""
"pit-trial","46","420705","0.0-2.0-11.1-4.1","battery-v0.2","","""event"",""trial"",""time""
""fullscreenenter"",""1"",""1609""
","
","
","""event"",""trial"",""time""
""fullscreenenter"",""1"",""1609""
","
","","","293.40000000596046","","","16","3782","828","&#9761;","elianto","#3366ff99","-1"," ","0","0","[1145]","1","0","2","","","","","","","",""
"pit-trial","47","424622","0.0-2.0-11.2-0.2","battery-v0.2","","""event"",""trial"",""time""
""fullscreenenter"",""1"",""1609""
","
","
","""event"",""trial"",""time""
""fullscreenenter"",""1"",""1609""
","
","","","1052.199999988079","","","16","3782","828","&#9761;","elianto","#3366ff99","-1"," ","0","0","[1904.199999988079]","1","0","2","","","","","","","",""
"pit-trial","48","428352","0.0-2.0-11.2-1.2","battery-v0.2","","""event"",""trial"",""time""
""fullscreenenter"",""1"",""1609""
","
","
","""event"",""trial"",""time""
""fullscreenenter"",""1"",""1609""
","
","","","867.9000000059605","","","16","3782","828","&#9761;","elianto","#3366ff99","-1"," ","0","0","[1721]","1","0","2","","","","","","","",""
"pit-trial","49","431711","0.0-2.0-11.2-2.2","battery-v0.2","","""event"",""trial"",""time""
""fullscreenenter"",""1"",""1609""
","
","
","""event"",""trial"",""time""
""fullscreenenter"",""1"",""1609""
","
","","","501.5","","","16","3782","828","&#9761;","elianto","#3366ff99","-1"," ","0","0","[1354.5]","1","0","2","","","","","","","",""
"pit-trial","50","436576","0.0-2.0-11.2-3.2","battery-v0.2","","""event"",""trial"",""time""
""fullscreenenter"",""1"",""1609""
","
","
","""event"",""trial"",""time""
""fullscreenenter"",""1"",""1609""
","
","","","-1","","","16","3782","828","&#9761;","elianto","#3366ff99","-1","-1","1","0","[]","0","0","2","","","","","","","",""
"pit-trial","51","441440","0.0-2.0-11.2-4.2","battery-v0.2","","""event"",""trial"",""time""
""fullscreenenter"",""1"",""1609""
","
","
","""event"",""trial"",""time""
""fullscreenenter"",""1"",""1609""
","
","","","-1","","","16","3782","828","&#9761;","elianto","#3366ff99","-1","-1","1","+10","[]","0","0","2","","","","","","","",""
"pit-trial","52","444336","0.0-2.0-11.3-0.3","battery-v0.2","","""event"",""trial"",""time""
""fullscreenenter"",""1"",""1609""
","
","
","""event"",""trial"",""time""
""fullscreenenter"",""1"",""1609""
","
","","","36.900000005960464","","","16","3782","828","&#9761;","elianto","#3366ff99","-1"," ","0","0","[887.4000000059605]","1","0","2","","","","","","","",""
"pit-trial","53","448207","0.0-2.0-11.3-1.3","battery-v0.2","","""event"",""trial"",""time""
""fullscreenenter"",""1"",""1609""
","
","
","""event"",""trial"",""time""
""fullscreenenter"",""1"",""1609""
","
","","","1012.5","","","16","3782","828","&#9761;","elianto","#3366ff99","-1"," ","0","0","[1866.6000000238419]","1","0","2","","","","","","","",""
"pit-trial","54","453072","0.0-2.0-11.3-2.3","battery-v0.2","","""event"",""trial"",""time""
""fullscreenenter"",""1"",""1609""
","
","
","""event"",""trial"",""time""
""fullscreenenter"",""1"",""1609""
","
","","","-1","","","16","3782","828","&#9761;","elianto","#3366ff99","-1","-1","1","+10","[]","0","0","2","","","","","","","",""
"pit-trial","55","457936","0.0-2.0-11.3-3.3","battery-v0.2","","""event"",""trial"",""time""
""fullscreenenter"",""1"",""1609""
","
","
","""event"",""trial"",""time""
""fullscreenenter"",""1"",""1609""
","
","","","-1","","","16","3782","828","&#9761;","elianto","#3366ff99","-1","-1","1","0","[]","0","0","2","","","","","","","",""
"pit-trial","56","462799","0.0-2.0-11.3-4.3","battery-v0.2","","""event"",""trial"",""time""
""fullscreenenter"",""1"",""1609""
","
","
","""event"",""trial"",""time""
""fullscreenenter"",""1"",""1609""
","
","","","-1","","","16","3782","828","&#9761;","elianto","#3366ff99","-1","-1","1","+10","[]","0","0","2","","","","","","","",""
"call-function","57","462804","0.0-2.0-12.0","battery-v0.2","","""event"",""trial"",""time""
""fullscreenenter"",""1"",""1609""
","
","
","""event"",""trial"",""time""
""fullscreenenter"",""1"",""1609""
","
","","","","","","","","","","","","","","","","","","","","","","","","","","",""
"pit-instructions","58","497594","0.0-2.0-13.0","battery-v0.2","","""event"",""trial"",""time""
""fullscreenenter"",""1"",""1609""
","
","
","""event"",""trial"",""time""
""fullscreenenter"",""1"",""1609""
","
","","[{""page_index"":0,""viewing_time"":5869.300000011921},{""page_index"":1,""viewing_time"":7687.799999982119},{""page_index"":2,""viewing_time"":4792},{""page_index"":3,""viewing_time"":11223.90000000596},{""page_index"":4,""viewing_time"":5216}]","34789.19999998808","","","","","","","","","","","","","","","","","","","","","","","",""
"pit-trial","59","502454","0.0-2.0-14.0-0.0","battery-v0.2","","""event"",""trial"",""time""
""fullscreenenter"",""1"",""1609""
","
","
","""event"",""trial"",""time""
""fullscreenenter"",""1"",""1609""
","
","","","-1","","","16","3782","828","&#9826;","elianto","#f73b6a7A","-1","-1","1","0","[]","0","0","3","","","","","","","",""
"pit-trial","60","507320","0.0-2.0-14.0-1.0","battery-v0.2","","""event"",""trial"",""time""
""fullscreenenter"",""1"",""1609""
","
","
","""event"",""trial"",""time""
""fullscreenenter"",""1"",""1609""
","
","","","-1","","","16","3782","828","&#9826;","elianto","#f73b6a7A","-1","-1","1","0","[]","0","0","3","","","","","","","",""
"pit-trial","61","512204","0.0-2.0-14.0-2.0","battery-v0.2","","""event"",""trial"",""time""
""fullscreenenter"",""1"",""1609""
","
","
","""event"",""trial"",""time""
""fullscreenenter"",""1"",""1609""
","
","","","-1","","","16","3782","828","&#9826;","elianto","#f73b6a7A","-1","-1","1","0","[]","0","0","3","","","","","","","",""
"pit-trial","62","517092","0.0-2.0-14.0-3.0","battery-v0.2","","""event"",""trial"",""time""
""fullscreenenter"",""1"",""1609""
","
","
","""event"",""trial"",""time""
""fullscreenenter"",""1"",""1609""
","
","","","-1","","","16","3782","828","&#9826;","elianto","#f73b6a7A","-1","-1","1","-10","[2895.5]","1","0","3","","","","","","","",""
"pit-trial","63","521969","0.0-2.0-14.0-4.0","battery-v0.2","","""event"",""trial"",""time""
""fullscreenenter"",""1"",""1609""
","
","
","""event"",""trial"",""time""
""fullscreenenter"",""1"",""1609""
","
","","","-1","","","16","3782","828","&#9826;","elianto","#f73b6a7A","-1","-1","1","0","[]","0","0","3","","","","","","","",""
"pit-trial","64","526853","0.0-2.0-14.1-0.1","battery-v0.2","","""event"",""trial"",""time""
""fullscreenenter"",""1"",""1609""
","
","
","""event"",""trial"",""time""
""fullscreenenter"",""1"",""1609""
","
","","","-1","","","16","3782","828","&#9826;","elianto","#f73b6a7A","-1","-1","1","0","[]","0","0","3","","","","","","","",""
"pit-trial","65","531720","0.0-2.0-14.1-1.1","battery-v0.2","","""event"",""trial"",""time""
""fullscreenenter"",""1"",""1609""
","
","
","""event"",""trial"",""time""
""fullscreenenter"",""1"",""1609""
","
","","","-1","","","16","3782","828","&#9826;","elianto","#f73b6a7A","-1","-1","1","0","[]","0","0","3","","","","","","","",""
"pit-trial","66","536583","0.0-2.0-14.1-2.1","battery-v0.2","","""event"",""trial"",""time""
""fullscreenenter"",""1"",""1609""
","
","
","""event"",""trial"",""time""
""fullscreenenter"",""1"",""1609""
","
","","","-1","","","16","3782","828","&#9826;","elianto","#f73b6a7A","-1","-1","1","0","[]","0","0","3","","","","","","","",""
"pit-trial","67","541448","0.0-2.0-14.1-3.1","battery-v0.2","","""event"",""trial"",""time""
""fullscreenenter"",""1"",""1609""
","
","
","""event"",""trial"",""time""
""fullscreenenter"",""1"",""1609""
","
","","","-1","","","16","3782","828","&#9826;","elianto","#f73b6a7A","-1","-1","1","-10","[]","0","0","3","","","","","","","",""
"pit-trial","68","544935","0.0-2.0-14.1-4.1","battery-v0.2","","""event"",""trial"",""time""
""fullscreenenter"",""1"",""1609""
","
","
","""event"",""trial"",""time""
""fullscreenenter"",""1"",""1609""
","
","","","629.6999999880791","","","16","3782","828","&#9826;","elianto","#f73b6a7A","-1"," ","0","-10","[1481.300000011921]","1","0","3","","","","","","","",""
"pit-trial","69","549800","0.0-2.0-14.2-0.2","battery-v0.2","","""event"",""trial"",""time""
""fullscreenenter"",""1"",""1609""
","
","
","""event"",""trial"",""time""
""fullscreenenter"",""1"",""1609""
","
","","","-1","","","16","3782","828","&#9826;","elianto","#f73b6a7A","-1","-1","1","0","[]","0","0","3","","","","","","","",""
"pit-trial","70","554663","0.0-2.0-14.2-1.2","battery-v0.2","","""event"",""trial"",""time""
""fullscreenenter"",""1"",""1609""
","
","
","""event"",""trial"",""time""
""fullscreenenter"",""1"",""1609""
","
","","","-1","","","16","3782","828","&#9826;","elianto","#f73b6a7A","-1","-1","1","0","[]","0","0","3","","","","","","","",""
"pit-trial","71","559527","0.0-2.0-14.2-2.2","battery-v0.2","","""event"",""trial"",""time""
""fullscreenenter"",""1"",""1609""
","
","
","""event"",""trial"",""time""
""fullscreenenter"",""1"",""1609""
","
","","","-1","","","16","3782","828","&#9826;","elianto","#f73b6a7A","-1","-1","1","0","[]","0","0","3","","","","","","","",""
"pit-trial","72","564391","0.0-2.0-14.2-3.2","battery-v0.2","","""event"",""trial"",""time""
""fullscreenenter"",""1"",""1609""
","
","
","""event"",""trial"",""time""
""fullscreenenter"",""1"",""1609""
","
","","","-1","","","16","3782","828","&#9826;","elianto","#f73b6a7A","-1","-1","1","-10","[]","0","0","3","","","","","","","",""
"pit-trial","73","569254","0.0-2.0-14.2-4.2","battery-v0.2","","""event"",""trial"",""time""
""fullscreenenter"",""1"",""1609""
","
","
","""event"",""trial"",""time""
""fullscreenenter"",""1"",""1609""
","
","","","-1","","","16","3782","828","&#9826;","elianto","#f73b6a7A","-1","-1","1","0","[]","0","0","3","","","","","","","",""
"pit-trial","74","574118","0.0-2.0-14.3-0.3","battery-v0.2","","""event"",""trial"",""time""
""fullscreenenter"",""1"",""1609""
","
","
","""event"",""trial"",""time""
""fullscreenenter"",""1"",""1609""
","
","","","-1","","","16","3782","828","&#9826;","elianto","#f73b6a7A","-1","-1","1","0","[]","0","0","3","","","","","","","",""
"pit-trial","75","578992","0.0-2.0-14.3-1.3","battery-v0.2","","""event"",""trial"",""time""
""fullscreenenter"",""1"",""1609""
","
","
","""event"",""trial"",""time""
""fullscreenenter"",""1"",""1609""
","
","","","-1","","","16","3782","828","&#9826;","elianto","#f73b6a7A","-1","-1","1","0","[]","0","0","3","","","","","","","",""
"pit-trial","76","583863","0.0-2.0-14.3-2.3","battery-v0.2","","""event"",""trial"",""time""
""fullscreenenter"",""1"",""1609""
","
","
","""event"",""trial"",""time""
""fullscreenenter"",""1"",""1609""
","
","","","-1","","","16","3782","828","&#9826;","elianto","#f73b6a7A","-1","-1","1","0","[]","0","0","3","","","","","","","",""
"pit-trial","77","588727","0.0-2.0-14.3-3.3","battery-v0.2","","""event"",""trial"",""time""
""fullscreenenter"",""1"",""1609""
","
","
","""event"",""trial"",""time""
""fullscreenenter"",""1"",""1609""
","
","","","-1","","","16","3782","828","&#9826;","elianto","#f73b6a7A","-1","-1","1","-10","[]","0","0","3","","","","","","","",""
"pit-trial","78","593592","0.0-2.0-14.3-4.3","battery-v0.2","","""event"",""trial"",""time""
""fullscreenenter"",""1"",""1609""
","
","
","""event"",""trial"",""time""
""fullscreenenter"",""1"",""1609""
","
","","","-1","","","16","3782","828","&#9826;","elianto","#f73b6a7A","-1","-1","1","0","[]","0","0","3","","","","","","","",""
"call-function","79","593595","0.0-2.0-15.0","battery-v0.2","","""event"",""trial"",""time""
""fullscreenenter"",""1"",""1609""
","
","
","""event"",""trial"",""time""
""fullscreenenter"",""1"",""1609""
","
","","","","","","","","","","","","","","","","","","","","","","","","","","",""
"pit-instructions","80","623386","0.0-2.0-16.0","battery-v0.2","","""event"",""trial"",""time""
""fullscreenenter"",""1"",""1609""
","
","
","""event"",""trial"",""time""
""fullscreenenter"",""1"",""1609""
","
","","[{""page_index"":0,""viewing_time"":8646.199999988079},{""page_index"":1,""viewing_time"":9942.800000011921},{""page_index"":2,""viewing_time"":4584.5},{""page_index"":3,""viewing_time"":6616.0999999940395}]","29789.90000000596","","","","","","","","","","","","","","","","","","","","","","","",""
"pit-trial","81","626412","0.0-2.0-17.0-0.0","battery-v0.2","","""event"",""trial"",""time""
""fullscreenenter"",""1"",""1609""
","
","
","""event"",""trial"",""time""
""fullscreenenter"",""1"",""1609""
","
","","","157.2000000178814","","","16","3782","828","&#9789;","elianto","#f73b6a7A"," "," ","1","0","[1008.8000000119209]","1","0","4","","","","","","","",""
"pit-trial","82","629635","0.0-2.0-17.0-1.0","battery-v0.2","","""event"",""trial"",""time""
""fullscreenenter"",""1"",""1609""
","
","
","""event"",""trial"",""time""
""fullscreenenter"",""1"",""1609""
","
","","","348.7000000178814","","","16","3782","828","&#9789;","elianto","#f73b6a7A"," "," ","1","0","[1205.8999999761581]","1","0","4","","","","","","","",""
"pit-trial","83","634508","0.0-2.0-17.0-2.0","battery-v0.2","","""event"",""trial"",""time""
""fullscreenenter"",""1"",""1609""
","
","
","""event"",""trial"",""time""
""fullscreenenter"",""1"",""1609""
","
","","","-1","","","16","3782","828","&#9789;","elianto","#f73b6a7A"," ","-1","0","-10","[]","0","0","4","","","","","","","",""
"pit-trial","84","639381","0.0-2.0-17.0-3.0","battery-v0.2","","""event"",""trial"",""time""
""fullscreenenter"",""1"",""1609""
","
","
","""event"",""trial"",""time""
""fullscreenenter"",""1"",""1609""
","
","","","-1","","","16","3782","828","&#9789;","elianto","#f73b6a7A"," ","-1","0","0","[]","0","0","4","","","","","","","",""
"pit-trial","85","644251","0.0-2.0-17.0-4.0","battery-v0.2","","""event"",""trial"",""time""
""fullscreenenter"",""1"",""1609""
","
","
","""event"",""trial"",""time""
""fullscreenenter"",""1"",""1609""
","
","","","-1","","","16","3782","828","&#9789;","elianto","#f73b6a7A"," ","-1","0","-10","[]","0","0","4","","","","","","","",""
"pit-trial","86","649131","0.0-2.0-17.1-0.1","battery-v0.2","","""event"",""trial"",""time""
""fullscreenenter"",""1"",""1609""
","
","
","""event"",""trial"",""time""
""fullscreenenter"",""1"",""1609""
","
","","","-1","","","16","3782","828","&#9789;","elianto","#f73b6a7A"," ","-1","0","-10","[]","0","0","4","","","","","","","",""
"pit-trial","87","653991","0.0-2.0-17.1-1.1","battery-v0.2","","""event"",""trial"",""time""
""fullscreenenter"",""1"",""1609""
","
","
","""event"",""trial"",""time""
""fullscreenenter"",""1"",""1609""
","
","","","-1","","","16","3782","828","&#9789;","elianto","#f73b6a7A"," ","-1","0","-10","[]","0","0","4","","","","","","","",""
"pit-trial","88","658856","0.0-2.0-17.1-2.1","battery-v0.2","","""event"",""trial"",""time""
""fullscreenenter"",""1"",""1609""
","
","
","""event"",""trial"",""time""
""fullscreenenter"",""1"",""1609""
","
","","","-1","","","16","3782","828","&#9789;","elianto","#f73b6a7A"," ","-1","0","-10","[]","0","0","4","","","","","","","",""
"pit-trial","89","663719","0.0-2.0-17.1-3.1","battery-v0.2","","""event"",""trial"",""time""
""fullscreenenter"",""1"",""1609""
","
","
","""event"",""trial"",""time""
""fullscreenenter"",""1"",""1609""
","
","","","-1","","","16","3782","828","&#9789;","elianto","#f73b6a7A"," ","-1","0","0","[]","0","0","4","","","","","","","",""
"pit-trial","90","668584","0.0-2.0-17.1-4.1","battery-v0.2","","""event"",""trial"",""time""
""fullscreenenter"",""1"",""1609""
","
","
","""event"",""trial"",""time""
""fullscreenenter"",""1"",""1609""
","
","","","-1","","","16","3782","828","&#9789;","elianto","#f73b6a7A"," ","-1","0","-10","[]","0","0","4","","","","","","","",""
"pit-trial","91","673447","0.0-2.0-17.2-0.2","battery-v0.2","","""event"",""trial"",""time""
""fullscreenenter"",""1"",""1609""
","
","
","""event"",""trial"",""time""
""fullscreenenter"",""1"",""1609""
","
","","","-1","","","16","3782","828","&#9789;","elianto","#f73b6a7A"," ","-1","0","-10","[]","0","0","4","","","","","","","",""
"pit-trial","92","678312","0.0-2.0-17.2-1.2","battery-v0.2","","""event"",""trial"",""time""
""fullscreenenter"",""1"",""1609""
","
","
","""event"",""trial"",""time""
""fullscreenenter"",""1"",""1609""
","
","","","-1","","","16","3782","828","&#9789;","elianto","#f73b6a7A"," ","-1","0","-10","[]","0","0","4","","","","","","","",""
"pit-trial","93","683189","0.0-2.0-17.2-2.2","battery-v0.2","","""event"",""trial"",""time""
""fullscreenenter"",""1"",""1609""
","
","
","""event"",""trial"",""time""
""fullscreenenter"",""1"",""1609""
","
","","","-1","","","16","3782","828","&#9789;","elianto","#f73b6a7A"," ","-1","0","-10","[]","0","0","4","","","","","","","",""
"pit-trial","94","686309","0.0-2.0-17.2-3.2","battery-v0.2","","""event"",""trial"",""time""
""fullscreenenter"",""1"",""1609""
","
","
","""event"",""trial"",""time""
""fullscreenenter"",""1"",""1609""
","
","","","255.90000000596046","","","16","3782","828","&#9789;","elianto","#f73b6a7A"," "," ","1","-10","[1111.199999988079]","1","0","4","","","","","","","",""
"pit-trial","95","691175","0.0-2.0-17.2-4.2","battery-v0.2","","""event"",""trial"",""time""
""fullscreenenter"",""1"",""1609""
","
","
","""event"",""trial"",""time""
""fullscreenenter"",""1"",""1609""
","
","","","-1","","","16","3782","828","&#9789;","elianto","#f73b6a7A"," ","-1","0","-10","[3644.5999999940395]","1","0","4","","","","","","","",""
"pit-trial","96","696040","0.0-2.0-17.3-0.3","battery-v0.2","","""event"",""trial"",""time""
""fullscreenenter"",""1"",""1609""
","
","
","""event"",""trial"",""time""
""fullscreenenter"",""1"",""1609""
","
","","","-1","","","16","3782","828","&#9789;","elianto","#f73b6a7A"," ","-1","0","-10","[]","0","0","4","","","","","","","",""
"pit-trial","97","700903","0.0-2.0-17.3-1.3","battery-v0.2","","""event"",""trial"",""time""
""fullscreenenter"",""1"",""1609""
","
","
","""event"",""trial"",""time""
""fullscreenenter"",""1"",""1609""
","
","","","-1","","","16","3782","828","&#9789;","elianto","#f73b6a7A"," ","-1","0","-10","[]","0","0","4","","","","","","","",""
"pit-trial","98","705768","0.0-2.0-17.3-2.3","battery-v0.2","","""event"",""trial"",""time""
""fullscreenenter"",""1"",""1609""
","
","
","""event"",""trial"",""time""
""fullscreenenter"",""1"",""1609""
","
","","","-1","","","16","3782","828","&#9789;","elianto","#f73b6a7A"," ","-1","0","-10","[]","0","0","4","","","","","","","",""
"pit-trial","99","710642","0.0-2.0-17.3-3.3","battery-v0.2","","""event"",""trial"",""time""
""fullscreenenter"",""1"",""1609""
","
","
","""event"",""trial"",""time""
""fullscreenenter"",""1"",""1609""
","
","","","-1","","","16","3782","828","&#9789;","elianto","#f73b6a7A"," ","-1","0","0","[]","0","0","4","","","","","","","",""
"pit-trial","100","715503","0.0-2.0-17.3-4.3","battery-v0.2","","""event"",""trial"",""time""
""fullscreenenter"",""1"",""1609""
","
","
","""event"",""trial"",""time""
""fullscreenenter"",""1"",""1609""
","
","","","-1","","","16","3782","828","&#9789;","elianto","#f73b6a7A"," ","-1","0","-10","[]","0","0","4","","","","","","","",""
"call-function","101","715507","0.0-2.0-18.0","battery-v0.2","","""event"",""trial"",""time""
""fullscreenenter"",""1"",""1609""
","
","
","""event"",""trial"",""time""
""fullscreenenter"",""1"",""1609""
","
","","","","","","","","","","","","","","","","","","","","","","","","","","",""
"pit-instructions","102","794898","0.0-2.0-19.0","battery-v0.2","","""event"",""trial"",""time""
""fullscreenenter"",""1"",""1609""
","
","
","""event"",""trial"",""time""
""fullscreenenter"",""1"",""1609""
","
","","[{""page_index"":0,""viewing_time"":8414.299999982119},{""page_index"":1,""viewing_time"":6224.100000023842},{""page_index"":2,""viewing_time"":14896},{""page_index"":3,""viewing_time"":12071.899999976158},{""page_index"":4,""viewing_time"":9216},{""page_index"":5,""viewing_time"":8784.100000023842},{""page_index"":6,""viewing_time"":9696.199999988079},{""page_index"":7,""viewing_time"":6143.5},{""page_index"":8,""viewing_time"":3944.4000000059605}]","79390.69999998808","","","","","","","","","","","","","","","","","","","","","","","",""
"pit-comprehension","103","799274","0.0-2.0-20.0-0.0","battery-v0.2","","""event"",""trial"",""time""
""fullscreenenter"",""1"",""1609""
","
","
","""event"",""trial"",""time""
""fullscreenenter"",""1"",""1609""
","
","","","4374.199999988079","[""SPACE""]","0","16","3782","828","","","","","","","","","","","","","","","","","","",""
"pit-instructions","104","803514","0.0-2.0-20.0-1.0","battery-v0.2","","""event"",""trial"",""time""
""fullscreenenter"",""1"",""1609""
","
","
","""event"",""trial"",""time""
""fullscreenenter"",""1"",""1609""
","
","","[{""page_index"":0,""viewing_time"":4220.699999988079}]","4220.9000000059605","","","","","","","","","","","","","","","","","","","","","","","",""
"pit-comprehension","105","810042","0.0-2.0-21.0-0.0","battery-v0.2","","""event"",""trial"",""time""
""fullscreenenter"",""1"",""1609""
","
","
","""event"",""trial"",""time""
""fullscreenenter"",""1"",""1609""
","
","","","6526.5","[""10""]","0","16","3782","828","","","","","","","","","","","","","","","","","","",""
"pit-instructions","106","814434","0.0-2.0-21.0-1.0","battery-v0.2","","""event"",""trial"",""time""
""fullscreenenter"",""1"",""1609""
","
","
","""event"",""trial"",""time""
""fullscreenenter"",""1"",""1609""
","
","","[{""page_index"":0,""viewing_time"":4373.300000011921}]","4373.5","","","","","","","","","","","","","","","","","","","","","","","",""
"pit-comprehension","107","821082","0.0-2.0-22.0-0.0","battery-v0.2","","""event"",""trial"",""time""
""fullscreenenter"",""1"",""1609""
","
","
","""event"",""trial"",""time""
""fullscreenenter"",""1"",""1609""
","
","","","6646.5999999940395","[""-10""]","1","16","3782","828","","","","","","","","","","","","","","","","","","",""
"pit-instructions","108","826082","0.0-2.0-22.0-1.0","battery-v0.2","","""event"",""trial"",""time""
""fullscreenenter"",""1"",""1609""
","
","
","""event"",""trial"",""time""
""fullscreenenter"",""1"",""1609""
","
","","[{""page_index"":0,""viewing_time"":4981.200000017881}]","4981.300000011921","","","","","","","","","","","","","","","","","","","","","","","",""
"pit-instructions","109","827130","0.0-2.0-22.0-2.0-0.0","battery-v0.2","","""event"",""trial"",""time""
""fullscreenenter"",""1"",""1609""
","
","
","""event"",""trial"",""time""
""fullscreenenter"",""1"",""1609""
","
","","[{""page_index"":0,""viewing_time"":1046.9000000059605}]","1047","","","","","","","","","","","","","","","","","","","","","","","",""
"pit-comprehension","110","833834","0.0-2.0-22.1-0.1","battery-v0.2","","""event"",""trial"",""time""
""fullscreenenter"",""1"",""1609""
","
","
","""event"",""trial"",""time""
""fullscreenenter"",""1"",""1609""
","
","","","6702.9000000059605","[""0""]","0","16","3782","828","","","","","","","","","","","","","","","","","","",""
"pit-instructions","111","835506","0.0-2.0-22.1-1.1","battery-v0.2","","""event"",""trial"",""time""
""fullscreenenter"",""1"",""1609""
","
","
","""event"",""trial"",""time""
""fullscreenenter"",""1"",""1609""
","
","","[{""page_index"":0,""viewing_time"":1651.9000000059605}]","1652.0999999940395","","","","","","","","","","","","","","","","","","","","","","","",""
"pit-comprehension","112","843979","0.0-2.0-23.0-0.0","battery-v0.2","","""event"",""trial"",""time""
""fullscreenenter"",""1"",""1609""
","
","
","""event"",""trial"",""time""
""fullscreenenter"",""1"",""1609""
","
","","","8471.40000000596","[""True""]","0","16","3782","828","","","","","","","","","","","","","","","","","","",""
"pit-instructions","113","846394","0.0-2.0-23.0-1.0","battery-v0.2","","""event"",""trial"",""time""
""fullscreenenter"",""1"",""1609""
","
","
","""event"",""trial"",""time""
""fullscreenenter"",""1"",""1609""
","
","","[{""page_index"":0,""viewing_time"":2396.5}]","2396.699999988079","","","","","","","","","","","","","","","","","","","","","","","",""
"pit-comprehension","114","854467","0.0-2.0-24.0-0.0","battery-v0.2","","""event"",""trial"",""time""
""fullscreenenter"",""1"",""1609""
","
","
","""event"",""trial"",""time""
""fullscreenenter"",""1"",""1609""
","
","","","8070.800000011921","[""True""]","0","16","3782","828","","","","","","","","","","","","","","","","","","",""
"pit-instructions","115","856570","0.0-2.0-24.0-1.0","battery-v0.2","","""event"",""trial"",""time""
""fullscreenenter"",""1"",""1609""
","
","
","""event"",""trial"",""time""
""fullscreenenter"",""1"",""1609""
","
","","[{""page_index"":0,""viewing_time"":2083.4000000059605}]","2083.5","","","","","","","","","","","","","","","","","","","","","","","",""
"pit-comprehension","116","863419","0.0-2.0-25.0-0.0","battery-v0.2","","""event"",""trial"",""time""
""fullscreenenter"",""1"",""1609""
","
","
","""event"",""trial"",""time""
""fullscreenenter"",""1"",""1609""
","
","","","6847","[""True""]","0","16","3782","828","","","","","","","","","","","","","","","","","","",""
"pit-instructions","117","867323","0.0-2.0-25.0-1.0","battery-v0.2","","""event"",""trial"",""time""
""fullscreenenter"",""1"",""1609""
","
","
","""event"",""trial"",""time""
""fullscreenenter"",""1"",""1609""
","
","","[{""page_index"":0,""viewing_time"":3885}]","3885.199999988079","","","","","","","","","","","","","","","","","","","","","","","",""
"pit-comprehension","118","872019","0.0-2.0-26.0-0.0","battery-v0.2","","""event"",""trial"",""time""
""fullscreenenter"",""1"",""1609""
","
","
","""event"",""trial"",""time""
""fullscreenenter"",""1"",""1609""
","
","","","4694.0999999940395","[""True""]","1","16","3782","828","","","","","","","","","","","","","","","","","","",""
"pit-instructions","119","875539","0.0-2.0-26.0-1.0","battery-v0.2","","""event"",""trial"",""time""
""fullscreenenter"",""1"",""1609""
","
","
","""event"",""trial"",""time""
""fullscreenenter"",""1"",""1609""
","
","","[{""page_index"":0,""viewing_time"":3499.300000011921}]","3499.5","","","","","","","","","","","","","","","","","","","","","","","",""
"pit-instructions","120","876515","0.0-2.0-26.0-2.0-0.0","battery-v0.2","","""event"",""trial"",""time""
""fullscreenenter"",""1"",""1609""
","
","
","""event"",""trial"",""time""
""fullscreenenter"",""1"",""1609""
","
","","[{""page_index"":0,""viewing_time"":975}]","975.0999999940395","","","","","","","","","","","","","","","","","","","","","","","",""
"pit-comprehension","121","881419","0.0-2.0-26.1-0.1","battery-v0.2","","""event"",""trial"",""time""
""fullscreenenter"",""1"",""1609""
","
","
","""event"",""trial"",""time""
""fullscreenenter"",""1"",""1609""
","
","","","4903","[""False""]","0","16","3782","828","","","","","","","","","","","","","","","","","","",""
"pit-instructions","122","883578","0.0-2.0-26.1-1.1","battery-v0.2","","""event"",""trial"",""time""
""fullscreenenter"",""1"",""1609""
","
","
","""event"",""trial"",""time""
""fullscreenenter"",""1"",""1609""
","
","","[{""page_index"":0,""viewing_time"":2139.0999999940395}]","2139.2000000178814","","","","","","","","","","","","","","","","","","","","","","","",""
"pit-instructions","123","901122","0.0-3.0","battery-v0.2","","""event"",""trial"",""time""
""fullscreenenter"",""1"",""1609""
","
","
","""event"",""trial"",""time""
""fullscreenenter"",""1"",""1609""
","
","","[{""page_index"":0,""viewing_time"":3599.0999999940395},{""page_index"":1,""viewing_time"":5216.100000023842},{""page_index"":2,""viewing_time"":8727.899999976158}]","17543.30000001192","","","","","","","","","","","","","","","","","","","","","","","",""
"pit-trial","124","904751","0.0-4.0","battery-v0.2","","""event"",""trial"",""time""
""fullscreenenter"",""1"",""1609""
","
","
","""event"",""trial"",""time""
""fullscreenenter"",""1"",""1609""
","
","","","761.9000000059605","","","16","3782","828","&#9752;","elianto","#f73b6a7A"," "," ","1","0","[1616.300000011921]","1","1","","","3782","1","3","3","lose","go","0"
"pit-trial","125","908103","0.0-5.0","battery-v0.2","","""event"",""trial"",""time""
""fullscreenenter"",""1"",""1609""
","
","
","""event"",""trial"",""time""
""fullscreenenter"",""1"",""1609""
","
","","","493","","","16","3782","828","&#9733;","elianto","#3366ff99","-1"," ","0","+10","[1347.1000000238419]","1","1","","","3782","2","2","2","win","no-go","1"
"pit-trial","126","911650","0.0-6.0","battery-v0.2","","""event"",""trial"",""time""
""fullscreenenter"",""1"",""1609""
","
","
","""event"",""trial"",""time""
""fullscreenenter"",""1"",""1609""
","
","","","686.6000000238419","","","16","3782","828","&#9730;","elianto","#3366ff99"," "," ","1","+10","[1540.7999999821186]","1","1","","","3782","3","1","1","win","go","0"
"pit-trial","127","915256","0.0-7.0","battery-v0.2","","""event"",""trial"",""time""
""fullscreenenter"",""1"",""1609""
","
","
","""event"",""trial"",""time""
""fullscreenenter"",""1"",""1609""
","
","","","738.1000000238419","","","16","3782","828","&#9728;","elianto","#f73b6a7A","-1"," ","0","-10","[1596.7000000178814]","1","1","","","3782","4","0","4","lose","no-go","0"
"pit-trial","128","918562","0.0-8.0","battery-v0.2","","""event"",""trial"",""time""
""fullscreenenter"",""1"",""1609""
","
","
","""event"",""trial"",""time""
""fullscreenenter"",""1"",""1609""
","
","","","445.80000001192093","","","16","3782","828","&#9733;","elianto","#3366ff99","-1"," ","0","0","[1300]","1","1","","","3782","5","2","2","win","no-go","0"
"pit-trial","129","923432","0.0-9.0","battery-v0.2","","""event"",""trial"",""time""
""fullscreenenter"",""1"",""1609""
","
","
","""event"",""trial"",""time""
""fullscreenenter"",""1"",""1609""
","
","","","-1","","","16","3782","828","&#9728;","elianto","#f73b6a7A","-1","-1","1","0","[]","0","1","","","3782","6","0","4","lose","no-go","0"
"pit-trial","130","928314","0.0-10.0","battery-v0.2","","""event"",""trial"",""time""
""fullscreenenter"",""1"",""1609""
","
","
","""event"",""trial"",""time""
""fullscreenenter"",""1"",""1609""
","
","","","-1","","","16","3782","828","&#9752;","elianto","#f73b6a7A"," ","-1","0","-10","[]","0","1","","","3782","7","3","3","lose","go","0"
"pit-trial","131","931360","0.0-11.0","battery-v0.2","","""event"",""trial"",""time""
""fullscreenenter"",""1"",""1609""
","
","
","""event"",""trial"",""time""
""fullscreenenter"",""1"",""1609""
","
","","","179.59999999403954","","","16","3782","828","&#9730;","elianto","#3366ff99"," "," ","1","+10","[1038.5]","1","1","","","3782","8","1","1","win","go","0"
"pit-trial","132","934895","0.0-12.0","battery-v0.2","","""event"",""trial"",""time""
""fullscreenenter"",""1"",""1609""
","
","
","""event"",""trial"",""time""
""fullscreenenter"",""1"",""1609""
","
","","","677.8000000119209","","","16","3782","828","&#9733;","elianto","#3366ff99","-1"," ","0","0","[1530]","1","1","","","3782","9","2","2","win","no-go","0"
"pit-trial","133","938584","0.0-13.0","battery-v0.2","","""event"",""trial"",""time""
""fullscreenenter"",""1"",""1609""
","
","
","""event"",""trial"",""time""
""fullscreenenter"",""1"",""1609""
","
","","","831.3000000119209","","","16","3782","828","&#9730;","elianto","#3366ff99"," "," ","1","0","[1682.4000000059605]","1","1","","","3782","10","1","1","win","go","1"
"pit-trial","134","943448","0.0-14.0","battery-v0.2","","""event"",""trial"",""time""
""fullscreenenter"",""1"",""1609""
","
","
","""event"",""trial"",""time""
""fullscreenenter"",""1"",""1609""
","
","","","-1","","","16","3782","828","&#9728;","elianto","#f73b6a7A","-1","-1","1","0","[]","0","1","","","3782","11","0","4","lose","no-go","0"
"pit-trial","135","948313","0.0-15.0","battery-v0.2","","""event"",""trial"",""time""
""fullscreenenter"",""1"",""1609""
","
","
","""event"",""trial"",""time""
""fullscreenenter"",""1"",""1609""
","
","","","-1","","","16","3782","828","&#9752;","elianto","#f73b6a7A"," ","-1","0","-10","[]","0","1","","","3782","12","3","3","lose","go","0"
"pit-trial","136","953176","0.0-16.0","battery-v0.2","","""event"",""trial"",""time""
""fullscreenenter"",""1"",""1609""
","
","
","""event"",""trial"",""time""
""fullscreenenter"",""1"",""1609""
","
","","","-1","","","16","3782","828","&#9728;","elianto","#f73b6a7A","-1","-1","1","0","[]","0","1","","","3782","13","0","4","lose","no-go","0"
"pit-trial","137","958040","0.0-17.0","battery-v0.2","","""event"",""trial"",""time""
""fullscreenenter"",""1"",""1609""
","
","
","""event"",""trial"",""time""
""fullscreenenter"",""1"",""1609""
","
","","","-1","","","16","3782","828","&#9752;","elianto","#f73b6a7A"," ","-1","0","-10","[]","0","1","","","3782","14","3","3","lose","go","0"
"pit-trial","138","961608","0.0-18.0","battery-v0.2","","""event"",""trial"",""time""
""fullscreenenter"",""1"",""1609""
","
","
","""event"",""trial"",""time""
""fullscreenenter"",""1"",""1609""
","
","","","708.4000000059605","","","16","3782","828","&#9733;","elianto","#3366ff99","-1"," ","0","0","[1560,2447]","2","1","","","3782","15","2","2","win","no-go","0"
"pit-trial","139","965304","0.0-19.0","battery-v0.2","","""event"",""trial"",""time""
""fullscreenenter"",""1"",""1609""
","
","
","""event"",""trial"",""time""
""fullscreenenter"",""1"",""1609""
","
","","","831.9000000059605","","","16","3782","828","&#9730;","elianto","#3366ff99"," "," ","1","+10","[1682.9000000059605]","1","1","","","3782","16","1","1","win","go","0"
"pit-trial","140","968864","0.0-20.0","battery-v0.2","","""event"",""trial"",""time""
""fullscreenenter"",""1"",""1609""
","
","
","""event"",""trial"",""time""
""fullscreenenter"",""1"",""1609""
","
","","","701.8000000119209","","","16","3782","828","&#9730;","elianto","#3366ff99"," "," ","1","+10","[1554.8999999761581]","1","1","","","3782","17","1","1","win","go","0"
"pit-trial","141","973729","0.0-21.0","battery-v0.2","","""event"",""trial"",""time""
""fullscreenenter"",""1"",""1609""
","
","
","""event"",""trial"",""time""
""fullscreenenter"",""1"",""1609""
","
","","","-1","","","16","3782","828","&#9728;","elianto","#f73b6a7A","-1","-1","1","0","[]","0","1","","","3782","18","0","4","lose","no-go","0"
"pit-trial","142","977120","0.0-22.0","battery-v0.2","","""event"",""trial"",""time""
""fullscreenenter"",""1"",""1609""
","
","
","""event"",""trial"",""time""
""fullscreenenter"",""1"",""1609""
","
","","","525.9000000059605","","","16","3782","828","&#9733;","elianto","#3366ff99","-1"," ","0","0","[1383.9000000059605]","1","1","","","3782","19","2","2","win","no-go","0"
"pit-trial","143","981983","0.0-23.0","battery-v0.2","","""event"",""trial"",""time""
""fullscreenenter"",""1"",""1609""
","
","
","""event"",""trial"",""time""
""fullscreenenter"",""1"",""1609""
","
","","","-1","","","16","3782","828","&#9752;","elianto","#f73b6a7A"," ","-1","0","0","[]","0","1","","","3782","20","3","3","lose","go","1"
"pit-instructions","144","994883","0.0-24.0","battery-v0.2","","""event"",""trial"",""time""
""fullscreenenter"",""1"",""1609""
","
","
","""event"",""trial"",""time""
""fullscreenenter"",""1"",""1609""
","
","","[{""page_index"":0,""viewing_time"":6554.5},{""page_index"":1,""viewing_time"":6344.0999999940395}]","12898.799999982119","","","","","","","","","","","","","","","","","","","","","","","",""
"pit-trial","145","999758","0.0-25.0","battery-v0.2","","""event"",""trial"",""time""
""fullscreenenter"",""1"",""1609""
","
","
","""event"",""trial"",""time""
""fullscreenenter"",""1"",""1609""
","
","","","-1","","","16","3782","828","e","elianto","#f73b6a7A"," ","-1","0","-10","[]","0","2","","","3782","21","2","3","lose","go","0"
"pit-trial","146","1003228","0.0-26.0","battery-v0.2","","""event"",""trial"",""time""
""fullscreenenter"",""1"",""1609""
","
","
","""event"",""trial"",""time""
""fullscreenenter"",""1"",""1609""
","
","","","607.4000000059605","","","16","3782","828","d","elianto","#3366ff99","-1"," ","0","0","[1458.5999999940395]","1","2","","","3782","22","1","2","win","no-go","0"
"pit-trial","147","1007243","0.0-27.0","battery-v0.2","","""event"",""trial"",""time""
""fullscreenenter"",""1"",""1609""
","
","
","""event"",""trial"",""time""
""fullscreenenter"",""1"",""1609""
","
","","","1157","","","16","3782","828","j","elianto","#f73b6a7A"," "," ","1","-10","[2007.5999999940395]","1","2","","","3782","23","0","3","lose","go","1"
"pit-trial","148","1012128","0.0-28.0","battery-v0.2","","""event"",""trial"",""time""
""fullscreenenter"",""1"",""1609""
","
","
","""event"",""trial"",""time""
""fullscreenenter"",""1"",""1609""
","
","","","-1","","","16","3782","828","w","elianto","#f73b6a7A","-1","-1","1","0","[]","0","2","","","3782","24","3","4","lose","no-go","0"
"pit-trial","149","1015500","0.0-29.0","battery-v0.2","","""event"",""trial"",""time""
""fullscreenenter"",""1"",""1609""
","
","
","""event"",""trial"",""time""
""fullscreenenter"",""1"",""1609""
","
","","","508.59999999403954","","","16","3782","828","d","elianto","#3366ff99","-1"," ","0","0","[1360.699999988079]","1","2","","","3782","25","1","2","win","no-go","0"
"pit-trial","150","1020384","0.0-30.0","battery-v0.2","","""event"",""trial"",""time""
""fullscreenenter"",""1"",""1609""
","
","
","""event"",""trial"",""time""
""fullscreenenter"",""1"",""1609""
","
","","","-1","","","16","3782","828","e","elianto","#f73b6a7A"," ","-1","0","0","[]","0","2","","","3782","26","2","3","lose","go","1"
"pit-trial","151","1025267","0.0-31.0","battery-v0.2","","""event"",""trial"",""time""
""fullscreenenter"",""1"",""1609""
","
","
","""event"",""trial"",""time""
""fullscreenenter"",""1"",""1609""
","
","","","-1","","","16","3782","828","w","elianto","#f73b6a7A","-1","-1","1","0","[]","0","2","","","3782","27","3","4","lose","no-go","0"
"pit-trial","152","1030136","0.0-32.0","battery-v0.2","","""event"",""trial"",""time""
""fullscreenenter"",""1"",""1609""
","
","
","""event"",""trial"",""time""
""fullscreenenter"",""1"",""1609""
","
","","","-1","","","16","3782","828","j","elianto","#f73b6a7A"," ","-1","0","0","[]","0","2","","","3782","28","0","3","lose","go","1"
"pit-trial","153","1035000","0.0-33.0","battery-v0.2","","""event"",""trial"",""time""
""fullscreenenter"",""1"",""1609""
","
","
","""event"",""trial"",""time""
""fullscreenenter"",""1"",""1609""
","
","","","-1","","","16","3782","828","w","elianto","#f73b6a7A","-1","-1","1","0","[]","0","2","","","3782","29","3","4","lose","no-go","0"
"pit-trial","154","1039863","0.0-34.0","battery-v0.2","","""event"",""trial"",""time""
""fullscreenenter"",""1"",""1609""
","
","
","""event"",""trial"",""time""
""fullscreenenter"",""1"",""1609""
","
","","","-1","","","16","3782","828","j","elianto","#f73b6a7A"," ","-1","0","0","[]","0","2","","","3782","30","0","3","lose","go","1"
"pit-trial","155","1043679","0.0-35.0","battery-v0.2","","""event"",""trial"",""time""
""fullscreenenter"",""1"",""1609""
","
","
","""event"",""trial"",""time""
""fullscreenenter"",""1"",""1609""
","
","","","954.2999999821186","","","16","3782","828","d","elianto","#3366ff99","-1"," ","0","0","[1808.7999999821186]","1","2","","","3782","31","1","2","win","no-go","0"
"pit-trial","156","1048560","0.0-36.0","battery-v0.2","","""event"",""trial"",""time""
""fullscreenenter"",""1"",""1609""
","
","
","""event"",""trial"",""time""
""fullscreenenter"",""1"",""1609""
","
","","","-1","","","16","3782","828","e","elianto","#f73b6a7A"," ","-1","0","-10","[]","0","2","","","3782","32","2","3","lose","go","0"
"pit-trial","157","1053424","0.0-37.0","battery-v0.2","","""event"",""trial"",""time""
""fullscreenenter"",""1"",""1609""
","
","
","""event"",""trial"",""time""
""fullscreenenter"",""1"",""1609""
","
","","","-1","","","16","3782","828","w","elianto","#f73b6a7A","-1","-1","1","0","[]","0","2","","","3782","33","3","4","lose","no-go","0"
"pit-trial","158","1056935","0.0-38.0","battery-v0.2","","""event"",""trial"",""time""
""fullscreenenter"",""1"",""1609""
","
","
","""event"",""trial"",""time""
""fullscreenenter"",""1"",""1609""
","
","","","654","","","16","3782","828","d","elianto","#3366ff99","-1"," ","0","0","[1507.800000011921]","1","2","","","3782","34","1","2","win","no-go","0"
"pit-trial","159","1061815","0.0-39.0","battery-v0.2","","""event"",""trial"",""time""
""fullscreenenter"",""1"",""1609""
","
","
","""event"",""trial"",""time""
""fullscreenenter"",""1"",""1609""
","
","","","-1","","","16","3782","828","e","elianto","#f73b6a7A"," ","-1","0","-10","[]","0","2","","","3782","35","2","3","lose","go","0"
"pit-trial","160","1066680","0.0-40.0","battery-v0.2","","""event"",""trial"",""time""
""fullscreenenter"",""1"",""1609""
","
","
","""event"",""trial"",""time""
""fullscreenenter"",""1"",""1609""
","
","","","-1","","","16","3782","828","j","elianto","#f73b6a7A"," ","-1","0","0","[]","0","2","","","3782","36","0","3","lose","go","1"
"pit-trial","161","1069999","0.0-41.0","battery-v0.2","","""event"",""trial"",""time""
""fullscreenenter"",""1"",""1609""
","
","
","""event"",""trial"",""time""
""fullscreenenter"",""1"",""1609""
","
","","","466","","","16","3782","828","d","elianto","#3366ff99","-1"," ","0","0","[1316.300000011921]","1","2","","","3782","37","1","2","win","no-go","0"
"pit-trial","162","1074869","0.0-42.0","battery-v0.2","","""event"",""trial"",""time""
""fullscreenenter"",""1"",""1609""
","
","
","""event"",""trial"",""time""
""fullscreenenter"",""1"",""1609""
","
","","","-1","","","16","3782","828","e","elianto","#f73b6a7A"," ","-1","0","0","[]","0","2","","","3782","38","2","3","lose","go","1"
"pit-trial","163","1079741","0.0-43.0","battery-v0.2","","""event"",""trial"",""time""
""fullscreenenter"",""1"",""1609""
","
","
","""event"",""trial"",""time""
""fullscreenenter"",""1"",""1609""
","
","","","-1","","","16","3782","828","w","elianto","#f73b6a7A","-1","-1","1","0","[]","0","2","","","3782","39","3","4","lose","no-go","0"
"pit-trial","164","1084607","0.0-44.0","battery-v0.2","","""event"",""trial"",""time""
""fullscreenenter"",""1"",""1609""
","
","
","""event"",""trial"",""time""
""fullscreenenter"",""1"",""1609""
","
","","","-1","","","16","3782","828","j","elianto","#f73b6a7A"," ","-1","0","-10","[]","0","2","","","3782","40","0","3","lose","go","0"
"pit-trial","165","1087969","0.0-45.0","battery-v0.2","","""event"",""trial"",""time""
""fullscreenenter"",""1"",""1609""
","
","
","""event"",""trial"",""time""
""fullscreenenter"",""1"",""1609""
","
","","","495.69999998807907","","","16","3782","828","d","elianto","#3366ff99","-1"," ","0","0","[1348.800000011921]","1","2","","","3782","41","1","2","win","no-go","0"
"pit-trial","166","1091831","0.0-46.0","battery-v0.2","","""event"",""trial"",""time""
""fullscreenenter"",""1"",""1609""
","
","
","""event"",""trial"",""time""
""fullscreenenter"",""1"",""1609""
","
","","","998.7999999821186","","","16","3782","828","e","elianto","#f73b6a7A"," "," ","1","-10","[1855.5999999940395]","1","2","","","3782","42","2","3","lose","go","1"
"pit-trial","167","1096695","0.0-47.0","battery-v0.2","","""event"",""trial"",""time""
""fullscreenenter"",""1"",""1609""
","
","
","""event"",""trial"",""time""
""fullscreenenter"",""1"",""1609""
","
","","","-1","","","16","3782","828","j","elianto","#f73b6a7A"," ","-1","0","-10","[]","0","2","","","3782","43","0","3","lose","go","0"
"pit-trial","168","1101559","0.0-48.0","battery-v0.2","","""event"",""trial"",""time""
""fullscreenenter"",""1"",""1609""
","
","
","""event"",""trial"",""time""
""fullscreenenter"",""1"",""1609""
","
","","","-1","","","16","3782","828","w","elianto","#f73b6a7A","-1","-1","1","-10","[]","0","2","","","3782","44","3","4","lose","no-go","1"
"pit-trial","169","1106423","0.0-49.0","battery-v0.2","","""event"",""trial"",""time""
""fullscreenenter"",""1"",""1609""
","
","
","""event"",""trial"",""time""
""fullscreenenter"",""1"",""1609""
","
","","","-1","","","16","3782","828","e","elianto","#f73b6a7A"," ","-1","0","-10","[]","0","2","","","3782","45","2","3","lose","go","0"
"pit-trial","170","1111287","0.0-50.0","battery-v0.2","","""event"",""trial"",""time""
""fullscreenenter"",""1"",""1609""
","
","
","""event"",""trial"",""time""
""fullscreenenter"",""1"",""1609""
","
","","","-1","","","16","3782","828","j","elianto","#f73b6a7A"," ","-1","0","-10","[]","0","2","","","3782","46","0","3","lose","go","0"
"pit-trial","171","1116158","0.0-51.0","battery-v0.2","","""event"",""trial"",""time""
""fullscreenenter"",""1"",""1609""
","
","
","""event"",""trial"",""time""
""fullscreenenter"",""1"",""1609""
","
","","","-1","","","16","3782","828","w","elianto","#f73b6a7A","-1","-1","1","0","[]","0","2","","","3782","47","3","4","lose","no-go","0"
"pit-trial","172","1119622","0.0-52.0","battery-v0.2","","""event"",""trial"",""time""
""fullscreenenter"",""1"",""1609""
","
","
","""event"",""trial"",""time""
""fullscreenenter"",""1"",""1609""
","
","","","606.8999999761581","","","16","3782","828","d","elianto","#3366ff99","-1"," ","0","+10","[1458.199999988079]","1","2","","","3782","48","1","2","win","no-go","1"
"pit-trial","173","1123327","0.0-53.0","battery-v0.2","","""event"",""trial"",""time""
""fullscreenenter"",""1"",""1609""
","
","
","""event"",""trial"",""time""
""fullscreenenter"",""1"",""1609""
","
","","","843.1999999880791","","","16","3782","828","d","elianto","#3366ff99","-1"," ","0","0","[1697.5999999940395]","1","2","","","3782","49","1","2","win","no-go","0"
"pit-trial","174","1128190","0.0-54.0","battery-v0.2","","""event"",""trial"",""time""
""fullscreenenter"",""1"",""1609""
","
","
","""event"",""trial"",""time""
""fullscreenenter"",""1"",""1609""
","
","","","-1","","","16","3782","828","j","elianto","#f73b6a7A"," ","-1","0","-10","[]","0","2","","","3782","50","0","3","lose","go","0"
"pit-trial","175","1133065","0.0-55.0","battery-v0.2","","""event"",""trial"",""time""
""fullscreenenter"",""1"",""1609""
","
","
","""event"",""trial"",""time""
""fullscreenenter"",""1"",""1609""
","
","","","-1","","","16","3782","828","e","elianto","#f73b6a7A"," ","-1","0","0","[]","0","2","","","3782","51","2","3","lose","go","1"
"pit-trial","176","1137927","0.0-56.0","battery-v0.2","","""event"",""trial"",""time""
""fullscreenenter"",""1"",""1609""
","
","
","""event"",""trial"",""time""
""fullscreenenter"",""1"",""1609""
","
","","","-1","","","16","3782","828","w","elianto","#f73b6a7A","-1","-1","1","0","[]","0","2","","","3782","52","3","4","lose","no-go","0"
"pit-trial","177","1142793","0.0-57.0","battery-v0.2","","""event"",""trial"",""time""
""fullscreenenter"",""1"",""1609""
","
","
","""event"",""trial"",""time""
""fullscreenenter"",""1"",""1609""
","
","","","-1","","","16","3782","828","j","elianto","#f73b6a7A"," ","-1","0","-10","[]","0","2","","","3782","53","0","3","lose","go","0"
"pit-trial","178","1147656","0.0-58.0","battery-v0.2","","""event"",""trial"",""time""
""fullscreenenter"",""1"",""1609""
","
","
","""event"",""trial"",""time""
""fullscreenenter"",""1"",""1609""
","
","","","-1","","","16","3782","828","e","elianto","#f73b6a7A"," ","-1","0","-10","[]","0","2","","","3782","54","2","3","lose","go","0"
"pit-trial","179","1151184","0.0-59.0","battery-v0.2","","""event"",""trial"",""time""
""fullscreenenter"",""1"",""1609""
","
","
","""event"",""trial"",""time""
""fullscreenenter"",""1"",""1609""
","
","","","670.8000000119209","","","16","3782","828","d","elianto","#3366ff99","-1"," ","0","0","[1521.800000011921]","1","2","","","3782","55","1","2","win","no-go","0"
"pit-trial","180","1156049","0.0-60.0","battery-v0.2","","""event"",""trial"",""time""
""fullscreenenter"",""1"",""1609""
","
","
","""event"",""trial"",""time""
""fullscreenenter"",""1"",""1609""
","
","","","-1","","","16","3782","828","w","elianto","#f73b6a7A","-1","-1","1","0","[]","0","2","","","3782","56","3","4","lose","no-go","0"
"pit-trial","181","1160913","0.0-61.0","battery-v0.2","","""event"",""trial"",""time""
""fullscreenenter"",""1"",""1609""
","
","
","""event"",""trial"",""time""
""fullscreenenter"",""1"",""1609""
","
","","","-1","","","16","3782","828","j","elianto","#f73b6a7A"," ","-1","0","-10","[]","0","2","","","3782","57","0","3","lose","go","0"
"pit-trial","182","1164944","0.0-62.0","battery-v0.2","","""event"",""trial"",""time""
""fullscreenenter"",""1"",""1609""
","
","
","""event"",""trial"",""time""
""fullscreenenter"",""1"",""1609""
","
","","","1163.7999999821186","","","16","3782","828","s","elianto","#3366ff99"," "," ","1","+10","[2022.5]","1","2","","","3782","58","4","1","win","go","0"
"pit-trial","183","1169808","0.0-63.0","battery-v0.2","","""event"",""trial"",""time""
""fullscreenenter"",""1"",""1609""
","
","
","""event"",""trial"",""time""
""fullscreenenter"",""1"",""1609""
","
","","","-1","","","16","3782","828","w","elianto","#f73b6a7A","-1","-1","1","0","[]","0","2","","","3782","59","3","4","lose","no-go","0"
"pit-trial","184","1174673","0.0-64.0","battery-v0.2","","""event"",""trial"",""time""
""fullscreenenter"",""1"",""1609""
","
","
","""event"",""trial"",""time""
""fullscreenenter"",""1"",""1609""
","
","","","-1","","","16","3782","828","e","elianto","#f73b6a7A"," ","-1","0","-10","[]","0","2","","","3782","60","2","3","lose","go","0"
"pit-trial","185","1178121","0.0-65.0","battery-v0.2","","""event"",""trial"",""time""
""fullscreenenter"",""1"",""1609""
","
","
","""event"",""trial"",""time""
""fullscreenenter"",""1"",""1609""
","
","","","584.9000000059605","","","16","3782","828","d","elianto","#3366ff99","-1"," ","0","0","[1438.1000000238419]","1","2","","","3782","61","1","2","win","no-go","0"
"pit-trial","186","1182984","0.0-66.0","battery-v0.2","","""event"",""trial"",""time""
""fullscreenenter"",""1"",""1609""
","
","
","""event"",""trial"",""time""
""fullscreenenter"",""1"",""1609""
","
","","","-1","","","16","3782","828","w","elianto","#f73b6a7A","-1","-1","1","0","[]","0","2","","","3782","62","3","4","lose","no-go","0"
"pit-trial","187","1187848","0.0-67.0","battery-v0.2","","""event"",""trial"",""time""
""fullscreenenter"",""1"",""1609""
","
","
","""event"",""trial"",""time""
""fullscreenenter"",""1"",""1609""
","
","","","-1","","","16","3782","828","e","elianto","#f73b6a7A"," ","-1","0","-10","[]","0","2","","","3782","63","2","3","lose","go","0"
"pit-trial","188","1191471","0.0-68.0","battery-v0.2","","""event"",""trial"",""time""
""fullscreenenter"",""1"",""1609""
","
","
","""event"",""trial"",""time""
""fullscreenenter"",""1"",""1609""
","
","","","766.2999999821186","","","16","3782","828","s","elianto","#3366ff99"," "," ","1","+10","[1618.2999999821186]","1","2","","","3782","64","4","1","win","go","0"
"pit-trial","189","1195621","0.0-69.0","battery-v0.2","","""event"",""trial"",""time""
""fullscreenenter"",""1"",""1609""
","
","
","""event"",""trial"",""time""
""fullscreenenter"",""1"",""1609""
","
","","","1277.5","","","16","3782","828","p","elianto","#3366ff99","-1"," ","0","0","[2131.800000011921]","1","2","","","3782","65","5","2","win","no-go","0"
"pit-trial","190","1199568","0.0-70.0","battery-v0.2","","""event"",""trial"",""time""
""fullscreenenter"",""1"",""1609""
","
","
","""event"",""trial"",""time""
""fullscreenenter"",""1"",""1609""
","
","","","1083.7999999821186","","","16","3782","828","s","elianto","#3366ff99"," "," ","1","+10","[1939.9000000059605]","1","2","","","3782","66","4","1","win","go","0"
"pit-trial","191","1204432","0.0-71.0","battery-v0.2","","""event"",""trial"",""time""
""fullscreenenter"",""1"",""1609""
","
","
","""event"",""trial"",""time""
""fullscreenenter"",""1"",""1609""
","
","","","-1","","","16","3782","828","w","elianto","#f73b6a7A","-1","-1","1","0","[]","0","2","","","3782","67","3","4","lose","no-go","0"
"pit-trial","192","1207895","0.0-72.0","battery-v0.2","","""event"",""trial"",""time""
""fullscreenenter"",""1"",""1609""
","
","
","""event"",""trial"",""time""
""fullscreenenter"",""1"",""1609""
","
","","","597.0999999940395","","","16","3782","828","d","elianto","#3366ff99","-1"," ","0","0","[1448.699999988079]","1","2","","","3782","68","1","2","win","no-go","0"
"pit-trial","193","1212775","0.0-73.0","battery-v0.2","","""event"",""trial"",""time""
""fullscreenenter"",""1"",""1609""
","
","
","""event"",""trial"",""time""
""fullscreenenter"",""1"",""1609""
","
","","","-1","","","16","3782","828","e","elianto","#f73b6a7A"," ","-1","0","-10","[]","0","2","","","3782","69","2","3","lose","go","0"
"pit-trial","194","1216103","0.0-74.0","battery-v0.2","","""event"",""trial"",""time""
""fullscreenenter"",""1"",""1609""
","
","
","""event"",""trial"",""time""
""fullscreenenter"",""1"",""1609""
","
","","","468.2000000178814","","","16","3782","828","p","elianto","#3366ff99","-1"," ","0","+10","[1320.6000000238419]","1","2","","","3782","70","5","2","win","no-go","1"
"pit-trial","195","1219432","0.0-75.0","battery-v0.2","","""event"",""trial"",""time""
""fullscreenenter"",""1"",""1609""
","
","
","""event"",""trial"",""time""
""fullscreenenter"",""1"",""1609""
","
","","","463.60000002384186","","","16","3782","828","d","elianto","#3366ff99","-1"," ","0","0","[1319.300000011921]","1","2","","","3782","71","1","2","win","no-go","0"
"pit-trial","196","1222833","0.0-76.0","battery-v0.2","","""event"",""trial"",""time""
""fullscreenenter"",""1"",""1609""
","
","
","""event"",""trial"",""time""
""fullscreenenter"",""1"",""1609""
","
","","","540.8000000119209","","","16","3782","828","s","elianto","#3366ff99"," "," ","1","0","[1394.300000011921]","1","2","","","3782","72","4","1","win","go","1"
"pit-trial","197","1226256","0.0-77.0","battery-v0.2","","""event"",""trial"",""time""
""fullscreenenter"",""1"",""1609""
","
","
","""event"",""trial"",""time""
""fullscreenenter"",""1"",""1609""
","
","","","564.1999999880791","","","16","3782","828","p","elianto","#3366ff99","-1"," ","0","0","[1415]","1","2","","","3782","73","5","2","win","no-go","0"
"pit-trial","198","1229921","0.0-78.0","battery-v0.2","","""event"",""trial"",""time""
""fullscreenenter"",""1"",""1609""
","
","
","""event"",""trial"",""time""
""fullscreenenter"",""1"",""1609""
","
","","","806","","","16","3782","828","d","elianto","#3366ff99","-1"," ","0","0","[1657.8999999761581]","1","2","","","3782","74","1","2","win","no-go","0"
"pit-trial","199","1234128","0.0-79.0","battery-v0.2","","""event"",""trial"",""time""
""fullscreenenter"",""1"",""1609""
","
","
","""event"",""trial"",""time""
""fullscreenenter"",""1"",""1609""
","
","","","1348.4000000059605","","","16","3782","828","s","elianto","#3366ff99"," "," ","1","+10","[2198.4000000059605]","1","2","","","3782","75","4","1","win","go","0"
"pit-trial","200","1238992","0.0-80.0","battery-v0.2","","""event"",""trial"",""time""
""fullscreenenter"",""1"",""1609""
","
","
","""event"",""trial"",""time""
""fullscreenenter"",""1"",""1609""
","
","","","-1","","","16","3782","828","w","elianto","#f73b6a7A","-1","-1","1","0","[]","0","2","","","3782","76","3","4","lose","no-go","0"
"pit-trial","201","1242368","0.0-81.0","battery-v0.2","","""event"",""trial"",""time""
""fullscreenenter"",""1"",""1609""
","
","
","""event"",""trial"",""time""
""fullscreenenter"",""1"",""1609""
","
","","","517.6000000238419","","","16","3782","828","s","elianto","#3366ff99"," "," ","1","+10","[1370.5]","1","2","","","3782","77","4","1","win","go","0"
"pit-trial","202","1245832","0.0-82.0","battery-v0.2","","""event"",""trial"",""time""
""fullscreenenter"",""1"",""1609""
","
","
","""event"",""trial"",""time""
""fullscreenenter"",""1"",""1609""
","
","","","604.1000000238419","","","16","3782","828","s","elianto","#3366ff99"," "," ","1","+10","[1455.1000000238419]","1","2","","","3782","78","4","1","win","go","0"
"pit-trial","203","1250696","0.0-83.0","battery-v0.2","","""event"",""trial"",""time""
""fullscreenenter"",""1"",""1609""
","
","
","""event"",""trial"",""time""
""fullscreenenter"",""1"",""1609""
","
","","","-1","","","16","3782","828","w","elianto","#f73b6a7A","-1","-1","1","0","[]","0","2","","","3782","79","3","4","lose","no-go","0"
"pit-trial","204","1254384","0.0-84.0","battery-v0.2","","""event"",""trial"",""time""
""fullscreenenter"",""1"",""1609""
","
","
","""event"",""trial"",""time""
""fullscreenenter"",""1"",""1609""
","
","","","831.0999999940395","","","16","3782","828","p","elianto","#3366ff99","-1"," ","0","+10","[1682]","1","2","","","3782","80","5","2","win","no-go","1"
"pit-trial","205","1258088","0.0-85.0","battery-v0.2","","""event"",""trial"",""time""
""fullscreenenter"",""1"",""1609""
","
","
","""event"",""trial"",""time""
""fullscreenenter"",""1"",""1609""
","
","","","843.3000000119209","","","16","3782","828","p","elianto","#3366ff99","-1"," ","0","0","[1696.199999988079]","1","2","","","3782","81","5","2","win","no-go","0"
"pit-trial","206","1262952","0.0-86.0","battery-v0.2","","""event"",""trial"",""time""
""fullscreenenter"",""1"",""1609""
","
","
","""event"",""trial"",""time""
""fullscreenenter"",""1"",""1609""
","
","","","-1","","","16","3782","828","a","elianto","#f73b6a7A","-1","-1","1","0","[]","0","2","","","3782","82","7","4","lose","no-go","0"
"pit-trial","207","1267815","0.0-87.0","battery-v0.2","","""event"",""trial"",""time""
""fullscreenenter"",""1"",""1609""
","
","
","""event"",""trial"",""time""
""fullscreenenter"",""1"",""1609""
","
","","","-1","","","16","3782","828","w","elianto","#f73b6a7A","-1","-1","1","0","[]","0","2","","","3782","83","3","4","lose","no-go","0"
"pit-trial","208","1271464","0.0-88.0","battery-v0.2","","""event"",""trial"",""time""
""fullscreenenter"",""1"",""1609""
","
","
","""event"",""trial"",""time""
""fullscreenenter"",""1"",""1609""
","
","","","788.8999999761581","","","16","3782","828","s","elianto","#3366ff99"," "," ","1","+10","[1644.2999999821186]","1","2","","","3782","84","4","1","win","go","0"
"pit-trial","209","1275064","0.0-89.0","battery-v0.2","","""event"",""trial"",""time""
""fullscreenenter"",""1"",""1609""
","
","
","""event"",""trial"",""time""
""fullscreenenter"",""1"",""1609""
","
","","","739.6999999880791","","","16","3782","828","p","elianto","#3366ff99","-1"," ","0","0","[1591.5999999940395]","1","2","","","3782","85","5","2","win","no-go","0"
"pit-trial","210","1278553","0.0-90.0","battery-v0.2","","""event"",""trial"",""time""
""fullscreenenter"",""1"",""1609""
","
","
","""event"",""trial"",""time""
""fullscreenenter"",""1"",""1609""
","
","","","633.4000000059605","","","16","3782","828","s","elianto","#3366ff99"," "," ","1","+10","[1483.7000000178814]","1","2","","","3782","86","4","1","win","go","0"
"pit-trial","211","1283424","0.0-91.0","battery-v0.2","","""event"",""trial"",""time""
""fullscreenenter"",""1"",""1609""
","
","
","""event"",""trial"",""time""
""fullscreenenter"",""1"",""1609""
","
","","","-1","","","16","3782","828","g","elianto","#f73b6a7A"," ","-1","0","0","[]","0","2","","","3782","87","6","3","lose","go","1"
"pit-trial","212","1288287","0.0-92.0","battery-v0.2","","""event"",""trial"",""time""
""fullscreenenter"",""1"",""1609""
","
","
","""event"",""trial"",""time""
""fullscreenenter"",""1"",""1609""
","
","","","-1","","","16","3782","828","a","elianto","#f73b6a7A","-1","-1","1","0","[]","0","2","","","3782","88","7","4","lose","no-go","0"
"pit-trial","213","1291936","0.0-93.0","battery-v0.2","","""event"",""trial"",""time""
""fullscreenenter"",""1"",""1609""
","
","
","""event"",""trial"",""time""
""fullscreenenter"",""1"",""1609""
","
","","","791.3000000119209","","","16","3782","828","p","elianto","#3366ff99","-1"," ","0","0","[1643.8999999761581]","1","2","","","3782","89","5","2","win","no-go","0"
"pit-trial","214","1296800","0.0-94.0","battery-v0.2","","""event"",""trial"",""time""
""fullscreenenter"",""1"",""1609""
","
","
","""event"",""trial"",""time""
""fullscreenenter"",""1"",""1609""
","
","","","-1","","","16","3782","828","g","elianto","#f73b6a7A"," ","-1","0","-10","[]","0","2","","","3782","90","6","3","lose","go","0"
"pit-trial","215","1300423","0.0-95.0","battery-v0.2","","""event"",""trial"",""time""
""fullscreenenter"",""1"",""1609""
","
","
","""event"",""trial"",""time""
""fullscreenenter"",""1"",""1609""
","
","","","764.3000000119209","","","16","3782","828","s","elianto","#3366ff99"," "," ","1","+10","[1616.300000011921]","1","2","","","3782","91","4","1","win","go","0"
"pit-trial","216","1305288","0.0-96.0","battery-v0.2","","""event"",""trial"",""time""
""fullscreenenter"",""1"",""1609""
","
","
","""event"",""trial"",""time""
""fullscreenenter"",""1"",""1609""
","
","","","-1","","","16","3782","828","a","elianto","#f73b6a7A","-1","-1","1","0","[]","0","2","","","3782","92","7","4","lose","no-go","0"
"pit-trial","217","1310151","0.0-97.0","battery-v0.2","","""event"",""trial"",""time""
""fullscreenenter"",""1"",""1609""
","
","
","""event"",""trial"",""time""
""fullscreenenter"",""1"",""1609""
","
","","","-1","","","16","3782","828","a","elianto","#f73b6a7A","-1","-1","1","0","[]","0","2","","","3782","93","7","4","lose","no-go","0"
"pit-trial","218","1313519","0.0-98.0","battery-v0.2","","""event"",""trial"",""time""
""fullscreenenter"",""1"",""1609""
","
","
","""event"",""trial"",""time""
""fullscreenenter"",""1"",""1609""
","
","","","510.69999998807907","","","16","3782","828","p","elianto","#3366ff99","-1"," ","0","0","[1363.4000000059605]","1","2","","","3782","94","5","2","win","no-go","0"
"pit-trial","219","1318390","0.0-99.0","battery-v0.2","","""event"",""trial"",""time""
""fullscreenenter"",""1"",""1609""
","
","
","""event"",""trial"",""time""
""fullscreenenter"",""1"",""1609""
","
","","","-1","","","16","3782","828","g","elianto","#f73b6a7A"," ","-1","0","-10","[]","0","2","","","3782","95","6","3","lose","go","0"
"pit-trial","220","1321807","0.0-100.0","battery-v0.2","","""event"",""trial"",""time""
""fullscreenenter"",""1"",""1609""
","
","
","""event"",""trial"",""time""
""fullscreenenter"",""1"",""1609""
","
","","","557.7000000178814","","","16","3782","828","l","elianto","#3366ff99"," "," ","1","+10","[1411.7000000178814]","1","2","","","3782","96","8","1","win","go","0"
"pit-trial","221","1326672","0.0-101.0","battery-v0.2","","""event"",""trial"",""time""
""fullscreenenter"",""1"",""1609""
","
","
","""event"",""trial"",""time""
""fullscreenenter"",""1"",""1609""
","
","","","-1","","","16","3782","828","a","elianto","#f73b6a7A","-1","-1","1","-10","[]","0","2","","","3782","97","7","4","lose","no-go","1"
"pit-trial","222","1330496","0.0-102.0","battery-v0.2","","""event"",""trial"",""time""
""fullscreenenter"",""1"",""1609""
","
","
","""event"",""trial"",""time""
""fullscreenenter"",""1"",""1609""
","
","","","960.9000000059605","","","16","3782","828","l","elianto","#3366ff99"," "," ","1","+10","[1812]","1","2","","","3782","98","8","1","win","go","0"
"pit-trial","223","1334453","0.0-103.0","battery-v0.2","","""event"",""trial"",""time""
""fullscreenenter"",""1"",""1609""
","
","
","""event"",""trial"",""time""
""fullscreenenter"",""1"",""1609""
","
","","","1086.199999988079","","","16","3782","828","p","elianto","#3366ff99","-1"," ","0","0","[1936.199999988079]","1","2","","","3782","99","5","2","win","no-go","0"
"pit-trial","224","1339320","0.0-104.0","battery-v0.2","","""event"",""trial"",""time""
""fullscreenenter"",""1"",""1609""
","
","
","""event"",""trial"",""time""
""fullscreenenter"",""1"",""1609""
","
","","","-1","","","16","3782","828","g","elianto","#f73b6a7A"," ","-1","0","-10","[]","0","2","","","3782","100","6","3","lose","go","0"
"pit-trial","225","1344195","0.0-105.0","battery-v0.2","","""event"",""trial"",""time""
""fullscreenenter"",""1"",""1609""
","
","
","""event"",""trial"",""time""
""fullscreenenter"",""1"",""1609""
","
","","","-1","","","16","3782","828","a","elianto","#f73b6a7A","-1","-1","1","-10","[]","0","2","","","3782","101","7","4","lose","no-go","1"
"pit-trial","226","1347711","0.0-106.0","battery-v0.2","","""event"",""trial"",""time""
""fullscreenenter"",""1"",""1609""
","
","
","""event"",""trial"",""time""
""fullscreenenter"",""1"",""1609""
","
","","","655.8999999761581","","","16","3782","828","u","elianto","#3366ff99"," "," ","1","+10","[1508.2999999821186]","1","2","","","3782","102","9","1","win","go","0"
"pit-trial","227","1351176","0.0-107.0","battery-v0.2","","""event"",""trial"",""time""
""fullscreenenter"",""1"",""1609""
","
","
","""event"",""trial"",""time""
""fullscreenenter"",""1"",""1609""
","
","","","606.6999999880791","","","16","3782","828","p","elianto","#3366ff99","-1"," ","0","0","[1456.9000000059605]","1","2","","","3782","103","5","2","win","no-go","0"
"pit-trial","228","1354655","0.0-108.0","battery-v0.2","","""event"",""trial"",""time""
""fullscreenenter"",""1"",""1609""
","
","
","""event"",""trial"",""time""
""fullscreenenter"",""1"",""1609""
","
","","","621.5999999940395","","","16","3782","828","l","elianto","#3366ff99"," "," ","1","0","[1472.5]","1","2","","","3782","104","8","1","win","go","1"
"pit-trial","229","1358441","0.0-109.0","battery-v0.2","","""event"",""trial"",""time""
""fullscreenenter"",""1"",""1609""
","
","
","""event"",""trial"",""time""
""fullscreenenter"",""1"",""1609""
","
","","","920.5999999940395","","","16","3782","828","l","elianto","#3366ff99"," "," ","1","+10","[1776.300000011921]","1","2","","","3782","105","8","1","win","go","0"
"pit-trial","230","1362041","0.0-110.0","battery-v0.2","","""event"",""trial"",""time""
""fullscreenenter"",""1"",""1609""
","
","
","""event"",""trial"",""time""
""fullscreenenter"",""1"",""1609""
","
","","","735","","","16","3782","828","u","elianto","#3366ff99"," "," ","1","+10","[1587.699999988079]","1","2","","","3782","106","9","1","win","go","0"
"pit-trial","231","1366904","0.0-111.0","battery-v0.2","","""event"",""trial"",""time""
""fullscreenenter"",""1"",""1609""
","
","
","""event"",""trial"",""time""
""fullscreenenter"",""1"",""1609""
","
","","","-1","","","16","3782","828","g","elianto","#f73b6a7A"," ","-1","0","0","[]","0","2","","","3782","107","6","3","lose","go","1"
"pit-trial","232","1370344","0.0-112.0","battery-v0.2","","""event"",""trial"",""time""
""fullscreenenter"",""1"",""1609""
","
","
","""event"",""trial"",""time""
""fullscreenenter"",""1"",""1609""
","
","","","575.5","","","16","3782","828","s","elianto","#3366ff99"," "," ","1","0","[1428.4000000059605]","1","2","","","3782","108","4","1","win","go","1"
"pit-trial","233","1373815","0.0-113.0","battery-v0.2","","""event"",""trial"",""time""
""fullscreenenter"",""1"",""1609""
","
","
","""event"",""trial"",""time""
""fullscreenenter"",""1"",""1609""
","
","","","614.6999999880791","","","16","3782","828","l","elianto","#3366ff99"," "," ","1","+10","[1465.5]","1","2","","","3782","109","8","1","win","go","0"
"pit-trial","234","1377399","0.0-114.0","battery-v0.2","","""event"",""trial"",""time""
""fullscreenenter"",""1"",""1609""
","
","
","""event"",""trial"",""time""
""fullscreenenter"",""1"",""1609""
","
","","","730.3999999761581","","","16","3782","828","p","elianto","#3366ff99","-1"," ","0","0","[1580.5999999940395]","1","2","","","3782","110","5","2","win","no-go","0"
"pit-trial","235","1382264","0.0-115.0","battery-v0.2","","""event"",""trial"",""time""
""fullscreenenter"",""1"",""1609""
","
","
","""event"",""trial"",""time""
""fullscreenenter"",""1"",""1609""
","
","","","-1","","","16","3782","828","g","elianto","#f73b6a7A"," ","-1","0","-10","[]","0","2","","","3782","111","6","3","lose","go","0"
"pit-trial","236","1385639","0.0-116.0","battery-v0.2","","""event"",""trial"",""time""
""fullscreenenter"",""1"",""1609""
","
","
","""event"",""trial"",""time""
""fullscreenenter"",""1"",""1609""
","
","","","521.5999999940395","","","16","3782","828","u","elianto","#3366ff99"," "," ","1","+10","[1372.300000011921]","1","2","","","3782","112","9","1","win","go","0"
"pit-trial","237","1388967","0.0-117.0","battery-v0.2","","""event"",""trial"",""time""
""fullscreenenter"",""1"",""1609""
","
","
","""event"",""trial"",""time""
""fullscreenenter"",""1"",""1609""
","
","","","469.5","","","16","3782","828","u","elianto","#3366ff99"," "," ","1","+10","[1324.5999999940395]","1","2","","","3782","113","9","1","win","go","0"
"pit-trial","238","1392304","0.0-118.0","battery-v0.2","","""event"",""trial"",""time""
""fullscreenenter"",""1"",""1609""
","
","
","""event"",""trial"",""time""
""fullscreenenter"",""1"",""1609""
","
","","","472.09999999403954","","","16","3782","828","p","elianto","#3366ff99","-1"," ","0","0","[1324.0999999940395,1785.800000011921]","2","2","","","3782","114","5","2","win","no-go","0"
"pit-trial","239","1397178","0.0-119.0","battery-v0.2","","""event"",""trial"",""time""
""fullscreenenter"",""1"",""1609""
","
","
","""event"",""trial"",""time""
""fullscreenenter"",""1"",""1609""
","
","","","-1","","","16","3782","828","g","elianto","#f73b6a7A"," ","-1","0","-10","[]","0","2","","","3782","115","6","3","lose","go","0"
"pit-trial","240","1400472","0.0-120.0","battery-v0.2","","""event"",""trial"",""time""
""fullscreenenter"",""1"",""1609""
","
","
","""event"",""trial"",""time""
""fullscreenenter"",""1"",""1609""
","
","","","438.40000000596046","","","16","3782","828","l","elianto","#3366ff99"," "," ","1","+10","[1289.5999999940395]","1","2","","","3782","116","8","1","win","go","0"
"pit-trial","241","1404134","0.0-121.0","battery-v0.2","","""event"",""trial"",""time""
""fullscreenenter"",""1"",""1609""
","
","
","""event"",""trial"",""time""
""fullscreenenter"",""1"",""1609""
","
","","","806.1000000238419","","","16","3782","828","p","elianto","#3366ff99","-1"," ","0","0","[1656.4000000059605]","1","2","","","3782","117","5","2","win","no-go","0"
"pit-trial","242","1409005","0.0-122.0","battery-v0.2","","""event"",""trial"",""time""
""fullscreenenter"",""1"",""1609""
","
","
","""event"",""trial"",""time""
""fullscreenenter"",""1"",""1609""
","
","","","-1","","","16","3782","828","g","elianto","#f73b6a7A"," ","-1","0","-10","[]","0","2","","","3782","118","6","3","lose","go","0"
"pit-trial","243","1412368","0.0-123.0","battery-v0.2","","""event"",""trial"",""time""
""fullscreenenter"",""1"",""1609""
","
","
","""event"",""trial"",""time""
""fullscreenenter"",""1"",""1609""
","
","","","500.7000000178814","","","16","3782","828","l","elianto","#3366ff99"," "," ","1","0","[1357.7000000178814]","1","2","","","3782","119","8","1","win","go","1"
"pit-trial","244","1416127","0.0-124.0","battery-v0.2","","""event"",""trial"",""time""
""fullscreenenter"",""1"",""1609""
","
","
","""event"",""trial"",""time""
""fullscreenenter"",""1"",""1609""
","
","","","900.2000000178814","","","16","3782","828","u","elianto","#3366ff99"," "," ","1","+10","[1751]","1","2","","","3782","120","9","1","win","go","0"
"pit-trial","245","1419488","0.0-125.0","battery-v0.2","","""event"",""trial"",""time""
""fullscreenenter"",""1"",""1609""
","
","
","""event"",""trial"",""time""
""fullscreenenter"",""1"",""1609""
","
","","","501.90000000596046","","","16","3782","828","u","elianto","#3366ff99"," "," ","1","+10","[1353.5]","1","2","","","3782","121","9","1","win","go","0"
"pit-trial","246","1424351","0.0-126.0","battery-v0.2","","""event"",""trial"",""time""
""fullscreenenter"",""1"",""1609""
","
","
","""event"",""trial"",""time""
""fullscreenenter"",""1"",""1609""
","
","","","-1","","","16","3782","828","a","elianto","#f73b6a7A","-1","-1","1","0","[]","0","2","","","3782","122","7","4","lose","no-go","0"
"pit-trial","247","1427719","0.0-127.0","battery-v0.2","","""event"",""trial"",""time""
""fullscreenenter"",""1"",""1609""
","
","
","""event"",""trial"",""time""
""fullscreenenter"",""1"",""1609""
","
","","","509.5","","","16","3782","828","l","elianto","#3366ff99"," "," ","1","+10","[1360.7999999821186]","1","2","","","3782","123","8","1","win","go","0"
"pit-trial","248","1432584","0.0-128.0","battery-v0.2","","""event"",""trial"",""time""
""fullscreenenter"",""1"",""1609""
","
","
","""event"",""trial"",""time""
""fullscreenenter"",""1"",""1609""
","
","","","-1","","","16","3782","828","g","elianto","#f73b6a7A"," ","-1","0","0","[]","0","2","","","3782","124","6","3","lose","go","1"
"pit-trial","249","1437446","0.0-129.0","battery-v0.2","","""event"",""trial"",""time""
""fullscreenenter"",""1"",""1609""
","
","
","""event"",""trial"",""time""
""fullscreenenter"",""1"",""1609""
","
","","","-1","","","16","3782","828","a","elianto","#f73b6a7A","-1","-1","1","0","[]","0","2","","","3782","125","7","4","lose","no-go","0"
"pit-trial","250","1441280","0.0-130.0","battery-v0.2","","""event"",""trial"",""time""
""fullscreenenter"",""1"",""1609""
","
","
","""event"",""trial"",""time""
""fullscreenenter"",""1"",""1609""
","
","","","976.2999999821186","","","16","3782","828","u","elianto","#3366ff99"," "," ","1","0","[1828.7999999821186]","1","2","","","3782","126","9","1","win","go","1"
"pit-trial","251","1446162","0.0-131.0","battery-v0.2","","""event"",""trial"",""time""
""fullscreenenter"",""1"",""1609""
","
","
","""event"",""trial"",""time""
""fullscreenenter"",""1"",""1609""
","
","","","-1","","","16","3782","828","g","elianto","#f73b6a7A"," ","-1","0","-10","[]","0","2","","","3782","127","6","3","lose","go","0"
"pit-trial","252","1449543","0.0-132.0","battery-v0.2","","""event"",""trial"",""time""
""fullscreenenter"",""1"",""1609""
","
","
","""event"",""trial"",""time""
""fullscreenenter"",""1"",""1609""
","
","","","516.4000000059605","","","16","3782","828","l","elianto","#3366ff99"," "," ","1","0","[1373]","1","2","","","3782","128","8","1","win","go","1"
"pit-trial","253","1452926","0.0-133.0","battery-v0.2","","""event"",""trial"",""time""
""fullscreenenter"",""1"",""1609""
","
","
","""event"",""trial"",""time""
""fullscreenenter"",""1"",""1609""
","
","","","525.0999999940395","","","16","3782","828","u","elianto","#3366ff99"," "," ","1","+10","[1375.699999988079]","1","2","","","3782","129","9","1","win","go","0"
"pit-trial","254","1457800","0.0-134.0","battery-v0.2","","""event"",""trial"",""time""
""fullscreenenter"",""1"",""1609""
","
","
","""event"",""trial"",""time""
""fullscreenenter"",""1"",""1609""
","
","","","-1","","","16","3782","828","a","elianto","#f73b6a7A","-1","-1","1","0","[]","0","2","","","3782","130","7","4","lose","no-go","0"
"pit-trial","255","1462678","0.0-135.0","battery-v0.2","","""event"",""trial"",""time""
""fullscreenenter"",""1"",""1609""
","
","
","""event"",""trial"",""time""
""fullscreenenter"",""1"",""1609""
","
","","","-1","","","16","3782","828","g","elianto","#f73b6a7A"," ","-1","0","0","[]","0","2","","","3782","131","6","3","lose","go","1"
"pit-trial","256","1466399","0.0-136.0","battery-v0.2","","""event"",""trial"",""time""
""fullscreenenter"",""1"",""1609""
","
","
","""event"",""trial"",""time""
""fullscreenenter"",""1"",""1609""
","
","","","862","","","16","3782","828","l","elianto","#3366ff99"," "," ","1","+10","[1714.5]","1","2","","","3782","132","8","1","win","go","0"
"pit-trial","257","1471263","0.0-137.0","battery-v0.2","","""event"",""trial"",""time""
""fullscreenenter"",""1"",""1609""
","
","
","""event"",""trial"",""time""
""fullscreenenter"",""1"",""1609""
","
","","","-1","","","16","3782","828","a","elianto","#f73b6a7A","-1","-1","1","0","[]","0","2","","","3782","133","7","4","lose","no-go","0"
"pit-trial","258","1474608","0.0-138.0","battery-v0.2","","""event"",""trial"",""time""
""fullscreenenter"",""1"",""1609""
","
","
","""event"",""trial"",""time""
""fullscreenenter"",""1"",""1609""
","
","","","483.59999999403954","","","16","3782","828","u","elianto","#3366ff99"," "," ","1","0","[1333.5]","1","2","","","3782","134","9","1","win","go","1"
"pit-trial","259","1478006","0.0-139.0","battery-v0.2","","""event"",""trial"",""time""
""fullscreenenter"",""1"",""1609""
","
","
","""event"",""trial"",""time""
""fullscreenenter"",""1"",""1609""
","
","","","541.5999999940395","","","16","3782","828","l","elianto","#3366ff99"," "," ","1","0","[1392.699999988079]","1","2","","","3782","135","8","1","win","go","1"
"pit-trial","260","1482871","0.0-140.0","battery-v0.2","","""event"",""trial"",""time""
""fullscreenenter"",""1"",""1609""
","
","
","""event"",""trial"",""time""
""fullscreenenter"",""1"",""1609""
","
","","","-1","","","16","3782","828","g","elianto","#f73b6a7A"," ","-1","0","-10","[]","0","2","","","3782","136","6","3","lose","go","0"
"pit-trial","261","1487743","0.0-141.0","battery-v0.2","","""event"",""trial"",""time""
""fullscreenenter"",""1"",""1609""
","
","
","""event"",""trial"",""time""
""fullscreenenter"",""1"",""1609""
","
","","","-1","","","16","3782","828","a","elianto","#f73b6a7A","-1","-1","1","0","[]","0","2","","","3782","137","7","4","lose","no-go","0"
"pit-trial","262","1491055","0.0-142.0","battery-v0.2","","""event"",""trial"",""time""
""fullscreenenter"",""1"",""1609""
","
","
","""event"",""trial"",""time""
""fullscreenenter"",""1"",""1609""
","
","","","455.90000000596046","","","16","3782","828","u","elianto","#3366ff99"," "," ","1","+10","[1307.7000000178814]","1","2","","","3782","138","9","1","win","go","0"
"pit-trial","263","1494543","0.0-143.0","battery-v0.2","","""event"",""trial"",""time""
""fullscreenenter"",""1"",""1609""
","
","
","""event"",""trial"",""time""
""fullscreenenter"",""1"",""1609""
","
","","","629.7000000178814","","","16","3782","828","l","elianto","#3366ff99"," "," ","1","+10","[1483.300000011921]","1","2","","","3782","139","8","1","win","go","0"
"pit-trial","264","1499408","0.0-144.0","battery-v0.2","","""event"",""trial"",""time""
""fullscreenenter"",""1"",""1609""
","
","
","""event"",""trial"",""time""
""fullscreenenter"",""1"",""1609""
","
","","","-1","","","16","3782","828","g","elianto","#f73b6a7A"," ","-1","0","-10","[]","0","2","","","3782","140","6","3","lose","go","0"
"pit-instructions","265","1512955","0.0-145.0","battery-v0.2","","""event"",""trial"",""time""
""fullscreenenter"",""1"",""1609""
","
","
","""event"",""trial"",""time""
""fullscreenenter"",""1"",""1609""
","
","","[{""page_index"":0,""viewing_time"":5494.4000000059605},{""page_index"":1,""viewing_time"":8047.299999982119}]","13542","","","","","","","","","","","","","","","","","","","","","","","",""
"pit-trial","266","1516290","0.0-146.0","battery-v0.2","","""event"",""trial"",""time""
""fullscreenenter"",""1"",""1609""
","
","
","""event"",""trial"",""time""
""fullscreenenter"",""1"",""1609""
","
","","","468.59999999403954","","","16","3782","828","f","elianto","#3366ff99"," "," ","1","0","[1325.800000011921]","1","3","","","3782","141","1","1","win","go","1"
"pit-trial","267","1521152","0.0-147.0","battery-v0.2","","""event"",""trial"",""time""
""fullscreenenter"",""1"",""1609""
","
","
","""event"",""trial"",""time""
""fullscreenenter"",""1"",""1609""
","
","","","-1","","","16","3782","828","b","elianto","#f73b6a7A"," ","-1","0","-10","[]","0","3","","","3782","142","3","3","lose","go","0"
"pit-trial","268","1526030","0.0-148.0","battery-v0.2","","""event"",""trial"",""time""
""fullscreenenter"",""1"",""1609""
","
","
","""event"",""trial"",""time""
""fullscreenenter"",""1"",""1609""
","
","","","-1","","","16","3782","828","t","elianto","#f73b6a7A","-1","-1","1","-10","[]","0","3","","","3782","143","2","4","lose","no-go","1"
