"trial_type","trial_index","time_elapsed","internal_node_id","task_version","subject_id","interactions","blur_events","focus_events","fullscreenenter_events","fullscreenexit_events","success","view_history","rt","responses","num_errors","age","subject","participantId","rune","rune_set","hex","correct","choice","accuracy","outcome","keys","total_keys","block","practice","value","sub","trial","stimulus","robot","valence","action","sham"
"pavlovia","0","11","0.0-0.0","battery-v0.2","","""event"",""trial"",""time""
""fullscreenenter"",""1"",""3720""
","
","
","""event"",""trial"",""time""
""fullscreenenter"",""1"",""3720""
","
","","","","","","","","","","","","","","","","","","","","","","","","","","",""
"fullscreen","1","4695","0.0-1.0","battery-v0.2","","""event"",""trial"",""time""
""fullscreenenter"",""1"",""3720""
","
","
","""event"",""trial"",""time""
""fullscreenenter"",""1"",""3720""
","
","true","","","","","","","","","","","","","","","","","","","","","","","","","",""
"pit-instructions","2","14451","0.0-2.0-0.0","battery-v0.2","","""event"",""trial"",""time""
""fullscreenenter"",""1"",""3720""
","
","
","""event"",""trial"",""time""
""fullscreenenter"",""1"",""3720""
","
","","[{""page_index"":0,""viewing_time"":9749.700000047684}]","9750","","","","","","","","","","","","","","","","","","","","","","","",""
"pit-comprehension","3","21926","0.0-2.0-1.0-0.0","battery-v0.2","","""event"",""trial"",""time""
""fullscreenenter"",""1"",""3720""
","
","
","""event"",""trial"",""time""
""fullscreenenter"",""1"",""3720""
","
","","","7470.799999952316","[""shark""]","0","12","17869","6669","","","","","","","","","","","","","","","","","","",""
"pit-instructions","4","23401","0.0-2.0-1.0-1.0","battery-v0.2","","""event"",""trial"",""time""
""fullscreenenter"",""1"",""3720""
","
","
","""event"",""trial"",""time""
""fullscreenenter"",""1"",""3720""
","
","","[{""page_index"":0,""viewing_time"":1446.5}]","1446.7000000476837","","","","","","","","","","","","","","","","","","","","","","","",""
"pit-comprehension","5","27454","0.0-2.0-2.0-0.0","battery-v0.2","","""event"",""trial"",""time""
""fullscreenenter"",""1"",""3720""
","
","
","""event"",""trial"",""time""
""fullscreenenter"",""1"",""3720""
","
","","","4048.7000000476837","[""tiger""]","0","12","17869","6669","","","","","","","","","","","","","","","","","","",""
"pit-instructions","6","29152","0.0-2.0-2.0-1.0","battery-v0.2","","""event"",""trial"",""time""
""fullscreenenter"",""1"",""3720""
","
","
","""event"",""trial"",""time""
""fullscreenenter"",""1"",""3720""
","
","","[{""page_index"":0,""viewing_time"":1692.6999998092651}]","1693.5","","","","","","","","","","","","","","","","","","","","","","","",""
"pit-instructions","7","179966","0.0-2.0-3.0","battery-v0.2","","""event"",""trial"",""time""
""fullscreenenter"",""1"",""3720""
","
","
","""event"",""trial"",""time""
""fullscreenenter"",""1"",""3720""
","
","","[{""page_index"":0,""viewing_time"":12886.899999856949},{""page_index"":1,""viewing_time"":15605.700000047684},{""page_index"":2,""viewing_time"":9236.799999952316},{""page_index"":3,""viewing_time"":12345.400000095367},{""page_index"":4,""viewing_time"":6521},{""page_index"":5,""viewing_time"":16210.099999904633},{""page_index"":6,""viewing_time"":6926.900000095367},{""page_index"":7,""viewing_time"":8588.900000095367},{""page_index"":8,""viewing_time"":8095.599999904633},{""page_index"":9,""viewing_time"":24177.900000095367},{""page_index"":10,""viewing_time"":9404.399999856949},{""page_index"":11,""viewing_time"":7889.200000047684},{""page_index"":12,""viewing_time"":7633.200000047684},{""page_index"":13,""viewing_time"":5282.700000047684}]","150805.79999995232","","","","","","","","","","","","","","","","","","","","","","","",""
"pit-trial","8","183350","0.0-2.0-4.0-0.0","battery-v0.2","","""event"",""trial"",""time""
""fullscreenenter"",""1"",""3720""
","
","
","""event"",""trial"",""time""
""fullscreenenter"",""1"",""3720""
","
","","","518.5","","","12","17869","6669","&#9784;","elianto","#FFFFF080"," "," ","1","&#10004","[1369.1000001430511]","1","0","0","","","","","","","",""
"pit-trial","9","186691","0.0-2.0-4.1-0.1","battery-v0.2","","""event"",""trial"",""time""
""fullscreenenter"",""1"",""3720""
","
","
","""event"",""trial"",""time""
""fullscreenenter"",""1"",""3720""
","
","","","483.5","","","12","17869","6669","&#9784;","elianto","#FFFFF080"," "," ","1","&#10004","[1334.2999999523163]","1","0","0","","","","","","","",""
"pit-trial","10","190142","0.0-2.0-4.2-0.2","battery-v0.2","","""event"",""trial"",""time""
""fullscreenenter"",""1"",""3720""
","
","
","""event"",""trial"",""time""
""fullscreenenter"",""1"",""3720""
","
","","","590.2999999523163","","","12","17869","6669","&#9784;","elianto","#FFFFF080"," "," ","1","&#10004","[1446.2000000476837]","1","0","0","","","","","","","",""
"pit-trial","11","193525","0.0-2.0-4.3-0.3","battery-v0.2","","""event"",""trial"",""time""
""fullscreenenter"",""1"",""3720""
","
","
","""event"",""trial"",""time""
""fullscreenenter"",""1"",""3720""
","
","","","522.1000001430511","","","12","17869","6669","&#9784;","elianto","#FFFFF080"," "," ","1","&#10004","[1377.5999999046326]","1","0","0","","","","","","","",""
"pit-trial","12","196905","0.0-2.0-4.4-0.4","battery-v0.2","","""event"",""trial"",""time""
""fullscreenenter"",""1"",""3720""
","
","
","""event"",""trial"",""time""
""fullscreenenter"",""1"",""3720""
","
","","","522.2999999523163","","","12","17869","6669","&#9784;","elianto","#FFFFF080"," "," ","1","&#10004","[1373.4000000953674]","1","0","0","","","","","","","",""
"pit-instructions","13","219417","0.0-2.0-5.0","battery-v0.2","","""event"",""trial"",""time""
""fullscreenenter"",""1"",""3720""
","
","
","""event"",""trial"",""time""
""fullscreenenter"",""1"",""3720""
","
","","[{""page_index"":0,""viewing_time"":5768.200000047684},{""page_index"":1,""viewing_time"":5270},{""page_index"":2,""viewing_time"":5686.299999952316},{""page_index"":3,""viewing_time"":5784.900000095367}]","22510","","","","","","","","","","","","","","","","","","","","","","","",""
"pit-trial","14","224285","0.0-2.0-6.0-0.0","battery-v0.2","","""event"",""trial"",""time""
""fullscreenenter"",""1"",""3720""
","
","
","""event"",""trial"",""time""
""fullscreenenter"",""1"",""3720""
","
","","","-1","","","12","17869","6669","&#9854;","elianto","#FFFFF080","-1","-1","1","&#10004","[]","0","0","1","","","","","","","",""
"pit-trial","15","229150","0.0-2.0-6.1-0.1","battery-v0.2","","""event"",""trial"",""time""
""fullscreenenter"",""1"",""3720""
","
","
","""event"",""trial"",""time""
""fullscreenenter"",""1"",""3720""
","
","","","-1","","","12","17869","6669","&#9854;","elianto","#FFFFF080","-1","-1","1","&#10004","[]","0","0","1","","","","","","","",""
"pit-trial","16","234028","0.0-2.0-6.2-0.2","battery-v0.2","","""event"",""trial"",""time""
""fullscreenenter"",""1"",""3720""
","
","
","""event"",""trial"",""time""
""fullscreenenter"",""1"",""3720""
","
","","","-1","","","12","17869","6669","&#9854;","elianto","#FFFFF080","-1","-1","1","&#10004","[]","0","0","1","","","","","","","",""
"pit-trial","17","238892","0.0-2.0-6.3-0.3","battery-v0.2","","""event"",""trial"",""time""
""fullscreenenter"",""1"",""3720""
","
","
","""event"",""trial"",""time""
""fullscreenenter"",""1"",""3720""
","
","","","-1","","","12","17869","6669","&#9854;","elianto","#FFFFF080","-1","-1","1","&#10004","[]","0","0","1","","","","","","","",""
"pit-trial","18","243760","0.0-2.0-6.4-0.4","battery-v0.2","","""event"",""trial"",""time""
""fullscreenenter"",""1"",""3720""
","
","
","""event"",""trial"",""time""
""fullscreenenter"",""1"",""3720""
","
","","","-1","","","12","17869","6669","&#9854;","elianto","#FFFFF080","-1","-1","1","&#10004","[]","0","0","1","","","","","","","",""
"pit-instructions","19","375026","0.0-2.0-7.0","battery-v0.2","","""event"",""trial"",""time""
""fullscreenenter"",""1"",""3720""
","
","
","""event"",""trial"",""time""
""fullscreenenter"",""1"",""3720""
","
","","[{""page_index"":0,""viewing_time"":5965.399999856949},{""page_index"":1,""viewing_time"":7659.299999952316},{""page_index"":2,""viewing_time"":7666.700000047684},{""page_index"":3,""viewing_time"":6950},{""page_index"":4,""viewing_time"":6367},{""page_index"":5,""viewing_time"":7195.400000095367},{""page_index"":6,""viewing_time"":6782.700000047684},{""page_index"":7,""viewing_time"":8546.599999904633},{""page_index"":8,""viewing_time"":6726.799999952316},{""page_index"":9,""viewing_time"":6874.600000143051},{""page_index"":10,""viewing_time"":6563.599999904633},{""page_index"":11,""viewing_time"":4505.900000095367},{""page_index"":12,""viewing_time"":7197.099999904633},{""page_index"":13,""viewing_time"":7583.299999952316},{""page_index"":14,""viewing_time"":8522.299999952316},{""page_index"":15,""viewing_time"":13500.800000190735},{""page_index"":16,""viewing_time"":6123.699999809265},{""page_index"":17,""viewing_time"":6529.100000143051}]","131261","","","","","","","","","","","","","","","","","","","","","","","",""
"pit-trial","20","378685","0.0-2.0-8.0-0.0","battery-v0.2","","""event"",""trial"",""time""
""fullscreenenter"",""1"",""3720""
","
","
","""event"",""trial"",""time""
""fullscreenenter"",""1"",""3720""
","
","","","802.5999999046326","","","12","17869","6669","&#9776;","elianto","#3366ff99"," "," ","1","+10","[1655.2000000476837]","1","0","1","","","","","","","",""
"pit-trial","21","382084","0.0-2.0-8.0-1.0","battery-v0.2","","""event"",""trial"",""time""
""fullscreenenter"",""1"",""3720""
","
","
","""event"",""trial"",""time""
""fullscreenenter"",""1"",""3720""
","
","","","537.3999998569489","","","12","17869","6669","&#9776;","elianto","#3366ff99"," "," ","1","+10","[1388]","1","0","1","","","","","","","",""
"pit-trial","22","385339","0.0-2.0-8.0-2.0","battery-v0.2","","""event"",""trial"",""time""
""fullscreenenter"",""1"",""3720""
","
","
","""event"",""trial"",""time""
""fullscreenenter"",""1"",""3720""
","
","","","394.5","","","12","17869","6669","&#9776;","elianto","#3366ff99"," "," ","1","+10","[1249.9000000953674]","1","0","1","","","","","","","",""
"pit-trial","23","388593","0.0-2.0-8.0-3.0","battery-v0.2","","""event"",""trial"",""time""
""fullscreenenter"",""1"",""3720""
","
","
","""event"",""trial"",""time""
""fullscreenenter"",""1"",""3720""
","
","","","387.59999990463257","","","12","17869","6669","&#9776;","elianto","#3366ff99"," "," ","1","0","[1238.7000000476837]","1","0","1","","","","","","","",""
"pit-trial","24","391687","0.0-2.0-8.0-4.0","battery-v0.2","","""event"",""trial"",""time""
""fullscreenenter"",""1"",""3720""
","
","
","""event"",""trial"",""time""
""fullscreenenter"",""1"",""3720""
","
","","","238.5","","","12","17869","6669","&#9776;","elianto","#3366ff99"," "," ","1","+10","[1088.7999999523163]","1","0","1","","","","","","","",""
"pit-trial","25","394982","0.0-2.0-8.1-0.1","battery-v0.2","","""event"",""trial"",""time""
""fullscreenenter"",""1"",""3720""
","
","
","""event"",""trial"",""time""
""fullscreenenter"",""1"",""3720""
","
","","","433.40000009536743","","","12","17869","6669","&#9776;","elianto","#3366ff99"," "," ","1","+10","[556.2000000476837,1284.5]","2","0","1","","","","","","","",""
"pit-trial","26","398651","0.0-2.0-8.1-1.1","battery-v0.2","","""event"",""trial"",""time""
""fullscreenenter"",""1"",""3720""
","
","
","""event"",""trial"",""time""
""fullscreenenter"",""1"",""3720""
","
","","","805.6999998092651","","","12","17869","6669","&#9776;","elianto","#3366ff99"," "," ","1","+10","[1658.0999999046326]","1","0","1","","","","","","","",""
"pit-trial","27","401942","0.0-2.0-8.1-2.1","battery-v0.2","","""event"",""trial"",""time""
""fullscreenenter"",""1"",""3720""
","
","
","""event"",""trial"",""time""
""fullscreenenter"",""1"",""3720""
","
","","","428.7999999523163","","","12","17869","6669","&#9776;","elianto","#3366ff99"," "," ","1","+10","[1282.5999999046326]","1","0","1","","","","","","","",""
"pit-trial","28","405363","0.0-2.0-8.1-3.1","battery-v0.2","","""event"",""trial"",""time""
""fullscreenenter"",""1"",""3720""
","
","
","""event"",""trial"",""time""
""fullscreenenter"",""1"",""3720""
","
","","","547.4000000953674","","","12","17869","6669","&#9776;","elianto","#3366ff99"," "," ","1","0","[1404.3000001907349]","1","0","1","","","","","","","",""
"pit-trial","29","408669","0.0-2.0-8.1-4.1","battery-v0.2","","""event"",""trial"",""time""
""fullscreenenter"",""1"",""3720""
","
","
","""event"",""trial"",""time""
""fullscreenenter"",""1"",""3720""
","
","","","448.59999990463257","","","12","17869","6669","&#9776;","elianto","#3366ff99"," "," ","1","+10","[1300]","1","0","1","","","","","","","",""
"pit-trial","30","411913","0.0-2.0-8.2-0.2","battery-v0.2","","""event"",""trial"",""time""
""fullscreenenter"",""1"",""3720""
","
","
","""event"",""trial"",""time""
""fullscreenenter"",""1"",""3720""
","
","","","385.5","","","12","17869","6669","&#9776;","elianto","#3366ff99"," "," ","1","+10","[1238.2000000476837]","1","0","1","","","","","","","",""
"pit-trial","31","414941","0.0-2.0-8.2-1.2","battery-v0.2","","""event"",""trial"",""time""
""fullscreenenter"",""1"",""3720""
","
","
","""event"",""trial"",""time""
""fullscreenenter"",""1"",""3720""
","
","","","157.19999980926514","","","12","17869","6669","&#9776;","elianto","#3366ff99"," "," ","1","+10","[1012.7999999523163]","1","0","1","","","","","","","",""
"pit-trial","32","417957","0.0-2.0-8.2-2.2","battery-v0.2","","""event"",""trial"",""time""
""fullscreenenter"",""1"",""3720""
","
","
","""event"",""trial"",""time""
""fullscreenenter"",""1"",""3720""
","
","","","146.70000004768372","","","12","17869","6669","&#9776;","elianto","#3366ff99"," "," ","1","+10","[998.5999999046326]","1","0","1","","","","","","","",""
"pit-trial","33","421293","0.0-2.0-8.2-3.2","battery-v0.2","","""event"",""trial"",""time""
""fullscreenenter"",""1"",""3720""
","
","
","""event"",""trial"",""time""
""fullscreenenter"",""1"",""3720""
","
","","","477.7000000476837","","","12","17869","6669","&#9776;","elianto","#3366ff99"," "," ","1","0","[1329.2000000476837]","1","0","1","","","","","","","",""
"pit-trial","34","424545","0.0-2.0-8.2-4.2","battery-v0.2","","""event"",""trial"",""time""
""fullscreenenter"",""1"",""3720""
","
","
","""event"",""trial"",""time""
""fullscreenenter"",""1"",""3720""
","
","","","381.7999999523163","","","12","17869","6669","&#9776;","elianto","#3366ff99"," "," ","1","+10","[1239.5]","1","0","1","","","","","","","",""
"call-function","35","424548","0.0-2.0-9.0","battery-v0.2","","""event"",""trial"",""time""
""fullscreenenter"",""1"",""3720""
","
","
","""event"",""trial"",""time""
""fullscreenenter"",""1"",""3720""
","
","","","","","","","","","","","","","","","","","","","","","","","","","","",""
"pit-instructions","36","467129","0.0-2.0-10.0","battery-v0.2","","""event"",""trial"",""time""
""fullscreenenter"",""1"",""3720""
","
","
","""event"",""trial"",""time""
""fullscreenenter"",""1"",""3720""
","
","","[{""page_index"":0,""viewing_time"":6495.799999952316},{""page_index"":1,""viewing_time"":6684.899999856949},{""page_index"":2,""viewing_time"":9544.200000047684},{""page_index"":3,""viewing_time"":9909.5},{""page_index"":4,""viewing_time"":9944.400000095367}]","42579.09999990463","","","","","","","","","","","","","","","","","","","","","","","",""
"pit-trial","37","472005","0.0-2.0-11.0-0.0","battery-v0.2","","""event"",""trial"",""time""
""fullscreenenter"",""1"",""3720""
","
","
","""event"",""trial"",""time""
""fullscreenenter"",""1"",""3720""
","
","","","-1","","","12","17869","6669","&#9761;","elianto","#3366ff99","-1","-1","1","+10","[]","0","0","2","","","","","","","",""
"pit-trial","38","476878","0.0-2.0-11.0-1.0","battery-v0.2","","""event"",""trial"",""time""
""fullscreenenter"",""1"",""3720""
","
","
","""event"",""trial"",""time""
""fullscreenenter"",""1"",""3720""
","
","","","-1","","","12","17869","6669","&#9761;","elianto","#3366ff99","-1","-1","1","+10","[]","0","0","2","","","","","","","",""
"pit-trial","39","481749","0.0-2.0-11.0-2.0","battery-v0.2","","""event"",""trial"",""time""
""fullscreenenter"",""1"",""3720""
","
","
","""event"",""trial"",""time""
""fullscreenenter"",""1"",""3720""
","
","","","-1","","","12","17869","6669","&#9761;","elianto","#3366ff99","-1","-1","1","+10","[]","0","0","2","","","","","","","",""
"pit-trial","40","486624","0.0-2.0-11.0-3.0","battery-v0.2","","""event"",""trial"",""time""
""fullscreenenter"",""1"",""3720""
","
","
","""event"",""trial"",""time""
""fullscreenenter"",""1"",""3720""
","
","","","-1","","","12","17869","6669","&#9761;","elianto","#3366ff99","-1","-1","1","0","[]","0","0","2","","","","","","","",""
"pit-trial","41","491507","0.0-2.0-11.0-4.0","battery-v0.2","","""event"",""trial"",""time""
""fullscreenenter"",""1"",""3720""
","
","
","""event"",""trial"",""time""
""fullscreenenter"",""1"",""3720""
","
","","","-1","","","12","17869","6669","&#9761;","elianto","#3366ff99","-1","-1","1","+10","[]","0","0","2","","","","","","","",""
"pit-trial","42","496368","0.0-2.0-11.1-0.1","battery-v0.2","","""event"",""trial"",""time""
""fullscreenenter"",""1"",""3720""
","
","
","""event"",""trial"",""time""
""fullscreenenter"",""1"",""3720""
","
","","","-1","","","12","17869","6669","&#9761;","elianto","#3366ff99","-1","-1","1","+10","[]","0","0","2","","","","","","","",""
"pit-trial","43","501240","0.0-2.0-11.1-1.1","battery-v0.2","","""event"",""trial"",""time""
""fullscreenenter"",""1"",""3720""
","
","
","""event"",""trial"",""time""
""fullscreenenter"",""1"",""3720""
","
","","","-1","","","12","17869","6669","&#9761;","elianto","#3366ff99","-1","-1","1","+10","[]","0","0","2","","","","","","","",""
"pit-trial","44","506096","0.0-2.0-11.1-2.1","battery-v0.2","","""event"",""trial"",""time""
""fullscreenenter"",""1"",""3720""
","
","
","""event"",""trial"",""time""
""fullscreenenter"",""1"",""3720""
","
","","","-1","","","12","17869","6669","&#9761;","elianto","#3366ff99","-1","-1","1","+10","[]","0","0","2","","","","","","","",""
"pit-trial","45","510954","0.0-2.0-11.1-3.1","battery-v0.2","","""event"",""trial"",""time""
""fullscreenenter"",""1"",""3720""
","
","
","""event"",""trial"",""time""
""fullscreenenter"",""1"",""3720""
","
","","","-1","","","12","17869","6669","&#9761;","elianto","#3366ff99","-1","-1","1","0","[]","0","0","2","","","","","","","",""
"pit-trial","46","515816","0.0-2.0-11.1-4.1","battery-v0.2","","""event"",""trial"",""time""
""fullscreenenter"",""1"",""3720""
","
","
","""event"",""trial"",""time""
""fullscreenenter"",""1"",""3720""
","
","","","-1","","","12","17869","6669","&#9761;","elianto","#3366ff99","-1","-1","1","+10","[]","0","0","2","","","","","","","",""
"pit-trial","47","520682","0.0-2.0-11.2-0.2","battery-v0.2","","""event"",""trial"",""time""
""fullscreenenter"",""1"",""3720""
","
","
","""event"",""trial"",""time""
""fullscreenenter"",""1"",""3720""
","
","","","-1","","","12","17869","6669","&#9761;","elianto","#3366ff99","-1","-1","1","+10","[]","0","0","2","","","","","","","",""
"pit-trial","48","525547","0.0-2.0-11.2-1.2","battery-v0.2","","""event"",""trial"",""time""
""fullscreenenter"",""1"",""3720""
","
","
","""event"",""trial"",""time""
""fullscreenenter"",""1"",""3720""
","
","","","-1","","","12","17869","6669","&#9761;","elianto","#3366ff99","-1","-1","1","+10","[]","0","0","2","","","","","","","",""
"pit-trial","49","530408","0.0-2.0-11.2-2.2","battery-v0.2","","""event"",""trial"",""time""
""fullscreenenter"",""1"",""3720""
","
","
","""event"",""trial"",""time""
""fullscreenenter"",""1"",""3720""
","
","","","-1","","","12","17869","6669","&#9761;","elianto","#3366ff99","-1","-1","1","+10","[]","0","0","2","","","","","","","",""
"pit-trial","50","535268","0.0-2.0-11.2-3.2","battery-v0.2","","""event"",""trial"",""time""
""fullscreenenter"",""1"",""3720""
","
","
","""event"",""trial"",""time""
""fullscreenenter"",""1"",""3720""
","
","","","-1","","","12","17869","6669","&#9761;","elianto","#3366ff99","-1","-1","1","0","[]","0","0","2","","","","","","","",""
"pit-trial","51","540135","0.0-2.0-11.2-4.2","battery-v0.2","","""event"",""trial"",""time""
""fullscreenenter"",""1"",""3720""
","
","
","""event"",""trial"",""time""
""fullscreenenter"",""1"",""3720""
","
","","","-1","","","12","17869","6669","&#9761;","elianto","#3366ff99","-1","-1","1","+10","[]","0","0","2","","","","","","","",""
"pit-trial","52","545006","0.0-2.0-11.3-0.3","battery-v0.2","","""event"",""trial"",""time""
""fullscreenenter"",""1"",""3720""
","
","
","""event"",""trial"",""time""
""fullscreenenter"",""1"",""3720""
","
","","","-1","","","12","17869","6669","&#9761;","elianto","#3366ff99","-1","-1","1","+10","[]","0","0","2","","","","","","","",""
"pit-trial","53","549871","0.0-2.0-11.3-1.3","battery-v0.2","","""event"",""trial"",""time""
""fullscreenenter"",""1"",""3720""
","
","
","""event"",""trial"",""time""
""fullscreenenter"",""1"",""3720""
","
","","","-1","","","12","17869","6669","&#9761;","elianto","#3366ff99","-1","-1","1","+10","[]","0","0","2","","","","","","","",""
"pit-trial","54","554750","0.0-2.0-11.3-2.3","battery-v0.2","","""event"",""trial"",""time""
""fullscreenenter"",""1"",""3720""
","
","
","""event"",""trial"",""time""
""fullscreenenter"",""1"",""3720""
","
","","","-1","","","12","17869","6669","&#9761;","elianto","#3366ff99","-1","-1","1","+10","[]","0","0","2","","","","","","","",""
"pit-trial","55","559605","0.0-2.0-11.3-3.3","battery-v0.2","","""event"",""trial"",""time""
""fullscreenenter"",""1"",""3720""
","
","
","""event"",""trial"",""time""
""fullscreenenter"",""1"",""3720""
","
","","","-1","","","12","17869","6669","&#9761;","elianto","#3366ff99","-1","-1","1","0","[]","0","0","2","","","","","","","",""
"pit-trial","56","564479","0.0-2.0-11.3-4.3","battery-v0.2","","""event"",""trial"",""time""
""fullscreenenter"",""1"",""3720""
","
","
","""event"",""trial"",""time""
""fullscreenenter"",""1"",""3720""
","
","","","-1","","","12","17869","6669","&#9761;","elianto","#3366ff99","-1","-1","1","+10","[]","0","0","2","","","","","","","",""
"call-function","57","564481","0.0-2.0-12.0","battery-v0.2","","""event"",""trial"",""time""
""fullscreenenter"",""1"",""3720""
","
","
","""event"",""trial"",""time""
""fullscreenenter"",""1"",""3720""
","
","","","","","","","","","","","","","","","","","","","","","","","","","","",""
"pit-instructions","58","599642","0.0-2.0-13.0","battery-v0.2","","""event"",""trial"",""time""
""fullscreenenter"",""1"",""3720""
","
","
","""event"",""trial"",""time""
""fullscreenenter"",""1"",""3720""
","
","","[{""page_index"":0,""viewing_time"":7397.099999904633},{""page_index"":1,""viewing_time"":7025.200000047684},{""page_index"":2,""viewing_time"":3197.0999999046326},{""page_index"":3,""viewing_time"":12373.5},{""page_index"":4,""viewing_time"":5165.900000095367}]","35159.39999985695","","","","","","","","","","","","","","","","","","","","","","","",""
"pit-trial","59","603141","0.0-2.0-14.0-0.0","battery-v0.2","","""event"",""trial"",""time""
""fullscreenenter"",""1"",""3720""
","
","
","""event"",""trial"",""time""
""fullscreenenter"",""1"",""3720""
","
","","","633.2999999523163","","","12","17869","6669","&#9826;","elianto","#f73b6a7A","-1"," ","0","-10","[1487.5999999046326]","1","0","3","","","","","","","",""
"pit-trial","60","608012","0.0-2.0-14.0-1.0","battery-v0.2","","""event"",""trial"",""time""
""fullscreenenter"",""1"",""3720""
","
","
","""event"",""trial"",""time""
""fullscreenenter"",""1"",""3720""
","
","","","-1","","","12","17869","6669","&#9826;","elianto","#f73b6a7A","-1","-1","1","0","[]","0","0","3","","","","","","","",""
"pit-trial","61","612889","0.0-2.0-14.0-2.0","battery-v0.2","","""event"",""trial"",""time""
""fullscreenenter"",""1"",""3720""
","
","
","""event"",""trial"",""time""
""fullscreenenter"",""1"",""3720""
","
","","","-1","","","12","17869","6669","&#9826;","elianto","#f73b6a7A","-1","-1","1","0","[]","0","0","3","","","","","","","",""
"pit-trial","62","617761","0.0-2.0-14.0-3.0","battery-v0.2","","""event"",""trial"",""time""
""fullscreenenter"",""1"",""3720""
","
","
","""event"",""trial"",""time""
""fullscreenenter"",""1"",""3720""
","
","","","-1","","","12","17869","6669","&#9826;","elianto","#f73b6a7A","-1","-1","1","-10","[]","0","0","3","","","","","","","",""
"pit-trial","63","622639","0.0-2.0-14.0-4.0","battery-v0.2","","""event"",""trial"",""time""
""fullscreenenter"",""1"",""3720""
","
","
","""event"",""trial"",""time""
""fullscreenenter"",""1"",""3720""
","
","","","-1","","","12","17869","6669","&#9826;","elianto","#f73b6a7A","-1","-1","1","0","[]","0","0","3","","","","","","","",""
"pit-trial","64","627507","0.0-2.0-14.1-0.1","battery-v0.2","","""event"",""trial"",""time""
""fullscreenenter"",""1"",""3720""
","
","
","""event"",""trial"",""time""
""fullscreenenter"",""1"",""3720""
","
","","","-1","","","12","17869","6669","&#9826;","elianto","#f73b6a7A","-1","-1","1","0","[]","0","0","3","","","","","","","",""
"pit-trial","65","632368","0.0-2.0-14.1-1.1","battery-v0.2","","""event"",""trial"",""time""
""fullscreenenter"",""1"",""3720""
","
","
","""event"",""trial"",""time""
""fullscreenenter"",""1"",""3720""
","
","","","-1","","","12","17869","6669","&#9826;","elianto","#f73b6a7A","-1","-1","1","0","[]","0","0","3","","","","","","","",""
"pit-trial","66","637242","0.0-2.0-14.1-2.1","battery-v0.2","","""event"",""trial"",""time""
""fullscreenenter"",""1"",""3720""
","
","
","""event"",""trial"",""time""
""fullscreenenter"",""1"",""3720""
","
","","","-1","","","12","17869","6669","&#9826;","elianto","#f73b6a7A","-1","-1","1","0","[]","0","0","3","","","","","","","",""
"pit-trial","67","642100","0.0-2.0-14.1-3.1","battery-v0.2","","""event"",""trial"",""time""
""fullscreenenter"",""1"",""3720""
","
","
","""event"",""trial"",""time""
""fullscreenenter"",""1"",""3720""
","
","","","-1","","","12","17869","6669","&#9826;","elianto","#f73b6a7A","-1","-1","1","-10","[]","0","0","3","","","","","","","",""
"pit-trial","68","646971","0.0-2.0-14.1-4.1","battery-v0.2","","""event"",""trial"",""time""
""fullscreenenter"",""1"",""3720""
","
","
","""event"",""trial"",""time""
""fullscreenenter"",""1"",""3720""
","
","","","-1","","","12","17869","6669","&#9826;","elianto","#f73b6a7A","-1","-1","1","0","[]","0","0","3","","","","","","","",""
"pit-trial","69","651836","0.0-2.0-14.2-0.2","battery-v0.2","","""event"",""trial"",""time""
""fullscreenenter"",""1"",""3720""
","
","
","""event"",""trial"",""time""
""fullscreenenter"",""1"",""3720""
","
","","","-1","","","12","17869","6669","&#9826;","elianto","#f73b6a7A","-1","-1","1","0","[]","0","0","3","","","","","","","",""
"pit-trial","70","656694","0.0-2.0-14.2-1.2","battery-v0.2","","""event"",""trial"",""time""
""fullscreenenter"",""1"",""3720""
","
","
","""event"",""trial"",""time""
""fullscreenenter"",""1"",""3720""
","
","","","-1","","","12","17869","6669","&#9826;","elianto","#f73b6a7A","-1","-1","1","0","[]","0","0","3","","","","","","","",""
"pit-trial","71","661560","0.0-2.0-14.2-2.2","battery-v0.2","","""event"",""trial"",""time""
""fullscreenenter"",""1"",""3720""
","
","
","""event"",""trial"",""time""
""fullscreenenter"",""1"",""3720""
","
","","","-1","","","12","17869","6669","&#9826;","elianto","#f73b6a7A","-1","-1","1","0","[]","0","0","3","","","","","","","",""
"pit-trial","72","666424","0.0-2.0-14.2-3.2","battery-v0.2","","""event"",""trial"",""time""
""fullscreenenter"",""1"",""3720""
","
","
","""event"",""trial"",""time""
""fullscreenenter"",""1"",""3720""
","
","","","-1","","","12","17869","6669","&#9826;","elianto","#f73b6a7A","-1","-1","1","-10","[]","0","0","3","","","","","","","",""
"pit-trial","73","671287","0.0-2.0-14.2-4.2","battery-v0.2","","""event"",""trial"",""time""
""fullscreenenter"",""1"",""3720""
","
","
","""event"",""trial"",""time""
""fullscreenenter"",""1"",""3720""
","
","","","-1","","","12","17869","6669","&#9826;","elianto","#f73b6a7A","-1","-1","1","0","[]","0","0","3","","","","","","","",""
"pit-trial","74","676144","0.0-2.0-14.3-0.3","battery-v0.2","","""event"",""trial"",""time""
""fullscreenenter"",""1"",""3720""
","
","
","""event"",""trial"",""time""
""fullscreenenter"",""1"",""3720""
","
","","","-1","","","12","17869","6669","&#9826;","elianto","#f73b6a7A","-1","-1","1","0","[]","0","0","3","","","","","","","",""
"pit-trial","75","681006","0.0-2.0-14.3-1.3","battery-v0.2","","""event"",""trial"",""time""
""fullscreenenter"",""1"",""3720""
","
","
","""event"",""trial"",""time""
""fullscreenenter"",""1"",""3720""
","
","","","-1","","","12","17869","6669","&#9826;","elianto","#f73b6a7A","-1","-1","1","0","[]","0","0","3","","","","","","","",""
"pit-trial","76","685869","0.0-2.0-14.3-2.3","battery-v0.2","","""event"",""trial"",""time""
""fullscreenenter"",""1"",""3720""
","
","
","""event"",""trial"",""time""
""fullscreenenter"",""1"",""3720""
","
","","","-1","","","12","17869","6669","&#9826;","elianto","#f73b6a7A","-1","-1","1","0","[]","0","0","3","","","","","","","",""
"pit-trial","77","690730","0.0-2.0-14.3-3.3","battery-v0.2","","""event"",""trial"",""time""
""fullscreenenter"",""1"",""3720""
","
","
","""event"",""trial"",""time""
""fullscreenenter"",""1"",""3720""
","
","","","-1","","","12","17869","6669","&#9826;","elianto","#f73b6a7A","-1","-1","1","-10","[]","0","0","3","","","","","","","",""
"pit-trial","78","695590","0.0-2.0-14.3-4.3","battery-v0.2","","""event"",""trial"",""time""
""fullscreenenter"",""1"",""3720""
","
","
","""event"",""trial"",""time""
""fullscreenenter"",""1"",""3720""
","
","","","-1","","","12","17869","6669","&#9826;","elianto","#f73b6a7A","-1","-1","1","0","[]","0","0","3","","","","","","","",""
"call-function","79","695593","0.0-2.0-15.0","battery-v0.2","","""event"",""trial"",""time""
""fullscreenenter"",""1"",""3720""
","
","
","""event"",""trial"",""time""
""fullscreenenter"",""1"",""3720""
","
","","","","","","","","","","","","","","","","","","","","","","","","","","",""
"pit-instructions","80","721216","0.0-2.0-16.0","battery-v0.2","","""event"",""trial"",""time""
""fullscreenenter"",""1"",""3720""
","
","
","""event"",""trial"",""time""
""fullscreenenter"",""1"",""3720""
","
","","[{""page_index"":0,""viewing_time"":6868.400000095367},{""page_index"":1,""viewing_time"":8307},{""page_index"":2,""viewing_time"":5665},{""page_index"":3,""viewing_time"":4778.099999904633}]","25618.900000095367","","","","","","","","","","","","","","","","","","","","","","","",""
"pit-trial","81","724737","0.0-2.0-17.0-0.0","battery-v0.2","","""event"",""trial"",""time""
""fullscreenenter"",""1"",""3720""
","
","
","""event"",""trial"",""time""
""fullscreenenter"",""1"",""3720""
","
","","","654.1000001430511","","","12","17869","6669","&#9789;","elianto","#f73b6a7A"," "," ","1","0","[1506.5]","1","0","4","","","","","","","",""
"pit-trial","82","728032","0.0-2.0-17.0-1.0","battery-v0.2","","""event"",""trial"",""time""
""fullscreenenter"",""1"",""3720""
","
","
","""event"",""trial"",""time""
""fullscreenenter"",""1"",""3720""
","
","","","419.89999985694885","","","12","17869","6669","&#9789;","elianto","#f73b6a7A"," "," ","1","0","[1277.8999998569489]","1","0","4","","","","","","","",""
"pit-trial","83","731848","0.0-2.0-17.0-2.0","battery-v0.2","","""event"",""trial"",""time""
""fullscreenenter"",""1"",""3720""
","
","
","""event"",""trial"",""time""
""fullscreenenter"",""1"",""3720""
","
","","","948.8000001907349","","","12","17869","6669","&#9789;","elianto","#f73b6a7A"," "," ","1","0","[677.7000000476837,1800]","2","0","4","","","","","","","",""
"pit-trial","84","735205","0.0-2.0-17.0-3.0","battery-v0.2","","""event"",""trial"",""time""
""fullscreenenter"",""1"",""3720""
","
","
","""event"",""trial"",""time""
""fullscreenenter"",""1"",""3720""
","
","","","499.2999999523163","","","12","17869","6669","&#9789;","elianto","#f73b6a7A"," "," ","1","-10","[1351.1000001430511]","1","0","4","","","","","","","",""
"pit-trial","85","738561","0.0-2.0-17.0-4.0","battery-v0.2","","""event"",""trial"",""time""
""fullscreenenter"",""1"",""3720""
","
","
","""event"",""trial"",""time""
""fullscreenenter"",""1"",""3720""
","
","","","494.40000009536743","","","12","17869","6669","&#9789;","elianto","#f73b6a7A"," "," ","1","0","[1350.1000001430511]","1","0","4","","","","","","","",""
"pit-trial","86","741679","0.0-2.0-17.1-0.1","battery-v0.2","","""event"",""trial"",""time""
""fullscreenenter"",""1"",""3720""
","
","
","""event"",""trial"",""time""
""fullscreenenter"",""1"",""3720""
","
","","","242.80000019073486","","","12","17869","6669","&#9789;","elianto","#f73b6a7A"," "," ","1","0","[1099.7000000476837]","1","0","4","","","","","","","",""
"pit-trial","87","744774","0.0-2.0-17.1-1.1","battery-v0.2","","""event"",""trial"",""time""
""fullscreenenter"",""1"",""3720""
","
","
","""event"",""trial"",""time""
""fullscreenenter"",""1"",""3720""
","
","","","223.59999990463257","","","12","17869","6669","&#9789;","elianto","#f73b6a7A"," "," ","1","0","[1079.2000000476837]","1","0","4","","","","","","","",""
"pit-trial","88","748106","0.0-2.0-17.1-2.1","battery-v0.2","","""event"",""trial"",""time""
""fullscreenenter"",""1"",""3720""
","
","
","""event"",""trial"",""time""
""fullscreenenter"",""1"",""3720""
","
","","","457.40000009536743","","","12","17869","6669","&#9789;","elianto","#f73b6a7A"," "," ","1","0","[1314.5]","1","0","4","","","","","","","",""
"pit-trial","89","752976","0.0-2.0-17.1-3.1","battery-v0.2","","""event"",""trial"",""time""
""fullscreenenter"",""1"",""3720""
","
","
","""event"",""trial"",""time""
""fullscreenenter"",""1"",""3720""
","
","","","-1","","","12","17869","6669","&#9789;","elianto","#f73b6a7A"," ","-1","0","0","[]","0","0","4","","","","","","","",""
"pit-trial","90","756295","0.0-2.0-17.1-4.1","battery-v0.2","","""event"",""trial"",""time""
""fullscreenenter"",""1"",""3720""
","
","
","""event"",""trial"",""time""
""fullscreenenter"",""1"",""3720""
","
","","","463.40000009536743","","","12","17869","6669","&#9789;","elianto","#f73b6a7A"," "," ","1","0","[1315.2000000476837]","1","0","4","","","","","","","",""
"pit-trial","91","759778","0.0-2.0-17.2-0.2","battery-v0.2","","""event"",""trial"",""time""
""fullscreenenter"",""1"",""3720""
","
","
","""event"",""trial"",""time""
""fullscreenenter"",""1"",""3720""
","
","","","620.7999999523163","","","12","17869","6669","&#9789;","elianto","#f73b6a7A"," "," ","1","0","[1471.5]","1","0","4","","","","","","","",""
"pit-trial","92","763534","0.0-2.0-17.2-1.2","battery-v0.2","","""event"",""trial"",""time""
""fullscreenenter"",""1"",""3720""
","
","
","""event"",""trial"",""time""
""fullscreenenter"",""1"",""3720""
","
","","","902.8999998569489","","","12","17869","6669","&#9789;","elianto","#f73b6a7A"," "," ","1","0","[1754]","1","0","4","","","","","","","",""
"pit-trial","93","767095","0.0-2.0-17.2-2.2","battery-v0.2","","""event"",""trial"",""time""
""fullscreenenter"",""1"",""3720""
","
","
","""event"",""trial"",""time""
""fullscreenenter"",""1"",""3720""
","
","","","696.8000001907349","","","12","17869","6669","&#9789;","elianto","#f73b6a7A"," "," ","1","0","[1552.4000000953674]","1","0","4","","","","","","","",""
"pit-trial","94","770486","0.0-2.0-17.2-3.2","battery-v0.2","","""event"",""trial"",""time""
""fullscreenenter"",""1"",""3720""
","
","
","""event"",""trial"",""time""
""fullscreenenter"",""1"",""3720""
","
","","","528.3000001907349","","","12","17869","6669","&#9789;","elianto","#f73b6a7A"," "," ","1","-10","[1386.5999999046326]","1","0","4","","","","","","","",""
"pit-trial","95","773775","0.0-2.0-17.2-4.2","battery-v0.2","","""event"",""trial"",""time""
""fullscreenenter"",""1"",""3720""
","
","
","""event"",""trial"",""time""
""fullscreenenter"",""1"",""3720""
","
","","","418.7999999523163","","","12","17869","6669","&#9789;","elianto","#f73b6a7A"," "," ","1","0","[1271]","1","0","4","","","","","","","",""
"pit-trial","96","776898","0.0-2.0-17.3-0.3","battery-v0.2","","""event"",""trial"",""time""
""fullscreenenter"",""1"",""3720""
","
","
","""event"",""trial"",""time""
""fullscreenenter"",""1"",""3720""
","
","","","255.29999995231628","","","12","17869","6669","&#9789;","elianto","#f73b6a7A"," "," ","1","0","[1105.6999998092651]","1","0","4","","","","","","","",""
"pit-trial","97","780375","0.0-2.0-17.3-1.3","battery-v0.2","","""event"",""trial"",""time""
""fullscreenenter"",""1"",""3720""
","
","
","""event"",""trial"",""time""
""fullscreenenter"",""1"",""3720""
","
","","","610.2999999523163","","","12","17869","6669","&#9789;","elianto","#f73b6a7A"," "," ","1","0","[1467.0999999046326]","1","0","4","","","","","","","",""
"pit-trial","98","785245","0.0-2.0-17.3-2.3","battery-v0.2","","""event"",""trial"",""time""
""fullscreenenter"",""1"",""3720""
","
","
","""event"",""trial"",""time""
""fullscreenenter"",""1"",""3720""
","
","","","-1","","","12","17869","6669","&#9789;","elianto","#f73b6a7A"," ","-1","0","-10","[765,3160,4337.299999952316]","3","0","4","","","","","","","",""
"pit-trial","99","788831","0.0-2.0-17.3-3.3","battery-v0.2","","""event"",""trial"",""time""
""fullscreenenter"",""1"",""3720""
","
","
","""event"",""trial"",""time""
""fullscreenenter"",""1"",""3720""
","
","","","720.9000000953674","","","12","17869","6669","&#9789;","elianto","#f73b6a7A"," "," ","1","-10","[1578.9000000953674]","1","0","4","","","","","","","",""
"pit-trial","100","792300","0.0-2.0-17.3-4.3","battery-v0.2","","""event"",""trial"",""time""
""fullscreenenter"",""1"",""3720""
","
","
","""event"",""trial"",""time""
""fullscreenenter"",""1"",""3720""
","
","","","610.4000000953674","","","12","17869","6669","&#9789;","elianto","#f73b6a7A"," "," ","1","0","[720.0999999046326,1462.2999999523163]","2","0","4","","","","","","","",""
"call-function","101","792302","0.0-2.0-18.0","battery-v0.2","","""event"",""trial"",""time""
""fullscreenenter"",""1"",""3720""
","
","
","""event"",""trial"",""time""
""fullscreenenter"",""1"",""3720""
","
","","","","","","","","","","","","","","","","","","","","","","","","","","",""
"pit-instructions","102","882791","0.0-2.0-19.0","battery-v0.2","","""event"",""trial"",""time""
""fullscreenenter"",""1"",""3720""
","
","
","""event"",""trial"",""time""
""fullscreenenter"",""1"",""3720""
","
","","[{""page_index"":0,""viewing_time"":6567.799999952316},{""page_index"":1,""viewing_time"":7372.700000047684},{""page_index"":2,""viewing_time"":14369.099999904633},{""page_index"":3,""viewing_time"":8848.900000095367},{""page_index"":4,""viewing_time"":10840.299999952316},{""page_index"":5,""viewing_time"":10079.200000047684},{""page_index"":6,""viewing_time"":8488.200000047684},{""page_index"":7,""viewing_time"":18636.799999952316},{""page_index"":8,""viewing_time"":5280.200000047684}]","90483.79999995232","","","","","","","","","","","","","","","","","","","","","","","",""
"pit-comprehension","103","888754","0.0-2.0-20.0-0.0","battery-v0.2","","""event"",""trial"",""time""
""fullscreenenter"",""1"",""3720""
","
","
","""event"",""trial"",""time""
""fullscreenenter"",""1"",""3720""
","
","","","5954.900000095367","[""SPACE""]","0","12","17869","6669","","","","","","","","","","","","","","","","","","",""
"pit-instructions","104","891202","0.0-2.0-20.0-1.0","battery-v0.2","","""event"",""trial"",""time""
""fullscreenenter"",""1"",""3720""
","
","
","""event"",""trial"",""time""
""fullscreenenter"",""1"",""3720""
","
","","[{""page_index"":0,""viewing_time"":2413.2999999523163}]","2414.2000000476837","","","","","","","","","","","","","","","","","","","","","","","",""
"pit-comprehension","105","897424","0.0-2.0-21.0-0.0","battery-v0.2","","""event"",""trial"",""time""
""fullscreenenter"",""1"",""3720""
","
","
","""event"",""trial"",""time""
""fullscreenenter"",""1"",""3720""
","
","","","6214.799999952316","[""10""]","0","12","17869","6669","","","","","","","","","","","","","","","","","","",""
"pit-instructions","106","899333","0.0-2.0-21.0-1.0","battery-v0.2","","""event"",""trial"",""time""
""fullscreenenter"",""1"",""3720""
","
","
","""event"",""trial"",""time""
""fullscreenenter"",""1"",""3720""
","
","","[{""page_index"":0,""viewing_time"":1877.7999999523163}]","1878.5","","","","","","","","","","","","","","","","","","","","","","","",""
"pit-comprehension","107","905892","0.0-2.0-22.0-0.0","battery-v0.2","","""event"",""trial"",""time""
""fullscreenenter"",""1"",""3720""
","
","
","""event"",""trial"",""time""
""fullscreenenter"",""1"",""3720""
","
","","","6552.100000143051","[""0""]","0","12","17869","6669","","","","","","","","","","","","","","","","","","",""
"pit-instructions","108","907576","0.0-2.0-22.0-1.0","battery-v0.2","","""event"",""trial"",""time""
""fullscreenenter"",""1"",""3720""
","
","
","""event"",""trial"",""time""
""fullscreenenter"",""1"",""3720""
","
","","[{""page_index"":0,""viewing_time"":1648.9000000953674}]","1649.4000000953674","","","","","","","","","","","","","","","","","","","","","","","",""
"pit-comprehension","109","917855","0.0-2.0-23.0-0.0","battery-v0.2","","""event"",""trial"",""time""
""fullscreenenter"",""1"",""3720""
","
","
","""event"",""trial"",""time""
""fullscreenenter"",""1"",""3720""
","
","","","10275.700000047684","[""False""]","1","12","17869","6669","","","","","","","","","","","","","","","","","","",""
"pit-instructions","110","926000","0.0-2.0-23.0-1.0","battery-v0.2","","""event"",""trial"",""time""
""fullscreenenter"",""1"",""3720""
","
","
","""event"",""trial"",""time""
""fullscreenenter"",""1"",""3720""
","
","","[{""page_index"":0,""viewing_time"":8115.099999904633}]","8115.699999809265","","","","","","","","","","","","","","","","","","","","","","","",""
"pit-instructions","111","927116","0.0-2.0-23.0-2.0-0.0","battery-v0.2","","""event"",""trial"",""time""
""fullscreenenter"",""1"",""3720""
","
","
","""event"",""trial"",""time""
""fullscreenenter"",""1"",""3720""
","
","","[{""page_index"":0,""viewing_time"":1110.1000001430511}]","1111.4000000953674","","","","","","","","","","","","","","","","","","","","","","","",""
"pit-comprehension","112","936974","0.0-2.0-23.1-0.1","battery-v0.2","","""event"",""trial"",""time""
""fullscreenenter"",""1"",""3720""
","
","
","""event"",""trial"",""time""
""fullscreenenter"",""1"",""3720""
","
","","","9852.900000095367","[""True""]","0","12","17869","6669","","","","","","","","","","","","","","","","","","",""
"pit-instructions","113","938616","0.0-2.0-23.1-1.1","battery-v0.2","","""event"",""trial"",""time""
""fullscreenenter"",""1"",""3720""
","
","
","""event"",""trial"",""time""
""fullscreenenter"",""1"",""3720""
","
","","[{""page_index"":0,""viewing_time"":1617.7000000476837}]","1618.2000000476837","","","","","","","","","","","","","","","","","","","","","","","",""
"pit-comprehension","114","946004","0.0-2.0-24.0-0.0","battery-v0.2","","""event"",""trial"",""time""
""fullscreenenter"",""1"",""3720""
","
","
","""event"",""trial"",""time""
""fullscreenenter"",""1"",""3720""
","
","","","7385.200000047684","[""True""]","0","12","17869","6669","","","","","","","","","","","","","","","","","","",""
"pit-instructions","115","947639","0.0-2.0-24.0-1.0","battery-v0.2","","""event"",""trial"",""time""
""fullscreenenter"",""1"",""3720""
","
","
","""event"",""trial"",""time""
""fullscreenenter"",""1"",""3720""
","
","","[{""page_index"":0,""viewing_time"":1602.5}]","1603.4000000953674","","","","","","","","","","","","","","","","","","","","","","","",""
"pit-comprehension","116","956241","0.0-2.0-25.0-0.0","battery-v0.2","","""event"",""trial"",""time""
""fullscreenenter"",""1"",""3720""
","
","
","""event"",""trial"",""time""
""fullscreenenter"",""1"",""3720""
","
","","","8595.599999904633","[""True""]","0","12","17869","6669","","","","","","","","","","","","","","","","","","",""
"pit-instructions","117","959295","0.0-2.0-25.0-1.0","battery-v0.2","","""event"",""trial"",""time""
""fullscreenenter"",""1"",""3720""
","
","
","""event"",""trial"",""time""
""fullscreenenter"",""1"",""3720""
","
","","[{""page_index"":0,""viewing_time"":3026.0999999046326}]","3026.9000000953674","","","","","","","","","","","","","","","","","","","","","","","",""
"pit-comprehension","118","966197","0.0-2.0-26.0-0.0","battery-v0.2","","""event"",""trial"",""time""
""fullscreenenter"",""1"",""3720""
","
","
","""event"",""trial"",""time""
""fullscreenenter"",""1"",""3720""
","
","","","6894.700000047684","[""False""]","0","12","17869","6669","","","","","","","","","","","","","","","","","","",""
"pit-instructions","119","967699","0.0-2.0-26.0-1.0","battery-v0.2","","""event"",""trial"",""time""
""fullscreenenter"",""1"",""3720""
","
","
","""event"",""trial"",""time""
""fullscreenenter"",""1"",""3720""
","
","","[{""page_index"":0,""viewing_time"":1462}]","1462.4000000953674","","","","","","","","","","","","","","","","","","","","","","","",""
"pit-instructions","120","987134","0.0-3.0","battery-v0.2","","""event"",""trial"",""time""
""fullscreenenter"",""1"",""3720""
","
","
","""event"",""trial"",""time""
""fullscreenenter"",""1"",""3720""
","
","","[{""page_index"":0,""viewing_time"":4461.299999952316},{""page_index"":1,""viewing_time"":6852.599999904633},{""page_index"":2,""viewing_time"":8116.5}]","19432","","","","","","","","","","","","","","","","","","","","","","","",""
"pit-trial","121","991036","0.0-4.0","battery-v0.2","","""event"",""trial"",""time""
""fullscreenenter"",""1"",""3720""
","
","
","""event"",""trial"",""time""
""fullscreenenter"",""1"",""3720""
","
","","","1029.2000000476837","","","12","17869","6669","&#9733;","elianto","#3366ff99","-1"," ","0","+10","[1883.1000001430511]","1","1","","","17869","1","2","2","win","no-go","1"
"pit-trial","122","995900","0.0-5.0","battery-v0.2","","""event"",""trial"",""time""
""fullscreenenter"",""1"",""3720""
","
","
","""event"",""trial"",""time""
""fullscreenenter"",""1"",""3720""
","
","","","-1","","","12","17869","6669","&#9752;","elianto","#f73b6a7A"," ","-1","0","-10","[]","0","1","","","17869","2","3","3","lose","go","0"
"pit-trial","123","999661","0.0-6.0","battery-v0.2","","""event"",""trial"",""time""
""fullscreenenter"",""1"",""3720""
","
","
","""event"",""trial"",""time""
""fullscreenenter"",""1"",""3720""
","
","","","901.7999999523163","","","12","17869","6669","&#9730;","elianto","#3366ff99"," "," ","1","0","[1753.4000000953674]","1","1","","","17869","3","1","1","win","go","1"
"pit-trial","124","1003389","0.0-7.0","battery-v0.2","","""event"",""trial"",""time""
""fullscreenenter"",""1"",""3720""
","
","
","""event"",""trial"",""time""
""fullscreenenter"",""1"",""3720""
","
","","","861.7000000476837","","","12","17869","6669","&#9728;","elianto","#f73b6a7A","-1"," ","0","-10","[1712.4000000953674]","1","1","","","17869","4","0","4","lose","no-go","0"
"pit-trial","125","1006928","0.0-8.0","battery-v0.2","","""event"",""trial"",""time""
""fullscreenenter"",""1"",""3720""
","
","
","""event"",""trial"",""time""
""fullscreenenter"",""1"",""3720""
","
","","","670.3000001907349","","","12","17869","6669","&#9730;","elianto","#3366ff99"," "," ","1","+10","[1523.5]","1","1","","","17869","5","1","1","win","go","0"
"pit-trial","126","1011803","0.0-9.0","battery-v0.2","","""event"",""trial"",""time""
""fullscreenenter"",""1"",""3720""
","
","
","""event"",""trial"",""time""
""fullscreenenter"",""1"",""3720""
","
","","","-1","","","12","17869","6669","&#9752;","elianto","#f73b6a7A"," ","-1","0","0","[]","0","1","","","17869","6","3","3","lose","go","1"
"pit-trial","127","1015403","0.0-10.0","battery-v0.2","","""event"",""trial"",""time""
""fullscreenenter"",""1"",""3720""
","
","
","""event"",""trial"",""time""
""fullscreenenter"",""1"",""3720""
","
","","","734","","","12","17869","6669","&#9728;","elianto","#f73b6a7A","-1"," ","0","-10","[1584.6000001430511]","1","1","","","17869","7","0","4","lose","no-go","0"
"pit-trial","128","1019107","0.0-11.0","battery-v0.2","","""event"",""trial"",""time""
""fullscreenenter"",""1"",""3720""
","
","
","""event"",""trial"",""time""
""fullscreenenter"",""1"",""3720""
","
","","","839.9000000953674","","","12","17869","6669","&#9733;","elianto","#3366ff99","-1"," ","0","0","[1695.2000000476837]","1","1","","","17869","8","2","2","win","no-go","0"
"pit-trial","129","1023118","0.0-12.0","battery-v0.2","","""event"",""trial"",""time""
""fullscreenenter"",""1"",""3720""
","
","
","""event"",""trial"",""time""
""fullscreenenter"",""1"",""3720""
","
","","","1148.5","","","12","17869","6669","&#9752;","elianto","#f73b6a7A"," "," ","1","0","[2000.5]","1","1","","","17869","9","3","3","lose","go","0"
"pit-trial","130","1027985","0.0-13.0","battery-v0.2","","""event"",""trial"",""time""
""fullscreenenter"",""1"",""3720""
","
","
","""event"",""trial"",""time""
""fullscreenenter"",""1"",""3720""
","
","","","-1","","","12","17869","6669","&#9728;","elianto","#f73b6a7A","-1","-1","1","0","[]","0","1","","","17869","10","0","4","lose","no-go","0"
"pit-trial","131","1031727","0.0-14.0","battery-v0.2","","""event"",""trial"",""time""
""fullscreenenter"",""1"",""3720""
","
","
","""event"",""trial"",""time""
""fullscreenenter"",""1"",""3720""
","
","","","877.8999998569489","","","12","17869","6669","&#9730;","elianto","#3366ff99"," "," ","1","0","[1732.2000000476837]","1","1","","","17869","11","1","1","win","go","1"
"pit-trial","132","1035345","0.0-15.0","battery-v0.2","","""event"",""trial"",""time""
""fullscreenenter"",""1"",""3720""
","
","
","""event"",""trial"",""time""
""fullscreenenter"",""1"",""3720""
","
","","","754.7999999523163","","","12","17869","6669","&#9733;","elianto","#3366ff99","-1"," ","0","0","[1605]","1","1","","","17869","12","2","2","win","no-go","0"
"pit-trial","133","1040216","0.0-16.0","battery-v0.2","","""event"",""trial"",""time""
""fullscreenenter"",""1"",""3720""
","
","
","""event"",""trial"",""time""
""fullscreenenter"",""1"",""3720""
","
","","","-1","","","12","17869","6669","&#9728;","elianto","#f73b6a7A","-1","-1","1","0","[]","0","1","","","17869","13","0","4","lose","no-go","0"
"pit-trial","134","1045084","0.0-17.0","battery-v0.2","","""event"",""trial"",""time""
""fullscreenenter"",""1"",""3720""
","
","
","""event"",""trial"",""time""
""fullscreenenter"",""1"",""3720""
","
","","","-1","","","12","17869","6669","&#9752;","elianto","#f73b6a7A"," ","-1","0","-10","[]","0","1","","","17869","14","3","3","lose","go","0"
"pit-trial","135","1049521","0.0-18.0","battery-v0.2","","""event"",""trial"",""time""
""fullscreenenter"",""1"",""3720""
","
","
","""event"",""trial"",""time""
""fullscreenenter"",""1"",""3720""
","
","","","1574.8000001907349","","","12","17869","6669","&#9730;","elianto","#3366ff99"," "," ","1","+10","[2428.5]","1","1","","","17869","15","1","1","win","go","0"
"pit-trial","136","1053140","0.0-19.0","battery-v0.2","","""event"",""trial"",""time""
""fullscreenenter"",""1"",""3720""
","
","
","""event"",""trial"",""time""
""fullscreenenter"",""1"",""3720""
","
","","","759.2999999523163","","","12","17869","6669","&#9733;","elianto","#3366ff99","-1"," ","0","0","[1612.5]","1","1","","","17869","16","2","2","win","no-go","0"
"pit-trial","137","1056774","0.0-20.0","battery-v0.2","","""event"",""trial"",""time""
""fullscreenenter"",""1"",""3720""
","
","
","""event"",""trial"",""time""
""fullscreenenter"",""1"",""3720""
","
","","","779.7000000476837","","","12","17869","6669","&#9730;","elianto","#3366ff99"," "," ","1","0","[1630.7000000476837]","1","1","","","17869","17","1","1","win","go","1"
"pit-trial","138","1061607","0.0-21.0","battery-v0.2","","""event"",""trial"",""time""
""fullscreenenter"",""1"",""3720""
","
","
","""event"",""trial"",""time""
""fullscreenenter"",""1"",""3720""
","
","","","1978.7999999523163","","","12","17869","6669","&#9752;","elianto","#f73b6a7A"," "," ","1","-10","[2829.5]","1","1","","","17869","18","3","3","lose","go","1"
"pit-trial","139","1065323","0.0-22.0","battery-v0.2","","""event"",""trial"",""time""
""fullscreenenter"",""1"",""3720""
","
","
","""event"",""trial"",""time""
""fullscreenenter"",""1"",""3720""
","
","","","860.5","","","12","17869","6669","&#9733;","elianto","#3366ff99","-1"," ","0","+10","[1710.6000001430511]","1","1","","","17869","19","2","2","win","no-go","1"
"pit-trial","140","1070183","0.0-23.0","battery-v0.2","","""event"",""trial"",""time""
""fullscreenenter"",""1"",""3720""
","
","
","""event"",""trial"",""time""
""fullscreenenter"",""1"",""3720""
","
","","","-1","","","12","17869","6669","&#9728;","elianto","#f73b6a7A","-1","-1","1","-10","[]","0","1","","","17869","20","0","4","lose","no-go","1"
"pit-instructions","141","1083215","0.0-24.0","battery-v0.2","","""event"",""trial"",""time""
""fullscreenenter"",""1"",""3720""
","
","
","""event"",""trial"",""time""
""fullscreenenter"",""1"",""3720""
","
","","[{""page_index"":0,""viewing_time"":6127.799999952316},{""page_index"":1,""viewing_time"":6901.200000047684}]","13030","","","","","","","","","","","","","","","","","","","","","","","",""
"pit-trial","142","1086966","0.0-25.0","battery-v0.2","","""event"",""trial"",""time""
""fullscreenenter"",""1"",""3720""
","
","
","""event"",""trial"",""time""
""fullscreenenter"",""1"",""3720""
","
","","","881.2000000476837","","","12","17869","6669","d","elianto","#3366ff99"," "," ","1","+10","[1734.7000000476837]","1","2","","","17869","21","1","1","win","go","0"
"pit-trial","143","1091842","0.0-26.0","battery-v0.2","","""event"",""trial"",""time""
""fullscreenenter"",""1"",""3720""
","
","
","""event"",""trial"",""time""
""fullscreenenter"",""1"",""3720""
","
","","","-1","","","12","17869","6669","w","elianto","#f73b6a7A"," ","-1","0","-10","[3083.5]","1","2","","","17869","22","3","3","lose","go","0"
"pit-trial","144","1095581","0.0-27.0","battery-v0.2","","""event"",""trial"",""time""
""fullscreenenter"",""1"",""3720""
","
","
","""event"",""trial"",""time""
""fullscreenenter"",""1"",""3720""
","
","","","873.0999999046326","","","12","17869","6669","j","elianto","#f73b6a7A","-1"," ","0","-10","[1726]","1","2","","","17869","23","0","4","lose","no-go","0"
"pit-trial","145","1100454","0.0-28.0","battery-v0.2","","""event"",""trial"",""time""
""fullscreenenter"",""1"",""3720""
","
","
","""event"",""trial"",""time""
""fullscreenenter"",""1"",""3720""
","
","","","-1","","","12","17869","6669","e","elianto","#f73b6a7A","-1","-1","1","0","[]","0","2","","","17869","24","2","4","lose","no-go","0"
"pit-trial","146","1104244","0.0-29.0","battery-v0.2","","""event"",""trial"",""time""
""fullscreenenter"",""1"",""3720""
","
","
","""event"",""trial"",""time""
""fullscreenenter"",""1"",""3720""
","
","","","917.2999999523163","","","12","17869","6669","d","elianto","#3366ff99"," "," ","1","+10","[1778.7999999523163]","1","2","","","17869","25","1","1","win","go","0"
"pit-trial","147","1108440","0.0-30.0","battery-v0.2","","""event"",""trial"",""time""
""fullscreenenter"",""1"",""3720""
","
","
","""event"",""trial"",""time""
""fullscreenenter"",""1"",""3720""
","
","","","1333","","","12","17869","6669","j","elianto","#f73b6a7A","-1"," ","0","0","[2183.600000143051]","1","2","","","17869","26","0","4","lose","no-go","1"
"pit-trial","148","1112024","0.0-31.0","battery-v0.2","","""event"",""trial"",""time""
""fullscreenenter"",""1"",""3720""
","
","
","""event"",""trial"",""time""
""fullscreenenter"",""1"",""3720""
","
","","","716.6000001430511","","","12","17869","6669","e","elianto","#f73b6a7A","-1"," ","0","0","[1575]","1","2","","","17869","27","2","4","lose","no-go","1"
"pit-trial","149","1116410","0.0-32.0","battery-v0.2","","""event"",""trial"",""time""
""fullscreenenter"",""1"",""3720""
","
","
","""event"",""trial"",""time""
""fullscreenenter"",""1"",""3720""
","
","","","1525.1000001430511","","","12","17869","6669","w","elianto","#f73b6a7A"," "," ","1","0","[2379.899999856949]","1","2","","","17869","28","3","3","lose","go","0"
"pit-trial","150","1120282","0.0-33.0","battery-v0.2","","""event"",""trial"",""time""
""fullscreenenter"",""1"",""3720""
","
","
","""event"",""trial"",""time""
""fullscreenenter"",""1"",""3720""
","
","","","1011.2000000476837","","","12","17869","6669","e","elianto","#f73b6a7A","-1"," ","0","0","[1865.2000000476837]","1","2","","","17869","29","2","4","lose","no-go","1"
"pit-trial","151","1123848","0.0-34.0","battery-v0.2","","""event"",""trial"",""time""
""fullscreenenter"",""1"",""3720""
","
","
","""event"",""trial"",""time""
""fullscreenenter"",""1"",""3720""
","
","","","712.5999999046326","","","12","17869","6669","j","elianto","#f73b6a7A","-1"," ","0","-10","[1562.8999998569489]","1","2","","","17869","30","0","4","lose","no-go","0"
"pit-trial","152","1127194","0.0-35.0","battery-v0.2","","""event"",""trial"",""time""
""fullscreenenter"",""1"",""3720""
","
","
","""event"",""trial"",""time""
""fullscreenenter"",""1"",""3720""
","
","","","489.5","","","12","17869","6669","d","elianto","#3366ff99"," "," ","1","+10","[1340.2000000476837]","1","2","","","17869","31","1","1","win","go","0"
"pit-trial","153","1131184","0.0-36.0","battery-v0.2","","""event"",""trial"",""time""
""fullscreenenter"",""1"",""3720""
","
","
","""event"",""trial"",""time""
""fullscreenenter"",""1"",""3720""
","
","","","1135.5999999046326","","","12","17869","6669","w","elianto","#f73b6a7A"," "," ","1","0","[1986.2000000476837]","1","2","","","17869","32","3","3","lose","go","0"
"pit-trial","154","1134704","0.0-37.0","battery-v0.2","","""event"",""trial"",""time""
""fullscreenenter"",""1"",""3720""
","
","
","""event"",""trial"",""time""
""fullscreenenter"",""1"",""3720""
","
","","","652.2000000476837","","","12","17869","6669","j","elianto","#f73b6a7A","-1"," ","0","-10","[1503.5]","1","2","","","17869","33","0","4","lose","no-go","0"
"pit-trial","155","1138070","0.0-38.0","battery-v0.2","","""event"",""trial"",""time""
""fullscreenenter"",""1"",""3720""
","
","
","""event"",""trial"",""time""
""fullscreenenter"",""1"",""3720""
","
","","","498.09999990463257","","","12","17869","6669","e","elianto","#f73b6a7A","-1"," ","0","-10","[1355.2000000476837]","1","2","","","17869","34","2","4","lose","no-go","0"
"pit-trial","156","1141598","0.0-39.0","battery-v0.2","","""event"",""trial"",""time""
""fullscreenenter"",""1"",""3720""
","
","
","""event"",""trial"",""time""
""fullscreenenter"",""1"",""3720""
","
","","","665","","","12","17869","6669","w","elianto","#f73b6a7A"," "," ","1","-10","[1521.9000000953674]","1","2","","","17869","35","3","3","lose","go","1"
"pit-trial","157","1145114","0.0-40.0","battery-v0.2","","""event"",""trial"",""time""
""fullscreenenter"",""1"",""3720""
","
","
","""event"",""trial"",""time""
""fullscreenenter"",""1"",""3720""
","
","","","659.6999998092651","","","12","17869","6669","d","elianto","#3366ff99"," "," ","1","0","[1510.4000000953674]","1","2","","","17869","36","1","1","win","go","1"
"pit-trial","158","1149978","0.0-41.0","battery-v0.2","","""event"",""trial"",""time""
""fullscreenenter"",""1"",""3720""
","
","
","""event"",""trial"",""time""
""fullscreenenter"",""1"",""3720""
","
","","","-1","","","12","17869","6669","w","elianto","#f73b6a7A"," ","-1","0","-10","[]","0","2","","","17869","37","3","3","lose","go","0"
"pit-trial","159","1154840","0.0-42.0","battery-v0.2","","""event"",""trial"",""time""
""fullscreenenter"",""1"",""3720""
","
","
","""event"",""trial"",""time""
""fullscreenenter"",""1"",""3720""
","
","","","-1","","","12","17869","6669","e","elianto","#f73b6a7A","-1","-1","1","0","[]","0","2","","","17869","38","2","4","lose","no-go","0"
"pit-trial","160","1158245","0.0-43.0","battery-v0.2","","""event"",""trial"",""time""
""fullscreenenter"",""1"",""3720""
","
","
","""event"",""trial"",""time""
""fullscreenenter"",""1"",""3720""
","
","","","547.0999999046326","","","12","17869","6669","j","elianto","#f73b6a7A","-1"," ","0","-10","[1399.2000000476837]","1","2","","","17869","39","0","4","lose","no-go","0"
"pit-trial","161","1162219","0.0-44.0","battery-v0.2","","""event"",""trial"",""time""
""fullscreenenter"",""1"",""3720""
","
","
","""event"",""trial"",""time""
""fullscreenenter"",""1"",""3720""
","
","","","1113.0999999046326","","","12","17869","6669","d","elianto","#3366ff99"," "," ","1","0","[1964.7000000476837]","1","2","","","17869","40","1","1","win","go","1"
"pit-trial","162","1167093","0.0-45.0","battery-v0.2","","""event"",""trial"",""time""
""fullscreenenter"",""1"",""3720""
","
","
","""event"",""trial"",""time""
""fullscreenenter"",""1"",""3720""
","
","","","-1","","","12","17869","6669","w","elianto","#f73b6a7A"," ","-1","0","-10","[]","0","2","","","17869","41","3","3","lose","go","0"
"pit-trial","163","1170898","0.0-46.0","battery-v0.2","","""event"",""trial"",""time""
""fullscreenenter"",""1"",""3720""
","
","
","""event"",""trial"",""time""
""fullscreenenter"",""1"",""3720""
","
","","","947.8999998569489","","","12","17869","6669","e","elianto","#f73b6a7A","-1"," ","0","-10","[1798.2000000476837]","1","2","","","17869","42","2","4","lose","no-go","0"
"pit-trial","164","1174559","0.0-47.0","battery-v0.2","","""event"",""trial"",""time""
""fullscreenenter"",""1"",""3720""
","
","
","""event"",""trial"",""time""
""fullscreenenter"",""1"",""3720""
","
","","","799.2999999523163","","","12","17869","6669","d","elianto","#3366ff99"," "," ","1","+10","[1656.2000000476837]","1","2","","","17869","43","1","1","win","go","0"
"pit-trial","165","1179427","0.0-48.0","battery-v0.2","","""event"",""trial"",""time""
""fullscreenenter"",""1"",""3720""
","
","
","""event"",""trial"",""time""
""fullscreenenter"",""1"",""3720""
","
","","","-1","","","12","17869","6669","j","elianto","#f73b6a7A","-1","-1","1","0","[]","0","2","","","17869","44","0","4","lose","no-go","0"
"pit-trial","166","1184294","0.0-49.0","battery-v0.2","","""event"",""trial"",""time""
""fullscreenenter"",""1"",""3720""
","
","
","""event"",""trial"",""time""
""fullscreenenter"",""1"",""3720""
","
","","","-1","","","12","17869","6669","w","elianto","#f73b6a7A"," ","-1","0","-10","[]","0","2","","","17869","45","3","3","lose","go","0"
"pit-trial","167","1187842","0.0-50.0","battery-v0.2","","""event"",""trial"",""time""
""fullscreenenter"",""1"",""3720""
","
","
","""event"",""trial"",""time""
""fullscreenenter"",""1"",""3720""
","
","","","677.7000000476837","","","12","17869","6669","s","elianto","#3366ff99","-1"," ","0","0","[1531.6000001430511]","1","2","","","17869","46","4","2","win","no-go","0"
"pit-trial","168","1192708","0.0-51.0","battery-v0.2","","""event"",""trial"",""time""
""fullscreenenter"",""1"",""3720""
","
","
","""event"",""trial"",""time""
""fullscreenenter"",""1"",""3720""
","
","","","-1","","","12","17869","6669","e","elianto","#f73b6a7A","-1","-1","1","0","[]","0","2","","","17869","47","2","4","lose","no-go","0"
"pit-trial","169","1197519","0.0-52.0","battery-v0.2","","""event"",""trial"",""time""
""fullscreenenter"",""1"",""3720""
","
","
","""event"",""trial"",""time""
""fullscreenenter"",""1"",""3720""
","
","","","1949","","","12","17869","6669","j","elianto","#f73b6a7A","-1"," ","0","-10","[2799.4000000953674]","1","2","","","17869","48","0","4","lose","no-go","0"
"pit-trial","170","1201288","0.0-53.0","battery-v0.2","","""event"",""trial"",""time""
""fullscreenenter"",""1"",""3720""
","
","
","""event"",""trial"",""time""
""fullscreenenter"",""1"",""3720""
","
","","","914.9000000953674","","","12","17869","6669","d","elianto","#3366ff99"," "," ","1","0","[1766]","1","2","","","17869","49","1","1","win","go","1"
"pit-trial","171","1204872","0.0-54.0","battery-v0.2","","""event"",""trial"",""time""
""fullscreenenter"",""1"",""3720""
","
","
","""event"",""trial"",""time""
""fullscreenenter"",""1"",""3720""
","
","","","728","","","12","17869","6669","s","elianto","#3366ff99","-1"," ","0","+10","[1578.2999999523163]","1","2","","","17869","50","4","2","win","no-go","1"
"pit-trial","172","1209740","0.0-55.0","battery-v0.2","","""event"",""trial"",""time""
""fullscreenenter"",""1"",""3720""
","
","
","""event"",""trial"",""time""
""fullscreenenter"",""1"",""3720""
","
","","","-1","","","12","17869","6669","w","elianto","#f73b6a7A"," ","-1","0","-10","[]","0","2","","","17869","51","3","3","lose","go","0"
"pit-trial","173","1214604","0.0-56.0","battery-v0.2","","""event"",""trial"",""time""
""fullscreenenter"",""1"",""3720""
","
","
","""event"",""trial"",""time""
""fullscreenenter"",""1"",""3720""
","
","","","-1","","","12","17869","6669","j","elianto","#f73b6a7A","-1","-1","1","-10","[]","0","2","","","17869","52","0","4","lose","no-go","1"
"pit-trial","174","1218578","0.0-57.0","battery-v0.2","","""event"",""trial"",""time""
""fullscreenenter"",""1"",""3720""
","
","
","""event"",""trial"",""time""
""fullscreenenter"",""1"",""3720""
","
","","","1111.2000000476837","","","12","17869","6669","s","elianto","#3366ff99","-1"," ","0","+10","[1962.5999999046326]","1","2","","","17869","53","4","2","win","no-go","1"
"pit-trial","175","1221796","0.0-58.0","battery-v0.2","","""event"",""trial"",""time""
""fullscreenenter"",""1"",""3720""
","
","
","""event"",""trial"",""time""
""fullscreenenter"",""1"",""3720""
","
","","","353.69999980926514","","","12","17869","6669","d","elianto","#3366ff99"," "," ","1","0","[1208.0999999046326]","1","2","","","17869","54","1","1","win","go","1"
"pit-trial","176","1226657","0.0-59.0","battery-v0.2","","""event"",""trial"",""time""
""fullscreenenter"",""1"",""3720""
","
","
","""event"",""trial"",""time""
""fullscreenenter"",""1"",""3720""
","
","","","-1","","","12","17869","6669","e","elianto","#f73b6a7A","-1","-1","1","-10","[]","0","2","","","17869","55","2","4","lose","no-go","1"
"pit-trial","177","1229954","0.0-60.0","battery-v0.2","","""event"",""trial"",""time""
""fullscreenenter"",""1"",""3720""
","
","
","""event"",""trial"",""time""
""fullscreenenter"",""1"",""3720""
","
","","","437.80000019073486","","","12","17869","6669","j","elianto","#f73b6a7A","-1"," ","0","-10","[1287.8000001907349]","1","2","","","17869","56","0","4","lose","no-go","0"
"pit-trial","178","1233219","0.0-61.0","battery-v0.2","","""event"",""trial"",""time""
""fullscreenenter"",""1"",""3720""
","
","
","""event"",""trial"",""time""
""fullscreenenter"",""1"",""3720""
","
","","","408.5","","","12","17869","6669","d","elianto","#3366ff99"," "," ","1","+10","[1260.5999999046326]","1","2","","","17869","57","1","1","win","go","0"
"pit-trial","179","1236754","0.0-62.0","battery-v0.2","","""event"",""trial"",""time""
""fullscreenenter"",""1"",""3720""
","
","
","""event"",""trial"",""time""
""fullscreenenter"",""1"",""3720""
","
","","","665.5","","","12","17869","6669","s","elianto","#3366ff99","-1"," ","0","0","[1517.2000000476837]","1","2","","","17869","58","4","2","win","no-go","0"
"pit-trial","180","1240416","0.0-63.0","battery-v0.2","","""event"",""trial"",""time""
""fullscreenenter"",""1"",""3720""
","
","
","""event"",""trial"",""time""
""fullscreenenter"",""1"",""3720""
","
","","","805.5999999046326","","","12","17869","6669","w","elianto","#f73b6a7A"," "," ","1","-10","[1656.3000001907349]","1","2","","","17869","59","3","3","lose","go","1"
"pit-trial","181","1243634","0.0-64.0","battery-v0.2","","""event"",""trial"",""time""
""fullscreenenter"",""1"",""3720""
","
","
","""event"",""trial"",""time""
""fullscreenenter"",""1"",""3720""
","
","","","355.89999985694885","","","12","17869","6669","j","elianto","#f73b6a7A","-1"," ","0","-10","[1207.8999998569489]","1","2","","","17869","60","0","4","lose","no-go","0"
"pit-trial","182","1246874","0.0-65.0","battery-v0.2","","""event"",""trial"",""time""
""fullscreenenter"",""1"",""3720""
","
","
","""event"",""trial"",""time""
""fullscreenenter"",""1"",""3720""
","
","","","378.5","","","12","17869","6669","s","elianto","#3366ff99","-1"," ","0","+10","[1230]","1","2","","","17869","61","4","2","win","no-go","1"
"pit-trial","183","1250290","0.0-66.0","battery-v0.2","","""event"",""trial"",""time""
""fullscreenenter"",""1"",""3720""
","
","
","""event"",""trial"",""time""
""fullscreenenter"",""1"",""3720""
","
","","","547.1000001430511","","","12","17869","6669","e","elianto","#f73b6a7A","-1"," ","0","-10","[1401.7999999523163]","1","2","","","17869","62","2","4","lose","no-go","0"
"pit-trial","184","1255153","0.0-67.0","battery-v0.2","","""event"",""trial"",""time""
""fullscreenenter"",""1"",""3720""
","
","
","""event"",""trial"",""time""
""fullscreenenter"",""1"",""3720""
","
","","","-1","","","12","17869","6669","w","elianto","#f73b6a7A"," ","-1","0","-10","[]","0","2","","","17869","63","3","3","lose","go","0"
"pit-trial","185","1259495","0.0-68.0","battery-v0.2","","""event"",""trial"",""time""
""fullscreenenter"",""1"",""3720""
","
","
","""event"",""trial"",""time""
""fullscreenenter"",""1"",""3720""
","
","","","1479.7999999523163","","","12","17869","6669","d","elianto","#3366ff99"," "," ","1","0","[2335]","1","2","","","17869","64","1","1","win","go","1"
"pit-trial","186","1264368","0.0-69.0","battery-v0.2","","""event"",""trial"",""time""
""fullscreenenter"",""1"",""3720""
","
","
","""event"",""trial"",""time""
""fullscreenenter"",""1"",""3720""
","
","","","-1","","","12","17869","6669","d","elianto","#3366ff99"," ","-1","0","+10","[3400]","1","2","","","17869","65","1","1","win","go","1"
"pit-trial","187","1269226","0.0-70.0","battery-v0.2","","""event"",""trial"",""time""
""fullscreenenter"",""1"",""3720""
","
","
","""event"",""trial"",""time""
""fullscreenenter"",""1"",""3720""
","
","","","-1","","","12","17869","6669","w","elianto","#f73b6a7A"," ","-1","0","-10","[]","0","2","","","17869","66","3","3","lose","go","0"
"pit-trial","188","1272551","0.0-71.0","battery-v0.2","","""event"",""trial"",""time""
""fullscreenenter"",""1"",""3720""
","
","
","""event"",""trial"",""time""
""fullscreenenter"",""1"",""3720""
","
","","","457.59999990463257","","","12","17869","6669","e","elianto","#f73b6a7A","-1"," ","0","-10","[1308.2999999523163]","1","2","","","17869","67","2","4","lose","no-go","0"
"pit-trial","189","1276204","0.0-72.0","battery-v0.2","","""event"",""trial"",""time""
""fullscreenenter"",""1"",""3720""
","
","
","""event"",""trial"",""time""
""fullscreenenter"",""1"",""3720""
","
","","","785.8999998569489","","","12","17869","6669","s","elianto","#3366ff99","-1"," ","0","0","[1641.7999999523163]","1","2","","","17869","68","4","2","win","no-go","0"
"pit-trial","190","1280111","0.0-73.0","battery-v0.2","","""event"",""trial"",""time""
""fullscreenenter"",""1"",""3720""
","
","
","""event"",""trial"",""time""
""fullscreenenter"",""1"",""3720""
","
","","","1041.7000000476837","","","12","17869","6669","d","elianto","#3366ff99"," "," ","1","+10","[1893.2000000476837,2175.5]","2","2","","","17869","69","1","1","win","go","0"
"pit-trial","191","1283828","0.0-74.0","battery-v0.2","","""event"",""trial"",""time""
""fullscreenenter"",""1"",""3720""
","
","
","""event"",""trial"",""time""
""fullscreenenter"",""1"",""3720""
","
","","","858","","","12","17869","6669","p","elianto","#3366ff99"," "," ","1","+10","[1708.2999999523163,1982.7999999523163]","2","2","","","17869","70","5","1","win","go","0"
"pit-trial","192","1287894","0.0-75.0","battery-v0.2","","""event"",""trial"",""time""
""fullscreenenter"",""1"",""3720""
","
","
","""event"",""trial"",""time""
""fullscreenenter"",""1"",""3720""
","
","","","1204.6000001430511","","","12","17869","6669","w","elianto","#f73b6a7A"," "," ","1","0","[2055]","1","2","","","17869","71","3","3","lose","go","0"
"pit-trial","193","1291948","0.0-76.0","battery-v0.2","","""event"",""trial"",""time""
""fullscreenenter"",""1"",""3720""
","
","
","""event"",""trial"",""time""
""fullscreenenter"",""1"",""3720""
","
","","","1194.9000000953674","","","12","17869","6669","s","elianto","#3366ff99","-1"," ","0","0","[2046.5]","1","2","","","17869","72","4","2","win","no-go","0"
"pit-trial","194","1295579","0.0-77.0","battery-v0.2","","""event"",""trial"",""time""
""fullscreenenter"",""1"",""3720""
","
","
","""event"",""trial"",""time""
""fullscreenenter"",""1"",""3720""
","
","","","769.5999999046326","","","12","17869","6669","p","elianto","#3366ff99"," "," ","1","+10","[1625.2000000476837]","1","2","","","17869","73","5","1","win","go","0"
"pit-trial","195","1300441","0.0-78.0","battery-v0.2","","""event"",""trial"",""time""
""fullscreenenter"",""1"",""3720""
","
","
","""event"",""trial"",""time""
""fullscreenenter"",""1"",""3720""
","
","","","-1","","","12","17869","6669","w","elianto","#f73b6a7A"," ","-1","0","-10","[396.7000000476837]","1","2","","","17869","74","3","3","lose","go","0"
"pit-trial","196","1305248","0.0-79.0","battery-v0.2","","""event"",""trial"",""time""
""fullscreenenter"",""1"",""3720""
","
","
","""event"",""trial"",""time""
""fullscreenenter"",""1"",""3720""
","
","","","1941","","","12","17869","6669","d","elianto","#3366ff99"," "," ","1","+10","[2791.5999999046326]","1","2","","","17869","75","1","1","win","go","0"
"pit-trial","197","1308960","0.0-80.0","battery-v0.2","","""event"",""trial"",""time""
""fullscreenenter"",""1"",""3720""
","
","
","""event"",""trial"",""time""
""fullscreenenter"",""1"",""3720""
","
","","","845.2000000476837","","","12","17869","6669","s","elianto","#3366ff99","-1"," ","0","0","[1698.2999999523163]","1","2","","","17869","76","4","2","win","no-go","0"
"pit-trial","198","1313825","0.0-81.0","battery-v0.2","","""event"",""trial"",""time""
""fullscreenenter"",""1"",""3720""
","
","
","""event"",""trial"",""time""
""fullscreenenter"",""1"",""3720""
","
","","","-1","","","12","17869","6669","g","elianto","#f73b6a7A","-1","-1","1","0","[]","0","2","","","17869","77","6","4","lose","no-go","0"
"pit-trial","199","1317801","0.0-82.0","battery-v0.2","","""event"",""trial"",""time""
""fullscreenenter"",""1"",""3720""
","
","
","""event"",""trial"",""time""
""fullscreenenter"",""1"",""3720""
","
","","","1107.2000000476837","","","12","17869","6669","s","elianto","#3366ff99","-1"," ","0","0","[1957.4000000953674]","1","2","","","17869","78","4","2","win","no-go","0"
"pit-trial","200","1321623","0.0-83.0","battery-v0.2","","""event"",""trial"",""time""
""fullscreenenter"",""1"",""3720""
","
","
","""event"",""trial"",""time""
""fullscreenenter"",""1"",""3720""
","
","","","963.3000001907349","","","12","17869","6669","w","elianto","#f73b6a7A"," "," ","1","0","[1816.6000001430511]","1","2","","","17869","79","3","3","lose","go","0"
"pit-trial","201","1325121","0.0-84.0","battery-v0.2","","""event"",""trial"",""time""
""fullscreenenter"",""1"",""3720""
","
","
","""event"",""trial"",""time""
""fullscreenenter"",""1"",""3720""
","
","","","629.7999999523163","","","12","17869","6669","p","elianto","#3366ff99"," "," ","1","+10","[1480.0999999046326]","1","2","","","17869","80","5","1","win","go","0"
"pit-trial","202","1328715","0.0-85.0","battery-v0.2","","""event"",""trial"",""time""
""fullscreenenter"",""1"",""3720""
","
","
","""event"",""trial"",""time""
""fullscreenenter"",""1"",""3720""
","
","","","723.5","","","12","17869","6669","p","elianto","#3366ff99"," "," ","1","+10","[1576.7999999523163]","1","2","","","17869","81","5","1","win","go","0"
"pit-trial","203","1333576","0.0-86.0","battery-v0.2","","""event"",""trial"",""time""
""fullscreenenter"",""1"",""3720""
","
","
","""event"",""trial"",""time""
""fullscreenenter"",""1"",""3720""
","
","","","-1","","","12","17869","6669","s","elianto","#3366ff99","-1","-1","1","0","[]","0","2","","","17869","82","4","2","win","no-go","1"
"pit-trial","204","1337254","0.0-87.0","battery-v0.2","","""event"",""trial"",""time""
""fullscreenenter"",""1"",""3720""
","
","
","""event"",""trial"",""time""
""fullscreenenter"",""1"",""3720""
","
","","","821.5","","","12","17869","6669","g","elianto","#f73b6a7A","-1"," ","0","-10","[1672.4000000953674]","1","2","","","17869","83","6","4","lose","no-go","0"
"pit-trial","205","1341159","0.0-88.0","battery-v0.2","","""event"",""trial"",""time""
""fullscreenenter"",""1"",""3720""
","
","
","""event"",""trial"",""time""
""fullscreenenter"",""1"",""3720""
","
","","","1049","","","12","17869","6669","a","elianto","#f73b6a7A"," "," ","1","0","[1899.2000000476837]","1","2","","","17869","84","7","3","lose","go","0"
"pit-trial","206","1346036","0.0-89.0","battery-v0.2","","""event"",""trial"",""time""
""fullscreenenter"",""1"",""3720""
","
","
","""event"",""trial"",""time""
""fullscreenenter"",""1"",""3720""
","
","","","-1","","","12","17869","6669","s","elianto","#3366ff99","-1","-1","1","+10","[]","0","2","","","17869","85","4","2","win","no-go","0"
"pit-trial","207","1350427","0.0-90.0","battery-v0.2","","""event"",""trial"",""time""
""fullscreenenter"",""1"",""3720""
","
","
","""event"",""trial"",""time""
""fullscreenenter"",""1"",""3720""
","
","","","1523.8000001907349","","","12","17869","6669","g","elianto","#f73b6a7A","-1"," ","0","0","[2375.0999999046326]","1","2","","","17869","86","6","4","lose","no-go","1"
"pit-trial","208","1355293","0.0-91.0","battery-v0.2","","""event"",""trial"",""time""
""fullscreenenter"",""1"",""3720""
","
","
","""event"",""trial"",""time""
""fullscreenenter"",""1"",""3720""
","
","","","-1","","","12","17869","6669","a","elianto","#f73b6a7A"," ","-1","0","0","[]","0","2","","","17869","87","7","3","lose","go","1"
"pit-trial","209","1359832","0.0-92.0","battery-v0.2","","""event"",""trial"",""time""
""fullscreenenter"",""1"",""3720""
","
","
","""event"",""trial"",""time""
""fullscreenenter"",""1"",""3720""
","
","","","1676.5","","","12","17869","6669","p","elianto","#3366ff99"," "," ","1","+10","[2531.4000000953674]","1","2","","","17869","88","5","1","win","go","0"
"pit-trial","210","1363578","0.0-93.0","battery-v0.2","","""event"",""trial"",""time""
""fullscreenenter"",""1"",""3720""
","
","
","""event"",""trial"",""time""
""fullscreenenter"",""1"",""3720""
","
","","","892.1000001430511","","","12","17869","6669","p","elianto","#3366ff99"," "," ","1","+10","[1742.0999999046326]","1","2","","","17869","89","5","1","win","go","0"
"pit-trial","211","1368433","0.0-94.0","battery-v0.2","","""event"",""trial"",""time""
""fullscreenenter"",""1"",""3720""
","
","
","""event"",""trial"",""time""
""fullscreenenter"",""1"",""3720""
","
","","","-1","","","12","17869","6669","s","elianto","#3366ff99","-1","-1","1","+10","[]","0","2","","","17869","90","4","2","win","no-go","0"
"pit-trial","212","1372947","0.0-95.0","battery-v0.2","","""event"",""trial"",""time""
""fullscreenenter"",""1"",""3720""
","
","
","""event"",""trial"",""time""
""fullscreenenter"",""1"",""3720""
","
","","","1661.6999998092651","","","12","17869","6669","a","elianto","#f73b6a7A"," "," ","1","0","[2511.7999999523163]","1","2","","","17869","91","7","3","lose","go","0"
"pit-trial","213","1377813","0.0-96.0","battery-v0.2","","""event"",""trial"",""time""
""fullscreenenter"",""1"",""3720""
","
","
","""event"",""trial"",""time""
""fullscreenenter"",""1"",""3720""
","
","","","-1","","","12","17869","6669","g","elianto","#f73b6a7A","-1","-1","1","0","[]","0","2","","","17869","92","6","4","lose","no-go","0"
"pit-trial","214","1382679","0.0-97.0","battery-v0.2","","""event"",""trial"",""time""
""fullscreenenter"",""1"",""3720""
","
","
","""event"",""trial"",""time""
""fullscreenenter"",""1"",""3720""
","
","","","-1","","","12","17869","6669","g","elianto","#f73b6a7A","-1","-1","1","0","[]","0","2","","","17869","93","6","4","lose","no-go","0"
"pit-trial","215","1386281","0.0-98.0","battery-v0.2","","""event"",""trial"",""time""
""fullscreenenter"",""1"",""3720""
","
","
","""event"",""trial"",""time""
""fullscreenenter"",""1"",""3720""
","
","","","749.2000000476837","","","12","17869","6669","p","elianto","#3366ff99"," "," ","1","+10","[1599.4000000953674]","1","2","","","17869","94","5","1","win","go","0"
"pit-trial","216","1389983","0.0-99.0","battery-v0.2","","""event"",""trial"",""time""
""fullscreenenter"",""1"",""3720""
","
","
","""event"",""trial"",""time""
""fullscreenenter"",""1"",""3720""
","
","","","841.1000001430511","","","12","17869","6669","l","elianto","#3366ff99","-1"," ","0","0","[1692.8000001907349]","1","2","","","17869","95","8","2","win","no-go","0"
"pit-trial","217","1394852","0.0-100.0","battery-v0.2","","""event"",""trial"",""time""
""fullscreenenter"",""1"",""3720""
","
","
","""event"",""trial"",""time""
""fullscreenenter"",""1"",""3720""
","
","","","-1","","","12","17869","6669","a","elianto","#f73b6a7A"," ","-1","0","-10","[]","0","2","","","17869","96","7","3","lose","go","0"
"pit-trial","218","1399720","0.0-101.0","battery-v0.2","","""event"",""trial"",""time""
""fullscreenenter"",""1"",""3720""
","
","
","""event"",""trial"",""time""
""fullscreenenter"",""1"",""3720""
","
","","","-1","","","12","17869","6669","g","elianto","#f73b6a7A","-1","-1","1","0","[]","0","2","","","17869","97","6","4","lose","no-go","0"
"pit-trial","219","1403280","0.0-102.0","battery-v0.2","","""event"",""trial"",""time""
""fullscreenenter"",""1"",""3720""
","
","
","""event"",""trial"",""time""
""fullscreenenter"",""1"",""3720""
","
","","","696.5999999046326","","","12","17869","6669","l","elianto","#3366ff99","-1"," ","0","0","[1551.0999999046326]","1","2","","","17869","98","8","2","win","no-go","0"
"pit-trial","220","1407162","0.0-103.0","battery-v0.2","","""event"",""trial"",""time""
""fullscreenenter"",""1"",""3720""
","
","
","""event"",""trial"",""time""
""fullscreenenter"",""1"",""3720""
","
","","","1022.3999998569489","","","12","17869","6669","p","elianto","#3366ff99"," "," ","1","+10","[1873.4000000953674]","1","2","","","17869","99","5","1","win","go","0"
"pit-trial","221","1411186","0.0-104.0","battery-v0.2","","""event"",""trial"",""time""
""fullscreenenter"",""1"",""3720""
","
","
","""event"",""trial"",""time""
""fullscreenenter"",""1"",""3720""
","
","","","1169.0999999046326","","","12","17869","6669","a","elianto","#f73b6a7A"," "," ","1","0","[2021.5]","1","2","","","17869","100","7","3","lose","go","0"
"pit-trial","222","1415302","0.0-105.0","battery-v0.2","","""event"",""trial"",""time""
""fullscreenenter"",""1"",""3720""
","
","
","""event"",""trial"",""time""
""fullscreenenter"",""1"",""3720""
","
","","","1253.2999999523163","","","12","17869","6669","u","elianto","#3366ff99","-1"," ","0","0","[2105.5999999046326]","1","2","","","17869","101","9","2","win","no-go","0"
"pit-trial","223","1420166","0.0-106.0","battery-v0.2","","""event"",""trial"",""time""
""fullscreenenter"",""1"",""3720""
","
","
","""event"",""trial"",""time""
""fullscreenenter"",""1"",""3720""
","
","","","-1","","","12","17869","6669","g","elianto","#f73b6a7A","-1","-1","1","0","[]","0","2","","","17869","102","6","4","lose","no-go","0"
"pit-trial","224","1425024","0.0-107.0","battery-v0.2","","""event"",""trial"",""time""
""fullscreenenter"",""1"",""3720""
","
","
","""event"",""trial"",""time""
""fullscreenenter"",""1"",""3720""
","
","","","-1","","","12","17869","6669","l","elianto","#3366ff99","-1","-1","1","+10","[]","0","2","","","17869","103","8","2","win","no-go","0"
"pit-trial","225","1428687","0.0-108.0","battery-v0.2","","""event"",""trial"",""time""
""fullscreenenter"",""1"",""3720""
","
","
","""event"",""trial"",""time""
""fullscreenenter"",""1"",""3720""
","
","","","801.2000000476837","","","12","17869","6669","p","elianto","#3366ff99"," "," ","1","+10","[1652]","1","2","","","17869","104","5","1","win","go","0"
"pit-trial","226","1433550","0.0-109.0","battery-v0.2","","""event"",""trial"",""time""
""fullscreenenter"",""1"",""3720""
","
","
","""event"",""trial"",""time""
""fullscreenenter"",""1"",""3720""
","
","","","-1","","","12","17869","6669","l","elianto","#3366ff99","-1","-1","1","+10","[]","0","2","","","17869","105","8","2","win","no-go","0"
"pit-trial","227","1438416","0.0-110.0","battery-v0.2","","""event"",""trial"",""time""
""fullscreenenter"",""1"",""3720""
","
","
","""event"",""trial"",""time""
""fullscreenenter"",""1"",""3720""
","
","","","-1","","","12","17869","6669","u","elianto","#3366ff99","-1","-1","1","+10","[]","0","2","","","17869","106","9","2","win","no-go","0"
"pit-trial","228","1442286","0.0-111.0","battery-v0.2","","""event"",""trial"",""time""
""fullscreenenter"",""1"",""3720""
","
","
","""event"",""trial"",""time""
""fullscreenenter"",""1"",""3720""
","
","","","1002.2999999523163","","","12","17869","6669","p","elianto","#3366ff99"," "," ","1","0","[1859]","1","2","","","17869","107","5","1","win","go","1"
"pit-trial","229","1447147","0.0-112.0","battery-v0.2","","""event"",""trial"",""time""
""fullscreenenter"",""1"",""3720""
","
","
","""event"",""trial"",""time""
""fullscreenenter"",""1"",""3720""
","
","","","-1","","","12","17869","6669","g","elianto","#f73b6a7A","-1","-1","1","0","[]","0","2","","","17869","108","6","4","lose","no-go","0"
"pit-trial","230","1452011","0.0-113.0","battery-v0.2","","""event"",""trial"",""time""
""fullscreenenter"",""1"",""3720""
","
","
","""event"",""trial"",""time""
""fullscreenenter"",""1"",""3720""
","
","","","-1","","","12","17869","6669","l","elianto","#3366ff99","-1","-1","1","+10","[]","0","2","","","17869","109","8","2","win","no-go","0"
"pit-trial","231","1456872","0.0-114.0","battery-v0.2","","""event"",""trial"",""time""
""fullscreenenter"",""1"",""3720""
","
","
","""event"",""trial"",""time""
""fullscreenenter"",""1"",""3720""
","
","","","-1","","","12","17869","6669","g","elianto","#f73b6a7A","-1","-1","1","0","[]","0","2","","","17869","110","6","4","lose","no-go","0"
"pit-trial","232","1461736","0.0-115.0","battery-v0.2","","""event"",""trial"",""time""
""fullscreenenter"",""1"",""3720""
","
","
","""event"",""trial"",""time""
""fullscreenenter"",""1"",""3720""
","
","","","-1","","","12","17869","6669","u","elianto","#3366ff99","-1","-1","1","+10","[]","0","2","","","17869","111","9","2","win","no-go","0"
"pit-trial","233","1465871","0.0-116.0","battery-v0.2","","""event"",""trial"",""time""
""fullscreenenter"",""1"",""3720""
","
","
","""event"",""trial"",""time""
""fullscreenenter"",""1"",""3720""
","
","","","1276","","","12","17869","6669","p","elianto","#3366ff99"," "," ","1","+10","[2130.2000000476837]","1","2","","","17869","112","5","1","win","go","0"
"pit-trial","234","1470734","0.0-117.0","battery-v0.2","","""event"",""trial"",""time""
""fullscreenenter"",""1"",""3720""
","
","
","""event"",""trial"",""time""
""fullscreenenter"",""1"",""3720""
","
","","","-1","","","12","17869","6669","u","elianto","#3366ff99","-1","-1","1","+10","[]","0","2","","","17869","113","9","2","win","no-go","0"
"pit-trial","235","1475599","0.0-118.0","battery-v0.2","","""event"",""trial"",""time""
""fullscreenenter"",""1"",""3720""
","
","
","""event"",""trial"",""time""
""fullscreenenter"",""1"",""3720""
","
","","","-1","","","12","17869","6669","a","elianto","#f73b6a7A"," ","-1","0","0","[]","0","2","","","17869","114","7","3","lose","go","1"
"pit-trial","236","1480460","0.0-119.0","battery-v0.2","","""event"",""trial"",""time""
""fullscreenenter"",""1"",""3720""
","
","
","""event"",""trial"",""time""
""fullscreenenter"",""1"",""3720""
","
","","","-1","","","12","17869","6669","l","elianto","#3366ff99","-1","-1","1","+10","[]","0","2","","","17869","115","8","2","win","no-go","0"
"pit-trial","237","1484385","0.0-120.0","battery-v0.2","","""event"",""trial"",""time""
""fullscreenenter"",""1"",""3720""
","
","
","""event"",""trial"",""time""
""fullscreenenter"",""1"",""3720""
","
","","","1052.1000001430511","","","12","17869","6669","p","elianto","#3366ff99"," "," ","1","0","[1907.5999999046326]","1","2","","","17869","116","5","1","win","go","1"
"pit-trial","238","1489244","0.0-121.0","battery-v0.2","","""event"",""trial"",""time""
""fullscreenenter"",""1"",""3720""
","
","
","""event"",""trial"",""time""
""fullscreenenter"",""1"",""3720""
","
","","","-1","","","12","17869","6669","l","elianto","#3366ff99","-1","-1","1","+10","[]","0","2","","","17869","117","8","2","win","no-go","0"
"pit-trial","239","1494108","0.0-122.0","battery-v0.2","","""event"",""trial"",""time""
""fullscreenenter"",""1"",""3720""
","
","
","""event"",""trial"",""time""
""fullscreenenter"",""1"",""3720""
","
","","","-1","","","12","17869","6669","u","elianto","#3366ff99","-1","-1","1","+10","[]","0","2","","","17869","118","9","2","win","no-go","0"
"pit-trial","240","1498978","0.0-123.0","battery-v0.2","","""event"",""trial"",""time""
""fullscreenenter"",""1"",""3720""
","
","
","""event"",""trial"",""time""
""fullscreenenter"",""1"",""3720""
","
","","","-1","","","12","17869","6669","g","elianto","#f73b6a7A","-1","-1","1","0","[]","0","2","","","17869","119","6","4","lose","no-go","0"
"pit-trial","241","1503845","0.0-124.0","battery-v0.2","","""event"",""trial"",""time""
""fullscreenenter"",""1"",""3720""
","
","
","""event"",""trial"",""time""
""fullscreenenter"",""1"",""3720""
","
","","","-1","","","12","17869","6669","p","elianto","#3366ff99"," ","-1","0","+10","[]","0","2","","","17869","120","5","1","win","go","1"
"pit-trial","242","1507778","0.0-125.0","battery-v0.2","","""event"",""trial"",""time""
""fullscreenenter"",""1"",""3720""
","
","
","""event"",""trial"",""time""
""fullscreenenter"",""1"",""3720""
","
","","","1069.6000001430511","","","12","17869","6669","p","elianto","#3366ff99"," "," ","1","+10","[1923.1000001430511]","1","2","","","17869","121","5","1","win","go","0"
"pit-trial","243","1512639","0.0-126.0","battery-v0.2","","""event"",""trial"",""time""
""fullscreenenter"",""1"",""3720""
","
","
","""event"",""trial"",""time""
""fullscreenenter"",""1"",""3720""
","
","","","-1","","","12","17869","6669","a","elianto","#f73b6a7A"," ","-1","0","0","[]","0","2","","","17869","122","7","3","lose","go","1"
"pit-trial","244","1517499","0.0-127.0","battery-v0.2","","""event"",""trial"",""time""
""fullscreenenter"",""1"",""3720""
","
","
","""event"",""trial"",""time""
""fullscreenenter"",""1"",""3720""
","
","","","-1","","","12","17869","6669","u","elianto","#3366ff99","-1","-1","1","0","[]","0","2","","","17869","123","9","2","win","no-go","1"
"pit-trial","245","1522370","0.0-128.0","battery-v0.2","","""event"",""trial"",""time""
""fullscreenenter"",""1"",""3720""
","
","
","""event"",""trial"",""time""
""fullscreenenter"",""1"",""3720""
","
","","","-1","","","12","17869","6669","l","elianto","#3366ff99","-1","-1","1","+10","[]","0","2","","","17869","124","8","2","win","no-go","0"
"pit-trial","246","1527235","0.0-129.0","battery-v0.2","","""event"",""trial"",""time""
""fullscreenenter"",""1"",""3720""
","
","
","""event"",""trial"",""time""
""fullscreenenter"",""1"",""3720""
","
","","","-1","","","12","17869","6669","u","elianto","#3366ff99","-1","-1","1","+10","[]","0","2","","","17869","125","9","2","win","no-go","0"
"pit-trial","247","1532102","0.0-130.0","battery-v0.2","","""event"",""trial"",""time""
""fullscreenenter"",""1"",""3720""
","
","
","""event"",""trial"",""time""
""fullscreenenter"",""1"",""3720""
","
","","","-1","","","12","17869","6669","a","elianto","#f73b6a7A"," ","-1","0","-10","[]","0","2","","","17869","126","7","3","lose","go","0"
"pit-trial","248","1536962","0.0-131.0","battery-v0.2","","""event"",""trial"",""time""
""fullscreenenter"",""1"",""3720""
","
","
","""event"",""trial"",""time""
""fullscreenenter"",""1"",""3720""
","
","","","-1","","","12","17869","6669","l","elianto","#3366ff99","-1","-1","1","+10","[]","0","2","","","17869","127","8","2","win","no-go","0"
"pit-trial","249","1541828","0.0-132.0","battery-v0.2","","""event"",""trial"",""time""
""fullscreenenter"",""1"",""3720""
","
","
","""event"",""trial"",""time""
""fullscreenenter"",""1"",""3720""
","
","","","-1","","","12","17869","6669","g","elianto","#f73b6a7A","-1","-1","1","0","[]","0","2","","","17869","128","6","4","lose","no-go","0"
"pit-trial","250","1546686","0.0-133.0","battery-v0.2","","""event"",""trial"",""time""
""fullscreenenter"",""1"",""3720""
","
","
","""event"",""trial"",""time""
""fullscreenenter"",""1"",""3720""
","
","","","-1","","","12","17869","6669","a","elianto","#f73b6a7A"," ","-1","0","0","[]","0","2","","","17869","129","7","3","lose","go","1"
"pit-trial","251","1551554","0.0-134.0","battery-v0.2","","""event"",""trial"",""time""
""fullscreenenter"",""1"",""3720""
","
","
","""event"",""trial"",""time""
""fullscreenenter"",""1"",""3720""
","
","","","-1","","","12","17869","6669","u","elianto","#3366ff99","-1","-1","1","+10","[]","0","2","","","17869","130","9","2","win","no-go","0"
"pit-trial","252","1556421","0.0-135.0","battery-v0.2","","""event"",""trial"",""time""
""fullscreenenter"",""1"",""3720""
","
","
","""event"",""trial"",""time""
""fullscreenenter"",""1"",""3720""
","
","","","-1","","","12","17869","6669","l","elianto","#3366ff99","-1","-1","1","+10","[]","0","2","","","17869","131","8","2","win","no-go","0"
"pit-trial","253","1561284","0.0-136.0","battery-v0.2","","""event"",""trial"",""time""
""fullscreenenter"",""1"",""3720""
","
","
","""event"",""trial"",""time""
""fullscreenenter"",""1"",""3720""
","
","","","-1","","","12","17869","6669","g","elianto","#f73b6a7A","-1","-1","1","-10","[]","0","2","","","17869","132","6","4","lose","no-go","1"
"pit-trial","254","1566158","0.0-137.0","battery-v0.2","","""event"",""trial"",""time""
""fullscreenenter"",""1"",""3720""
","
","
","""event"",""trial"",""time""
""fullscreenenter"",""1"",""3720""
","
","","","-1","","","12","17869","6669","g","elianto","#f73b6a7A","-1","-1","1","0","[]","0","2","","","17869","133","6","4","lose","no-go","0"
"pit-trial","255","1571028","0.0-138.0","battery-v0.2","","""event"",""trial"",""time""
""fullscreenenter"",""1"",""3720""
","
","
","""event"",""trial"",""time""
""fullscreenenter"",""1"",""3720""
","
","","","-1","","","12","17869","6669","l","elianto","#3366ff99","-1","-1","1","+10","[]","0","2","","","17869","134","8","2","win","no-go","0"
"pit-trial","256","1575887","0.0-139.0","battery-v0.2","","""event"",""trial"",""time""
""fullscreenenter"",""1"",""3720""
","
","
","""event"",""trial"",""time""
""fullscreenenter"",""1"",""3720""
","
","","","-1","","","12","17869","6669","u","elianto","#3366ff99","-1","-1","1","0","[]","0","2","","","17869","135","9","2","win","no-go","1"
"pit-trial","257","1580746","0.0-140.0","battery-v0.2","","""event"",""trial"",""time""
""fullscreenenter"",""1"",""3720""
","
","
","""event"",""trial"",""time""
""fullscreenenter"",""1"",""3720""
","
","","","-1","","","12","17869","6669","a","elianto","#f73b6a7A"," ","-1","0","0","[]","0","2","","","17869","136","7","3","lose","go","1"
"pit-trial","258","1585615","0.0-141.0","battery-v0.2","","""event"",""trial"",""time""
""fullscreenenter"",""1"",""3720""
","
","
","""event"",""trial"",""time""
""fullscreenenter"",""1"",""3720""
","
","","","-1","","","12","17869","6669","g","elianto","#f73b6a7A","-1","-1","1","0","[]","0","2","","","17869","137","6","4","lose","no-go","0"
"pit-trial","259","1590484","0.0-142.0","battery-v0.2","","""event"",""trial"",""time""
""fullscreenenter"",""1"",""3720""
","
","
","""event"",""trial"",""time""
""fullscreenenter"",""1"",""3720""
","
","","","-1","","","12","17869","6669","u","elianto","#3366ff99","-1","-1","1","+10","[]","0","2","","","17869","138","9","2","win","no-go","0"
"pit-trial","260","1595353","0.0-143.0","battery-v0.2","","""event"",""trial"",""time""
""fullscreenenter"",""1"",""3720""
","
","
","""event"",""trial"",""time""
""fullscreenenter"",""1"",""3720""
","
","","","-1","","","12","17869","6669","l","elianto","#3366ff99","-1","-1","1","+10","[]","0","2","","","17869","139","8","2","win","no-go","0"
"pit-trial","261","1600220","0.0-144.0","battery-v0.2","","""event"",""trial"",""time""
""fullscreenenter"",""1"",""3720""
","
","
","""event"",""trial"",""time""
""fullscreenenter"",""1"",""3720""
","
","","","-1","","","12","17869","6669","a","elianto","#f73b6a7A"," ","-1","0","-10","[]","0","2","","","17869","140","7","3","lose","go","0"
"pit-instructions","262","1668459","0.0-145.0","battery-v0.2","","""event"",""trial"",""time""
""fullscreenenter"",""1"",""3720""
","
","
","""event"",""trial"",""time""
""fullscreenenter"",""1"",""3720""
","
","","[{""page_index"":0,""viewing_time"":58468.59999990463},{""page_index"":1,""viewing_time"":9769.900000095367}]","68239.29999995232","","","","","","","","","","","","","","","","","","","","","","","",""
"pit-trial","263","1672679","0.0-146.0","battery-v0.2","","""event"",""trial"",""time""
""fullscreenenter"",""1"",""3720""
","
","
","""event"",""trial"",""time""
""fullscreenenter"",""1"",""3720""
","
","","","1340.9000000953674","","","12","17869","6669","f","elianto","#3366ff99","-1"," ","0","0","[2197.2000000476837]","1","3","","","17869","141","1","2","win","no-go","0"
"pit-trial","264","1677541","0.0-147.0","battery-v0.2","","""event"",""trial"",""time""
""fullscreenenter"",""1"",""3720""
","
","
","""event"",""trial"",""time""
""fullscreenenter"",""1"",""3720""
","
","","","-1","","","12","17869","6669","n","elianto","#f73b6a7A"," ","-1","0","-10","[]","0","3","","","17869","142","0","3","lose","go","0"
"pit-trial","265","1681895","0.0-148.0","battery-v0.2","","""event"",""trial"",""time""
""fullscreenenter"",""1"",""3720""
","
","
","""event"",""trial"",""time""
""fullscreenenter"",""1"",""3720""
","
","","","1497.0999999046326","","","12","17869","6669","b","elianto","#f73b6a7A","-1"," ","0","-10","[2349.5999999046326]","1","3","","","17869","143","3","4","lose","no-go","0"
"pit-trial","266","1686766","0.0-149.0","battery-v0.2","","""event"",""trial"",""time""
""fullscreenenter"",""1"",""3720""
","
","
","""event"",""trial"",""time""
""fullscreenenter"",""1"",""3720""
","
","","","-1","","","12","17869","6669","t","elianto","#f73b6a7A"," ","-1","0","-10","[]","0","3","","","17869","144","2","3","lose","go","0"
