"trial_type","trial_index","time_elapsed","internal_node_id","task_version","subject_id","interactions","blur_events","focus_events","fullscreenenter_events","fullscreenexit_events","success","view_history","rt","responses","num_errors","age","subject","participantId","rune","rune_set","hex","correct","choice","accuracy","outcome","keys","total_keys","block","practice","value","sub","trial","stimulus","robot","valence","action","sham"
"pavlovia","0","6","0.0-0.0","battery-v0.2","","""event"",""trial"",""time""
""fullscreenenter"",""1"",""2390""
","
","
","""event"",""trial"",""time""
""fullscreenenter"",""1"",""2390""
","
","","","","","","","","","","","","","","","","","","","","","","","","","","",""
"fullscreen","1","3392","0.0-1.0","battery-v0.2","","""event"",""trial"",""time""
""fullscreenenter"",""1"",""2390""
","
","
","""event"",""trial"",""time""
""fullscreenenter"",""1"",""2390""
","
","true","","","","","","","","","","","","","","","","","","","","","","","","","",""
"pit-instructions","2","14305","0.0-2.0-0.0","battery-v0.2","","""event"",""trial"",""time""
""fullscreenenter"",""1"",""2390""
","
","
","""event"",""trial"",""time""
""fullscreenenter"",""1"",""2390""
","
","","[{""page_index"":0,""viewing_time"":10907.399999976158}]","10908.5","","","","","","","","","","","","","","","","","","","","","","","",""
"pit-comprehension","3","23546","0.0-2.0-1.0-0.0","battery-v0.2","","""event"",""trial"",""time""
""fullscreenenter"",""1"",""2390""
","
","
","""event"",""trial"",""time""
""fullscreenenter"",""1"",""2390""
","
","","","9236.899999976158","[""shark""]","0","11","19774","7136","","","","","","","","","","","","","","","","","","",""
"pit-instructions","4","25251","0.0-2.0-1.0-1.0","battery-v0.2","","""event"",""trial"",""time""
""fullscreenenter"",""1"",""2390""
","
","
","""event"",""trial"",""time""
""fullscreenenter"",""1"",""2390""
","
","","[{""page_index"":0,""viewing_time"":1695.8000000715256}]","1696.5","","","","","","","","","","","","","","","","","","","","","","","",""
"pit-comprehension","5","29870","0.0-2.0-2.0-0.0","battery-v0.2","","""event"",""trial"",""time""
""fullscreenenter"",""1"",""2390""
","
","
","""event"",""trial"",""time""
""fullscreenenter"",""1"",""2390""
","
","","","4614.5","[""tiger""]","0","11","19774","7136","","","","","","","","","","","","","","","","","","",""
"pit-instructions","6","32764","0.0-2.0-2.0-1.0","battery-v0.2","","""event"",""trial"",""time""
""fullscreenenter"",""1"",""2390""
","
","
","""event"",""trial"",""time""
""fullscreenenter"",""1"",""2390""
","
","","[{""page_index"":0,""viewing_time"":2889.600000023842}]","2890","","","","","","","","","","","","","","","","","","","","","","","",""
"pit-instructions","7","136551","0.0-2.0-3.0","battery-v0.2","","""event"",""trial"",""time""
""fullscreenenter"",""1"",""2390""
","
","
","""event"",""trial"",""time""
""fullscreenenter"",""1"",""2390""
","
","","[{""page_index"":0,""viewing_time"":9262.700000047684},{""page_index"":1,""viewing_time"":7621.199999928474},{""page_index"":2,""viewing_time"":6015.200000047684},{""page_index"":3,""viewing_time"":5167.100000023842},{""page_index"":4,""viewing_time"":5746.699999928474},{""page_index"":5,""viewing_time"":5655.700000047684},{""page_index"":6,""viewing_time"":7825.5},{""page_index"":7,""viewing_time"":9075.199999928474},{""page_index"":8,""viewing_time"":7124.400000095367},{""page_index"":9,""viewing_time"":11067.799999952316},{""page_index"":10,""viewing_time"":7046.100000023842},{""page_index"":11,""viewing_time"":7606},{""page_index"":12,""viewing_time"":7569.299999952316},{""page_index"":13,""viewing_time"":6998.399999976158}]","103782.10000002384","","","","","","","","","","","","","","","","","","","","","","","",""
"pit-trial","8","140328","0.0-2.0-4.0-0.0","battery-v0.2","","""event"",""trial"",""time""
""fullscreenenter"",""1"",""2390""
","
","
","""event"",""trial"",""time""
""fullscreenenter"",""1"",""2390""
","
","","","909.7999999523163","","","11","19774","7136","&#9784;","elianto","#FFFFF080"," "," ","1","&#10004","[1760.1000000238419]","1","0","0","","","","","","","",""
"pit-trial","9","144019","0.0-2.0-4.1-0.1","battery-v0.2","","""event"",""trial"",""time""
""fullscreenenter"",""1"",""2390""
","
","
","""event"",""trial"",""time""
""fullscreenenter"",""1"",""2390""
","
","","","827.1000000238419","","","11","19774","7136","&#9784;","elianto","#FFFFF080"," "," ","1","&#10004","[116.59999990463257,1683.7999999523163]","2","0","0","","","","","","","",""
"pit-trial","10","147071","0.0-2.0-4.2-0.2","battery-v0.2","","""event"",""trial"",""time""
""fullscreenenter"",""1"",""2390""
","
","
","""event"",""trial"",""time""
""fullscreenenter"",""1"",""2390""
","
","","","191.89999997615814","","","11","19774","7136","&#9784;","elianto","#FFFFF080"," "," ","1","&#10004","[1047.0999999046326]","1","0","0","","","","","","","",""
"pit-trial","11","150238","0.0-2.0-4.3-0.3","battery-v0.2","","""event"",""trial"",""time""
""fullscreenenter"",""1"",""2390""
","
","
","""event"",""trial"",""time""
""fullscreenenter"",""1"",""2390""
","
","","","293.89999997615814","","","11","19774","7136","&#9784;","elianto","#FFFFF080"," "," ","1","&#10004","[1151.1000000238419]","1","0","0","","","","","","","",""
"pit-trial","12","153838","0.0-2.0-4.4-0.4","battery-v0.2","","""event"",""trial"",""time""
""fullscreenenter"",""1"",""2390""
","
","
","""event"",""trial"",""time""
""fullscreenenter"",""1"",""2390""
","
","","","729.5","","","11","19774","7136","&#9784;","elianto","#FFFFF080"," "," ","1","&#10004","[1581.6000000238419]","1","0","0","","","","","","","",""
"pit-instructions","13","178895","0.0-2.0-5.0","battery-v0.2","","""event"",""trial"",""time""
""fullscreenenter"",""1"",""2390""
","
","
","""event"",""trial"",""time""
""fullscreenenter"",""1"",""2390""
","
","","[{""page_index"":0,""viewing_time"":5814},{""page_index"":1,""viewing_time"":6791},{""page_index"":2,""viewing_time"":6714.799999952316},{""page_index"":3,""viewing_time"":5729.5}]","25049.799999952316","","","","","","","","","","","","","","","","","","","","","","","",""
"pit-trial","14","183764","0.0-2.0-6.0-0.0","battery-v0.2","","""event"",""trial"",""time""
""fullscreenenter"",""1"",""2390""
","
","
","""event"",""trial"",""time""
""fullscreenenter"",""1"",""2390""
","
","","","-1","","","11","19774","7136","&#9854;","elianto","#FFFFF080","-1","-1","1","&#10004","[]","0","0","1","","","","","","","",""
"pit-trial","15","188632","0.0-2.0-6.1-0.1","battery-v0.2","","""event"",""trial"",""time""
""fullscreenenter"",""1"",""2390""
","
","
","""event"",""trial"",""time""
""fullscreenenter"",""1"",""2390""
","
","","","-1","","","11","19774","7136","&#9854;","elianto","#FFFFF080","-1","-1","1","&#10004","[]","0","0","1","","","","","","","",""
"pit-trial","16","193503","0.0-2.0-6.2-0.2","battery-v0.2","","""event"",""trial"",""time""
""fullscreenenter"",""1"",""2390""
","
","
","""event"",""trial"",""time""
""fullscreenenter"",""1"",""2390""
","
","","","-1","","","11","19774","7136","&#9854;","elianto","#FFFFF080","-1","-1","1","&#10004","[]","0","0","1","","","","","","","",""
"pit-trial","17","198379","0.0-2.0-6.3-0.3","battery-v0.2","","""event"",""trial"",""time""
""fullscreenenter"",""1"",""2390""
","
","
","""event"",""trial"",""time""
""fullscreenenter"",""1"",""2390""
","
","","","-1","","","11","19774","7136","&#9854;","elianto","#FFFFF080","-1","-1","1","&#10004","[]","0","0","1","","","","","","","",""
"pit-trial","18","203263","0.0-2.0-6.4-0.4","battery-v0.2","","""event"",""trial"",""time""
""fullscreenenter"",""1"",""2390""
","
","
","""event"",""trial"",""time""
""fullscreenenter"",""1"",""2390""
","
","","","-1","","","11","19774","7136","&#9854;","elianto","#FFFFF080","-1","-1","1","&#10004","[]","0","0","1","","","","","","","",""
"pit-instructions","19","325548","0.0-2.0-7.0","battery-v0.2","","""event"",""trial"",""time""
""fullscreenenter"",""1"",""2390""
","
","
","""event"",""trial"",""time""
""fullscreenenter"",""1"",""2390""
","
","","[{""page_index"":0,""viewing_time"":6724.899999976158},{""page_index"":1,""viewing_time"":13291.399999976158},{""page_index"":2,""viewing_time"":5477.600000023842},{""page_index"":3,""viewing_time"":6340.5},{""page_index"":4,""viewing_time"":5645.399999976158},{""page_index"":5,""viewing_time"":5522.600000023842},{""page_index"":6,""viewing_time"":4976.5},{""page_index"":7,""viewing_time"":7564.399999976158},{""page_index"":8,""viewing_time"":7086.300000071526},{""page_index"":9,""viewing_time"":6043.399999976158},{""page_index"":10,""viewing_time"":6901},{""page_index"":11,""viewing_time"":4482.600000023842},{""page_index"":12,""viewing_time"":7099.100000023842},{""page_index"":13,""viewing_time"":7119.199999928474},{""page_index"":14,""viewing_time"":7487.300000071526},{""page_index"":15,""viewing_time"":6611.299999952316},{""page_index"":16,""viewing_time"":6548.100000023842},{""page_index"":17,""viewing_time"":7356.600000023842}]","122279.10000002384","","","","","","","","","","","","","","","","","","","","","","","",""
"pit-trial","20","328975","0.0-2.0-8.0-0.0","battery-v0.2","","""event"",""trial"",""time""
""fullscreenenter"",""1"",""2390""
","
","
","""event"",""trial"",""time""
""fullscreenenter"",""1"",""2390""
","
","","","564.7000000476837","","","11","19774","7136","&#9776;","elianto","#3366ff99"," "," ","1","+10","[1417.2000000476837]","1","0","1","","","","","","","",""
"pit-trial","21","332325","0.0-2.0-8.0-1.0","battery-v0.2","","""event"",""trial"",""time""
""fullscreenenter"",""1"",""2390""
","
","
","""event"",""trial"",""time""
""fullscreenenter"",""1"",""2390""
","
","","","485.7999999523163","","","11","19774","7136","&#9776;","elianto","#3366ff99"," "," ","1","+10","[1346]","1","0","1","","","","","","","",""
"pit-trial","22","335585","0.0-2.0-8.0-2.0","battery-v0.2","","""event"",""trial"",""time""
""fullscreenenter"",""1"",""2390""
","
","
","""event"",""trial"",""time""
""fullscreenenter"",""1"",""2390""
","
","","","400.7999999523163","","","11","19774","7136","&#9776;","elianto","#3366ff99"," "," ","1","+10","[1256.6999999284744]","1","0","1","","","","","","","",""
"pit-trial","23","338876","0.0-2.0-8.0-3.0","battery-v0.2","","""event"",""trial"",""time""
""fullscreenenter"",""1"",""2390""
","
","
","""event"",""trial"",""time""
""fullscreenenter"",""1"",""2390""
","
","","","429.7000000476837","","","11","19774","7136","&#9776;","elianto","#3366ff99"," "," ","1","0","[1281.6000000238419]","1","0","1","","","","","","","",""
"pit-trial","24","342227","0.0-2.0-8.0-4.0","battery-v0.2","","""event"",""trial"",""time""
""fullscreenenter"",""1"",""2390""
","
","
","""event"",""trial"",""time""
""fullscreenenter"",""1"",""2390""
","
","","","491.39999997615814","","","11","19774","7136","&#9776;","elianto","#3366ff99"," "," ","1","+10","[1345.0999999046326]","1","0","1","","","","","","","",""
"pit-trial","25","345650","0.0-2.0-8.1-0.1","battery-v0.2","","""event"",""trial"",""time""
""fullscreenenter"",""1"",""2390""
","
","
","""event"",""trial"",""time""
""fullscreenenter"",""1"",""2390""
","
","","","563.5","","","11","19774","7136","&#9776;","elianto","#3366ff99"," "," ","1","+10","[1415.2000000476837]","1","0","1","","","","","","","",""
"pit-trial","26","349025","0.0-2.0-8.1-1.1","battery-v0.2","","""event"",""trial"",""time""
""fullscreenenter"",""1"",""2390""
","
","
","""event"",""trial"",""time""
""fullscreenenter"",""1"",""2390""
","
","","","505.60000002384186","","","11","19774","7136","&#9776;","elianto","#3366ff99"," "," ","1","+10","[1369.1000000238419]","1","0","1","","","","","","","",""
"pit-trial","27","352440","0.0-2.0-8.1-2.1","battery-v0.2","","""event"",""trial"",""time""
""fullscreenenter"",""1"",""2390""
","
","
","""event"",""trial"",""time""
""fullscreenenter"",""1"",""2390""
","
","","","547.3000000715256","","","11","19774","7136","&#9776;","elianto","#3366ff99"," "," ","1","+10","[1397.6000000238419]","1","0","1","","","","","","","",""
"pit-trial","28","355876","0.0-2.0-8.1-3.1","battery-v0.2","","""event"",""trial"",""time""
""fullscreenenter"",""1"",""2390""
","
","
","""event"",""trial"",""time""
""fullscreenenter"",""1"",""2390""
","
","","","577.1999999284744","","","11","19774","7136","&#9776;","elianto","#3366ff99"," "," ","1","0","[1429.5999999046326]","1","0","1","","","","","","","",""
"pit-trial","29","359211","0.0-2.0-8.1-4.1","battery-v0.2","","""event"",""trial"",""time""
""fullscreenenter"",""1"",""2390""
","
","
","""event"",""trial"",""time""
""fullscreenenter"",""1"",""2390""
","
","","","480.7000000476837","","","11","19774","7136","&#9776;","elianto","#3366ff99"," "," ","1","+10","[1332]","1","0","1","","","","","","","",""
"pit-trial","30","363057","0.0-2.0-8.2-0.2","battery-v0.2","","""event"",""trial"",""time""
""fullscreenenter"",""1"",""2390""
","
","
","""event"",""trial"",""time""
""fullscreenenter"",""1"",""2390""
","
","","","990.3000000715256","","","11","19774","7136","&#9776;","elianto","#3366ff99"," "," ","1","+10","[1841.2000000476837]","1","0","1","","","","","","","",""
"pit-trial","31","366285","0.0-2.0-8.2-1.2","battery-v0.2","","""event"",""trial"",""time""
""fullscreenenter"",""1"",""2390""
","
","
","""event"",""trial"",""time""
""fullscreenenter"",""1"",""2390""
","
","","","371.89999997615814","","","11","19774","7136","&#9776;","elianto","#3366ff99"," "," ","1","+10","[1222.8999999761581]","1","0","1","","","","","","","",""
"pit-trial","32","369458","0.0-2.0-8.2-2.2","battery-v0.2","","""event"",""trial"",""time""
""fullscreenenter"",""1"",""2390""
","
","
","""event"",""trial"",""time""
""fullscreenenter"",""1"",""2390""
","
","","","318.2999999523163","","","11","19774","7136","&#9776;","elianto","#3366ff99"," "," ","1","+10","[1169.5]","1","0","1","","","","","","","",""
"pit-trial","33","372793","0.0-2.0-8.2-3.2","battery-v0.2","","""event"",""trial"",""time""
""fullscreenenter"",""1"",""2390""
","
","
","""event"",""trial"",""time""
""fullscreenenter"",""1"",""2390""
","
","","","480.7000000476837","","","11","19774","7136","&#9776;","elianto","#3366ff99"," "," ","1","0","[1331.6000000238419]","1","0","1","","","","","","","",""
"pit-trial","34","375910","0.0-2.0-8.2-4.2","battery-v0.2","","""event"",""trial"",""time""
""fullscreenenter"",""1"",""2390""
","
","
","""event"",""trial"",""time""
""fullscreenenter"",""1"",""2390""
","
","","","261.89999997615814","","","11","19774","7136","&#9776;","elianto","#3366ff99"," "," ","1","+10","[1112.5]","1","0","1","","","","","","","",""
"call-function","35","375913","0.0-2.0-9.0","battery-v0.2","","""event"",""trial"",""time""
""fullscreenenter"",""1"",""2390""
","
","
","""event"",""trial"",""time""
""fullscreenenter"",""1"",""2390""
","
","","","","","","","","","","","","","","","","","","","","","","","","","","",""
"pit-instructions","36","415974","0.0-2.0-10.0","battery-v0.2","","""event"",""trial"",""time""
""fullscreenenter"",""1"",""2390""
","
","
","""event"",""trial"",""time""
""fullscreenenter"",""1"",""2390""
","
","","[{""page_index"":0,""viewing_time"":6913.800000071526},{""page_index"":1,""viewing_time"":6929.199999928474},{""page_index"":2,""viewing_time"":9554.800000071526},{""page_index"":3,""viewing_time"":8835.899999976158},{""page_index"":4,""viewing_time"":7825.799999952316}]","40060.200000047684","","","","","","","","","","","","","","","","","","","","","","","",""
"pit-trial","37","420846","0.0-2.0-11.0-0.0","battery-v0.2","","""event"",""trial"",""time""
""fullscreenenter"",""1"",""2390""
","
","
","""event"",""trial"",""time""
""fullscreenenter"",""1"",""2390""
","
","","","-1","","","11","19774","7136","&#9761;","elianto","#3366ff99","-1","-1","1","+10","[]","0","0","2","","","","","","","",""
"pit-trial","38","425725","0.0-2.0-11.0-1.0","battery-v0.2","","""event"",""trial"",""time""
""fullscreenenter"",""1"",""2390""
","
","
","""event"",""trial"",""time""
""fullscreenenter"",""1"",""2390""
","
","","","-1","","","11","19774","7136","&#9761;","elianto","#3366ff99","-1","-1","1","+10","[]","0","0","2","","","","","","","",""
"pit-trial","39","430596","0.0-2.0-11.0-2.0","battery-v0.2","","""event"",""trial"",""time""
""fullscreenenter"",""1"",""2390""
","
","
","""event"",""trial"",""time""
""fullscreenenter"",""1"",""2390""
","
","","","-1","","","11","19774","7136","&#9761;","elianto","#3366ff99","-1","-1","1","+10","[]","0","0","2","","","","","","","",""
"pit-trial","40","435467","0.0-2.0-11.0-3.0","battery-v0.2","","""event"",""trial"",""time""
""fullscreenenter"",""1"",""2390""
","
","
","""event"",""trial"",""time""
""fullscreenenter"",""1"",""2390""
","
","","","-1","","","11","19774","7136","&#9761;","elianto","#3366ff99","-1","-1","1","0","[]","0","0","2","","","","","","","",""
"pit-trial","41","440327","0.0-2.0-11.0-4.0","battery-v0.2","","""event"",""trial"",""time""
""fullscreenenter"",""1"",""2390""
","
","
","""event"",""trial"",""time""
""fullscreenenter"",""1"",""2390""
","
","","","-1","","","11","19774","7136","&#9761;","elianto","#3366ff99","-1","-1","1","+10","[]","0","0","2","","","","","","","",""
"pit-trial","42","445192","0.0-2.0-11.1-0.1","battery-v0.2","","""event"",""trial"",""time""
""fullscreenenter"",""1"",""2390""
","
","
","""event"",""trial"",""time""
""fullscreenenter"",""1"",""2390""
","
","","","-1","","","11","19774","7136","&#9761;","elianto","#3366ff99","-1","-1","1","+10","[]","0","0","2","","","","","","","",""
"pit-trial","43","450054","0.0-2.0-11.1-1.1","battery-v0.2","","""event"",""trial"",""time""
""fullscreenenter"",""1"",""2390""
","
","
","""event"",""trial"",""time""
""fullscreenenter"",""1"",""2390""
","
","","","-1","","","11","19774","7136","&#9761;","elianto","#3366ff99","-1","-1","1","+10","[]","0","0","2","","","","","","","",""
"pit-trial","44","454919","0.0-2.0-11.1-2.1","battery-v0.2","","""event"",""trial"",""time""
""fullscreenenter"",""1"",""2390""
","
","
","""event"",""trial"",""time""
""fullscreenenter"",""1"",""2390""
","
","","","-1","","","11","19774","7136","&#9761;","elianto","#3366ff99","-1","-1","1","+10","[]","0","0","2","","","","","","","",""
"pit-trial","45","459775","0.0-2.0-11.1-3.1","battery-v0.2","","""event"",""trial"",""time""
""fullscreenenter"",""1"",""2390""
","
","
","""event"",""trial"",""time""
""fullscreenenter"",""1"",""2390""
","
","","","-1","","","11","19774","7136","&#9761;","elianto","#3366ff99","-1","-1","1","0","[]","0","0","2","","","","","","","",""
"pit-trial","46","464630","0.0-2.0-11.1-4.1","battery-v0.2","","""event"",""trial"",""time""
""fullscreenenter"",""1"",""2390""
","
","
","""event"",""trial"",""time""
""fullscreenenter"",""1"",""2390""
","
","","","-1","","","11","19774","7136","&#9761;","elianto","#3366ff99","-1","-1","1","+10","[]","0","0","2","","","","","","","",""
"pit-trial","47","469486","0.0-2.0-11.2-0.2","battery-v0.2","","""event"",""trial"",""time""
""fullscreenenter"",""1"",""2390""
","
","
","""event"",""trial"",""time""
""fullscreenenter"",""1"",""2390""
","
","","","-1","","","11","19774","7136","&#9761;","elianto","#3366ff99","-1","-1","1","+10","[]","0","0","2","","","","","","","",""
"pit-trial","48","474343","0.0-2.0-11.2-1.2","battery-v0.2","","""event"",""trial"",""time""
""fullscreenenter"",""1"",""2390""
","
","
","""event"",""trial"",""time""
""fullscreenenter"",""1"",""2390""
","
","","","-1","","","11","19774","7136","&#9761;","elianto","#3366ff99","-1","-1","1","+10","[]","0","0","2","","","","","","","",""
"pit-trial","49","479199","0.0-2.0-11.2-2.2","battery-v0.2","","""event"",""trial"",""time""
""fullscreenenter"",""1"",""2390""
","
","
","""event"",""trial"",""time""
""fullscreenenter"",""1"",""2390""
","
","","","-1","","","11","19774","7136","&#9761;","elianto","#3366ff99","-1","-1","1","+10","[]","0","0","2","","","","","","","",""
"pit-trial","50","484058","0.0-2.0-11.2-3.2","battery-v0.2","","""event"",""trial"",""time""
""fullscreenenter"",""1"",""2390""
","
","
","""event"",""trial"",""time""
""fullscreenenter"",""1"",""2390""
","
","","","-1","","","11","19774","7136","&#9761;","elianto","#3366ff99","-1","-1","1","0","[]","0","0","2","","","","","","","",""
"pit-trial","51","488913","0.0-2.0-11.2-4.2","battery-v0.2","","""event"",""trial"",""time""
""fullscreenenter"",""1"",""2390""
","
","
","""event"",""trial"",""time""
""fullscreenenter"",""1"",""2390""
","
","","","-1","","","11","19774","7136","&#9761;","elianto","#3366ff99","-1","-1","1","+10","[]","0","0","2","","","","","","","",""
"pit-trial","52","493771","0.0-2.0-11.3-0.3","battery-v0.2","","""event"",""trial"",""time""
""fullscreenenter"",""1"",""2390""
","
","
","""event"",""trial"",""time""
""fullscreenenter"",""1"",""2390""
","
","","","-1","","","11","19774","7136","&#9761;","elianto","#3366ff99","-1","-1","1","+10","[]","0","0","2","","","","","","","",""
"pit-trial","53","498626","0.0-2.0-11.3-1.3","battery-v0.2","","""event"",""trial"",""time""
""fullscreenenter"",""1"",""2390""
","
","
","""event"",""trial"",""time""
""fullscreenenter"",""1"",""2390""
","
","","","-1","","","11","19774","7136","&#9761;","elianto","#3366ff99","-1","-1","1","+10","[]","0","0","2","","","","","","","",""
"pit-trial","54","503483","0.0-2.0-11.3-2.3","battery-v0.2","","""event"",""trial"",""time""
""fullscreenenter"",""1"",""2390""
","
","
","""event"",""trial"",""time""
""fullscreenenter"",""1"",""2390""
","
","","","-1","","","11","19774","7136","&#9761;","elianto","#3366ff99","-1","-1","1","+10","[]","0","0","2","","","","","","","",""
"pit-trial","55","508341","0.0-2.0-11.3-3.3","battery-v0.2","","""event"",""trial"",""time""
""fullscreenenter"",""1"",""2390""
","
","
","""event"",""trial"",""time""
""fullscreenenter"",""1"",""2390""
","
","","","-1","","","11","19774","7136","&#9761;","elianto","#3366ff99","-1","-1","1","0","[]","0","0","2","","","","","","","",""
"pit-trial","56","513197","0.0-2.0-11.3-4.3","battery-v0.2","","""event"",""trial"",""time""
""fullscreenenter"",""1"",""2390""
","
","
","""event"",""trial"",""time""
""fullscreenenter"",""1"",""2390""
","
","","","-1","","","11","19774","7136","&#9761;","elianto","#3366ff99","-1","-1","1","+10","[]","0","0","2","","","","","","","",""
"call-function","57","513199","0.0-2.0-12.0","battery-v0.2","","""event"",""trial"",""time""
""fullscreenenter"",""1"",""2390""
","
","
","""event"",""trial"",""time""
""fullscreenenter"",""1"",""2390""
","
","","","","","","","","","","","","","","","","","","","","","","","","","","",""
"pit-instructions","58","548674","0.0-2.0-13.0","battery-v0.2","","""event"",""trial"",""time""
""fullscreenenter"",""1"",""2390""
","
","
","""event"",""trial"",""time""
""fullscreenenter"",""1"",""2390""
","
","","[{""page_index"":0,""viewing_time"":6028.200000047684},{""page_index"":1,""viewing_time"":7831.699999928474},{""page_index"":2,""viewing_time"":4976},{""page_index"":3,""viewing_time"":10820.400000095367},{""page_index"":4,""viewing_time"":5819.399999976158}]","35476.5","","","","","","","","","","","","","","","","","","","","","","","",""
"pit-trial","59","551987","0.0-2.0-14.0-0.0","battery-v0.2","","""event"",""trial"",""time""
""fullscreenenter"",""1"",""2390""
","
","
","""event"",""trial"",""time""
""fullscreenenter"",""1"",""2390""
","
","","","439.39999997615814","","","11","19774","7136","&#9826;","elianto","#f73b6a7A","-1"," ","0","-10","[1293]","1","0","3","","","","","","","",""
"pit-trial","60","556861","0.0-2.0-14.0-1.0","battery-v0.2","","""event"",""trial"",""time""
""fullscreenenter"",""1"",""2390""
","
","
","""event"",""trial"",""time""
""fullscreenenter"",""1"",""2390""
","
","","","-1","","","11","19774","7136","&#9826;","elianto","#f73b6a7A","-1","-1","1","0","[2988.399999976158]","1","0","3","","","","","","","",""
"pit-trial","61","561726","0.0-2.0-14.0-2.0","battery-v0.2","","""event"",""trial"",""time""
""fullscreenenter"",""1"",""2390""
","
","
","""event"",""trial"",""time""
""fullscreenenter"",""1"",""2390""
","
","","","-1","","","11","19774","7136","&#9826;","elianto","#f73b6a7A","-1","-1","1","0","[]","0","0","3","","","","","","","",""
"pit-trial","62","566606","0.0-2.0-14.0-3.0","battery-v0.2","","""event"",""trial"",""time""
""fullscreenenter"",""1"",""2390""
","
","
","""event"",""trial"",""time""
""fullscreenenter"",""1"",""2390""
","
","","","-1","","","11","19774","7136","&#9826;","elianto","#f73b6a7A","-1","-1","1","-10","[]","0","0","3","","","","","","","",""
"pit-trial","63","571476","0.0-2.0-14.0-4.0","battery-v0.2","","""event"",""trial"",""time""
""fullscreenenter"",""1"",""2390""
","
","
","""event"",""trial"",""time""
""fullscreenenter"",""1"",""2390""
","
","","","-1","","","11","19774","7136","&#9826;","elianto","#f73b6a7A","-1","-1","1","0","[]","0","0","3","","","","","","","",""
"pit-trial","64","576341","0.0-2.0-14.1-0.1","battery-v0.2","","""event"",""trial"",""time""
""fullscreenenter"",""1"",""2390""
","
","
","""event"",""trial"",""time""
""fullscreenenter"",""1"",""2390""
","
","","","-1","","","11","19774","7136","&#9826;","elianto","#f73b6a7A","-1","-1","1","0","[]","0","0","3","","","","","","","",""
"pit-trial","65","581197","0.0-2.0-14.1-1.1","battery-v0.2","","""event"",""trial"",""time""
""fullscreenenter"",""1"",""2390""
","
","
","""event"",""trial"",""time""
""fullscreenenter"",""1"",""2390""
","
","","","-1","","","11","19774","7136","&#9826;","elianto","#f73b6a7A","-1","-1","1","0","[]","0","0","3","","","","","","","",""
"pit-trial","66","586054","0.0-2.0-14.1-2.1","battery-v0.2","","""event"",""trial"",""time""
""fullscreenenter"",""1"",""2390""
","
","
","""event"",""trial"",""time""
""fullscreenenter"",""1"",""2390""
","
","","","-1","","","11","19774","7136","&#9826;","elianto","#f73b6a7A","-1","-1","1","0","[]","0","0","3","","","","","","","",""
"pit-trial","67","590910","0.0-2.0-14.1-3.1","battery-v0.2","","""event"",""trial"",""time""
""fullscreenenter"",""1"",""2390""
","
","
","""event"",""trial"",""time""
""fullscreenenter"",""1"",""2390""
","
","","","-1","","","11","19774","7136","&#9826;","elianto","#f73b6a7A","-1","-1","1","-10","[]","0","0","3","","","","","","","",""
"pit-trial","68","595768","0.0-2.0-14.1-4.1","battery-v0.2","","""event"",""trial"",""time""
""fullscreenenter"",""1"",""2390""
","
","
","""event"",""trial"",""time""
""fullscreenenter"",""1"",""2390""
","
","","","-1","","","11","19774","7136","&#9826;","elianto","#f73b6a7A","-1","-1","1","0","[]","0","0","3","","","","","","","",""
"pit-trial","69","600624","0.0-2.0-14.2-0.2","battery-v0.2","","""event"",""trial"",""time""
""fullscreenenter"",""1"",""2390""
","
","
","""event"",""trial"",""time""
""fullscreenenter"",""1"",""2390""
","
","","","-1","","","11","19774","7136","&#9826;","elianto","#f73b6a7A","-1","-1","1","0","[]","0","0","3","","","","","","","",""
"pit-trial","70","605484","0.0-2.0-14.2-1.2","battery-v0.2","","""event"",""trial"",""time""
""fullscreenenter"",""1"",""2390""
","
","
","""event"",""trial"",""time""
""fullscreenenter"",""1"",""2390""
","
","","","-1","","","11","19774","7136","&#9826;","elianto","#f73b6a7A","-1","-1","1","0","[]","0","0","3","","","","","","","",""
"pit-trial","71","610339","0.0-2.0-14.2-2.2","battery-v0.2","","""event"",""trial"",""time""
""fullscreenenter"",""1"",""2390""
","
","
","""event"",""trial"",""time""
""fullscreenenter"",""1"",""2390""
","
","","","-1","","","11","19774","7136","&#9826;","elianto","#f73b6a7A","-1","-1","1","0","[]","0","0","3","","","","","","","",""
"pit-trial","72","615195","0.0-2.0-14.2-3.2","battery-v0.2","","""event"",""trial"",""time""
""fullscreenenter"",""1"",""2390""
","
","
","""event"",""trial"",""time""
""fullscreenenter"",""1"",""2390""
","
","","","-1","","","11","19774","7136","&#9826;","elianto","#f73b6a7A","-1","-1","1","-10","[]","0","0","3","","","","","","","",""
"pit-trial","73","620050","0.0-2.0-14.2-4.2","battery-v0.2","","""event"",""trial"",""time""
""fullscreenenter"",""1"",""2390""
","
","
","""event"",""trial"",""time""
""fullscreenenter"",""1"",""2390""
","
","","","-1","","","11","19774","7136","&#9826;","elianto","#f73b6a7A","-1","-1","1","0","[]","0","0","3","","","","","","","",""
"pit-trial","74","624906","0.0-2.0-14.3-0.3","battery-v0.2","","""event"",""trial"",""time""
""fullscreenenter"",""1"",""2390""
","
","
","""event"",""trial"",""time""
""fullscreenenter"",""1"",""2390""
","
","","","-1","","","11","19774","7136","&#9826;","elianto","#f73b6a7A","-1","-1","1","0","[]","0","0","3","","","","","","","",""
"pit-trial","75","629762","0.0-2.0-14.3-1.3","battery-v0.2","","""event"",""trial"",""time""
""fullscreenenter"",""1"",""2390""
","
","
","""event"",""trial"",""time""
""fullscreenenter"",""1"",""2390""
","
","","","-1","","","11","19774","7136","&#9826;","elianto","#f73b6a7A","-1","-1","1","0","[]","0","0","3","","","","","","","",""
"pit-trial","76","634616","0.0-2.0-14.3-2.3","battery-v0.2","","""event"",""trial"",""time""
""fullscreenenter"",""1"",""2390""
","
","
","""event"",""trial"",""time""
""fullscreenenter"",""1"",""2390""
","
","","","-1","","","11","19774","7136","&#9826;","elianto","#f73b6a7A","-1","-1","1","0","[]","0","0","3","","","","","","","",""
"pit-trial","77","639473","0.0-2.0-14.3-3.3","battery-v0.2","","""event"",""trial"",""time""
""fullscreenenter"",""1"",""2390""
","
","
","""event"",""trial"",""time""
""fullscreenenter"",""1"",""2390""
","
","","","-1","","","11","19774","7136","&#9826;","elianto","#f73b6a7A","-1","-1","1","-10","[]","0","0","3","","","","","","","",""
"pit-trial","78","644328","0.0-2.0-14.3-4.3","battery-v0.2","","""event"",""trial"",""time""
""fullscreenenter"",""1"",""2390""
","
","
","""event"",""trial"",""time""
""fullscreenenter"",""1"",""2390""
","
","","","-1","","","11","19774","7136","&#9826;","elianto","#f73b6a7A","-1","-1","1","0","[]","0","0","3","","","","","","","",""
"call-function","79","644331","0.0-2.0-15.0","battery-v0.2","","""event"",""trial"",""time""
""fullscreenenter"",""1"",""2390""
","
","
","""event"",""trial"",""time""
""fullscreenenter"",""1"",""2390""
","
","","","","","","","","","","","","","","","","","","","","","","","","","","",""
"pit-instructions","80","675399","0.0-2.0-16.0","battery-v0.2","","""event"",""trial"",""time""
""fullscreenenter"",""1"",""2390""
","
","
","""event"",""trial"",""time""
""fullscreenenter"",""1"",""2390""
","
","","[{""page_index"":0,""viewing_time"":9899.299999952316},{""page_index"":1,""viewing_time"":8835.399999976158},{""page_index"":2,""viewing_time"":6843.600000023842},{""page_index"":3,""viewing_time"":5488.399999976158}]","31067.5","","","","","","","","","","","","","","","","","","","","","","","",""
"pit-trial","81","679438","0.0-2.0-17.0-0.0","battery-v0.2","","""event"",""trial"",""time""
""fullscreenenter"",""1"",""2390""
","
","
","""event"",""trial"",""time""
""fullscreenenter"",""1"",""2390""
","
","","","1178.3999999761581","","","11","19774","7136","&#9789;","elianto","#f73b6a7A"," "," ","1","0","[2029.8999999761581]","1","0","4","","","","","","","",""
"pit-trial","82","682582","0.0-2.0-17.0-1.0","battery-v0.2","","""event"",""trial"",""time""
""fullscreenenter"",""1"",""2390""
","
","
","""event"",""trial"",""time""
""fullscreenenter"",""1"",""2390""
","
","","","281","","","11","19774","7136","&#9789;","elianto","#f73b6a7A"," "," ","1","0","[1131.1000000238419]","1","0","4","","","","","","","",""
"pit-trial","83","685473","0.0-2.0-17.0-2.0","battery-v0.2","","""event"",""trial"",""time""
""fullscreenenter"",""1"",""2390""
","
","
","""event"",""trial"",""time""
""fullscreenenter"",""1"",""2390""
","
","","","23.699999928474426","","","11","19774","7136","&#9789;","elianto","#f73b6a7A"," "," ","1","0","[876.7999999523163]","1","0","4","","","","","","","",""
"pit-trial","84","688942","0.0-2.0-17.0-3.0","battery-v0.2","","""event"",""trial"",""time""
""fullscreenenter"",""1"",""2390""
","
","
","""event"",""trial"",""time""
""fullscreenenter"",""1"",""2390""
","
","","","593.7000000476837","","","11","19774","7136","&#9789;","elianto","#f73b6a7A"," "," ","1","-10","[353.7999999523163,1455]","2","0","4","","","","","","","",""
"pit-trial","85","691900","0.0-2.0-17.0-4.0","battery-v0.2","","""event"",""trial"",""time""
""fullscreenenter"",""1"",""2390""
","
","
","""event"",""trial"",""time""
""fullscreenenter"",""1"",""2390""
","
","","","92.70000004768372","","","11","19774","7136","&#9789;","elianto","#f73b6a7A"," "," ","1","0","[431.7000000476837,952.7000000476837,2175,2487.600000023842,2818.100000023842]","5","0","4","","","","","","","",""
"pit-trial","86","696763","0.0-2.0-17.1-0.1","battery-v0.2","","""event"",""trial"",""time""
""fullscreenenter"",""1"",""2390""
","
","
","""event"",""trial"",""time""
""fullscreenenter"",""1"",""2390""
","
","","","-1","","","11","19774","7136","&#9789;","elianto","#f73b6a7A"," ","-1","0","-10","[162.60000002384186,463,3262.7999999523163]","3","0","4","","","","","","","",""
"pit-trial","87","700072","0.0-2.0-17.1-1.1","battery-v0.2","","""event"",""trial"",""time""
""fullscreenenter"",""1"",""2390""
","
","
","""event"",""trial"",""time""
""fullscreenenter"",""1"",""2390""
","
","","","449.5","","","11","19774","7136","&#9789;","elianto","#f73b6a7A"," "," ","1","0","[1299.7999999523163]","1","0","4","","","","","","","",""
"pit-trial","88","703309","0.0-2.0-17.1-2.1","battery-v0.2","","""event"",""trial"",""time""
""fullscreenenter"",""1"",""2390""
","
","
","""event"",""trial"",""time""
""fullscreenenter"",""1"",""2390""
","
","","","372.10000002384186","","","11","19774","7136","&#9789;","elianto","#f73b6a7A"," "," ","1","0","[1227.1000000238419,2857]","2","0","4","","","","","","","",""
"pit-trial","89","707639","0.0-2.0-17.1-3.1","battery-v0.2","","""event"",""trial"",""time""
""fullscreenenter"",""1"",""2390""
","
","
","""event"",""trial"",""time""
""fullscreenenter"",""1"",""2390""
","
","","","1472.7999999523163","","","11","19774","7136","&#9789;","elianto","#f73b6a7A"," "," ","1","-10","[837.5,2324.7000000476837]","2","0","4","","","","","","","",""
"pit-trial","90","710683","0.0-2.0-17.1-4.1","battery-v0.2","","""event"",""trial"",""time""
""fullscreenenter"",""1"",""2390""
","
","
","""event"",""trial"",""time""
""fullscreenenter"",""1"",""2390""
","
","","","188","","","11","19774","7136","&#9789;","elianto","#f73b6a7A"," "," ","1","0","[1039.6000000238419]","1","0","4","","","","","","","",""
"pit-trial","91","714701","0.0-2.0-17.2-0.2","battery-v0.2","","""event"",""trial"",""time""
""fullscreenenter"",""1"",""2390""
","
","
","""event"",""trial"",""time""
""fullscreenenter"",""1"",""2390""
","
","","","1159.6999999284744","","","11","19774","7136","&#9789;","elianto","#f73b6a7A"," "," ","1","0","[2011.5999999046326,3472.899999976158]","2","0","4","","","","","","","",""
"pit-trial","92","717803","0.0-2.0-17.2-1.2","battery-v0.2","","""event"",""trial"",""time""
""fullscreenenter"",""1"",""2390""
","
","
","""event"",""trial"",""time""
""fullscreenenter"",""1"",""2390""
","
","","","245.79999995231628","","","11","19774","7136","&#9789;","elianto","#f73b6a7A"," "," ","1","0","[1097.7000000476837,2836.899999976158]","2","0","4","","","","","","","",""
"pit-trial","93","721850","0.0-2.0-17.2-2.2","battery-v0.2","","""event"",""trial"",""time""
""fullscreenenter"",""1"",""2390""
","
","
","""event"",""trial"",""time""
""fullscreenenter"",""1"",""2390""
","
","","","1192","","","11","19774","7136","&#9789;","elianto","#f73b6a7A"," "," ","1","0","[2043.5]","1","0","4","","","","","","","",""
"pit-trial","94","725057","0.0-2.0-17.2-3.2","battery-v0.2","","""event"",""trial"",""time""
""fullscreenenter"",""1"",""2390""
","
","
","""event"",""trial"",""time""
""fullscreenenter"",""1"",""2390""
","
","","","353","","","11","19774","7136","&#9789;","elianto","#f73b6a7A"," "," ","1","-10","[1203.3999999761581,2729.100000023842]","2","0","4","","","","","","","",""
"pit-trial","95","728952","0.0-2.0-17.2-4.2","battery-v0.2","","""event"",""trial"",""time""
""fullscreenenter"",""1"",""2390""
","
","
","""event"",""trial"",""time""
""fullscreenenter"",""1"",""2390""
","
","","","1039.6999999284744","","","11","19774","7136","&#9789;","elianto","#f73b6a7A"," "," ","1","0","[1890.7999999523163]","1","0","4","","","","","","","",""
"pit-trial","96","732838","0.0-2.0-17.3-0.3","battery-v0.2","","""event"",""trial"",""time""
""fullscreenenter"",""1"",""2390""
","
","
","""event"",""trial"",""time""
""fullscreenenter"",""1"",""2390""
","
","","","1031.3000000715256","","","11","19774","7136","&#9789;","elianto","#f73b6a7A"," "," ","1","0","[1882.8000000715256,2172.7000000476837,2656,2916.2000000476837,3097,3483.5,3712.4000000953674]","7","0","4","","","","","","","",""
"pit-trial","97","735851","0.0-2.0-17.3-1.3","battery-v0.2","","""event"",""trial"",""time""
""fullscreenenter"",""1"",""2390""
","
","
","""event"",""trial"",""time""
""fullscreenenter"",""1"",""2390""
","
","","","157.69999992847443","","","11","19774","7136","&#9789;","elianto","#f73b6a7A"," "," ","1","0","[1008.1000000238419]","1","0","4","","","","","","","",""
"pit-trial","98","739552","0.0-2.0-17.3-2.3","battery-v0.2","","""event"",""trial"",""time""
""fullscreenenter"",""1"",""2390""
","
","
","""event"",""trial"",""time""
""fullscreenenter"",""1"",""2390""
","
","","","846.3000000715256","","","11","19774","7136","&#9789;","elianto","#f73b6a7A"," "," ","1","0","[1697.8000000715256]","1","0","4","","","","","","","",""
"pit-trial","99","743809","0.0-2.0-17.3-3.3","battery-v0.2","","""event"",""trial"",""time""
""fullscreenenter"",""1"",""2390""
","
","
","""event"",""trial"",""time""
""fullscreenenter"",""1"",""2390""
","
","","","1401.8999999761581","","","11","19774","7136","&#9789;","elianto","#f73b6a7A"," "," ","1","-10","[818.3999999761581,2252.7999999523163]","2","0","4","","","","","","","",""
"pit-trial","100","747801","0.0-2.0-17.3-4.3","battery-v0.2","","""event"",""trial"",""time""
""fullscreenenter"",""1"",""2390""
","
","
","""event"",""trial"",""time""
""fullscreenenter"",""1"",""2390""
","
","","","1137.3999999761581","","","11","19774","7136","&#9789;","elianto","#f73b6a7A"," "," ","1","0","[622.6000000238419,1988]","2","0","4","","","","","","","",""
"call-function","101","747804","0.0-2.0-18.0","battery-v0.2","","""event"",""trial"",""time""
""fullscreenenter"",""1"",""2390""
","
","
","""event"",""trial"",""time""
""fullscreenenter"",""1"",""2390""
","
","","","","","","","","","","","","","","","","","","","","","","","","","","",""
"pit-instructions","102","829366","0.0-2.0-19.0","battery-v0.2","","""event"",""trial"",""time""
""fullscreenenter"",""1"",""2390""
","
","
","""event"",""trial"",""time""
""fullscreenenter"",""1"",""2390""
","
","","[{""page_index"":0,""viewing_time"":17917.899999976158},{""page_index"":1,""viewing_time"":6151.700000047684},{""page_index"":2,""viewing_time"":15756.099999904633},{""page_index"":3,""viewing_time"":4288.5},{""page_index"":4,""viewing_time"":8875.400000095367},{""page_index"":5,""viewing_time"":8070.399999976158},{""page_index"":6,""viewing_time"":8035.600000023842},{""page_index"":7,""viewing_time"":8048.399999976158},{""page_index"":8,""viewing_time"":4417.199999928474}]","81561.69999992847","","","","","","","","","","","","","","","","","","","","","","","",""
"pit-comprehension","103","835352","0.0-2.0-20.0-0.0","battery-v0.2","","""event"",""trial"",""time""
""fullscreenenter"",""1"",""2390""
","
","
","""event"",""trial"",""time""
""fullscreenenter"",""1"",""2390""
","
","","","5976.800000071526","[""SPACE""]","0","11","19774","7136","","","","","","","","","","","","","","","","","","",""
"pit-instructions","104","840813","0.0-2.0-20.0-1.0","battery-v0.2","","""event"",""trial"",""time""
""fullscreenenter"",""1"",""2390""
","
","
","""event"",""trial"",""time""
""fullscreenenter"",""1"",""2390""
","
","","[{""page_index"":0,""viewing_time"":5433.899999976158}]","5434","","","","","","","","","","","","","","","","","","","","","","","",""
"pit-comprehension","105","847856","0.0-2.0-21.0-0.0","battery-v0.2","","""event"",""trial"",""time""
""fullscreenenter"",""1"",""2390""
","
","
","""event"",""trial"",""time""
""fullscreenenter"",""1"",""2390""
","
","","","7039.199999928474","[""0""]","1","11","19774","7136","","","","","","","","","","","","","","","","","","",""
"pit-instructions","106","852535","0.0-2.0-21.0-1.0","battery-v0.2","","""event"",""trial"",""time""
""fullscreenenter"",""1"",""2390""
","
","
","""event"",""trial"",""time""
""fullscreenenter"",""1"",""2390""
","
","","[{""page_index"":0,""viewing_time"":4663.099999904633}]","4663.299999952316","","","","","","","","","","","","","","","","","","","","","","","",""
"pit-instructions","107","855132","0.0-2.0-21.0-2.0-0.0","battery-v0.2","","""event"",""trial"",""time""
""fullscreenenter"",""1"",""2390""
","
","
","""event"",""trial"",""time""
""fullscreenenter"",""1"",""2390""
","
","","[{""page_index"":0,""viewing_time"":2592.5}]","2593.600000023842","","","","","","","","","","","","","","","","","","","","","","","",""
"pit-comprehension","108","861253","0.0-2.0-21.1-0.1","battery-v0.2","","""event"",""trial"",""time""
""fullscreenenter"",""1"",""2390""
","
","
","""event"",""trial"",""time""
""fullscreenenter"",""1"",""2390""
","
","","","6115.699999928474","[""10""]","0","11","19774","7136","","","","","","","","","","","","","","","","","","",""
"pit-instructions","109","862862","0.0-2.0-21.1-1.1","battery-v0.2","","""event"",""trial"",""time""
""fullscreenenter"",""1"",""2390""
","
","
","""event"",""trial"",""time""
""fullscreenenter"",""1"",""2390""
","
","","[{""page_index"":0,""viewing_time"":1581.6000000238419}]","1582.3000000715256","","","","","","","","","","","","","","","","","","","","","","","",""
"pit-comprehension","110","870438","0.0-2.0-22.0-0.0","battery-v0.2","","""event"",""trial"",""time""
""fullscreenenter"",""1"",""2390""
","
","
","""event"",""trial"",""time""
""fullscreenenter"",""1"",""2390""
","
","","","7569.5","[""0""]","0","11","19774","7136","","","","","","","","","","","","","","","","","","",""
"pit-instructions","111","872510","0.0-2.0-22.0-1.0","battery-v0.2","","""event"",""trial"",""time""
""fullscreenenter"",""1"",""2390""
","
","
","""event"",""trial"",""time""
""fullscreenenter"",""1"",""2390""
","
","","[{""page_index"":0,""viewing_time"":2048.399999976158}]","2049.5","","","","","","","","","","","","","","","","","","","","","","","",""
"pit-comprehension","112","882710","0.0-2.0-23.0-0.0","battery-v0.2","","""event"",""trial"",""time""
""fullscreenenter"",""1"",""2390""
","
","
","""event"",""trial"",""time""
""fullscreenenter"",""1"",""2390""
","
","","","10191.799999952316","[""True""]","0","11","19774","7136","","","","","","","","","","","","","","","","","","",""
"pit-instructions","113","885980","0.0-2.0-23.0-1.0","battery-v0.2","","""event"",""trial"",""time""
""fullscreenenter"",""1"",""2390""
","
","
","""event"",""trial"",""time""
""fullscreenenter"",""1"",""2390""
","
","","[{""page_index"":0,""viewing_time"":3246.899999976158}]","3247.8000000715256","","","","","","","","","","","","","","","","","","","","","","","",""
"pit-comprehension","114","893600","0.0-2.0-24.0-0.0","battery-v0.2","","""event"",""trial"",""time""
""fullscreenenter"",""1"",""2390""
","
","
","""event"",""trial"",""time""
""fullscreenenter"",""1"",""2390""
","
","","","7610.799999952316","[""True""]","0","11","19774","7136","","","","","","","","","","","","","","","","","","",""
"pit-instructions","115","895518","0.0-2.0-24.0-1.0","battery-v0.2","","""event"",""trial"",""time""
""fullscreenenter"",""1"",""2390""
","
","
","""event"",""trial"",""time""
""fullscreenenter"",""1"",""2390""
","
","","[{""page_index"":0,""viewing_time"":1891.4000000953674}]","1891.9000000953674","","","","","","","","","","","","","","","","","","","","","","","",""
"pit-comprehension","116","902376","0.0-2.0-25.0-0.0","battery-v0.2","","""event"",""trial"",""time""
""fullscreenenter"",""1"",""2390""
","
","
","""event"",""trial"",""time""
""fullscreenenter"",""1"",""2390""
","
","","","6853","[""True""]","0","11","19774","7136","","","","","","","","","","","","","","","","","","",""
"pit-instructions","117","904132","0.0-2.0-25.0-1.0","battery-v0.2","","""event"",""trial"",""time""
""fullscreenenter"",""1"",""2390""
","
","
","""event"",""trial"",""time""
""fullscreenenter"",""1"",""2390""
","
","","[{""page_index"":0,""viewing_time"":1734.8999999761581}]","1735.2999999523163","","","","","","","","","","","","","","","","","","","","","","","",""
"pit-comprehension","118","911220","0.0-2.0-26.0-0.0","battery-v0.2","","""event"",""trial"",""time""
""fullscreenenter"",""1"",""2390""
","
","
","""event"",""trial"",""time""
""fullscreenenter"",""1"",""2390""
","
","","","7083.100000023842","[""False""]","0","11","19774","7136","","","","","","","","","","","","","","","","","","",""
"pit-instructions","119","912595","0.0-2.0-26.0-1.0","battery-v0.2","","""event"",""trial"",""time""
""fullscreenenter"",""1"",""2390""
","
","
","""event"",""trial"",""time""
""fullscreenenter"",""1"",""2390""
","
","","[{""page_index"":0,""viewing_time"":1351.2999999523163}]","1352.6999999284744","","","","","","","","","","","","","","","","","","","","","","","",""
"pit-instructions","120","930158","0.0-3.0","battery-v0.2","","""event"",""trial"",""time""
""fullscreenenter"",""1"",""2390""
","
","
","""event"",""trial"",""time""
""fullscreenenter"",""1"",""2390""
","
","","[{""page_index"":0,""viewing_time"":4969.700000047684},{""page_index"":1,""viewing_time"":5540.599999904633},{""page_index"":2,""viewing_time"":7048.800000071526}]","17559.5","","","","","","","","","","","","","","","","","","","","","","","",""
"pit-trial","121","934117","0.0-4.0","battery-v0.2","","""event"",""trial"",""time""
""fullscreenenter"",""1"",""2390""
","
","
","""event"",""trial"",""time""
""fullscreenenter"",""1"",""2390""
","
","","","1091.5","","","11","19774","7136","&#9733;","elianto","#3366ff99","-1"," ","0","0","[1946.5]","1","1","","","19774","1","2","2","win","no-go","0"
"pit-trial","122","937931","0.0-5.0","battery-v0.2","","""event"",""trial"",""time""
""fullscreenenter"",""1"",""2390""
","
","
","""event"",""trial"",""time""
""fullscreenenter"",""1"",""2390""
","
","","","955.2999999523163","","","11","19774","7136","&#9730;","elianto","#3366ff99"," "," ","1","+10","[1808.2000000476837]","1","1","","","19774","2","1","1","win","go","0"
"pit-trial","123","942799","0.0-6.0","battery-v0.2","","""event"",""trial"",""time""
""fullscreenenter"",""1"",""2390""
","
","
","""event"",""trial"",""time""
""fullscreenenter"",""1"",""2390""
","
","","","-1","","","11","19774","7136","&#9728;","elianto","#f73b6a7A","-1","-1","1","0","[]","0","1","","","19774","3","0","4","lose","no-go","0"
"pit-trial","124","947173","0.0-7.0","battery-v0.2","","""event"",""trial"",""time""
""fullscreenenter"",""1"",""2390""
","
","
","""event"",""trial"",""time""
""fullscreenenter"",""1"",""2390""
","
","","","1494","","","11","19774","7136","&#9752;","elianto","#f73b6a7A"," "," ","1","0","[2359.7999999523163]","1","1","","","19774","4","3","3","lose","go","0"
"pit-trial","125","952041","0.0-8.0","battery-v0.2","","""event"",""trial"",""time""
""fullscreenenter"",""1"",""2390""
","
","
","""event"",""trial"",""time""
""fullscreenenter"",""1"",""2390""
","
","","","-1","","","11","19774","7136","&#9733;","elianto","#3366ff99","-1","-1","1","+10","[219.20000004768372]","1","1","","","19774","5","2","2","win","no-go","0"
"pit-trial","126","956455","0.0-9.0","battery-v0.2","","""event"",""trial"",""time""
""fullscreenenter"",""1"",""2390""
","
","
","""event"",""trial"",""time""
""fullscreenenter"",""1"",""2390""
","
","","","1550.1000000238419","","","11","19774","7136","&#9752;","elianto","#f73b6a7A"," "," ","1","0","[2405.4000000953674]","1","1","","","19774","6","3","3","lose","go","0"
"pit-trial","127","961315","0.0-10.0","battery-v0.2","","""event"",""trial"",""time""
""fullscreenenter"",""1"",""2390""
","
","
","""event"",""trial"",""time""
""fullscreenenter"",""1"",""2390""
","
","","","-1","","","11","19774","7136","&#9728;","elianto","#f73b6a7A","-1","-1","1","0","[]","0","1","","","19774","7","0","4","lose","no-go","0"
"pit-trial","128","965060","0.0-11.0","battery-v0.2","","""event"",""trial"",""time""
""fullscreenenter"",""1"",""2390""
","
","
","""event"",""trial"",""time""
""fullscreenenter"",""1"",""2390""
","
","","","889.8999999761581","","","11","19774","7136","&#9730;","elianto","#3366ff99"," "," ","1","+10","[1740.5]","1","1","","","19774","8","1","1","win","go","0"
"pit-trial","129","969127","0.0-12.0","battery-v0.2","","""event"",""trial"",""time""
""fullscreenenter"",""1"",""2390""
","
","
","""event"",""trial"",""time""
""fullscreenenter"",""1"",""2390""
","
","","","1212.8999999761581","","","11","19774","7136","&#9752;","elianto","#f73b6a7A"," "," ","1","0","[2063]","1","1","","","19774","9","3","3","lose","go","0"
"pit-trial","130","973983","0.0-13.0","battery-v0.2","","""event"",""trial"",""time""
""fullscreenenter"",""1"",""2390""
","
","
","""event"",""trial"",""time""
""fullscreenenter"",""1"",""2390""
","
","","","-1","","","11","19774","7136","&#9733;","elianto","#3366ff99","-1","-1","1","+10","[]","0","1","","","19774","10","2","2","win","no-go","0"
"pit-trial","131","978837","0.0-14.0","battery-v0.2","","""event"",""trial"",""time""
""fullscreenenter"",""1"",""2390""
","
","
","""event"",""trial"",""time""
""fullscreenenter"",""1"",""2390""
","
","","","-1","","","11","19774","7136","&#9728;","elianto","#f73b6a7A","-1","-1","1","-10","[]","0","1","","","19774","11","0","4","lose","no-go","1"
"pit-trial","132","982731","0.0-15.0","battery-v0.2","","""event"",""trial"",""time""
""fullscreenenter"",""1"",""2390""
","
","
","""event"",""trial"",""time""
""fullscreenenter"",""1"",""2390""
","
","","","1036.8999999761581","","","11","19774","7136","&#9730;","elianto","#3366ff99"," "," ","1","+10","[1887.2999999523163]","1","1","","","19774","12","1","1","win","go","0"
"pit-trial","133","986530","0.0-16.0","battery-v0.2","","""event"",""trial"",""time""
""fullscreenenter"",""1"",""2390""
","
","
","""event"",""trial"",""time""
""fullscreenenter"",""1"",""2390""
","
","","","942.8999999761581","","","11","19774","7136","&#9730;","elianto","#3366ff99"," "," ","1","+10","[1793.5]","1","1","","","19774","13","1","1","win","go","0"
"pit-trial","134","990463","0.0-17.0","battery-v0.2","","""event"",""trial"",""time""
""fullscreenenter"",""1"",""2390""
","
","
","""event"",""trial"",""time""
""fullscreenenter"",""1"",""2390""
","
","","","1077.7000000476837","","","11","19774","7136","&#9752;","elianto","#f73b6a7A"," "," ","1","-10","[1928.2000000476837]","1","1","","","19774","14","3","3","lose","go","1"
"pit-trial","135","995328","0.0-18.0","battery-v0.2","","""event"",""trial"",""time""
""fullscreenenter"",""1"",""2390""
","
","
","""event"",""trial"",""time""
""fullscreenenter"",""1"",""2390""
","
","","","-1","","","11","19774","7136","&#9728;","elianto","#f73b6a7A","-1","-1","1","0","[]","0","1","","","19774","15","0","4","lose","no-go","0"
"pit-trial","136","1000184","0.0-19.0","battery-v0.2","","""event"",""trial"",""time""
""fullscreenenter"",""1"",""2390""
","
","
","""event"",""trial"",""time""
""fullscreenenter"",""1"",""2390""
","
","","","-1","","","11","19774","7136","&#9733;","elianto","#3366ff99","-1","-1","1","+10","[]","0","1","","","19774","16","2","2","win","no-go","0"
"pit-trial","137","1003908","0.0-20.0","battery-v0.2","","""event"",""trial"",""time""
""fullscreenenter"",""1"",""2390""
","
","
","""event"",""trial"",""time""
""fullscreenenter"",""1"",""2390""
","
","","","870.1999999284744","","","11","19774","7136","&#9730;","elianto","#3366ff99"," "," ","1","+10","[1721]","1","1","","","19774","17","1","1","win","go","0"
"pit-trial","138","1008760","0.0-21.0","battery-v0.2","","""event"",""trial"",""time""
""fullscreenenter"",""1"",""2390""
","
","
","""event"",""trial"",""time""
""fullscreenenter"",""1"",""2390""
","
","","","-1","","","11","19774","7136","&#9728;","elianto","#f73b6a7A","-1","-1","1","0","[]","0","1","","","19774","18","0","4","lose","no-go","0"
"pit-trial","139","1012431","0.0-22.0","battery-v0.2","","""event"",""trial"",""time""
""fullscreenenter"",""1"",""2390""
","
","
","""event"",""trial"",""time""
""fullscreenenter"",""1"",""2390""
","
","","","816.8000000715256","","","11","19774","7136","&#9733;","elianto","#3366ff99","-1"," ","0","0","[1667.7000000476837]","1","1","","","19774","19","2","2","win","no-go","0"
"pit-trial","140","1016476","0.0-23.0","battery-v0.2","","""event"",""trial"",""time""
""fullscreenenter"",""1"",""2390""
","
","
","""event"",""trial"",""time""
""fullscreenenter"",""1"",""2390""
","
","","","1190","","","11","19774","7136","&#9752;","elianto","#f73b6a7A"," "," ","1","0","[2040.7000000476837]","1","1","","","19774","20","3","3","lose","go","0"
"pit-instructions","141","1029622","0.0-24.0","battery-v0.2","","""event"",""trial"",""time""
""fullscreenenter"",""1"",""2390""
","
","
","""event"",""trial"",""time""
""fullscreenenter"",""1"",""2390""
","
","","[{""page_index"":0,""viewing_time"":6282.100000023842},{""page_index"":1,""viewing_time"":6860.899999976158}]","13143.300000071526","","","","","","","","","","","","","","","","","","","","","","","",""
"pit-trial","142","1033946","0.0-25.0","battery-v0.2","","""event"",""trial"",""time""
""fullscreenenter"",""1"",""2390""
","
","
","""event"",""trial"",""time""
""fullscreenenter"",""1"",""2390""
","
","","","1456","","","11","19774","7136","e","elianto","#f73b6a7A"," "," ","1","0","[2309]","1","2","","","19774","21","2","3","lose","go","0"
"pit-trial","143","1038808","0.0-26.0","battery-v0.2","","""event"",""trial"",""time""
""fullscreenenter"",""1"",""2390""
","
","
","""event"",""trial"",""time""
""fullscreenenter"",""1"",""2390""
","
","","","-1","","","11","19774","7136","j","elianto","#f73b6a7A"," ","-1","0","-10","[]","0","2","","","19774","22","0","3","lose","go","0"
"pit-trial","144","1043231","0.0-27.0","battery-v0.2","","""event"",""trial"",""time""
""fullscreenenter"",""1"",""2390""
","
","
","""event"",""trial"",""time""
""fullscreenenter"",""1"",""2390""
","
","","","1546.8999999761581","","","11","19774","7136","d","elianto","#3366ff99","-1"," ","0","0","[2408.600000023842]","1","2","","","19774","23","1","2","win","no-go","0"
"pit-trial","145","1047738","0.0-28.0","battery-v0.2","","""event"",""trial"",""time""
""fullscreenenter"",""1"",""2390""
","
","
","""event"",""trial"",""time""
""fullscreenenter"",""1"",""2390""
","
","","","1637.5","","","11","19774","7136","w","elianto","#f73b6a7A","-1"," ","0","-10","[2489.899999976158]","1","2","","","19774","24","3","4","lose","no-go","0"
"pit-trial","146","1052609","0.0-29.0","battery-v0.2","","""event"",""trial"",""time""
""fullscreenenter"",""1"",""2390""
","
","
","""event"",""trial"",""time""
""fullscreenenter"",""1"",""2390""
","
","","","-1","","","11","19774","7136","w","elianto","#f73b6a7A","-1","-1","1","0","[]","0","2","","","19774","25","3","4","lose","no-go","0"
"pit-trial","147","1057230","0.0-30.0","battery-v0.2","","""event"",""trial"",""time""
""fullscreenenter"",""1"",""2390""
","
","
","""event"",""trial"",""time""
""fullscreenenter"",""1"",""2390""
","
","","","1757.8000000715256","","","11","19774","7136","j","elianto","#f73b6a7A"," "," ","1","0","[2614.600000023842]","1","2","","","19774","26","0","3","lose","go","0"
"pit-trial","148","1061799","0.0-31.0","battery-v0.2","","""event"",""trial"",""time""
""fullscreenenter"",""1"",""2390""
","
","
","""event"",""trial"",""time""
""fullscreenenter"",""1"",""2390""
","
","","","1712.8999999761581","","","11","19774","7136","d","elianto","#3366ff99","-1"," ","0","0","[2564.7999999523163]","1","2","","","19774","27","1","2","win","no-go","0"
"pit-trial","149","1066111","0.0-32.0","battery-v0.2","","""event"",""trial"",""time""
""fullscreenenter"",""1"",""2390""
","
","
","""event"",""trial"",""time""
""fullscreenenter"",""1"",""2390""
","
","","","1456.0999999046326","","","11","19774","7136","e","elianto","#f73b6a7A"," "," ","1","-10","[2306.2999999523163]","1","2","","","19774","28","2","3","lose","go","1"
"pit-trial","150","1070967","0.0-33.0","battery-v0.2","","""event"",""trial"",""time""
""fullscreenenter"",""1"",""2390""
","
","
","""event"",""trial"",""time""
""fullscreenenter"",""1"",""2390""
","
","","","-1","","","11","19774","7136","e","elianto","#f73b6a7A"," ","-1","0","-10","[]","0","2","","","19774","29","2","3","lose","go","0"
"pit-trial","151","1075028","0.0-34.0","battery-v0.2","","""event"",""trial"",""time""
""fullscreenenter"",""1"",""2390""
","
","
","""event"",""trial"",""time""
""fullscreenenter"",""1"",""2390""
","
","","","1202.7999999523163","","","11","19774","7136","w","elianto","#f73b6a7A","-1"," ","0","-10","[2053]","1","2","","","19774","30","3","4","lose","no-go","0"
"pit-trial","152","1079034","0.0-35.0","battery-v0.2","","""event"",""trial"",""time""
""fullscreenenter"",""1"",""2390""
","
","
","""event"",""trial"",""time""
""fullscreenenter"",""1"",""2390""
","
","","","1150.3999999761581","","","11","19774","7136","d","elianto","#3366ff99","-1"," ","0","0","[2002.1999999284744]","1","2","","","19774","31","1","2","win","no-go","0"
"pit-trial","153","1083890","0.0-36.0","battery-v0.2","","""event"",""trial"",""time""
""fullscreenenter"",""1"",""2390""
","
","
","""event"",""trial"",""time""
""fullscreenenter"",""1"",""2390""
","
","","","-1","","","11","19774","7136","j","elianto","#f73b6a7A"," ","-1","0","-10","[3562.2999999523163]","1","2","","","19774","32","0","3","lose","go","0"
"pit-trial","154","1087809","0.0-37.0","battery-v0.2","","""event"",""trial"",""time""
""fullscreenenter"",""1"",""2390""
","
","
","""event"",""trial"",""time""
""fullscreenenter"",""1"",""2390""
","
","","","1065","","","11","19774","7136","e","elianto","#f73b6a7A"," "," ","1","-10","[1915.1999999284744,2744.100000023842,3129.7999999523163,3534,3857.1999999284744]","5","2","","","19774","33","2","3","lose","go","1"
"pit-trial","155","1092001","0.0-38.0","battery-v0.2","","""event"",""trial"",""time""
""fullscreenenter"",""1"",""2390""
","
","
","""event"",""trial"",""time""
""fullscreenenter"",""1"",""2390""
","
","","","1324.1000000238419","","","11","19774","7136","j","elianto","#f73b6a7A"," "," ","1","-10","[233.29999995231628,408.10000002384186,2175]","3","2","","","19774","34","0","3","lose","go","1"
"pit-trial","156","1095967","0.0-39.0","battery-v0.2","","""event"",""trial"",""time""
""fullscreenenter"",""1"",""2390""
","
","
","""event"",""trial"",""time""
""fullscreenenter"",""1"",""2390""
","
","","","1112.4000000953674","","","11","19774","7136","w","elianto","#f73b6a7A","-1"," ","0","-10","[1963.2000000476837]","1","2","","","19774","35","3","4","lose","no-go","0"
"pit-trial","157","1099887","0.0-40.0","battery-v0.2","","""event"",""trial"",""time""
""fullscreenenter"",""1"",""2390""
","
","
","""event"",""trial"",""time""
""fullscreenenter"",""1"",""2390""
","
","","","1065.6000000238419","","","11","19774","7136","d","elianto","#3366ff99","-1"," ","0","0","[1916.3000000715256]","1","2","","","19774","36","1","2","win","no-go","0"
"pit-trial","158","1103902","0.0-41.0","battery-v0.2","","""event"",""trial"",""time""
""fullscreenenter"",""1"",""2390""
","
","
","""event"",""trial"",""time""
""fullscreenenter"",""1"",""2390""
","
","","","1161.1000000238419","","","11","19774","7136","d","elianto","#3366ff99","-1"," ","0","0","[2011.5,2876.399999976158,3102.899999976158,3314.399999976158,3505.2999999523163,3689.899999976158,3880.600000023842]","7","2","","","19774","37","1","2","win","no-go","0"
"pit-trial","159","1108758","0.0-42.0","battery-v0.2","","""event"",""trial"",""time""
""fullscreenenter"",""1"",""2390""
","
","
","""event"",""trial"",""time""
""fullscreenenter"",""1"",""2390""
","
","","","-1","","","11","19774","7136","e","elianto","#f73b6a7A"," ","-1","0","0","[62.60000002384186]","1","2","","","19774","38","2","3","lose","go","1"
"pit-trial","160","1113615","0.0-43.0","battery-v0.2","","""event"",""trial"",""time""
""fullscreenenter"",""1"",""2390""
","
","
","""event"",""trial"",""time""
""fullscreenenter"",""1"",""2390""
","
","","","-1","","","11","19774","7136","j","elianto","#f73b6a7A"," ","-1","0","-10","[4118.5]","1","2","","","19774","39","0","3","lose","go","0"
"pit-trial","161","1118470","0.0-44.0","battery-v0.2","","""event"",""trial"",""time""
""fullscreenenter"",""1"",""2390""
","
","
","""event"",""trial"",""time""
""fullscreenenter"",""1"",""2390""
","
","","","-1","","","11","19774","7136","w","elianto","#f73b6a7A","-1","-1","1","0","[]","0","2","","","19774","40","3","4","lose","no-go","0"
"pit-trial","162","1122109","0.0-45.0","battery-v0.2","","""event"",""trial"",""time""
""fullscreenenter"",""1"",""2390""
","
","
","""event"",""trial"",""time""
""fullscreenenter"",""1"",""2390""
","
","","","782.7999999523163","","","11","19774","7136","d","elianto","#3366ff99","-1"," ","0","0","[1633.2999999523163]","1","2","","","19774","41","1","2","win","no-go","0"
"pit-trial","163","1126965","0.0-46.0","battery-v0.2","","""event"",""trial"",""time""
""fullscreenenter"",""1"",""2390""
","
","
","""event"",""trial"",""time""
""fullscreenenter"",""1"",""2390""
","
","","","-1","","","11","19774","7136","w","elianto","#f73b6a7A","-1","-1","1","-10","[]","0","2","","","19774","42","3","4","lose","no-go","1"
"pit-trial","164","1131819","0.0-47.0","battery-v0.2","","""event"",""trial"",""time""
""fullscreenenter"",""1"",""2390""
","
","
","""event"",""trial"",""time""
""fullscreenenter"",""1"",""2390""
","
","","","-1","","","11","19774","7136","j","elianto","#f73b6a7A"," ","-1","0","-10","[]","0","2","","","19774","43","0","3","lose","go","0"
"pit-trial","165","1136676","0.0-48.0","battery-v0.2","","""event"",""trial"",""time""
""fullscreenenter"",""1"",""2390""
","
","
","""event"",""trial"",""time""
""fullscreenenter"",""1"",""2390""
","
","","","-1","","","11","19774","7136","e","elianto","#f73b6a7A"," ","-1","0","-10","[]","0","2","","","19774","44","2","3","lose","go","0"
"pit-trial","166","1141531","0.0-49.0","battery-v0.2","","""event"",""trial"",""time""
""fullscreenenter"",""1"",""2390""
","
","
","""event"",""trial"",""time""
""fullscreenenter"",""1"",""2390""
","
","","","-1","","","11","19774","7136","j","elianto","#f73b6a7A"," ","-1","0","-10","[]","0","2","","","19774","45","0","3","lose","go","0"
"pit-trial","167","1146387","0.0-50.0","battery-v0.2","","""event"",""trial"",""time""
""fullscreenenter"",""1"",""2390""
","
","
","""event"",""trial"",""time""
""fullscreenenter"",""1"",""2390""
","
","","","-1","","","11","19774","7136","w","elianto","#f73b6a7A","-1","-1","1","0","[]","0","2","","","19774","46","3","4","lose","no-go","0"
"pit-trial","168","1150088","0.0-51.0","battery-v0.2","","""event"",""trial"",""time""
""fullscreenenter"",""1"",""2390""
","
","
","""event"",""trial"",""time""
""fullscreenenter"",""1"",""2390""
","
","","","845.5999999046326","","","11","19774","7136","d","elianto","#3366ff99","-1"," ","0","0","[1695.9000000953674]","1","2","","","19774","47","1","2","win","no-go","0"
"pit-trial","169","1154945","0.0-52.0","battery-v0.2","","""event"",""trial"",""time""
""fullscreenenter"",""1"",""2390""
","
","
","""event"",""trial"",""time""
""fullscreenenter"",""1"",""2390""
","
","","","-1","","","11","19774","7136","e","elianto","#f73b6a7A"," ","-1","0","-10","[]","0","2","","","19774","48","2","3","lose","go","0"
"pit-trial","170","1159800","0.0-53.0","battery-v0.2","","""event"",""trial"",""time""
""fullscreenenter"",""1"",""2390""
","
","
","""event"",""trial"",""time""
""fullscreenenter"",""1"",""2390""
","
","","","-1","","","11","19774","7136","j","elianto","#f73b6a7A"," ","-1","0","-10","[]","0","2","","","19774","49","0","3","lose","go","0"
"pit-trial","171","1163209","0.0-54.0","battery-v0.2","","""event"",""trial"",""time""
""fullscreenenter"",""1"",""2390""
","
","
","""event"",""trial"",""time""
""fullscreenenter"",""1"",""2390""
","
","","","555.3999999761581","","","11","19774","7136","d","elianto","#3366ff99","-1"," ","0","0","[1405.5]","1","2","","","19774","50","1","2","win","no-go","0"
"pit-trial","172","1168064","0.0-55.0","battery-v0.2","","""event"",""trial"",""time""
""fullscreenenter"",""1"",""2390""
","
","
","""event"",""trial"",""time""
""fullscreenenter"",""1"",""2390""
","
","","","-1","","","11","19774","7136","e","elianto","#f73b6a7A"," ","-1","0","-10","[]","0","2","","","19774","51","2","3","lose","go","0"
"pit-trial","173","1172920","0.0-56.0","battery-v0.2","","""event"",""trial"",""time""
""fullscreenenter"",""1"",""2390""
","
","
","""event"",""trial"",""time""
""fullscreenenter"",""1"",""2390""
","
","","","-1","","","11","19774","7136","w","elianto","#f73b6a7A","-1","-1","1","0","[]","0","2","","","19774","52","3","4","lose","no-go","0"
"pit-trial","174","1177777","0.0-57.0","battery-v0.2","","""event"",""trial"",""time""
""fullscreenenter"",""1"",""2390""
","
","
","""event"",""trial"",""time""
""fullscreenenter"",""1"",""2390""
","
","","","-1","","","11","19774","7136","d","elianto","#3366ff99","-1","-1","1","+10","[]","0","2","","","19774","53","1","2","win","no-go","0"
"pit-trial","175","1182631","0.0-58.0","battery-v0.2","","""event"",""trial"",""time""
""fullscreenenter"",""1"",""2390""
","
","
","""event"",""trial"",""time""
""fullscreenenter"",""1"",""2390""
","
","","","-1","","","11","19774","7136","w","elianto","#f73b6a7A","-1","-1","1","0","[]","0","2","","","19774","54","3","4","lose","no-go","0"
"pit-trial","176","1187488","0.0-59.0","battery-v0.2","","""event"",""trial"",""time""
""fullscreenenter"",""1"",""2390""
","
","
","""event"",""trial"",""time""
""fullscreenenter"",""1"",""2390""
","
","","","-1","","","11","19774","7136","e","elianto","#f73b6a7A"," ","-1","0","-10","[]","0","2","","","19774","55","2","3","lose","go","0"
"pit-trial","177","1192342","0.0-60.0","battery-v0.2","","""event"",""trial"",""time""
""fullscreenenter"",""1"",""2390""
","
","
","""event"",""trial"",""time""
""fullscreenenter"",""1"",""2390""
","
","","","-1","","","11","19774","7136","j","elianto","#f73b6a7A"," ","-1","0","0","[]","0","2","","","19774","56","0","3","lose","go","1"
"pit-trial","178","1197197","0.0-61.0","battery-v0.2","","""event"",""trial"",""time""
""fullscreenenter"",""1"",""2390""
","
","
","""event"",""trial"",""time""
""fullscreenenter"",""1"",""2390""
","
","","","-1","","","11","19774","7136","e","elianto","#f73b6a7A"," ","-1","0","-10","[359.5,4324.200000047684]","2","2","","","19774","57","2","3","lose","go","0"
"pit-trial","179","1202053","0.0-62.0","battery-v0.2","","""event"",""trial"",""time""
""fullscreenenter"",""1"",""2390""
","
","
","""event"",""trial"",""time""
""fullscreenenter"",""1"",""2390""
","
","","","-1","","","11","19774","7136","w","elianto","#f73b6a7A","-1","-1","1","0","[]","0","2","","","19774","58","3","4","lose","no-go","0"
"pit-trial","180","1206908","0.0-63.0","battery-v0.2","","""event"",""trial"",""time""
""fullscreenenter"",""1"",""2390""
","
","
","""event"",""trial"",""time""
""fullscreenenter"",""1"",""2390""
","
","","","-1","","","11","19774","7136","j","elianto","#f73b6a7A"," ","-1","0","-10","[]","0","2","","","19774","59","0","3","lose","go","0"
"pit-trial","181","1211434","0.0-64.0","battery-v0.2","","""event"",""trial"",""time""
""fullscreenenter"",""1"",""2390""
","
","
","""event"",""trial"",""time""
""fullscreenenter"",""1"",""2390""
","
","","","1671.9000000953674","","","11","19774","7136","s","elianto","#3366ff99"," "," ","1","+10","[2522.100000023842]","1","2","","","19774","60","4","1","win","go","0"
"pit-trial","182","1216292","0.0-65.0","battery-v0.2","","""event"",""trial"",""time""
""fullscreenenter"",""1"",""2390""
","
","
","""event"",""trial"",""time""
""fullscreenenter"",""1"",""2390""
","
","","","-1","","","11","19774","7136","d","elianto","#3366ff99","-1","-1","1","0","[]","0","2","","","19774","61","1","2","win","no-go","1"
"pit-trial","183","1221148","0.0-66.0","battery-v0.2","","""event"",""trial"",""time""
""fullscreenenter"",""1"",""2390""
","
","
","""event"",""trial"",""time""
""fullscreenenter"",""1"",""2390""
","
","","","-1","","","11","19774","7136","e","elianto","#f73b6a7A"," ","-1","0","-10","[]","0","2","","","19774","62","2","3","lose","go","0"
"pit-trial","184","1226005","0.0-67.0","battery-v0.2","","""event"",""trial"",""time""
""fullscreenenter"",""1"",""2390""
","
","
","""event"",""trial"",""time""
""fullscreenenter"",""1"",""2390""
","
","","","-1","","","11","19774","7136","w","elianto","#f73b6a7A","-1","-1","1","0","[]","0","2","","","19774","63","3","4","lose","no-go","0"
"pit-trial","185","1230303","0.0-68.0","battery-v0.2","","""event"",""trial"",""time""
""fullscreenenter"",""1"",""2390""
","
","
","""event"",""trial"",""time""
""fullscreenenter"",""1"",""2390""
","
","","","1442.1000000238419","","","11","19774","7136","s","elianto","#3366ff99"," "," ","1","0","[2293.4000000953674,3518.7000000476837,4089.7000000476837]","3","2","","","19774","64","4","1","win","go","1"
"pit-trial","186","1234641","0.0-69.0","battery-v0.2","","""event"",""trial"",""time""
""fullscreenenter"",""1"",""2390""
","
","
","""event"",""trial"",""time""
""fullscreenenter"",""1"",""2390""
","
","","","1482.5","","","11","19774","7136","p","elianto","#3366ff99","-1"," ","0","0","[189.29999995231628,2334.899999976158]","2","2","","","19774","65","5","2","win","no-go","0"
"pit-trial","187","1239494","0.0-70.0","battery-v0.2","","""event"",""trial"",""time""
""fullscreenenter"",""1"",""2390""
","
","
","""event"",""trial"",""time""
""fullscreenenter"",""1"",""2390""
","
","","","-1","","","11","19774","7136","w","elianto","#f73b6a7A","-1","-1","1","0","[]","0","2","","","19774","66","3","4","lose","no-go","0"
"pit-trial","188","1244351","0.0-71.0","battery-v0.2","","""event"",""trial"",""time""
""fullscreenenter"",""1"",""2390""
","
","
","""event"",""trial"",""time""
""fullscreenenter"",""1"",""2390""
","
","","","-1","","","11","19774","7136","d","elianto","#3366ff99","-1","-1","1","+10","[]","0","2","","","19774","67","1","2","win","no-go","0"
"pit-trial","189","1248472","0.0-72.0","battery-v0.2","","""event"",""trial"",""time""
""fullscreenenter"",""1"",""2390""
","
","
","""event"",""trial"",""time""
""fullscreenenter"",""1"",""2390""
","
","","","1267.6000000238419","","","11","19774","7136","s","elianto","#3366ff99"," "," ","1","+10","[2117.8000000715256]","1","2","","","19774","68","4","1","win","go","0"
"pit-trial","190","1253328","0.0-73.0","battery-v0.2","","""event"",""trial"",""time""
""fullscreenenter"",""1"",""2390""
","
","
","""event"",""trial"",""time""
""fullscreenenter"",""1"",""2390""
","
","","","-1","","","11","19774","7136","e","elianto","#f73b6a7A"," ","-1","0","-10","[]","0","2","","","19774","69","2","3","lose","go","0"
"pit-trial","191","1257708","0.0-74.0","battery-v0.2","","""event"",""trial"",""time""
""fullscreenenter"",""1"",""2390""
","
","
","""event"",""trial"",""time""
""fullscreenenter"",""1"",""2390""
","
","","","1523.5","","","11","19774","7136","s","elianto","#3366ff99"," "," ","1","+10","[2374.6999999284744]","1","2","","","19774","70","4","1","win","go","0"
"pit-trial","192","1261738","0.0-75.0","battery-v0.2","","""event"",""trial"",""time""
""fullscreenenter"",""1"",""2390""
","
","
","""event"",""trial"",""time""
""fullscreenenter"",""1"",""2390""
","
","","","1174.6000000238419","","","11","19774","7136","p","elianto","#3366ff99","-1"," ","0","+10","[2025.5]","1","2","","","19774","71","5","2","win","no-go","1"
"pit-trial","193","1266594","0.0-76.0","battery-v0.2","","""event"",""trial"",""time""
""fullscreenenter"",""1"",""2390""
","
","
","""event"",""trial"",""time""
""fullscreenenter"",""1"",""2390""
","
","","","-1","","","11","19774","7136","d","elianto","#3366ff99","-1","-1","1","+10","[]","0","2","","","19774","72","1","2","win","no-go","0"
"pit-trial","194","1270955","0.0-77.0","battery-v0.2","","""event"",""trial"",""time""
""fullscreenenter"",""1"",""2390""
","
","
","""event"",""trial"",""time""
""fullscreenenter"",""1"",""2390""
","
","","","1506.8999999761581","","","11","19774","7136","p","elianto","#3366ff99","-1"," ","0","0","[2357.7000000476837]","1","2","","","19774","73","5","2","win","no-go","0"
"pit-trial","195","1275812","0.0-78.0","battery-v0.2","","""event"",""trial"",""time""
""fullscreenenter"",""1"",""2390""
","
","
","""event"",""trial"",""time""
""fullscreenenter"",""1"",""2390""
","
","","","-1","","","11","19774","7136","d","elianto","#3366ff99","-1","-1","1","+10","[]","0","2","","","19774","74","1","2","win","no-go","0"
"pit-trial","196","1280669","0.0-79.0","battery-v0.2","","""event"",""trial"",""time""
""fullscreenenter"",""1"",""2390""
","
","
","""event"",""trial"",""time""
""fullscreenenter"",""1"",""2390""
","
","","","-1","","","11","19774","7136","w","elianto","#f73b6a7A","-1","-1","1","0","[]","0","2","","","19774","75","3","4","lose","no-go","0"
"pit-trial","197","1284618","0.0-80.0","battery-v0.2","","""event"",""trial"",""time""
""fullscreenenter"",""1"",""2390""
","
","
","""event"",""trial"",""time""
""fullscreenenter"",""1"",""2390""
","
","","","1093.6999999284744","","","11","19774","7136","s","elianto","#3366ff99"," "," ","1","0","[1945.3999999761581]","1","2","","","19774","76","4","1","win","go","1"
"pit-trial","198","1288634","0.0-81.0","battery-v0.2","","""event"",""trial"",""time""
""fullscreenenter"",""1"",""2390""
","
","
","""event"",""trial"",""time""
""fullscreenenter"",""1"",""2390""
","
","","","1156.9000000953674","","","11","19774","7136","p","elianto","#3366ff99","-1"," ","0","0","[2008.6000000238419]","1","2","","","19774","77","5","2","win","no-go","0"
"pit-trial","199","1292373","0.0-82.0","battery-v0.2","","""event"",""trial"",""time""
""fullscreenenter"",""1"",""2390""
","
","
","""event"",""trial"",""time""
""fullscreenenter"",""1"",""2390""
","
","","","881.6999999284744","","","11","19774","7136","w","elianto","#f73b6a7A","-1"," ","0","-10","[489.89999997615814,1734.1000000238419]","2","2","","","19774","78","3","4","lose","no-go","0"
"pit-trial","200","1296632","0.0-83.0","battery-v0.2","","""event"",""trial"",""time""
""fullscreenenter"",""1"",""2390""
","
","
","""event"",""trial"",""time""
""fullscreenenter"",""1"",""2390""
","
","","","1403.4000000953674","","","11","19774","7136","s","elianto","#3366ff99"," "," ","1","+10","[2254.8000000715256]","1","2","","","19774","79","4","1","win","go","0"
"pit-trial","201","1300692","0.0-84.0","battery-v0.2","","""event"",""trial"",""time""
""fullscreenenter"",""1"",""2390""
","
","
","""event"",""trial"",""time""
""fullscreenenter"",""1"",""2390""
","
","","","1201.1999999284744","","","11","19774","7136","s","elianto","#3366ff99"," "," ","1","+10","[2054]","1","2","","","19774","80","4","1","win","go","0"
"pit-trial","202","1304366","0.0-85.0","battery-v0.2","","""event"",""trial"",""time""
""fullscreenenter"",""1"",""2390""
","
","
","""event"",""trial"",""time""
""fullscreenenter"",""1"",""2390""
","
","","","818.8999999761581","","","11","19774","7136","s","elianto","#3366ff99"," "," ","1","+10","[1669.5]","1","2","","","19774","81","4","1","win","go","0"
"pit-trial","203","1309225","0.0-86.0","battery-v0.2","","""event"",""trial"",""time""
""fullscreenenter"",""1"",""2390""
","
","
","""event"",""trial"",""time""
""fullscreenenter"",""1"",""2390""
","
","","","-1","","","11","19774","7136","w","elianto","#f73b6a7A","-1","-1","1","-10","[]","0","2","","","19774","82","3","4","lose","no-go","1"
"pit-trial","204","1313210","0.0-87.0","battery-v0.2","","""event"",""trial"",""time""
""fullscreenenter"",""1"",""2390""
","
","
","""event"",""trial"",""time""
""fullscreenenter"",""1"",""2390""
","
","","","1126","","","11","19774","7136","p","elianto","#3366ff99","-1"," ","0","0","[1980.8999999761581]","1","2","","","19774","83","5","2","win","no-go","0"
"pit-trial","205","1318071","0.0-88.0","battery-v0.2","","""event"",""trial"",""time""
""fullscreenenter"",""1"",""2390""
","
","
","""event"",""trial"",""time""
""fullscreenenter"",""1"",""2390""
","
","","","-1","","","11","19774","7136","a","elianto","#f73b6a7A","-1","-1","1","0","[]","0","2","","","19774","84","7","4","lose","no-go","0"
"pit-trial","206","1322927","0.0-89.0","battery-v0.2","","""event"",""trial"",""time""
""fullscreenenter"",""1"",""2390""
","
","
","""event"",""trial"",""time""
""fullscreenenter"",""1"",""2390""
","
","","","-1","","","11","19774","7136","a","elianto","#f73b6a7A","-1","-1","1","0","[]","0","2","","","19774","85","7","4","lose","no-go","0"
"pit-trial","207","1327537","0.0-90.0","battery-v0.2","","""event"",""trial"",""time""
""fullscreenenter"",""1"",""2390""
","
","
","""event"",""trial"",""time""
""fullscreenenter"",""1"",""2390""
","
","","","1755.7000000476837","","","11","19774","7136","g","elianto","#f73b6a7A"," "," ","1","0","[2606.2000000476837]","1","2","","","19774","86","6","3","lose","go","0"
"pit-trial","208","1331556","0.0-91.0","battery-v0.2","","""event"",""trial"",""time""
""fullscreenenter"",""1"",""2390""
","
","
","""event"",""trial"",""time""
""fullscreenenter"",""1"",""2390""
","
","","","1162.8999999761581","","","11","19774","7136","s","elianto","#3366ff99"," "," ","1","+10","[2013.5]","1","2","","","19774","87","4","1","win","go","0"
"pit-trial","209","1335378","0.0-92.0","battery-v0.2","","""event"",""trial"",""time""
""fullscreenenter"",""1"",""2390""
","
","
","""event"",""trial"",""time""
""fullscreenenter"",""1"",""2390""
","
","","","969.2999999523163","","","11","19774","7136","p","elianto","#3366ff99","-1"," ","0","0","[1820.3999999761581]","1","2","","","19774","88","5","2","win","no-go","0"
"pit-trial","210","1339563","0.0-93.0","battery-v0.2","","""event"",""trial"",""time""
""fullscreenenter"",""1"",""2390""
","
","
","""event"",""trial"",""time""
""fullscreenenter"",""1"",""2390""
","
","","","1330.4000000953674","","","11","19774","7136","g","elianto","#f73b6a7A"," "," ","1","0","[2181.4000000953674]","1","2","","","19774","89","6","3","lose","go","0"
"pit-trial","211","1343501","0.0-94.0","battery-v0.2","","""event"",""trial"",""time""
""fullscreenenter"",""1"",""2390""
","
","
","""event"",""trial"",""time""
""fullscreenenter"",""1"",""2390""
","
","","","1083.6000000238419","","","11","19774","7136","s","elianto","#3366ff99"," "," ","1","+10","[1934]","1","2","","","19774","90","4","1","win","go","0"
"pit-trial","212","1348356","0.0-95.0","battery-v0.2","","""event"",""trial"",""time""
""fullscreenenter"",""1"",""2390""
","
","
","""event"",""trial"",""time""
""fullscreenenter"",""1"",""2390""
","
","","","-1","","","11","19774","7136","a","elianto","#f73b6a7A","-1","-1","1","0","[]","0","2","","","19774","91","7","4","lose","no-go","0"
"pit-trial","213","1352206","0.0-96.0","battery-v0.2","","""event"",""trial"",""time""
""fullscreenenter"",""1"",""2390""
","
","
","""event"",""trial"",""time""
""fullscreenenter"",""1"",""2390""
","
","","","996.1000000238419","","","11","19774","7136","p","elianto","#3366ff99","-1"," ","0","0","[1846.6999999284744]","1","2","","","19774","92","5","2","win","no-go","0"
"pit-trial","214","1356068","0.0-97.0","battery-v0.2","","""event"",""trial"",""time""
""fullscreenenter"",""1"",""2390""
","
","
","""event"",""trial"",""time""
""fullscreenenter"",""1"",""2390""
","
","","","1007.9000000953674","","","11","19774","7136","l","elianto","#3366ff99"," "," ","1","+10","[1858]","1","2","","","19774","93","8","1","win","go","0"
"pit-trial","215","1360923","0.0-98.0","battery-v0.2","","""event"",""trial"",""time""
""fullscreenenter"",""1"",""2390""
","
","
","""event"",""trial"",""time""
""fullscreenenter"",""1"",""2390""
","
","","","-1","","","11","19774","7136","a","elianto","#f73b6a7A","-1","-1","1","-10","[]","0","2","","","19774","94","7","4","lose","no-go","1"
"pit-trial","216","1364810","0.0-99.0","battery-v0.2","","""event"",""trial"",""time""
""fullscreenenter"",""1"",""2390""
","
","
","""event"",""trial"",""time""
""fullscreenenter"",""1"",""2390""
","
","","","1031.3000000715256","","","11","19774","7136","g","elianto","#f73b6a7A"," "," ","1","-10","[1883.6000000238419]","1","2","","","19774","95","6","3","lose","go","1"
"pit-trial","217","1368644","0.0-100.0","battery-v0.2","","""event"",""trial"",""time""
""fullscreenenter"",""1"",""2390""
","
","
","""event"",""trial"",""time""
""fullscreenenter"",""1"",""2390""
","
","","","978.1000000238419","","","11","19774","7136","p","elianto","#3366ff99","-1"," ","0","+10","[1828.1000000238419]","1","2","","","19774","96","5","2","win","no-go","1"
"pit-trial","218","1372368","0.0-101.0","battery-v0.2","","""event"",""trial"",""time""
""fullscreenenter"",""1"",""2390""
","
","
","""event"",""trial"",""time""
""fullscreenenter"",""1"",""2390""
","
","","","868.7999999523163","","","11","19774","7136","p","elianto","#3366ff99","-1"," ","0","+10","[1718.8999999761581]","1","2","","","19774","97","5","2","win","no-go","1"
"pit-trial","219","1376441","0.0-102.0","battery-v0.2","","""event"",""trial"",""time""
""fullscreenenter"",""1"",""2390""
","
","
","""event"",""trial"",""time""
""fullscreenenter"",""1"",""2390""
","
","","","1217.3999999761581","","","11","19774","7136","g","elianto","#f73b6a7A"," "," ","1","0","[2069]","1","2","","","19774","98","6","3","lose","go","0"
"pit-trial","220","1380331","0.0-103.0","battery-v0.2","","""event"",""trial"",""time""
""fullscreenenter"",""1"",""2390""
","
","
","""event"",""trial"",""time""
""fullscreenenter"",""1"",""2390""
","
","","","1035.0999999046326","","","11","19774","7136","l","elianto","#3366ff99"," "," ","1","+10","[2.799999952316284,1887.2999999523163]","2","2","","","19774","99","8","1","win","go","0"
"pit-trial","221","1385189","0.0-104.0","battery-v0.2","","""event"",""trial"",""time""
""fullscreenenter"",""1"",""2390""
","
","
","""event"",""trial"",""time""
""fullscreenenter"",""1"",""2390""
","
","","","-1","","","11","19774","7136","a","elianto","#f73b6a7A","-1","-1","1","0","[]","0","2","","","19774","100","7","4","lose","no-go","0"
"pit-trial","222","1390045","0.0-105.0","battery-v0.2","","""event"",""trial"",""time""
""fullscreenenter"",""1"",""2390""
","
","
","""event"",""trial"",""time""
""fullscreenenter"",""1"",""2390""
","
","","","-1","","","11","19774","7136","a","elianto","#f73b6a7A","-1","-1","1","-10","[]","0","2","","","19774","101","7","4","lose","no-go","1"
"pit-trial","223","1394128","0.0-106.0","battery-v0.2","","""event"",""trial"",""time""
""fullscreenenter"",""1"",""2390""
","
","
","""event"",""trial"",""time""
""fullscreenenter"",""1"",""2390""
","
","","","1227.5","","","11","19774","7136","u","elianto","#3366ff99"," "," ","1","+10","[2078.399999976158,3168.3000000715256,3460.600000023842,3551.899999976158,3740.7000000476837]","5","2","","","19774","102","9","1","win","go","0"
"pit-trial","224","1398037","0.0-107.0","battery-v0.2","","""event"",""trial"",""time""
""fullscreenenter"",""1"",""2390""
","
","
","""event"",""trial"",""time""
""fullscreenenter"",""1"",""2390""
","
","","","1054.3000000715256","","","11","19774","7136","p","elianto","#3366ff99","-1"," ","0","0","[1906.3000000715256]","1","2","","","19774","103","5","2","win","no-go","0"
"pit-trial","225","1402030","0.0-108.0","battery-v0.2","","""event"",""trial"",""time""
""fullscreenenter"",""1"",""2390""
","
","
","""event"",""trial"",""time""
""fullscreenenter"",""1"",""2390""
","
","","","1138.8000000715256","","","11","19774","7136","l","elianto","#3366ff99"," "," ","1","+10","[1989.7000000476837]","1","2","","","19774","104","8","1","win","go","0"
"pit-trial","226","1406361","0.0-109.0","battery-v0.2","","""event"",""trial"",""time""
""fullscreenenter"",""1"",""2390""
","
","
","""event"",""trial"",""time""
""fullscreenenter"",""1"",""2390""
","
","","","1474.1000000238419","","","11","19774","7136","s","elianto","#3366ff99"," "," ","1","+10","[2325.100000023842]","1","2","","","19774","105","4","1","win","go","0"
"pit-trial","227","1410817","0.0-110.0","battery-v0.2","","""event"",""trial"",""time""
""fullscreenenter"",""1"",""2390""
","
","
","""event"",""trial"",""time""
""fullscreenenter"",""1"",""2390""
","
","","","1601.1999999284744","","","11","19774","7136","g","elianto","#f73b6a7A"," "," ","1","-10","[2451.5]","1","2","","","19774","106","6","3","lose","go","1"
"pit-trial","228","1414808","0.0-111.0","battery-v0.2","","""event"",""trial"",""time""
""fullscreenenter"",""1"",""2390""
","
","
","""event"",""trial"",""time""
""fullscreenenter"",""1"",""2390""
","
","","","1135.8999999761581","","","11","19774","7136","u","elianto","#3366ff99"," "," ","1","+10","[1987.2999999523163]","1","2","","","19774","107","9","1","win","go","0"
"pit-trial","229","1418152","0.0-112.0","battery-v0.2","","""event"",""trial"",""time""
""fullscreenenter"",""1"",""2390""
","
","
","""event"",""trial"",""time""
""fullscreenenter"",""1"",""2390""
","
","","","487.89999997615814","","","11","19774","7136","l","elianto","#3366ff99"," "," ","1","+10","[91.5,1339.5]","2","2","","","19774","108","8","1","win","go","0"
"pit-trial","230","1421717","0.0-113.0","battery-v0.2","","""event"",""trial"",""time""
""fullscreenenter"",""1"",""2390""
","
","
","""event"",""trial"",""time""
""fullscreenenter"",""1"",""2390""
","
","","","703.5","","","11","19774","7136","u","elianto","#3366ff99"," "," ","1","+10","[27.100000023841858,1560.5]","2","2","","","19774","109","9","1","win","go","0"
"pit-trial","231","1425963","0.0-114.0","battery-v0.2","","""event"",""trial"",""time""
""fullscreenenter"",""1"",""2390""
","
","
","""event"",""trial"",""time""
""fullscreenenter"",""1"",""2390""
","
","","","1391.2000000476837","","","11","19774","7136","p","elianto","#3366ff99","-1"," ","0","+10","[847.0999999046326,2241.899999976158,3602.5999999046326]","3","2","","","19774","110","5","2","win","no-go","1"
"pit-trial","232","1430129","0.0-115.0","battery-v0.2","","""event"",""trial"",""time""
""fullscreenenter"",""1"",""2390""
","
","
","""event"",""trial"",""time""
""fullscreenenter"",""1"",""2390""
","
","","","1313.3999999761581","","","11","19774","7136","g","elianto","#f73b6a7A"," "," ","1","0","[2163.7000000476837,4153.100000023842]","2","2","","","19774","111","6","3","lose","go","0"
"pit-trial","233","1433910","0.0-116.0","battery-v0.2","","""event"",""trial"",""time""
""fullscreenenter"",""1"",""2390""
","
","
","""event"",""trial"",""time""
""fullscreenenter"",""1"",""2390""
","
","","","923.6000000238419","","","11","19774","7136","l","elianto","#3366ff99"," "," ","1","+10","[1776.6000000238419]","1","2","","","19774","112","8","1","win","go","0"
"pit-trial","234","1437654","0.0-117.0","battery-v0.2","","""event"",""trial"",""time""
""fullscreenenter"",""1"",""2390""
","
","
","""event"",""trial"",""time""
""fullscreenenter"",""1"",""2390""
","
","","","889.2999999523163","","","11","19774","7136","p","elianto","#3366ff99","-1"," ","0","0","[1739.6999999284744]","1","2","","","19774","113","5","2","win","no-go","0"
"pit-trial","235","1441233","0.0-118.0","battery-v0.2","","""event"",""trial"",""time""
""fullscreenenter"",""1"",""2390""
","
","
","""event"",""trial"",""time""
""fullscreenenter"",""1"",""2390""
","
","","","723.5","","","11","19774","7136","l","elianto","#3366ff99"," "," ","1","+10","[354,1574.3000000715256,3166.3000000715256]","3","2","","","19774","114","8","1","win","go","0"
"pit-trial","236","1445887","0.0-119.0","battery-v0.2","","""event"",""trial"",""time""
""fullscreenenter"",""1"",""2390""
","
","
","""event"",""trial"",""time""
""fullscreenenter"",""1"",""2390""
","
","","","1800.5","","","11","19774","7136","g","elianto","#f73b6a7A"," "," ","1","0","[2651.100000023842,3968.2999999523163]","2","2","","","19774","115","6","3","lose","go","0"
"pit-trial","237","1449459","0.0-120.0","battery-v0.2","","""event"",""trial"",""time""
""fullscreenenter"",""1"",""2390""
","
","
","""event"",""trial"",""time""
""fullscreenenter"",""1"",""2390""
","
","","","717.5","","","11","19774","7136","u","elianto","#3366ff99"," "," ","1","+10","[1568.1999999284744]","1","2","","","19774","116","9","1","win","go","0"
"pit-trial","238","1453023","0.0-121.0","battery-v0.2","","""event"",""trial"",""time""
""fullscreenenter"",""1"",""2390""
","
","
","""event"",""trial"",""time""
""fullscreenenter"",""1"",""2390""
","
","","","709.3999999761581","","","11","19774","7136","u","elianto","#3366ff99"," "," ","1","+10","[1560.1000000238419]","1","2","","","19774","117","9","1","win","go","0"
"pit-trial","239","1456187","0.0-122.0","battery-v0.2","","""event"",""trial"",""time""
""fullscreenenter"",""1"",""2390""
","
","
","""event"",""trial"",""time""
""fullscreenenter"",""1"",""2390""
","
","","","308.5","","","11","19774","7136","p","elianto","#3366ff99","-1"," ","0","0","[694.6999999284744,1159.2999999523163]","2","2","","","19774","118","5","2","win","no-go","0"
"pit-trial","240","1460238","0.0-123.0","battery-v0.2","","""event"",""trial"",""time""
""fullscreenenter"",""1"",""2390""
","
","
","""event"",""trial"",""time""
""fullscreenenter"",""1"",""2390""
","
","","","1197.1000000238419","","","11","19774","7136","g","elianto","#f73b6a7A"," "," ","1","0","[2048.2999999523163]","1","2","","","19774","119","6","3","lose","go","0"
"pit-trial","241","1464038","0.0-124.0","battery-v0.2","","""event"",""trial"",""time""
""fullscreenenter"",""1"",""2390""
","
","
","""event"",""trial"",""time""
""fullscreenenter"",""1"",""2390""
","
","","","946.0999999046326","","","11","19774","7136","l","elianto","#3366ff99"," "," ","1","+10","[1796.8000000715256,3366.399999976158]","2","2","","","19774","120","8","1","win","go","0"
"pit-trial","242","1466902","0.0-125.0","battery-v0.2","","""event"",""trial"",""time""
""fullscreenenter"",""1"",""2390""
","
","
","""event"",""trial"",""time""
""fullscreenenter"",""1"",""2390""
","
","","","8.399999976158142","","","11","19774","7136","a","elianto","#f73b6a7A","-1"," ","0","0","[860.5]","1","2","","","19774","121","7","4","lose","no-go","1"
"pit-trial","243","1470821","0.0-126.0","battery-v0.2","","""event"",""trial"",""time""
""fullscreenenter"",""1"",""2390""
","
","
","""event"",""trial"",""time""
""fullscreenenter"",""1"",""2390""
","
","","","1062.2999999523163","","","11","19774","7136","g","elianto","#f73b6a7A"," "," ","1","0","[1914.7999999523163]","1","2","","","19774","122","6","3","lose","go","0"
"pit-trial","244","1474513","0.0-127.0","battery-v0.2","","""event"",""trial"",""time""
""fullscreenenter"",""1"",""2390""
","
","
","""event"",""trial"",""time""
""fullscreenenter"",""1"",""2390""
","
","","","837.3999999761581","","","11","19774","7136","l","elianto","#3366ff99"," "," ","1","0","[1688.2000000476837]","1","2","","","19774","123","8","1","win","go","1"
"pit-trial","245","1478158","0.0-128.0","battery-v0.2","","""event"",""trial"",""time""
""fullscreenenter"",""1"",""2390""
","
","
","""event"",""trial"",""time""
""fullscreenenter"",""1"",""2390""
","
","","","791.2000000476837","","","11","19774","7136","u","elianto","#3366ff99"," "," ","1","+10","[1641.5]","1","2","","","19774","124","9","1","win","go","0"
"pit-trial","246","1483014","0.0-129.0","battery-v0.2","","""event"",""trial"",""time""
""fullscreenenter"",""1"",""2390""
","
","
","""event"",""trial"",""time""
""fullscreenenter"",""1"",""2390""
","
","","","-1","","","11","19774","7136","a","elianto","#f73b6a7A","-1","-1","1","-10","[]","0","2","","","19774","125","7","4","lose","no-go","1"
"pit-trial","247","1487643","0.0-130.0","battery-v0.2","","""event"",""trial"",""time""
""fullscreenenter"",""1"",""2390""
","
","
","""event"",""trial"",""time""
""fullscreenenter"",""1"",""2390""
","
","","","1774.6000000238419","","","11","19774","7136","l","elianto","#3366ff99"," "," ","1","+10","[2625.600000023842]","1","2","","","19774","126","8","1","win","go","0"
"pit-trial","248","1492500","0.0-131.0","battery-v0.2","","""event"",""trial"",""time""
""fullscreenenter"",""1"",""2390""
","
","
","""event"",""trial"",""time""
""fullscreenenter"",""1"",""2390""
","
","","","-1","","","11","19774","7136","g","elianto","#f73b6a7A"," ","-1","0","0","[3109.399999976158]","1","2","","","19774","127","6","3","lose","go","1"
"pit-trial","249","1497145","0.0-132.0","battery-v0.2","","""event"",""trial"",""time""
""fullscreenenter"",""1"",""2390""
","
","
","""event"",""trial"",""time""
""fullscreenenter"",""1"",""2390""
","
","","","1786.8000000715256","","","11","19774","7136","u","elianto","#3366ff99"," "," ","1","0","[2640.100000023842]","1","2","","","19774","128","9","1","win","go","1"
"pit-trial","250","1501998","0.0-133.0","battery-v0.2","","""event"",""trial"",""time""
""fullscreenenter"",""1"",""2390""
","
","
","""event"",""trial"",""time""
""fullscreenenter"",""1"",""2390""
","
","","","-1","","","11","19774","7136","a","elianto","#f73b6a7A","-1","-1","1","-10","[]","0","2","","","19774","129","7","4","lose","no-go","1"
"pit-trial","251","1506853","0.0-134.0","battery-v0.2","","""event"",""trial"",""time""
""fullscreenenter"",""1"",""2390""
","
","
","""event"",""trial"",""time""
""fullscreenenter"",""1"",""2390""
","
","","","-1","","","11","19774","7136","u","elianto","#3366ff99"," ","-1","0","0","[3036.899999976158]","1","2","","","19774","130","9","1","win","go","0"
"pit-trial","252","1510455","0.0-135.0","battery-v0.2","","""event"",""trial"",""time""
""fullscreenenter"",""1"",""2390""
","
","
","""event"",""trial"",""time""
""fullscreenenter"",""1"",""2390""
","
","","","748.2999999523163","","","11","19774","7136","l","elianto","#3366ff99"," "," ","1","+10","[1599.5]","1","2","","","19774","131","8","1","win","go","0"
"pit-trial","253","1514218","0.0-136.0","battery-v0.2","","""event"",""trial"",""time""
""fullscreenenter"",""1"",""2390""
","
","
","""event"",""trial"",""time""
""fullscreenenter"",""1"",""2390""
","
","","","910","","","11","19774","7136","g","elianto","#f73b6a7A"," "," ","1","0","[1760.1000000238419]","1","2","","","19774","132","6","3","lose","go","0"
"pit-trial","254","1518012","0.0-137.0","battery-v0.2","","""event"",""trial"",""time""
""fullscreenenter"",""1"",""2390""
","
","
","""event"",""trial"",""time""
""fullscreenenter"",""1"",""2390""
","
","","","937.1000000238419","","","11","19774","7136","l","elianto","#3366ff99"," "," ","1","+10","[1787.8000000715256,3018.8000000715256]","2","2","","","19774","133","8","1","win","go","0"
"pit-trial","255","1522867","0.0-138.0","battery-v0.2","","""event"",""trial"",""time""
""fullscreenenter"",""1"",""2390""
","
","
","""event"",""trial"",""time""
""fullscreenenter"",""1"",""2390""
","
","","","-1","","","11","19774","7136","a","elianto","#f73b6a7A","-1","-1","1","0","[]","0","2","","","19774","134","7","4","lose","no-go","0"
"pit-trial","256","1527067","0.0-139.0","battery-v0.2","","""event"",""trial"",""time""
""fullscreenenter"",""1"",""2390""
","
","
","""event"",""trial"",""time""
""fullscreenenter"",""1"",""2390""
","
","","","1344.5","","","11","19774","7136","u","elianto","#3366ff99"," "," ","1","+10","[2196.100000023842]","1","2","","","19774","135","9","1","win","go","0"
"pit-trial","257","1530868","0.0-140.0","battery-v0.2","","""event"",""trial"",""time""
""fullscreenenter"",""1"",""2390""
","
","
","""event"",""trial"",""time""
""fullscreenenter"",""1"",""2390""
","
","","","945.2999999523163","","","11","19774","7136","g","elianto","#f73b6a7A"," "," ","1","0","[1796.5]","1","2","","","19774","136","6","3","lose","go","0"
"pit-trial","258","1534786","0.0-141.0","battery-v0.2","","""event"",""trial"",""time""
""fullscreenenter"",""1"",""2390""
","
","
","""event"",""trial"",""time""
""fullscreenenter"",""1"",""2390""
","
","","","1062","","","11","19774","7136","g","elianto","#f73b6a7A"," "," ","1","-10","[1913.5]","1","2","","","19774","137","6","3","lose","go","1"
"pit-trial","259","1538429","0.0-142.0","battery-v0.2","","""event"",""trial"",""time""
""fullscreenenter"",""1"",""2390""
","
","
","""event"",""trial"",""time""
""fullscreenenter"",""1"",""2390""
","
","","","784.3999999761581","","","11","19774","7136","u","elianto","#3366ff99"," "," ","1","+10","[1638.5,2679.8000000715256,3600.8000000715256]","3","2","","","19774","138","9","1","win","go","0"
"pit-trial","260","1543286","0.0-143.0","battery-v0.2","","""event"",""trial"",""time""
""fullscreenenter"",""1"",""2390""
","
","
","""event"",""trial"",""time""
""fullscreenenter"",""1"",""2390""
","
","","","-1","","","11","19774","7136","a","elianto","#f73b6a7A","-1","-1","1","0","[722.1999999284744]","1","2","","","19774","139","7","4","lose","no-go","0"
"pit-trial","261","1547135","0.0-144.0","battery-v0.2","","""event"",""trial"",""time""
""fullscreenenter"",""1"",""2390""
","
","
","""event"",""trial"",""time""
""fullscreenenter"",""1"",""2390""
","
","","","991.6000000238419","","","11","19774","7136","l","elianto","#3366ff99"," "," ","1","+10","[594.1000000238419,1843.2999999523163,2966.100000023842]","3","2","","","19774","140","8","1","win","go","0"
"pit-instructions","262","1572739","0.0-145.0","battery-v0.2","","""event"",""trial"",""time""
""fullscreenenter"",""1"",""2390""
","
","
","""event"",""trial"",""time""
""fullscreenenter"",""1"",""2390""
","
","","[{""page_index"":0,""viewing_time"":13874.800000071526},{""page_index"":1,""viewing_time"":11725.099999904633}]","25601.200000047684","","","","","","","","","","","","","","","","","","","","","","","",""
"pit-trial","263","1577148","0.0-146.0","battery-v0.2","","""event"",""trial"",""time""
""fullscreenenter"",""1"",""2390""
","
","
","""event"",""trial"",""time""
""fullscreenenter"",""1"",""2390""
","
