"trial_type","trial_index","time_elapsed","internal_node_id","task_version","subject_id","interactions","blur_events","focus_events","fullscreenenter_events","fullscreenexit_events","success","view_history","rt","responses","num_errors","age","subject","participantId","rune","rune_set","hex","correct","choice","accuracy","outcome","keys","total_keys","block","practice","value","sub","trial","stimulus","robot","valence","action","sham"
"pavlovia","0","12","0.0-0.0","battery-v0.2","","""event"",""trial"",""time""
""fullscreenenter"",""1"",""3598""
","
","
","""event"",""trial"",""time""
""fullscreenenter"",""1"",""3598""
","
","","","","","","","","","","","","","","","","","","","","","","","","","","",""
"fullscreen","1","4512","0.0-1.0","battery-v0.2","","""event"",""trial"",""time""
""fullscreenenter"",""1"",""3598""
","
","
","""event"",""trial"",""time""
""fullscreenenter"",""1"",""3598""
","
","true","","","","","","","","","","","","","","","","","","","","","","","","","",""
"pit-instructions","2","10582","0.0-2.0-0.0","battery-v0.2","","""event"",""trial"",""time""
""fullscreenenter"",""1"",""3598""
","
","
","""event"",""trial"",""time""
""fullscreenenter"",""1"",""3598""
","
","","[{""page_index"":0,""viewing_time"":6064.599999904633}]","6065","","","","","","","","","","","","","","","","","","","","","","","",""
"pit-comprehension","3","15540","0.0-2.0-1.0-0.0","battery-v0.2","","""event"",""trial"",""time""
""fullscreenenter"",""1"",""3598""
","
","
","""event"",""trial"",""time""
""fullscreenenter"",""1"",""3598""
","
","","","4951.5","[""shark""]","0","23","9181","294","","","","","","","","","","","","","","","","","","",""
"pit-instructions","4","21081","0.0-2.0-1.0-1.0","battery-v0.2","","""event"",""trial"",""time""
""fullscreenenter"",""1"",""3598""
","
","
","""event"",""trial"",""time""
""fullscreenenter"",""1"",""3598""
","
","","[{""page_index"":0,""viewing_time"":5503.799999952316}]","5504.199999809265","","","","","","","","","","","","","","","","","","","","","","","",""
"pit-comprehension","5","25331","0.0-2.0-2.0-0.0","battery-v0.2","","""event"",""trial"",""time""
""fullscreenenter"",""1"",""3598""
","
","
","""event"",""trial"",""time""
""fullscreenenter"",""1"",""3598""
","
","","","4242.700000047684","[""tiger""]","0","23","9181","294","","","","","","","","","","","","","","","","","","",""
"pit-instructions","6","27189","0.0-2.0-2.0-1.0","battery-v0.2","","""event"",""trial"",""time""
""fullscreenenter"",""1"",""3598""
","
","
","""event"",""trial"",""time""
""fullscreenenter"",""1"",""3598""
","
","","[{""page_index"":0,""viewing_time"":1848.5}]","1848.9000000953674","","","","","","","","","","","","","","","","","","","","","","","",""
"pit-instructions","7","138085","0.0-2.0-3.0","battery-v0.2","","""event"",""trial"",""time""
""fullscreenenter"",""1"",""3598""
","
","
","""event"",""trial"",""time""
""fullscreenenter"",""1"",""3598""
","
","","[{""page_index"":0,""viewing_time"":9489.700000047684},{""page_index"":1,""viewing_time"":7702.399999856949},{""page_index"":2,""viewing_time"":7669.700000047684},{""page_index"":3,""viewing_time"":6274.200000047684},{""page_index"":4,""viewing_time"":7539.700000047684},{""page_index"":5,""viewing_time"":5691.899999856949},{""page_index"":6,""viewing_time"":8934},{""page_index"":7,""viewing_time"":8033.5},{""page_index"":8,""viewing_time"":9853.800000190735},{""page_index"":9,""viewing_time"":10456},{""page_index"":10,""viewing_time"":7564.099999904633},{""page_index"":11,""viewing_time"":8351},{""page_index"":12,""viewing_time"":6988.299999952316},{""page_index"":13,""viewing_time"":6342.200000047684}]","110891","","","","","","","","","","","","","","","","","","","","","","","",""
"pit-trial","8","141525","0.0-2.0-4.0-0.0","battery-v0.2","","""event"",""trial"",""time""
""fullscreenenter"",""1"",""3598""
","
","
","""event"",""trial"",""time""
""fullscreenenter"",""1"",""3598""
","
","","","575.5","","","23","9181","294","&#9784;","elianto","#FFFFF080"," "," ","1","&#10004","[1426.6000001430511]","1","0","0","","","","","","","",""
"pit-trial","9","145073","0.0-2.0-4.1-0.1","battery-v0.2","","""event"",""trial"",""time""
""fullscreenenter"",""1"",""3598""
","
","
","""event"",""trial"",""time""
""fullscreenenter"",""1"",""3598""
","
","","","673.2000000476837","","","23","9181","294","&#9784;","elianto","#FFFFF080"," "," ","1","&#10004","[1523.5999999046326]","1","0","0","","","","","","","",""
"pit-trial","10","148615","0.0-2.0-4.2-0.2","battery-v0.2","","""event"",""trial"",""time""
""fullscreenenter"",""1"",""3598""
","
","
","""event"",""trial"",""time""
""fullscreenenter"",""1"",""3598""
","
","","","667.7000000476837","","","23","9181","294","&#9784;","elianto","#FFFFF080"," "," ","1","&#10004","[1521]","1","0","0","","","","","","","",""
"pit-trial","11","152115","0.0-2.0-4.3-0.3","battery-v0.2","","""event"",""trial"",""time""
""fullscreenenter"",""1"",""3598""
","
","
","""event"",""trial"",""time""
""fullscreenenter"",""1"",""3598""
","
","","","624.3999998569489","","","23","9181","294","&#9784;","elianto","#FFFFF080"," "," ","1","&#10004","[1484.1000001430511]","1","0","0","","","","","","","",""
"pit-trial","12","155576","0.0-2.0-4.4-0.4","battery-v0.2","","""event"",""trial"",""time""
""fullscreenenter"",""1"",""3598""
","
","
","""event"",""trial"",""time""
""fullscreenenter"",""1"",""3598""
","
","","","595.6999998092651","","","23","9181","294","&#9784;","elianto","#FFFFF080"," "," ","1","&#10004","[1452.5]","1","0","0","","","","","","","",""
"pit-instructions","13","176549","0.0-2.0-5.0","battery-v0.2","","""event"",""trial"",""time""
""fullscreenenter"",""1"",""3598""
","
","
","""event"",""trial"",""time""
""fullscreenenter"",""1"",""3598""
","
","","[{""page_index"":0,""viewing_time"":5765.400000095367},{""page_index"":1,""viewing_time"":5209.099999904633},{""page_index"":2,""viewing_time"":4954.300000190735},{""page_index"":3,""viewing_time"":5032.799999952316}]","20961.900000095367","","","","","","","","","","","","","","","","","","","","","","","",""
"pit-trial","14","181422","0.0-2.0-6.0-0.0","battery-v0.2","","""event"",""trial"",""time""
""fullscreenenter"",""1"",""3598""
","
","
","""event"",""trial"",""time""
""fullscreenenter"",""1"",""3598""
","
","","","-1","","","23","9181","294","&#9854;","elianto","#FFFFF080","-1","-1","1","&#10004","[]","0","0","1","","","","","","","",""
"pit-trial","15","186286","0.0-2.0-6.1-0.1","battery-v0.2","","""event"",""trial"",""time""
""fullscreenenter"",""1"",""3598""
","
","
","""event"",""trial"",""time""
""fullscreenenter"",""1"",""3598""
","
","","","-1","","","23","9181","294","&#9854;","elianto","#FFFFF080","-1","-1","1","&#10004","[]","0","0","1","","","","","","","",""
"pit-trial","16","191157","0.0-2.0-6.2-0.2","battery-v0.2","","""event"",""trial"",""time""
""fullscreenenter"",""1"",""3598""
","
","
","""event"",""trial"",""time""
""fullscreenenter"",""1"",""3598""
","
","","","-1","","","23","9181","294","&#9854;","elianto","#FFFFF080","-1","-1","1","&#10004","[]","0","0","1","","","","","","","",""
"pit-trial","17","196027","0.0-2.0-6.3-0.3","battery-v0.2","","""event"",""trial"",""time""
""fullscreenenter"",""1"",""3598""
","
","
","""event"",""trial"",""time""
""fullscreenenter"",""1"",""3598""
","
","","","-1","","","23","9181","294","&#9854;","elianto","#FFFFF080","-1","-1","1","&#10004","[]","0","0","1","","","","","","","",""
"pit-trial","18","200886","0.0-2.0-6.4-0.4","battery-v0.2","","""event"",""trial"",""time""
""fullscreenenter"",""1"",""3598""
","
","
","""event"",""trial"",""time""
""fullscreenenter"",""1"",""3598""
","
","","","-1","","","23","9181","294","&#9854;","elianto","#FFFFF080","-1","-1","1","&#10004","[]","0","0","1","","","","","","","",""
"pit-instructions","19","318127","0.0-2.0-7.0","battery-v0.2","","""event"",""trial"",""time""
""fullscreenenter"",""1"",""3598""
","
","
","""event"",""trial"",""time""
""fullscreenenter"",""1"",""3598""
","
","","[{""page_index"":0,""viewing_time"":6741.100000143051},{""page_index"":1,""viewing_time"":7840.299999952316},{""page_index"":2,""viewing_time"":6072.399999856949},{""page_index"":3,""viewing_time"":7518.700000047684},{""page_index"":4,""viewing_time"":6391.600000143051},{""page_index"":5,""viewing_time"":5300.099999904633},{""page_index"":6,""viewing_time"":4667.400000095367},{""page_index"":7,""viewing_time"":7682.699999809265},{""page_index"":8,""viewing_time"":6722.700000047684},{""page_index"":9,""viewing_time"":5855.799999952316},{""page_index"":10,""viewing_time"":6334.600000143051},{""page_index"":11,""viewing_time"":4436.099999904633},{""page_index"":12,""viewing_time"":6966.100000143051},{""page_index"":13,""viewing_time"":7266.799999952316},{""page_index"":14,""viewing_time"":7187.399999856949},{""page_index"":15,""viewing_time"":6453.600000143051},{""page_index"":16,""viewing_time"":6501.299999952316},{""page_index"":17,""viewing_time"":7293.599999904633}]","117232.60000014305","","","","","","","","","","","","","","","","","","","","","","","",""
"pit-trial","20","323008","0.0-2.0-8.0-0.0","battery-v0.2","","""event"",""trial"",""time""
""fullscreenenter"",""1"",""3598""
","
","
","""event"",""trial"",""time""
""fullscreenenter"",""1"",""3598""
","
","","","-1","","","23","9181","294","&#9776;","elianto","#3366ff99"," ","-1","0","0","[]","0","0","1","","","","","","","",""
"pit-trial","21","326160","0.0-2.0-8.0-1.0","battery-v0.2","","""event"",""trial"",""time""
""fullscreenenter"",""1"",""3598""
","
","
","""event"",""trial"",""time""
""fullscreenenter"",""1"",""3598""
","
","","","279.09999990463257","","","23","9181","294","&#9776;","elianto","#3366ff99"," "," ","1","+10","[1132.2000000476837]","1","0","1","","","","","","","",""
"pit-trial","22","329446","0.0-2.0-8.0-2.0","battery-v0.2","","""event"",""trial"",""time""
""fullscreenenter"",""1"",""3598""
","
","
","""event"",""trial"",""time""
""fullscreenenter"",""1"",""3598""
","
","","","412.60000014305115","","","23","9181","294","&#9776;","elianto","#3366ff99"," "," ","1","+10","[1262.9000000953674]","1","0","1","","","","","","","",""
"pit-trial","23","332674","0.0-2.0-8.0-3.0","battery-v0.2","","""event"",""trial"",""time""
""fullscreenenter"",""1"",""3598""
","
","
","""event"",""trial"",""time""
""fullscreenenter"",""1"",""3598""
","
","","","350.39999985694885","","","23","9181","294","&#9776;","elianto","#3366ff99"," "," ","1","0","[1209.2000000476837]","1","0","1","","","","","","","",""
"pit-trial","24","335942","0.0-2.0-8.0-4.0","battery-v0.2","","""event"",""trial"",""time""
""fullscreenenter"",""1"",""3598""
","
","
","""event"",""trial"",""time""
""fullscreenenter"",""1"",""3598""
","
","","","390.7999999523163","","","23","9181","294","&#9776;","elianto","#3366ff99"," "," ","1","+10","[1254.6000001430511]","1","0","1","","","","","","","",""
"pit-trial","25","339286","0.0-2.0-8.1-0.1","battery-v0.2","","""event"",""trial"",""time""
""fullscreenenter"",""1"",""3598""
","
","
","""event"",""trial"",""time""
""fullscreenenter"",""1"",""3598""
","
","","","469.2000000476837","","","23","9181","294","&#9776;","elianto","#3366ff99"," "," ","1","+10","[1324]","1","0","1","","","","","","","",""
"pit-trial","26","342681","0.0-2.0-8.1-1.1","battery-v0.2","","""event"",""trial"",""time""
""fullscreenenter"",""1"",""3598""
","
","
","""event"",""trial"",""time""
""fullscreenenter"",""1"",""3598""
","
","","","517.5","","","23","9181","294","&#9776;","elianto","#3366ff99"," "," ","1","+10","[1373.8000001907349]","1","0","1","","","","","","","",""
"pit-trial","27","346216","0.0-2.0-8.1-2.1","battery-v0.2","","""event"",""trial"",""time""
""fullscreenenter"",""1"",""3598""
","
","
","""event"",""trial"",""time""
""fullscreenenter"",""1"",""3598""
","
","","","662.2999999523163","","","23","9181","294","&#9776;","elianto","#3366ff99"," "," ","1","+10","[1519.8000001907349]","1","0","1","","","","","","","",""
"pit-trial","28","349721","0.0-2.0-8.1-3.1","battery-v0.2","","""event"",""trial"",""time""
""fullscreenenter"",""1"",""3598""
","
","
","""event"",""trial"",""time""
""fullscreenenter"",""1"",""3598""
","
","","","645.4000000953674","","","23","9181","294","&#9776;","elianto","#3366ff99"," "," ","1","0","[1498.8999998569489]","1","0","1","","","","","","","",""
"pit-trial","29","353092","0.0-2.0-8.1-4.1","battery-v0.2","","""event"",""trial"",""time""
""fullscreenenter"",""1"",""3598""
","
","
","""event"",""trial"",""time""
""fullscreenenter"",""1"",""3598""
","
","","","515.2000000476837","","","23","9181","294","&#9776;","elianto","#3366ff99"," "," ","1","+10","[1365.5999999046326]","1","0","1","","","","","","","",""
"pit-trial","30","356447","0.0-2.0-8.2-0.2","battery-v0.2","","""event"",""trial"",""time""
""fullscreenenter"",""1"",""3598""
","
","
","""event"",""trial"",""time""
""fullscreenenter"",""1"",""3598""
","
","","","497.5","","","23","9181","294","&#9776;","elianto","#3366ff99"," "," ","1","+10","[1347.9000000953674]","1","0","1","","","","","","","",""
"pit-trial","31","359751","0.0-2.0-8.2-1.2","battery-v0.2","","""event"",""trial"",""time""
""fullscreenenter"",""1"",""3598""
","
","
","""event"",""trial"",""time""
""fullscreenenter"",""1"",""3598""
","
","","","447.7999999523163","","","23","9181","294","&#9776;","elianto","#3366ff99"," "," ","1","+10","[1299.7999999523163]","1","0","1","","","","","","","",""
"pit-trial","32","363029","0.0-2.0-8.2-2.2","battery-v0.2","","""event"",""trial"",""time""
""fullscreenenter"",""1"",""3598""
","
","
","""event"",""trial"",""time""
""fullscreenenter"",""1"",""3598""
","
","","","421.69999980926514","","","23","9181","294","&#9776;","elianto","#3366ff99"," "," ","1","+10","[1272.6999998092651]","1","0","1","","","","","","","",""
"pit-trial","33","366353","0.0-2.0-8.2-3.2","battery-v0.2","","""event"",""trial"",""time""
""fullscreenenter"",""1"",""3598""
","
","
","""event"",""trial"",""time""
""fullscreenenter"",""1"",""3598""
","
","","","467.80000019073486","","","23","9181","294","&#9776;","elianto","#3366ff99"," "," ","1","0","[1319.2000000476837]","1","0","1","","","","","","","",""
"pit-trial","34","369669","0.0-2.0-8.2-4.2","battery-v0.2","","""event"",""trial"",""time""
""fullscreenenter"",""1"",""3598""
","
","
","""event"",""trial"",""time""
""fullscreenenter"",""1"",""3598""
","
","","","459.7000000476837","","","23","9181","294","&#9776;","elianto","#3366ff99"," "," ","1","+10","[1309.7999999523163]","1","0","1","","","","","","","",""
"call-function","35","369674","0.0-2.0-9.0","battery-v0.2","","""event"",""trial"",""time""
""fullscreenenter"",""1"",""3598""
","
","
","""event"",""trial"",""time""
""fullscreenenter"",""1"",""3598""
","
","","","","","","","","","","","","","","","","","","","","","","","","","","",""
"pit-instructions","36","412718","0.0-2.0-10.0","battery-v0.2","","""event"",""trial"",""time""
""fullscreenenter"",""1"",""3598""
","
","
","""event"",""trial"",""time""
""fullscreenenter"",""1"",""3598""
","
","","[{""page_index"":0,""viewing_time"":7624.700000047684},{""page_index"":1,""viewing_time"":7873.799999952316},{""page_index"":2,""viewing_time"":9707.5},{""page_index"":3,""viewing_time"":9257.200000047684},{""page_index"":4,""viewing_time"":8579.5}]","43043.10000014305","","","","","","","","","","","","","","","","","","","","","","","",""
"pit-trial","37","417592","0.0-2.0-11.0-0.0","battery-v0.2","","""event"",""trial"",""time""
""fullscreenenter"",""1"",""3598""
","
","
","""event"",""trial"",""time""
""fullscreenenter"",""1"",""3598""
","
","","","-1","","","23","9181","294","&#9761;","elianto","#3366ff99","-1","-1","1","+10","[]","0","0","2","","","","","","","",""
"pit-trial","38","422460","0.0-2.0-11.0-1.0","battery-v0.2","","""event"",""trial"",""time""
""fullscreenenter"",""1"",""3598""
","
","
","""event"",""trial"",""time""
""fullscreenenter"",""1"",""3598""
","
","","","-1","","","23","9181","294","&#9761;","elianto","#3366ff99","-1","-1","1","+10","[]","0","0","2","","","","","","","",""
"pit-trial","39","427321","0.0-2.0-11.0-2.0","battery-v0.2","","""event"",""trial"",""time""
""fullscreenenter"",""1"",""3598""
","
","
","""event"",""trial"",""time""
""fullscreenenter"",""1"",""3598""
","
","","","-1","","","23","9181","294","&#9761;","elianto","#3366ff99","-1","-1","1","+10","[]","0","0","2","","","","","","","",""
"pit-trial","40","432207","0.0-2.0-11.0-3.0","battery-v0.2","","""event"",""trial"",""time""
""fullscreenenter"",""1"",""3598""
","
","
","""event"",""trial"",""time""
""fullscreenenter"",""1"",""3598""
","
","","","-1","","","23","9181","294","&#9761;","elianto","#3366ff99","-1","-1","1","0","[]","0","0","2","","","","","","","",""
"pit-trial","41","437070","0.0-2.0-11.0-4.0","battery-v0.2","","""event"",""trial"",""time""
""fullscreenenter"",""1"",""3598""
","
","
","""event"",""trial"",""time""
""fullscreenenter"",""1"",""3598""
","
","","","-1","","","23","9181","294","&#9761;","elianto","#3366ff99","-1","-1","1","+10","[]","0","0","2","","","","","","","",""
"pit-trial","42","441946","0.0-2.0-11.1-0.1","battery-v0.2","","""event"",""trial"",""time""
""fullscreenenter"",""1"",""3598""
","
","
","""event"",""trial"",""time""
""fullscreenenter"",""1"",""3598""
","
","","","-1","","","23","9181","294","&#9761;","elianto","#3366ff99","-1","-1","1","+10","[]","0","0","2","","","","","","","",""
"pit-trial","43","446807","0.0-2.0-11.1-1.1","battery-v0.2","","""event"",""trial"",""time""
""fullscreenenter"",""1"",""3598""
","
","
","""event"",""trial"",""time""
""fullscreenenter"",""1"",""3598""
","
","","","-1","","","23","9181","294","&#9761;","elianto","#3366ff99","-1","-1","1","+10","[]","0","0","2","","","","","","","",""
"pit-trial","44","451678","0.0-2.0-11.1-2.1","battery-v0.2","","""event"",""trial"",""time""
""fullscreenenter"",""1"",""3598""
","
","
","""event"",""trial"",""time""
""fullscreenenter"",""1"",""3598""
","
","","","-1","","","23","9181","294","&#9761;","elianto","#3366ff99","-1","-1","1","+10","[]","0","0","2","","","","","","","",""
"pit-trial","45","456536","0.0-2.0-11.1-3.1","battery-v0.2","","""event"",""trial"",""time""
""fullscreenenter"",""1"",""3598""
","
","
","""event"",""trial"",""time""
""fullscreenenter"",""1"",""3598""
","
","","","-1","","","23","9181","294","&#9761;","elianto","#3366ff99","-1","-1","1","0","[]","0","0","2","","","","","","","",""
"pit-trial","46","461408","0.0-2.0-11.1-4.1","battery-v0.2","","""event"",""trial"",""time""
""fullscreenenter"",""1"",""3598""
","
","
","""event"",""trial"",""time""
""fullscreenenter"",""1"",""3598""
","
","","","-1","","","23","9181","294","&#9761;","elianto","#3366ff99","-1","-1","1","+10","[]","0","0","2","","","","","","","",""
"pit-trial","47","466268","0.0-2.0-11.2-0.2","battery-v0.2","","""event"",""trial"",""time""
""fullscreenenter"",""1"",""3598""
","
","
","""event"",""trial"",""time""
""fullscreenenter"",""1"",""3598""
","
","","","-1","","","23","9181","294","&#9761;","elianto","#3366ff99","-1","-1","1","+10","[]","0","0","2","","","","","","","",""
"pit-trial","48","471135","0.0-2.0-11.2-1.2","battery-v0.2","","""event"",""trial"",""time""
""fullscreenenter"",""1"",""3598""
","
","
","""event"",""trial"",""time""
""fullscreenenter"",""1"",""3598""
","
","","","-1","","","23","9181","294","&#9761;","elianto","#3366ff99","-1","-1","1","+10","[]","0","0","2","","","","","","","",""
"pit-trial","49","476007","0.0-2.0-11.2-2.2","battery-v0.2","","""event"",""trial"",""time""
""fullscreenenter"",""1"",""3598""
","
","
","""event"",""trial"",""time""
""fullscreenenter"",""1"",""3598""
","
","","","-1","","","23","9181","294","&#9761;","elianto","#3366ff99","-1","-1","1","+10","[]","0","0","2","","","","","","","",""
"pit-trial","50","480867","0.0-2.0-11.2-3.2","battery-v0.2","","""event"",""trial"",""time""
""fullscreenenter"",""1"",""3598""
","
","
","""event"",""trial"",""time""
""fullscreenenter"",""1"",""3598""
","
","","","-1","","","23","9181","294","&#9761;","elianto","#3366ff99","-1","-1","1","0","[]","0","0","2","","","","","","","",""
"pit-trial","51","485725","0.0-2.0-11.2-4.2","battery-v0.2","","""event"",""trial"",""time""
""fullscreenenter"",""1"",""3598""
","
","
","""event"",""trial"",""time""
""fullscreenenter"",""1"",""3598""
","
","","","-1","","","23","9181","294","&#9761;","elianto","#3366ff99","-1","-1","1","+10","[]","0","0","2","","","","","","","",""
"pit-trial","52","490583","0.0-2.0-11.3-0.3","battery-v0.2","","""event"",""trial"",""time""
""fullscreenenter"",""1"",""3598""
","
","
","""event"",""trial"",""time""
""fullscreenenter"",""1"",""3598""
","
","","","-1","","","23","9181","294","&#9761;","elianto","#3366ff99","-1","-1","1","+10","[]","0","0","2","","","","","","","",""
"pit-trial","53","495439","0.0-2.0-11.3-1.3","battery-v0.2","","""event"",""trial"",""time""
""fullscreenenter"",""1"",""3598""
","
","
","""event"",""trial"",""time""
""fullscreenenter"",""1"",""3598""
","
","","","-1","","","23","9181","294","&#9761;","elianto","#3366ff99","-1","-1","1","+10","[]","0","0","2","","","","","","","",""
"pit-trial","54","500296","0.0-2.0-11.3-2.3","battery-v0.2","","""event"",""trial"",""time""
""fullscreenenter"",""1"",""3598""
","
","
","""event"",""trial"",""time""
""fullscreenenter"",""1"",""3598""
","
","","","-1","","","23","9181","294","&#9761;","elianto","#3366ff99","-1","-1","1","+10","[]","0","0","2","","","","","","","",""
"pit-trial","55","505180","0.0-2.0-11.3-3.3","battery-v0.2","","""event"",""trial"",""time""
""fullscreenenter"",""1"",""3598""
","
","
","""event"",""trial"",""time""
""fullscreenenter"",""1"",""3598""
","
","","","-1","","","23","9181","294","&#9761;","elianto","#3366ff99","-1","-1","1","0","[]","0","0","2","","","","","","","",""
"pit-trial","56","510040","0.0-2.0-11.3-4.3","battery-v0.2","","""event"",""trial"",""time""
""fullscreenenter"",""1"",""3598""
","
","
","""event"",""trial"",""time""
""fullscreenenter"",""1"",""3598""
","
","","","-1","","","23","9181","294","&#9761;","elianto","#3366ff99","-1","-1","1","+10","[]","0","0","2","","","","","","","",""
"call-function","57","510045","0.0-2.0-12.0","battery-v0.2","","""event"",""trial"",""time""
""fullscreenenter"",""1"",""3598""
","
","
","""event"",""trial"",""time""
""fullscreenenter"",""1"",""3598""
","
","","","","","","","","","","","","","","","","","","","","","","","","","","",""
"pit-instructions","58","545795","0.0-2.0-13.0","battery-v0.2","","""event"",""trial"",""time""
""fullscreenenter"",""1"",""3598""
","
","
","""event"",""trial"",""time""
""fullscreenenter"",""1"",""3598""
","
","","[{""page_index"":0,""viewing_time"":7234.5},{""page_index"":1,""viewing_time"":7436.599999904633},{""page_index"":2,""viewing_time"":3617.100000143051},{""page_index"":3,""viewing_time"":11627.099999904633},{""page_index"":4,""viewing_time"":5834.100000143051}]","35749.799999952316","","","","","","","","","","","","","","","","","","","","","","","",""
"pit-trial","59","549217","0.0-2.0-14.0-0.0","battery-v0.2","","""event"",""trial"",""time""
""fullscreenenter"",""1"",""3598""
","
","
","""event"",""trial"",""time""
""fullscreenenter"",""1"",""3598""
","
","","","556.1000001430511","","","23","9181","294","&#9826;","elianto","#f73b6a7A","-1"," ","0","-10","[1408.7000000476837]","1","0","3","","","","","","","",""
"pit-trial","60","554098","0.0-2.0-14.0-1.0","battery-v0.2","","""event"",""trial"",""time""
""fullscreenenter"",""1"",""3598""
","
","
","""event"",""trial"",""time""
""fullscreenenter"",""1"",""3598""
","
","","","-1","","","23","9181","294","&#9826;","elianto","#f73b6a7A","-1","-1","1","0","[]","0","0","3","","","","","","","",""
"pit-trial","61","558968","0.0-2.0-14.0-2.0","battery-v0.2","","""event"",""trial"",""time""
""fullscreenenter"",""1"",""3598""
","
","
","""event"",""trial"",""time""
""fullscreenenter"",""1"",""3598""
","
","","","-1","","","23","9181","294","&#9826;","elianto","#f73b6a7A","-1","-1","1","0","[]","0","0","3","","","","","","","",""
"pit-trial","62","563839","0.0-2.0-14.0-3.0","battery-v0.2","","""event"",""trial"",""time""
""fullscreenenter"",""1"",""3598""
","
","
","""event"",""trial"",""time""
""fullscreenenter"",""1"",""3598""
","
","","","-1","","","23","9181","294","&#9826;","elianto","#f73b6a7A","-1","-1","1","-10","[]","0","0","3","","","","","","","",""
"pit-trial","63","568714","0.0-2.0-14.0-4.0","battery-v0.2","","""event"",""trial"",""time""
""fullscreenenter"",""1"",""3598""
","
","
","""event"",""trial"",""time""
""fullscreenenter"",""1"",""3598""
","
","","","-1","","","23","9181","294","&#9826;","elianto","#f73b6a7A","-1","-1","1","0","[]","0","0","3","","","","","","","",""
"pit-trial","64","573588","0.0-2.0-14.1-0.1","battery-v0.2","","""event"",""trial"",""time""
""fullscreenenter"",""1"",""3598""
","
","
","""event"",""trial"",""time""
""fullscreenenter"",""1"",""3598""
","
","","","-1","","","23","9181","294","&#9826;","elianto","#f73b6a7A","-1","-1","1","0","[]","0","0","3","","","","","","","",""
"pit-trial","65","578445","0.0-2.0-14.1-1.1","battery-v0.2","","""event"",""trial"",""time""
""fullscreenenter"",""1"",""3598""
","
","
","""event"",""trial"",""time""
""fullscreenenter"",""1"",""3598""
","
","","","-1","","","23","9181","294","&#9826;","elianto","#f73b6a7A","-1","-1","1","0","[]","0","0","3","","","","","","","",""
"pit-trial","66","583301","0.0-2.0-14.1-2.1","battery-v0.2","","""event"",""trial"",""time""
""fullscreenenter"",""1"",""3598""
","
","
","""event"",""trial"",""time""
""fullscreenenter"",""1"",""3598""
","
","","","-1","","","23","9181","294","&#9826;","elianto","#f73b6a7A","-1","-1","1","0","[]","0","0","3","","","","","","","",""
"pit-trial","67","588158","0.0-2.0-14.1-3.1","battery-v0.2","","""event"",""trial"",""time""
""fullscreenenter"",""1"",""3598""
","
","
","""event"",""trial"",""time""
""fullscreenenter"",""1"",""3598""
","
","","","-1","","","23","9181","294","&#9826;","elianto","#f73b6a7A","-1","-1","1","-10","[]","0","0","3","","","","","","","",""
"pit-trial","68","593018","0.0-2.0-14.1-4.1","battery-v0.2","","""event"",""trial"",""time""
""fullscreenenter"",""1"",""3598""
","
","
","""event"",""trial"",""time""
""fullscreenenter"",""1"",""3598""
","
","","","-1","","","23","9181","294","&#9826;","elianto","#f73b6a7A","-1","-1","1","0","[]","0","0","3","","","","","","","",""
"pit-trial","69","597876","0.0-2.0-14.2-0.2","battery-v0.2","","""event"",""trial"",""time""
""fullscreenenter"",""1"",""3598""
","
","
","""event"",""trial"",""time""
""fullscreenenter"",""1"",""3598""
","
","","","-1","","","23","9181","294","&#9826;","elianto","#f73b6a7A","-1","-1","1","0","[]","0","0","3","","","","","","","",""
"pit-trial","70","602733","0.0-2.0-14.2-1.2","battery-v0.2","","""event"",""trial"",""time""
""fullscreenenter"",""1"",""3598""
","
","
","""event"",""trial"",""time""
""fullscreenenter"",""1"",""3598""
","
","","","-1","","","23","9181","294","&#9826;","elianto","#f73b6a7A","-1","-1","1","0","[]","0","0","3","","","","","","","",""
"pit-trial","71","607590","0.0-2.0-14.2-2.2","battery-v0.2","","""event"",""trial"",""time""
""fullscreenenter"",""1"",""3598""
","
","
","""event"",""trial"",""time""
""fullscreenenter"",""1"",""3598""
","
","","","-1","","","23","9181","294","&#9826;","elianto","#f73b6a7A","-1","-1","1","0","[]","0","0","3","","","","","","","",""
"pit-trial","72","612446","0.0-2.0-14.2-3.2","battery-v0.2","","""event"",""trial"",""time""
""fullscreenenter"",""1"",""3598""
","
","
","""event"",""trial"",""time""
""fullscreenenter"",""1"",""3598""
","
","","","-1","","","23","9181","294","&#9826;","elianto","#f73b6a7A","-1","-1","1","-10","[]","0","0","3","","","","","","","",""
"pit-trial","73","617305","0.0-2.0-14.2-4.2","battery-v0.2","","""event"",""trial"",""time""
""fullscreenenter"",""1"",""3598""
","
","
","""event"",""trial"",""time""
""fullscreenenter"",""1"",""3598""
","
","","","-1","","","23","9181","294","&#9826;","elianto","#f73b6a7A","-1","-1","1","0","[]","0","0","3","","","","","","","",""
"pit-trial","74","622162","0.0-2.0-14.3-0.3","battery-v0.2","","""event"",""trial"",""time""
""fullscreenenter"",""1"",""3598""
","
","
","""event"",""trial"",""time""
""fullscreenenter"",""1"",""3598""
","
","","","-1","","","23","9181","294","&#9826;","elianto","#f73b6a7A","-1","-1","1","0","[]","0","0","3","","","","","","","",""
"pit-trial","75","627017","0.0-2.0-14.3-1.3","battery-v0.2","","""event"",""trial"",""time""
""fullscreenenter"",""1"",""3598""
","
","
","""event"",""trial"",""time""
""fullscreenenter"",""1"",""3598""
","
","","","-1","","","23","9181","294","&#9826;","elianto","#f73b6a7A","-1","-1","1","0","[]","0","0","3","","","","","","","",""
"pit-trial","76","631874","0.0-2.0-14.3-2.3","battery-v0.2","","""event"",""trial"",""time""
""fullscreenenter"",""1"",""3598""
","
","
","""event"",""trial"",""time""
""fullscreenenter"",""1"",""3598""
","
","","","-1","","","23","9181","294","&#9826;","elianto","#f73b6a7A","-1","-1","1","0","[]","0","0","3","","","","","","","",""
"pit-trial","77","636733","0.0-2.0-14.3-3.3","battery-v0.2","","""event"",""trial"",""time""
""fullscreenenter"",""1"",""3598""
","
","
","""event"",""trial"",""time""
""fullscreenenter"",""1"",""3598""
","
","","","-1","","","23","9181","294","&#9826;","elianto","#f73b6a7A","-1","-1","1","-10","[]","0","0","3","","","","","","","",""
"pit-trial","78","641589","0.0-2.0-14.3-4.3","battery-v0.2","","""event"",""trial"",""time""
""fullscreenenter"",""1"",""3598""
","
","
","""event"",""trial"",""time""
""fullscreenenter"",""1"",""3598""
","
","","","-1","","","23","9181","294","&#9826;","elianto","#f73b6a7A","-1","-1","1","0","[]","0","0","3","","","","","","","",""
"call-function","79","641594","0.0-2.0-15.0","battery-v0.2","","""event"",""trial"",""time""
""fullscreenenter"",""1"",""3598""
","
","
","""event"",""trial"",""time""
""fullscreenenter"",""1"",""3598""
","
","","","","","","","","","","","","","","","","","","","","","","","","","","",""
"pit-instructions","80","674118","0.0-2.0-16.0","battery-v0.2","","""event"",""trial"",""time""
""fullscreenenter"",""1"",""3598""
","
","
","""event"",""trial"",""time""
""fullscreenenter"",""1"",""3598""
","
","","[{""page_index"":0,""viewing_time"":11139.599999904633},{""page_index"":1,""viewing_time"":9729.400000095367},{""page_index"":2,""viewing_time"":5574.900000095367},{""page_index"":3,""viewing_time"":6079.5}]","32523.700000047684","","","","","","","","","","","","","","","","","","","","","","","",""
"pit-trial","81","677347","0.0-2.0-17.0-0.0","battery-v0.2","","""event"",""trial"",""time""
""fullscreenenter"",""1"",""3598""
","
","
","""event"",""trial"",""time""
""fullscreenenter"",""1"",""3598""
","
","","","356.60000014305115","","","23","9181","294","&#9789;","elianto","#f73b6a7A"," "," ","1","0","[1210.7999999523163]","1","0","4","","","","","","","",""
"pit-trial","82","680419","0.0-2.0-17.0-1.0","battery-v0.2","","""event"",""trial"",""time""
""fullscreenenter"",""1"",""3598""
","
","
","""event"",""trial"",""time""
""fullscreenenter"",""1"",""3598""
","
","","","208.79999995231628","","","23","9181","294","&#9789;","elianto","#f73b6a7A"," "," ","1","0","[1059.3999998569489]","1","0","4","","","","","","","",""
"pit-trial","83","683401","0.0-2.0-17.0-2.0","battery-v0.2","","""event"",""trial"",""time""
""fullscreenenter"",""1"",""3598""
","
","
","""event"",""trial"",""time""
""fullscreenenter"",""1"",""3598""
","
","","","114.40000009536743","","","23","9181","294","&#9789;","elianto","#f73b6a7A"," "," ","1","0","[968.9000000953674]","1","0","4","","","","","","","",""
"pit-trial","84","686406","0.0-2.0-17.0-3.0","battery-v0.2","","""event"",""trial"",""time""
""fullscreenenter"",""1"",""3598""
","
","
","""event"",""trial"",""time""
""fullscreenenter"",""1"",""3598""
","
","","","144.59999990463257","","","23","9181","294","&#9789;","elianto","#f73b6a7A"," "," ","1","-10","[997]","1","0","4","","","","","","","",""
"pit-trial","85","689439","0.0-2.0-17.0-4.0","battery-v0.2","","""event"",""trial"",""time""
""fullscreenenter"",""1"",""3598""
","
","
","""event"",""trial"",""time""
""fullscreenenter"",""1"",""3598""
","
","","","170.29999995231628","","","23","9181","294","&#9789;","elianto","#f73b6a7A"," "," ","1","0","[1020.7000000476837]","1","0","4","","","","","","","",""
"pit-trial","86","692488","0.0-2.0-17.1-0.1","battery-v0.2","","""event"",""trial"",""time""
""fullscreenenter"",""1"",""3598""
","
","
","""event"",""trial"",""time""
""fullscreenenter"",""1"",""3598""
","
","","","180.69999980926514","","","23","9181","294","&#9789;","elianto","#f73b6a7A"," "," ","1","0","[1031.2000000476837]","1","0","4","","","","","","","",""
"pit-trial","87","695745","0.0-2.0-17.1-1.1","battery-v0.2","","""event"",""trial"",""time""
""fullscreenenter"",""1"",""3598""
","
","
","""event"",""trial"",""time""
""fullscreenenter"",""1"",""3598""
","
","","","385.30000019073486","","","23","9181","294","&#9789;","elianto","#f73b6a7A"," "," ","1","0","[1238.7000000476837]","1","0","4","","","","","","","",""
"pit-trial","88","698808","0.0-2.0-17.1-2.1","battery-v0.2","","""event"",""trial"",""time""
""fullscreenenter"",""1"",""3598""
","
","
","""event"",""trial"",""time""
""fullscreenenter"",""1"",""3598""
","
","","","199.70000004768372","","","23","9181","294","&#9789;","elianto","#f73b6a7A"," "," ","1","0","[1053.9000000953674]","1","0","4","","","","","","","",""
"pit-trial","89","701830","0.0-2.0-17.1-3.1","battery-v0.2","","""event"",""trial"",""time""
""fullscreenenter"",""1"",""3598""
","
","
","""event"",""trial"",""time""
""fullscreenenter"",""1"",""3598""
","
","","","149.60000014305115","","","23","9181","294","&#9789;","elianto","#f73b6a7A"," "," ","1","-10","[1000.3999998569489]","1","0","4","","","","","","","",""
"pit-trial","90","704702","0.0-2.0-17.1-4.1","battery-v0.2","","""event"",""trial"",""time""
""fullscreenenter"",""1"",""3598""
","
","
","""event"",""trial"",""time""
""fullscreenenter"",""1"",""3598""
","
","","","13.400000095367432","","","23","9181","294","&#9789;","elianto","#f73b6a7A"," "," ","1","0","[866.6000001430511]","1","0","4","","","","","","","",""
"pit-trial","91","707710","0.0-2.0-17.2-0.2","battery-v0.2","","""event"",""trial"",""time""
""fullscreenenter"",""1"",""3598""
","
","
","""event"",""trial"",""time""
""fullscreenenter"",""1"",""3598""
","
","","","150.70000004768372","","","23","9181","294","&#9789;","elianto","#f73b6a7A"," "," ","1","0","[1002]","1","0","4","","","","","","","",""
"pit-trial","92","710782","0.0-2.0-17.2-1.2","battery-v0.2","","""event"",""trial"",""time""
""fullscreenenter"",""1"",""3598""
","
","
","""event"",""trial"",""time""
""fullscreenenter"",""1"",""3598""
","
","","","216","","","23","9181","294","&#9789;","elianto","#f73b6a7A"," "," ","1","0","[1066.9000000953674]","1","0","4","","","","","","","",""
"pit-trial","93","713779","0.0-2.0-17.2-2.2","battery-v0.2","","""event"",""trial"",""time""
""fullscreenenter"",""1"",""3598""
","
","
","""event"",""trial"",""time""
""fullscreenenter"",""1"",""3598""
","
","","","138.29999995231628","","","23","9181","294","&#9789;","elianto","#f73b6a7A"," "," ","1","0","[989.5999999046326]","1","0","4","","","","","","","",""
"pit-trial","94","716755","0.0-2.0-17.2-3.2","battery-v0.2","","""event"",""trial"",""time""
""fullscreenenter"",""1"",""3598""
","
","
","""event"",""trial"",""time""
""fullscreenenter"",""1"",""3598""
","
","","","117.29999995231628","","","23","9181","294","&#9789;","elianto","#f73b6a7A"," "," ","1","-10","[967.9000000953674]","1","0","4","","","","","","","",""
"pit-trial","95","719693","0.0-2.0-17.2-4.2","battery-v0.2","","""event"",""trial"",""time""
""fullscreenenter"",""1"",""3598""
","
","
","""event"",""trial"",""time""
""fullscreenenter"",""1"",""3598""
","
","","","77.60000014305115","","","23","9181","294","&#9789;","elianto","#f73b6a7A"," "," ","1","0","[931.5]","1","0","4","","","","","","","",""
"pit-trial","96","722653","0.0-2.0-17.3-0.3","battery-v0.2","","""event"",""trial"",""time""
""fullscreenenter"",""1"",""3598""
","
","
","""event"",""trial"",""time""
""fullscreenenter"",""1"",""3598""
","
","","","102.09999990463257","","","23","9181","294","&#9789;","elianto","#f73b6a7A"," "," ","1","0","[953.5999999046326]","1","0","4","","","","","","","",""
"pit-trial","97","725626","0.0-2.0-17.3-1.3","battery-v0.2","","""event"",""trial"",""time""
""fullscreenenter"",""1"",""3598""
","
","
","""event"",""trial"",""time""
""fullscreenenter"",""1"",""3598""
","
","","","113.59999990463257","","","23","9181","294","&#9789;","elianto","#f73b6a7A"," "," ","1","0","[964.3999998569489]","1","0","4","","","","","","","",""
"pit-trial","98","728679","0.0-2.0-17.3-2.3","battery-v0.2","","""event"",""trial"",""time""
""fullscreenenter"",""1"",""3598""
","
","
","""event"",""trial"",""time""
""fullscreenenter"",""1"",""3598""
","
","","","190.09999990463257","","","23","9181","294","&#9789;","elianto","#f73b6a7A"," "," ","1","0","[1042.9000000953674]","1","0","4","","","","","","","",""
"pit-trial","99","731810","0.0-2.0-17.3-3.3","battery-v0.2","","""event"",""trial"",""time""
""fullscreenenter"",""1"",""3598""
","
","
","""event"",""trial"",""time""
""fullscreenenter"",""1"",""3598""
","
","","","275","","","23","9181","294","&#9789;","elianto","#f73b6a7A"," "," ","1","-10","[1125]","1","0","4","","","","","","","",""
"pit-trial","100","734958","0.0-2.0-17.3-4.3","battery-v0.2","","""event"",""trial"",""time""
""fullscreenenter"",""1"",""3598""
","
","
","""event"",""trial"",""time""
""fullscreenenter"",""1"",""3598""
","
","","","291.90000009536743","","","23","9181","294","&#9789;","elianto","#f73b6a7A"," "," ","1","0","[1143.1000001430511]","1","0","4","","","","","","","",""
"call-function","101","734963","0.0-2.0-18.0","battery-v0.2","","""event"",""trial"",""time""
""fullscreenenter"",""1"",""3598""
","
","
","""event"",""trial"",""time""
""fullscreenenter"",""1"",""3598""
","
","","","","","","","","","","","","","","","","","","","","","","","","","","",""
"pit-instructions","102","816001","0.0-2.0-19.0","battery-v0.2","","""event"",""trial"",""time""
""fullscreenenter"",""1"",""3598""
","
","
","""event"",""trial"",""time""
""fullscreenenter"",""1"",""3598""
","
","","[{""page_index"":0,""viewing_time"":7698},{""page_index"":1,""viewing_time"":8298.199999809265},{""page_index"":2,""viewing_time"":15349.700000047684},{""page_index"":3,""viewing_time"":8579.299999952316},{""page_index"":4,""viewing_time"":9535},{""page_index"":5,""viewing_time"":9157.700000047684},{""page_index"":6,""viewing_time"":9705.400000095367},{""page_index"":7,""viewing_time"":7623.5},{""page_index"":8,""viewing_time"":5090.700000047684}]","81037.79999995232","","","","","","","","","","","","","","","","","","","","","","","",""
"pit-comprehension","103","821690","0.0-2.0-20.0-0.0","battery-v0.2","","""event"",""trial"",""time""
""fullscreenenter"",""1"",""3598""
","
","
","""event"",""trial"",""time""
""fullscreenenter"",""1"",""3598""
","
","","","5681.399999856949","[""SPACE""]","0","23","9181","294","","","","","","","","","","","","","","","","","","",""
"pit-instructions","104","825559","0.0-2.0-20.0-1.0","battery-v0.2","","""event"",""trial"",""time""
""fullscreenenter"",""1"",""3598""
","
","
","""event"",""trial"",""time""
""fullscreenenter"",""1"",""3598""
","
","","[{""page_index"":0,""viewing_time"":3778.7000000476837}]","3779","","","","","","","","","","","","","","","","","","","","","","","",""
"pit-comprehension","105","833920","0.0-2.0-21.0-0.0","battery-v0.2","","""event"",""trial"",""time""
""fullscreenenter"",""1"",""3598""
","
","
","""event"",""trial"",""time""
""fullscreenenter"",""1"",""3598""
","
","","","8354.400000095367","[""10""]","0","23","9181","294","","","","","","","","","","","","","","","","","","",""
"pit-instructions","106","838534","0.0-2.0-21.0-1.0","battery-v0.2","","""event"",""trial"",""time""
""fullscreenenter"",""1"",""3598""
","
","
","""event"",""trial"",""time""
""fullscreenenter"",""1"",""3598""
","
","","[{""page_index"":0,""viewing_time"":4529.799999952316}]","4530.100000143051","","","","","","","","","","","","","","","","","","","","","","","",""
"pit-comprehension","107","846404","0.0-2.0-22.0-0.0","battery-v0.2","","""event"",""trial"",""time""
""fullscreenenter"",""1"",""3598""
","
","
","""event"",""trial"",""time""
""fullscreenenter"",""1"",""3598""
","
","","","7863.099999904633","[""0""]","0","23","9181","294","","","","","","","","","","","","","","","","","","",""
"pit-instructions","108","848713","0.0-2.0-22.0-1.0","battery-v0.2","","""event"",""trial"",""time""
""fullscreenenter"",""1"",""3598""
","
","
","""event"",""trial"",""time""
""fullscreenenter"",""1"",""3598""
","
","","[{""page_index"":0,""viewing_time"":2202.7000000476837}]","2203.2000000476837","","","","","","","","","","","","","","","","","","","","","","","",""
"pit-comprehension","109","860801","0.0-2.0-23.0-0.0","battery-v0.2","","""event"",""trial"",""time""
""fullscreenenter"",""1"",""3598""
","
","
","""event"",""trial"",""time""
""fullscreenenter"",""1"",""3598""
","
","","","12074.299999952316","[""True""]","0","23","9181","294","","","","","","","","","","","","","","","","","","",""
"pit-instructions","110","865992","0.0-2.0-23.0-1.0","battery-v0.2","","""event"",""trial"",""time""
""fullscreenenter"",""1"",""3598""
","
","
","""event"",""trial"",""time""
""fullscreenenter"",""1"",""3598""
","
","","[{""page_index"":0,""viewing_time"":5112}]","5112.300000190735","","","","","","","","","","","","","","","","","","","","","","","",""
"pit-comprehension","111","874168","0.0-2.0-24.0-0.0","battery-v0.2","","""event"",""trial"",""time""
""fullscreenenter"",""1"",""3598""
","
","
","""event"",""trial"",""time""
""fullscreenenter"",""1"",""3598""
","
","","","8170.200000047684","[""True""]","0","23","9181","294","","","","","","","","","","","","","","","","","","",""
"pit-instructions","112","875994","0.0-2.0-24.0-1.0","battery-v0.2","","""event"",""trial"",""time""
""fullscreenenter"",""1"",""3598""
","
","
","""event"",""trial"",""time""
""fullscreenenter"",""1"",""3598""
","
","","[{""page_index"":0,""viewing_time"":1748.5999999046326}]","1748.8999998569489","","","","","","","","","","","","","","","","","","","","","","","",""
"pit-comprehension","113","883074","0.0-2.0-25.0-0.0","battery-v0.2","","""event"",""trial"",""time""
""fullscreenenter"",""1"",""3598""
","
","
","""event"",""trial"",""time""
""fullscreenenter"",""1"",""3598""
","
","","","7074.199999809265","[""True""]","0","23","9181","294","","","","","","","","","","","","","","","","","","",""
"pit-instructions","114","884625","0.0-2.0-25.0-1.0","battery-v0.2","","""event"",""trial"",""time""
""fullscreenenter"",""1"",""3598""
","
","
","""event"",""trial"",""time""
""fullscreenenter"",""1"",""3598""
","
","","[{""page_index"":0,""viewing_time"":1422.3999998569489}]","1422.7000000476837","","","","","","","","","","","","","","","","","","","","","","","",""
"pit-comprehension","115","891631","0.0-2.0-26.0-0.0","battery-v0.2","","""event"",""trial"",""time""
""fullscreenenter"",""1"",""3598""
","
","
","""event"",""trial"",""time""
""fullscreenenter"",""1"",""3598""
","
","","","7000.300000190735","[""False""]","0","23","9181","294","","","","","","","","","","","","","","","","","","",""
"pit-instructions","116","893370","0.0-2.0-26.0-1.0","battery-v0.2","","""event"",""trial"",""time""
""fullscreenenter"",""1"",""3598""
","
","
","""event"",""trial"",""time""
""fullscreenenter"",""1"",""3598""
","
","","[{""page_index"":0,""viewing_time"":1644.2999999523163}]","1644.7000000476837","","","","","","","","","","","","","","","","","","","","","","","",""
"pit-instructions","117","911663","0.0-3.0","battery-v0.2","","""event"",""trial"",""time""
""fullscreenenter"",""1"",""3598""
","
","
","""event"",""trial"",""time""
""fullscreenenter"",""1"",""3598""
","
","","[{""page_index"":0,""viewing_time"":4632.5},{""page_index"":1,""viewing_time"":5847.700000047684},{""page_index"":2,""viewing_time"":7807.5}]","18288","","","","","","","","","","","","","","","","","","","","","","","",""
"pit-trial","118","915137","0.0-4.0","battery-v0.2","","""event"",""trial"",""time""
""fullscreenenter"",""1"",""3598""
","
","
","""event"",""trial"",""time""
""fullscreenenter"",""1"",""3598""
","
","","","610.4000000953674","","","23","9181","294","&#9728;","elianto","#f73b6a7A","-1"," ","0","-10","[1463.3999998569489]","1","1","","","9181","1","0","4","lose","no-go","0"
"pit-trial","119","918787","0.0-5.0","battery-v0.2","","""event"",""trial"",""time""
""fullscreenenter"",""1"",""3598""
","
","
","""event"",""trial"",""time""
""fullscreenenter"",""1"",""3598""
","
","","","778.8000001907349","","","23","9181","294","&#9730;","elianto","#3366ff99"," "," ","1","+10","[1640.7000000476837]","1","1","","","9181","2","1","1","win","go","0"
"pit-trial","120","922484","0.0-6.0","battery-v0.2","","""event"",""trial"",""time""
""fullscreenenter"",""1"",""3598""
","
","
","""event"",""trial"",""time""
""fullscreenenter"",""1"",""3598""
","
","","","830.3999998569489","","","23","9181","294","&#9733;","elianto","#3366ff99","-1"," ","0","0","[1682.0999999046326]","1","1","","","9181","3","2","2","win","no-go","0"
"pit-trial","121","926244","0.0-7.0","battery-v0.2","","""event"",""trial"",""time""
""fullscreenenter"",""1"",""3598""
","
","
","""event"",""trial"",""time""
""fullscreenenter"",""1"",""3598""
","
","","","895.0999999046326","","","23","9181","294","&#9752;","elianto","#f73b6a7A"," "," ","1","0","[1750.7999999523163]","1","1","","","9181","4","3","3","lose","go","0"
"pit-trial","122","931133","0.0-8.0","battery-v0.2","","""event"",""trial"",""time""
""fullscreenenter"",""1"",""3598""
","
","
","""event"",""trial"",""time""
""fullscreenenter"",""1"",""3598""
","
","","","-1","","","23","9181","294","&#9728;","elianto","#f73b6a7A","-1","-1","1","0","[]","0","1","","","9181","5","0","4","lose","no-go","0"
"pit-trial","123","935023","0.0-9.0","battery-v0.2","","""event"",""trial"",""time""
""fullscreenenter"",""1"",""3598""
","
","
","""event"",""trial"",""time""
""fullscreenenter"",""1"",""3598""
","
","","","1027.3999998569489","","","23","9181","294","&#9752;","elianto","#f73b6a7A"," "," ","1","0","[1879.8999998569489]","1","1","","","9181","6","3","3","lose","go","0"
"pit-trial","124","939273","0.0-10.0","battery-v0.2","","""event"",""trial"",""time""
""fullscreenenter"",""1"",""3598""
","
","
","""event"",""trial"",""time""
""fullscreenenter"",""1"",""3598""
","
","","","1379.6000001430511","","","23","9181","294","&#9733;","elianto","#3366ff99","-1"," ","0","0","[2232.2999999523163]","1","1","","","9181","7","2","2","win","no-go","0"
"pit-trial","125","942756","0.0-11.0","battery-v0.2","","""event"",""trial"",""time""
""fullscreenenter"",""1"",""3598""
","
","
","""event"",""trial"",""time""
""fullscreenenter"",""1"",""3598""
","
","","","626.1999998092651","","","23","9181","294","&#9730;","elianto","#3366ff99"," "," ","1","0","[1477.8999998569489]","1","1","","","9181","8","1","1","win","go","1"
"pit-trial","126","946486","0.0-12.0","battery-v0.2","","""event"",""trial"",""time""
""fullscreenenter"",""1"",""3598""
","
","
","""event"",""trial"",""time""
""fullscreenenter"",""1"",""3598""
","
","","","872","","","23","9181","294","&#9733;","elianto","#3366ff99","-1"," ","0","0","[1724.4000000953674]","1","1","","","9181","9","2","2","win","no-go","0"
"pit-trial","127","951358","0.0-13.0","battery-v0.2","","""event"",""trial"",""time""
""fullscreenenter"",""1"",""3598""
","
","
","""event"",""trial"",""time""
""fullscreenenter"",""1"",""3598""
","
","","","-1","","","23","9181","294","&#9728;","elianto","#f73b6a7A","-1","-1","1","0","[]","0","1","","","9181","10","0","4","lose","no-go","0"
"pit-trial","128","955129","0.0-14.0","battery-v0.2","","""event"",""trial"",""time""
""fullscreenenter"",""1"",""3598""
","
","
","""event"",""trial"",""time""
""fullscreenenter"",""1"",""3598""
","
","","","913.3000001907349","","","23","9181","294","&#9752;","elianto","#f73b6a7A"," "," ","1","0","[1764.5]","1","1","","","9181","11","3","3","lose","go","0"
"pit-trial","129","959209","0.0-15.0","battery-v0.2","","""event"",""trial"",""time""
""fullscreenenter"",""1"",""3598""
","
","
","""event"",""trial"",""time""
""fullscreenenter"",""1"",""3598""
","
","","","1218.5999999046326","","","23","9181","294","&#9730;","elianto","#3366ff99"," "," ","1","+10","[2070.2999999523163]","1","1","","","9181","12","1","1","win","go","0"
"pit-trial","130","963097","0.0-16.0","battery-v0.2","","""event"",""trial"",""time""
""fullscreenenter"",""1"",""3598""
","
","
","""event"",""trial"",""time""
""fullscreenenter"",""1"",""3598""
","
","","","1031.2999999523163","","","23","9181","294","&#9752;","elianto","#f73b6a7A"," "," ","1","0","[1882]","1","1","","","9181","13","3","3","lose","go","0"
"pit-trial","131","967962","0.0-17.0","battery-v0.2","","""event"",""trial"",""time""
""fullscreenenter"",""1"",""3598""
","
","
","""event"",""trial"",""time""
""fullscreenenter"",""1"",""3598""
","
","","","-1","","","23","9181","294","&#9733;","elianto","#3366ff99","-1","-1","1","+10","[]","0","1","","","9181","14","2","2","win","no-go","0"
"pit-trial","132","971511","0.0-18.0","battery-v0.2","","""event"",""trial"",""time""
""fullscreenenter"",""1"",""3598""
","
","
","""event"",""trial"",""time""
""fullscreenenter"",""1"",""3598""
","
","","","688.1999998092651","","","23","9181","294","&#9730;","elianto","#3366ff99"," "," ","1","0","[1539.0999999046326]","1","1","","","9181","15","1","1","win","go","1"
"pit-trial","133","976367","0.0-19.0","battery-v0.2","","""event"",""trial"",""time""
""fullscreenenter"",""1"",""3598""
","
","
","""event"",""trial"",""time""
""fullscreenenter"",""1"",""3598""
","
","","","-1","","","23","9181","294","&#9728;","elianto","#f73b6a7A","-1","-1","1","-10","[]","0","1","","","9181","16","0","4","lose","no-go","1"
"pit-trial","134","980062","0.0-20.0","battery-v0.2","","""event"",""trial"",""time""
""fullscreenenter"",""1"",""3598""
","
","
","""event"",""trial"",""time""
""fullscreenenter"",""1"",""3598""
","
","","","838","","","23","9181","294","&#9752;","elianto","#f73b6a7A"," "," ","1","0","[1688.5]","1","1","","","9181","17","3","3","lose","go","0"
"pit-trial","135","983887","0.0-21.0","battery-v0.2","","""event"",""trial"",""time""
""fullscreenenter"",""1"",""3598""
","
","
","""event"",""trial"",""time""
""fullscreenenter"",""1"",""3598""
","
","","","953.5","","","23","9181","294","&#9730;","elianto","#3366ff99"," "," ","1","+10","[1805]","1","1","","","9181","18","1","1","win","go","0"
"pit-trial","136","988745","0.0-22.0","battery-v0.2","","""event"",""trial"",""time""
""fullscreenenter"",""1"",""3598""
","
","
","""event"",""trial"",""time""
""fullscreenenter"",""1"",""3598""
","
","","","-1","","","23","9181","294","&#9733;","elianto","#3366ff99","-1","-1","1","+10","[]","0","1","","","9181","19","2","2","win","no-go","0"
"pit-trial","137","993601","0.0-23.0","battery-v0.2","","""event"",""trial"",""time""
""fullscreenenter"",""1"",""3598""
","
","
","""event"",""trial"",""time""
""fullscreenenter"",""1"",""3598""
","
","","","-1","","","23","9181","294","&#9728;","elianto","#f73b6a7A","-1","-1","1","0","[]","0","1","","","9181","20","0","4","lose","no-go","0"
"pit-instructions","138","1009755","0.0-24.0","battery-v0.2","","""event"",""trial"",""time""
""fullscreenenter"",""1"",""3598""
","
","
","""event"",""trial"",""time""
""fullscreenenter"",""1"",""3598""
","
","","[{""page_index"":0,""viewing_time"":7988.399999856949},{""page_index"":1,""viewing_time"":8161.100000143051}]","16149.799999952316","","","","","","","","","","","","","","","","","","","","","","","",""
"pit-trial","139","1013556","0.0-25.0","battery-v0.2","","""event"",""trial"",""time""
""fullscreenenter"",""1"",""3598""
","
","
","""event"",""trial"",""time""
""fullscreenenter"",""1"",""3598""
","
","","","934.0999999046326","","","23","9181","294","j","elianto","#f73b6a7A","-1"," ","0","-10","[1785]","1","2","","","9181","21","0","4","lose","no-go","0"
"pit-trial","140","1017816","0.0-26.0","battery-v0.2","","""event"",""trial"",""time""
""fullscreenenter"",""1"",""3598""
","
","
","""event"",""trial"",""time""
""fullscreenenter"",""1"",""3598""
","
","","","1389","","","23","9181","294","w","elianto","#f73b6a7A"," "," ","1","0","[2244.7000000476837]","1","2","","","9181","22","3","3","lose","go","0"
"pit-trial","141","1022689","0.0-27.0","battery-v0.2","","""event"",""trial"",""time""
""fullscreenenter"",""1"",""3598""
","
","
","""event"",""trial"",""time""
""fullscreenenter"",""1"",""3598""
","
","","","-1","","","23","9181","294","d","elianto","#3366ff99"," ","-1","0","0","[]","0","2","","","9181","23","1","1","win","go","0"
"pit-trial","142","1027558","0.0-28.0","battery-v0.2","","""event"",""trial"",""time""
""fullscreenenter"",""1"",""3598""
","
","
","""event"",""trial"",""time""
""fullscreenenter"",""1"",""3598""
","
","","","-1","","","23","9181","294","e","elianto","#f73b6a7A","-1","-1","1","0","[]","0","2","","","9181","24","2","4","lose","no-go","0"
"pit-trial","143","1032437","0.0-29.0","battery-v0.2","","""event"",""trial"",""time""
""fullscreenenter"",""1"",""3598""
","
","
","""event"",""trial"",""time""
""fullscreenenter"",""1"",""3598""
","
","","","-1","","","23","9181","294","j","elianto","#f73b6a7A","-1","-1","1","0","[]","0","2","","","9181","25","0","4","lose","no-go","0"
"pit-trial","144","1037315","0.0-30.0","battery-v0.2","","""event"",""trial"",""time""
""fullscreenenter"",""1"",""3598""
","
","
","""event"",""trial"",""time""
""fullscreenenter"",""1"",""3598""
","
","","","-1","","","23","9181","294","e","elianto","#f73b6a7A","-1","-1","1","0","[]","0","2","","","9181","26","2","4","lose","no-go","0"
"pit-trial","145","1041098","0.0-31.0","battery-v0.2","","""event"",""trial"",""time""
""fullscreenenter"",""1"",""3598""
","
","
","""event"",""trial"",""time""
""fullscreenenter"",""1"",""3598""
","
","","","922.2000000476837","","","23","9181","294","d","elianto","#3366ff99"," "," ","1","+10","[1774.2000000476837]","1","2","","","9181","27","1","1","win","go","0"
"pit-trial","146","1044828","0.0-32.0","battery-v0.2","","""event"",""trial"",""time""
""fullscreenenter"",""1"",""3598""
","
","
","""event"",""trial"",""time""
""fullscreenenter"",""1"",""3598""
","
","","","870.8999998569489","","","23","9181","294","w","elianto","#f73b6a7A"," "," ","1","0","[1721.5999999046326]","1","2","","","9181","28","3","3","lose","go","0"
"pit-trial","147","1048491","0.0-33.0","battery-v0.2","","""event"",""trial"",""time""
""fullscreenenter"",""1"",""3598""
","
","
","""event"",""trial"",""time""
""fullscreenenter"",""1"",""3598""
","
","","","804.7999999523163","","","23","9181","294","d","elianto","#3366ff99"," "," ","1","+10","[1655.5999999046326]","1","2","","","9181","29","1","1","win","go","0"
"pit-trial","148","1053349","0.0-34.0","battery-v0.2","","""event"",""trial"",""time""
""fullscreenenter"",""1"",""3598""
","
","
","""event"",""trial"",""time""
""fullscreenenter"",""1"",""3598""
","
","","","-1","","","23","9181","294","e","elianto","#f73b6a7A","-1","-1","1","0","[]","0","2","","","9181","30","2","4","lose","no-go","0"
"pit-trial","149","1057206","0.0-35.0","battery-v0.2","","""event"",""trial"",""time""
""fullscreenenter"",""1"",""3598""
","
","
","""event"",""trial"",""time""
""fullscreenenter"",""1"",""3598""
","
","","","1000.1000001430511","","","23","9181","294","w","elianto","#f73b6a7A"," "," ","1","0","[1850.6000001430511]","1","2","","","9181","31","3","3","lose","go","0"
"pit-trial","150","1062063","0.0-36.0","battery-v0.2","","""event"",""trial"",""time""
""fullscreenenter"",""1"",""3598""
","
","
","""event"",""trial"",""time""
""fullscreenenter"",""1"",""3598""
","
","","","-1","","","23","9181","294","j","elianto","#f73b6a7A","-1","-1","1","0","[]","0","2","","","9181","32","0","4","lose","no-go","0"
"pit-trial","151","1066921","0.0-37.0","battery-v0.2","","""event"",""trial"",""time""
""fullscreenenter"",""1"",""3598""
","
","
","""event"",""trial"",""time""
""fullscreenenter"",""1"",""3598""
","
","","","-1","","","23","9181","294","e","elianto","#f73b6a7A","-1","-1","1","0","[]","0","2","","","9181","33","2","4","lose","no-go","0"
"pit-trial","152","1070650","0.0-38.0","battery-v0.2","","""event"",""trial"",""time""
""fullscreenenter"",""1"",""3598""
","
","
","""event"",""trial"",""time""
""fullscreenenter"",""1"",""3598""
","
","","","868.9000000953674","","","23","9181","294","w","elianto","#f73b6a7A"," "," ","1","0","[1719.0999999046326]","1","2","","","9181","34","3","3","lose","go","0"
"pit-trial","153","1075509","0.0-39.0","battery-v0.2","","""event"",""trial"",""time""
""fullscreenenter"",""1"",""3598""
","
","
","""event"",""trial"",""time""
""fullscreenenter"",""1"",""3598""
","
","","","-1","","","23","9181","294","j","elianto","#f73b6a7A","-1","-1","1","0","[]","0","2","","","9181","35","0","4","lose","no-go","0"
"pit-trial","154","1079044","0.0-40.0","battery-v0.2","","""event"",""trial"",""time""
""fullscreenenter"",""1"",""3598""
","
","
","""event"",""trial"",""time""
""fullscreenenter"",""1"",""3598""
","
","","","678.2999999523163","","","23","9181","294","d","elianto","#3366ff99"," "," ","1","0","[1529.5]","1","2","","","9181","36","1","1","win","go","1"
"pit-trial","155","1082485","0.0-41.0","battery-v0.2","","""event"",""trial"",""time""
""fullscreenenter"",""1"",""3598""
","
","
","""event"",""trial"",""time""
""fullscreenenter"",""1"",""3598""
","
","","","583.8999998569489","","","23","9181","294","w","elianto","#f73b6a7A"," "," ","1","0","[1434.2999999523163]","1","2","","","9181","37","3","3","lose","go","0"
"pit-trial","156","1087344","0.0-42.0","battery-v0.2","","""event"",""trial"",""time""
""fullscreenenter"",""1"",""3598""
","
","
","""event"",""trial"",""time""
""fullscreenenter"",""1"",""3598""
","
","","","-1","","","23","9181","294","j","elianto","#f73b6a7A","-1","-1","1","0","[]","0","2","","","9181","38","0","4","lose","no-go","0"
"pit-trial","157","1090867","0.0-43.0","battery-v0.2","","""event"",""trial"",""time""
""fullscreenenter"",""1"",""3598""
","
","
","""event"",""trial"",""time""
""fullscreenenter"",""1"",""3598""
","
","","","666.7000000476837","","","23","9181","294","d","elianto","#3366ff99"," "," ","1","+10","[1517]","1","2","","","9181","39","1","1","win","go","0"
"pit-trial","158","1095724","0.0-44.0","battery-v0.2","","""event"",""trial"",""time""
""fullscreenenter"",""1"",""3598""
","
","
","""event"",""trial"",""time""
""fullscreenenter"",""1"",""3598""
","
","","","-1","","","23","9181","294","e","elianto","#f73b6a7A","-1","-1","1","0","[]","0","2","","","9181","40","2","4","lose","no-go","0"
"pit-trial","159","1099208","0.0-45.0","battery-v0.2","","""event"",""trial"",""time""
""fullscreenenter"",""1"",""3598""
","
","
","""event"",""trial"",""time""
""fullscreenenter"",""1"",""3598""
","
","","","627.0999999046326","","","23","9181","294","w","elianto","#f73b6a7A"," "," ","1","-10","[1477.3999998569489]","1","2","","","9181","41","3","3","lose","go","1"
"pit-trial","160","1102691","0.0-46.0","battery-v0.2","","""event"",""trial"",""time""
""fullscreenenter"",""1"",""3598""
","
","
","""event"",""trial"",""time""
""fullscreenenter"",""1"",""3598""
","
","","","621","","","23","9181","294","d","elianto","#3366ff99"," "," ","1","+10","[1471.9000000953674]","1","2","","","9181","42","1","1","win","go","0"
"pit-trial","161","1107552","0.0-47.0","battery-v0.2","","""event"",""trial"",""time""
""fullscreenenter"",""1"",""3598""
","
","
","""event"",""trial"",""time""
""fullscreenenter"",""1"",""3598""
","
","","","-1","","","23","9181","294","e","elianto","#f73b6a7A","-1","-1","1","-10","[]","0","2","","","9181","43","2","4","lose","no-go","1"
"pit-trial","162","1112414","0.0-48.0","battery-v0.2","","""event"",""trial"",""time""
""fullscreenenter"",""1"",""3598""
","
","
","""event"",""trial"",""time""
""fullscreenenter"",""1"",""3598""
","
","","","-1","","","23","9181","294","j","elianto","#f73b6a7A","-1","-1","1","-10","[]","0","2","","","9181","44","0","4","lose","no-go","1"
"pit-trial","163","1117271","0.0-49.0","battery-v0.2","","""event"",""trial"",""time""
""fullscreenenter"",""1"",""3598""
","
","
","""event"",""trial"",""time""
""fullscreenenter"",""1"",""3598""
","
","","","-1","","","23","9181","294","s","elianto","#3366ff99","-1","-1","1","+10","[]","0","2","","","9181","45","4","2","win","no-go","0"
"pit-trial","164","1120734","0.0-50.0","battery-v0.2","","""event"",""trial"",""time""
""fullscreenenter"",""1"",""3598""
","
","
","""event"",""trial"",""time""
""fullscreenenter"",""1"",""3598""
","
","","","604.7000000476837","","","23","9181","294","w","elianto","#f73b6a7A"," "," ","1","-10","[1455,2013.5,2413.5999999046326,2836,3118,3413.899999856949]","6","2","","","9181","46","3","3","lose","go","1"
"pit-trial","165","1125602","0.0-51.0","battery-v0.2","","""event"",""trial"",""time""
""fullscreenenter"",""1"",""3598""
","
","
","""event"",""trial"",""time""
""fullscreenenter"",""1"",""3598""
","
","","","-1","","","23","9181","294","j","elianto","#f73b6a7A","-1","-1","1","0","[]","0","2","","","9181","47","0","4","lose","no-go","0"
"pit-trial","166","1130464","0.0-52.0","battery-v0.2","","""event"",""trial"",""time""
""fullscreenenter"",""1"",""3598""
","
","
","""event"",""trial"",""time""
""fullscreenenter"",""1"",""3598""
","
","","","-1","","","23","9181","294","e","elianto","#f73b6a7A","-1","-1","1","0","[]","0","2","","","9181","48","2","4","lose","no-go","0"
"pit-trial","167","1135321","0.0-53.0","battery-v0.2","","""event"",""trial"",""time""
""fullscreenenter"",""1"",""3598""
","
","
","""event"",""trial"",""time""
""fullscreenenter"",""1"",""3598""
","
","","","-1","","","23","9181","294","j","elianto","#f73b6a7A","-1","-1","1","0","[]","0","2","","","9181","49","0","4","lose","no-go","0"
"pit-trial","168","1138860","0.0-54.0","battery-v0.2","","""event"",""trial"",""time""
""fullscreenenter"",""1"",""3598""
","
","
","""event"",""trial"",""time""
""fullscreenenter"",""1"",""3598""
","
","","","684.2000000476837","","","23","9181","294","w","elianto","#f73b6a7A"," "," ","1","0","[1534.4000000953674]","1","2","","","9181","50","3","3","lose","go","0"
"pit-trial","169","1142493","0.0-55.0","battery-v0.2","","""event"",""trial"",""time""
""fullscreenenter"",""1"",""3598""
","
","
","""event"",""trial"",""time""
""fullscreenenter"",""1"",""3598""
","
","","","777.5","","","23","9181","294","s","elianto","#3366ff99","-1"," ","0","0","[1627.6000001430511]","1","2","","","9181","51","4","2","win","no-go","0"
"pit-trial","170","1145905","0.0-56.0","battery-v0.2","","""event"",""trial"",""time""
""fullscreenenter"",""1"",""3598""
","
","
","""event"",""trial"",""time""
""fullscreenenter"",""1"",""3598""
","
","","","553.7999999523163","","","23","9181","294","d","elianto","#3366ff99"," "," ","1","+10","[1405.4000000953674]","1","2","","","9181","52","1","1","win","go","0"
"pit-trial","171","1150762","0.0-57.0","battery-v0.2","","""event"",""trial"",""time""
""fullscreenenter"",""1"",""3598""
","
","
","""event"",""trial"",""time""
""fullscreenenter"",""1"",""3598""
","
","","","-1","","","23","9181","294","s","elianto","#3366ff99","-1","-1","1","0","[]","0","2","","","9181","53","4","2","win","no-go","1"
"pit-trial","172","1155630","0.0-58.0","battery-v0.2","","""event"",""trial"",""time""
""fullscreenenter"",""1"",""3598""
","
","
","""event"",""trial"",""time""
""fullscreenenter"",""1"",""3598""
","
","","","-1","","","23","9181","294","j","elianto","#f73b6a7A","-1","-1","1","0","[]","0","2","","","9181","54","0","4","lose","no-go","0"
"pit-trial","173","1159158","0.0-59.0","battery-v0.2","","""event"",""trial"",""time""
""fullscreenenter"",""1"",""3598""
","
","
","""event"",""trial"",""time""
""fullscreenenter"",""1"",""3598""
","
","","","672.5999999046326","","","23","9181","294","d","elianto","#3366ff99"," "," ","1","0","[1523.6999998092651]","1","2","","","9181","55","1","1","win","go","1"
"pit-trial","174","1164015","0.0-60.0","battery-v0.2","","""event"",""trial"",""time""
""fullscreenenter"",""1"",""3598""
","
","
","""event"",""trial"",""time""
""fullscreenenter"",""1"",""3598""
","
","","","-1","","","23","9181","294","e","elianto","#f73b6a7A","-1","-1","1","0","[]","0","2","","","9181","56","2","4","lose","no-go","0"
"pit-trial","175","1167539","0.0-61.0","battery-v0.2","","""event"",""trial"",""time""
""fullscreenenter"",""1"",""3598""
","
","
","""event"",""trial"",""time""
""fullscreenenter"",""1"",""3598""
","
","","","661.7000000476837","","","23","9181","294","w","elianto","#f73b6a7A"," "," ","1","-10","[1513.5]","1","2","","","9181","57","3","3","lose","go","1"
"pit-trial","176","1172397","0.0-62.0","battery-v0.2","","""event"",""trial"",""time""
""fullscreenenter"",""1"",""3598""
","
","
","""event"",""trial"",""time""
""fullscreenenter"",""1"",""3598""
","
","","","-1","","","23","9181","294","j","elianto","#f73b6a7A","-1","-1","1","0","[]","0","2","","","9181","58","0","4","lose","no-go","0"
"pit-trial","177","1177254","0.0-63.0","battery-v0.2","","""event"",""trial"",""time""
""fullscreenenter"",""1"",""3598""
","
","
","""event"",""trial"",""time""
""fullscreenenter"",""1"",""3598""
","
","","","-1","","","23","9181","294","s","elianto","#3366ff99","-1","-1","1","+10","[]","0","2","","","9181","59","4","2","win","no-go","0"
"pit-trial","178","1180931","0.0-64.0","battery-v0.2","","""event"",""trial"",""time""
""fullscreenenter"",""1"",""3598""
","
","
","""event"",""trial"",""time""
""fullscreenenter"",""1"",""3598""
","
","","","818.1999998092651","","","23","9181","294","d","elianto","#3366ff99"," "," ","1","0","[1669.5999999046326]","1","2","","","9181","60","1","1","win","go","1"
"pit-trial","179","1185790","0.0-65.0","battery-v0.2","","""event"",""trial"",""time""
""fullscreenenter"",""1"",""3598""
","
","
","""event"",""trial"",""time""
""fullscreenenter"",""1"",""3598""
","
","","","-1","","","23","9181","294","e","elianto","#f73b6a7A","-1","-1","1","0","[]","0","2","","","9181","61","2","4","lose","no-go","0"
"pit-trial","180","1189462","0.0-66.0","battery-v0.2","","""event"",""trial"",""time""
""fullscreenenter"",""1"",""3598""
","
","
","""event"",""trial"",""time""
""fullscreenenter"",""1"",""3598""
","
","","","814.2000000476837","","","23","9181","294","d","elianto","#3366ff99"," "," ","1","0","[1666.2000000476837]","1","2","","","9181","62","1","1","win","go","1"
"pit-trial","181","1193173","0.0-67.0","battery-v0.2","","""event"",""trial"",""time""
""fullscreenenter"",""1"",""3598""
","
","
","""event"",""trial"",""time""
""fullscreenenter"",""1"",""3598""
","
","","","848.6000001430511","","","23","9181","294","w","elianto","#f73b6a7A"," "," ","1","-10","[1700.1000001430511]","1","2","","","9181","63","3","3","lose","go","1"
"pit-trial","182","1198029","0.0-68.0","battery-v0.2","","""event"",""trial"",""time""
""fullscreenenter"",""1"",""3598""
","
","
","""event"",""trial"",""time""
""fullscreenenter"",""1"",""3598""
","
","","","-1","","","23","9181","294","s","elianto","#3366ff99","-1","-1","1","+10","[]","0","2","","","9181","64","4","2","win","no-go","0"
"pit-trial","183","1201793","0.0-69.0","battery-v0.2","","""event"",""trial"",""time""
""fullscreenenter"",""1"",""3598""
","
","
","""event"",""trial"",""time""
""fullscreenenter"",""1"",""3598""
","
","","","905.5","","","23","9181","294","w","elianto","#f73b6a7A"," "," ","1","0","[1756.4000000953674]","1","2","","","9181","65","3","3","lose","go","0"
"pit-trial","184","1206653","0.0-70.0","battery-v0.2","","""event"",""trial"",""time""
""fullscreenenter"",""1"",""3598""
","
","
","""event"",""trial"",""time""
""fullscreenenter"",""1"",""3598""
","
","","","-1","","","23","9181","294","e","elianto","#f73b6a7A","-1","-1","1","-10","[]","0","2","","","9181","66","2","4","lose","no-go","1"
"pit-trial","185","1211510","0.0-71.0","battery-v0.2","","""event"",""trial"",""time""
""fullscreenenter"",""1"",""3598""
","
","
","""event"",""trial"",""time""
""fullscreenenter"",""1"",""3598""
","
","","","-1","","","23","9181","294","d","elianto","#3366ff99"," ","-1","0","+10","[]","0","2","","","9181","67","1","1","win","go","1"
"pit-trial","186","1216371","0.0-72.0","battery-v0.2","","""event"",""trial"",""time""
""fullscreenenter"",""1"",""3598""
","
","
","""event"",""trial"",""time""
""fullscreenenter"",""1"",""3598""
","
","","","-1","","","23","9181","294","s","elianto","#3366ff99","-1","-1","1","+10","[]","0","2","","","9181","68","4","2","win","no-go","0"
"pit-trial","187","1221228","0.0-73.0","battery-v0.2","","""event"",""trial"",""time""
""fullscreenenter"",""1"",""3598""
","
","
","""event"",""trial"",""time""
""fullscreenenter"",""1"",""3598""
","
","","","-1","","","23","9181","294","s","elianto","#3366ff99","-1","-1","1","+10","[]","0","2","","","9181","69","4","2","win","no-go","0"
"pit-trial","188","1226085","0.0-74.0","battery-v0.2","","""event"",""trial"",""time""
""fullscreenenter"",""1"",""3598""
","
","
","""event"",""trial"",""time""
""fullscreenenter"",""1"",""3598""
","
","","","-1","","","23","9181","294","d","elianto","#3366ff99"," ","-1","0","0","[]","0","2","","","9181","70","1","1","win","go","0"
"pit-trial","189","1229674","0.0-75.0","battery-v0.2","","""event"",""trial"",""time""
""fullscreenenter"",""1"",""3598""
","
","
","""event"",""trial"",""time""
""fullscreenenter"",""1"",""3598""
","
","","","733.5","","","23","9181","294","w","elianto","#f73b6a7A"," "," ","1","0","[1583.9000000953674]","1","2","","","9181","71","3","3","lose","go","0"
"pit-trial","190","1234169","0.0-76.0","battery-v0.2","","""event"",""trial"",""time""
""fullscreenenter"",""1"",""3598""
","
","
","""event"",""trial"",""time""
""fullscreenenter"",""1"",""3598""
","
","","","1636.4000000953674","","","23","9181","294","p","elianto","#3366ff99"," "," ","1","+10","[2486.7000000476837]","1","2","","","9181","72","5","1","win","go","0"
"pit-trial","191","1237843","0.0-77.0","battery-v0.2","","""event"",""trial"",""time""
""fullscreenenter"",""1"",""3598""
","
","
","""event"",""trial"",""time""
""fullscreenenter"",""1"",""3598""
","
","","","819.2000000476837","","","23","9181","294","p","elianto","#3366ff99"," "," ","1","+10","[1669.5]","1","2","","","9181","73","5","1","win","go","0"
"pit-trial","192","1241565","0.0-78.0","battery-v0.2","","""event"",""trial"",""time""
""fullscreenenter"",""1"",""3598""
","
","
","""event"",""trial"",""time""
""fullscreenenter"",""1"",""3598""
","
","","","864.7999999523163","","","23","9181","294","w","elianto","#f73b6a7A"," "," ","1","-10","[1715.9000000953674]","1","2","","","9181","74","3","3","lose","go","1"
"pit-trial","193","1246069","0.0-79.0","battery-v0.2","","""event"",""trial"",""time""
""fullscreenenter"",""1"",""3598""
","
","
","""event"",""trial"",""time""
""fullscreenenter"",""1"",""3598""
","
","","","1646.7999999523163","","","23","9181","294","d","elianto","#3366ff99"," "," ","1","+10","[2497.5]","1","2","","","9181","75","1","1","win","go","0"
"pit-trial","194","1250929","0.0-80.0","battery-v0.2","","""event"",""trial"",""time""
""fullscreenenter"",""1"",""3598""
","
","
","""event"",""trial"",""time""
""fullscreenenter"",""1"",""3598""
","
","","","-1","","","23","9181","294","s","elianto","#3366ff99","-1","-1","1","+10","[]","0","2","","","9181","76","4","2","win","no-go","0"
"pit-trial","195","1254742","0.0-81.0","battery-v0.2","","""event"",""trial"",""time""
""fullscreenenter"",""1"",""3598""
","
","
","""event"",""trial"",""time""
""fullscreenenter"",""1"",""3598""
","
","","","957.8999998569489","","","23","9181","294","w","elianto","#f73b6a7A"," "," ","1","-10","[1808.2000000476837]","1","2","","","9181","77","3","3","lose","go","1"
"pit-trial","196","1259600","0.0-82.0","battery-v0.2","","""event"",""trial"",""time""
""fullscreenenter"",""1"",""3598""
","
","
","""event"",""trial"",""time""
""fullscreenenter"",""1"",""3598""
","
","","","-1","","","23","9181","294","g","elianto","#f73b6a7A","-1","-1","1","0","[]","0","2","","","9181","78","6","4","lose","no-go","0"
"pit-trial","197","1264461","0.0-83.0","battery-v0.2","","""event"",""trial"",""time""
""fullscreenenter"",""1"",""3598""
","
","
","""event"",""trial"",""time""
""fullscreenenter"",""1"",""3598""
","
","","","-1","","","23","9181","294","s","elianto","#3366ff99","-1","-1","1","+10","[]","0","2","","","9181","79","4","2","win","no-go","0"
"pit-trial","198","1268187","0.0-84.0","battery-v0.2","","""event"",""trial"",""time""
""fullscreenenter"",""1"",""3598""
","
","
","""event"",""trial"",""time""
""fullscreenenter"",""1"",""3598""
","
","","","868.6000001430511","","","23","9181","294","p","elianto","#3366ff99"," "," ","1","0","[1719.7000000476837]","1","2","","","9181","80","5","1","win","go","1"
"pit-trial","199","1273044","0.0-85.0","battery-v0.2","","""event"",""trial"",""time""
""fullscreenenter"",""1"",""3598""
","
","
","""event"",""trial"",""time""
""fullscreenenter"",""1"",""3598""
","
","","","-1","","","23","9181","294","s","elianto","#3366ff99","-1","-1","1","+10","[]","0","2","","","9181","81","4","2","win","no-go","0"
"pit-trial","200","1276674","0.0-86.0","battery-v0.2","","""event"",""trial"",""time""
""fullscreenenter"",""1"",""3598""
","
","
","""event"",""trial"",""time""
""fullscreenenter"",""1"",""3598""
","
","","","771.9000000953674","","","23","9181","294","p","elianto","#3366ff99"," "," ","1","0","[1624.3999998569489]","1","2","","","9181","82","5","1","win","go","1"
"pit-trial","201","1281537","0.0-87.0","battery-v0.2","","""event"",""trial"",""time""
""fullscreenenter"",""1"",""3598""
","
","
","""event"",""trial"",""time""
""fullscreenenter"",""1"",""3598""
","
","","","-1","","","23","9181","294","a","elianto","#f73b6a7A"," ","-1","0","-10","[]","0","2","","","9181","83","7","3","lose","go","0"
"pit-trial","202","1286399","0.0-88.0","battery-v0.2","","""event"",""trial"",""time""
""fullscreenenter"",""1"",""3598""
","
","
","""event"",""trial"",""time""
""fullscreenenter"",""1"",""3598""
","
","","","-1","","","23","9181","294","g","elianto","#f73b6a7A","-1","-1","1","-10","[]","0","2","","","9181","84","6","4","lose","no-go","1"
"pit-trial","203","1290040","0.0-89.0","battery-v0.2","","""event"",""trial"",""time""
""fullscreenenter"",""1"",""3598""
","
","
","""event"",""trial"",""time""
""fullscreenenter"",""1"",""3598""
","
","","","780.8999998569489","","","23","9181","294","g","elianto","#f73b6a7A","-1"," ","0","0","[1632.5999999046326]","1","2","","","9181","85","6","4","lose","no-go","1"
"pit-trial","204","1293755","0.0-90.0","battery-v0.2","","""event"",""trial"",""time""
""fullscreenenter"",""1"",""3598""
","
","
","""event"",""trial"",""time""
""fullscreenenter"",""1"",""3598""
","
","","","858.4000000953674","","","23","9181","294","a","elianto","#f73b6a7A"," "," ","1","0","[1709.5]","1","2","","","9181","86","7","3","lose","go","0"
"pit-trial","205","1298611","0.0-91.0","battery-v0.2","","""event"",""trial"",""time""
""fullscreenenter"",""1"",""3598""
","
","
","""event"",""trial"",""time""
""fullscreenenter"",""1"",""3598""
","
","","","-1","","","23","9181","294","s","elianto","#3366ff99","-1","-1","1","+10","[]","0","2","","","9181","87","4","2","win","no-go","0"
"pit-trial","206","1302504","0.0-92.0","battery-v0.2","","""event"",""trial"",""time""
""fullscreenenter"",""1"",""3598""
","
","
","""event"",""trial"",""time""
""fullscreenenter"",""1"",""3598""
","
","","","1036.2999999523163","","","23","9181","294","p","elianto","#3366ff99"," "," ","1","+10","[1887.2000000476837]","1","2","","","9181","88","5","1","win","go","0"
"pit-trial","207","1306117","0.0-93.0","battery-v0.2","","""event"",""trial"",""time""
""fullscreenenter"",""1"",""3598""
","
","
","""event"",""trial"",""time""
""fullscreenenter"",""1"",""3598""
","
","","","755","","","23","9181","294","a","elianto","#f73b6a7A"," "," ","1","0","[1605.7999999523163]","1","2","","","9181","89","7","3","lose","go","0"
"pit-trial","208","1309849","0.0-94.0","battery-v0.2","","""event"",""trial"",""time""
""fullscreenenter"",""1"",""3598""
","
","
","""event"",""trial"",""time""
""fullscreenenter"",""1"",""3598""
","
","","","876.5999999046326","","","23","9181","294","p","elianto","#3366ff99"," "," ","1","+10","[1727.1000001430511]","1","2","","","9181","90","5","1","win","go","0"
"pit-trial","209","1314706","0.0-95.0","battery-v0.2","","""event"",""trial"",""time""
""fullscreenenter"",""1"",""3598""
","
","
","""event"",""trial"",""time""
""fullscreenenter"",""1"",""3598""
","
","","","-1","","","23","9181","294","s","elianto","#3366ff99","-1","-1","1","0","[]","0","2","","","9181","91","4","2","win","no-go","1"
"pit-trial","210","1318664","0.0-96.0","battery-v0.2","","""event"",""trial"",""time""
""fullscreenenter"",""1"",""3598""
","
","
","""event"",""trial"",""time""
""fullscreenenter"",""1"",""3598""
","
","","","1099.5999999046326","","","23","9181","294","g","elianto","#f73b6a7A","-1"," ","0","0","[1950.4000000953674]","1","2","","","9181","92","6","4","lose","no-go","1"
"pit-trial","211","1322304","0.0-97.0","battery-v0.2","","""event"",""trial"",""time""
""fullscreenenter"",""1"",""3598""
","
","
","""event"",""trial"",""time""
""fullscreenenter"",""1"",""3598""
","
","","","783","","","23","9181","294","g","elianto","#f73b6a7A","-1"," ","0","-10","[1634.5999999046326]","1","2","","","9181","93","6","4","lose","no-go","0"
"pit-trial","212","1327161","0.0-98.0","battery-v0.2","","""event"",""trial"",""time""
""fullscreenenter"",""1"",""3598""
","
","
","""event"",""trial"",""time""
""fullscreenenter"",""1"",""3598""
","
","","","-1","","","23","9181","294","l","elianto","#3366ff99","-1","-1","1","+10","[]","0","2","","","9181","94","8","2","win","no-go","0"
"pit-trial","213","1331554","0.0-99.0","battery-v0.2","","""event"",""trial"",""time""
""fullscreenenter"",""1"",""3598""
","
","
","""event"",""trial"",""time""
""fullscreenenter"",""1"",""3598""
","
","","","1533.4000000953674","","","23","9181","294","a","elianto","#f73b6a7A"," "," ","1","0","[2384]","1","2","","","9181","95","7","3","lose","go","0"
"pit-trial","214","1335448","0.0-100.0","battery-v0.2","","""event"",""trial"",""time""
""fullscreenenter"",""1"",""3598""
","
","
","""event"",""trial"",""time""
""fullscreenenter"",""1"",""3598""
","
","","","1034.5999999046326","","","23","9181","294","p","elianto","#3366ff99"," "," ","1","+10","[1887.5]","1","2","","","9181","96","5","1","win","go","0"
"pit-trial","215","1339060","0.0-101.0","battery-v0.2","","""event"",""trial"",""time""
""fullscreenenter"",""1"",""3598""
","
","
","""event"",""trial"",""time""
""fullscreenenter"",""1"",""3598""
","
","","","756.2000000476837","","","23","9181","294","p","elianto","#3366ff99"," "," ","1","+10","[1606.2000000476837]","1","2","","","9181","97","5","1","win","go","0"
"pit-trial","216","1342729","0.0-102.0","battery-v0.2","","""event"",""trial"",""time""
""fullscreenenter"",""1"",""3598""
","
","
","""event"",""trial"",""time""
""fullscreenenter"",""1"",""3598""
","
","","","813.4000000953674","","","23","9181","294","g","elianto","#f73b6a7A","-1"," ","0","-10","[1663.9000000953674]","1","2","","","9181","98","6","4","lose","no-go","0"
"pit-trial","217","1347587","0.0-103.0","battery-v0.2","","""event"",""trial"",""time""
""fullscreenenter"",""1"",""3598""
","
","
","""event"",""trial"",""time""
""fullscreenenter"",""1"",""3598""
","
","","","-1","","","23","9181","294","l","elianto","#3366ff99","-1","-1","1","+10","[]","0","2","","","9181","99","8","2","win","no-go","0"
"pit-trial","218","1351293","0.0-104.0","battery-v0.2","","""event"",""trial"",""time""
""fullscreenenter"",""1"",""3598""
","
","
","""event"",""trial"",""time""
""fullscreenenter"",""1"",""3598""
","
","","","846.5","","","23","9181","294","a","elianto","#f73b6a7A"," "," ","1","0","[1700.8999998569489]","1","2","","","9181","100","7","3","lose","go","0"
"pit-trial","219","1354949","0.0-105.0","battery-v0.2","","""event"",""trial"",""time""
""fullscreenenter"",""1"",""3598""
","
","
","""event"",""trial"",""time""
""fullscreenenter"",""1"",""3598""
","
","","","800.5999999046326","","","23","9181","294","p","elianto","#3366ff99"," "," ","1","0","[1651.4000000953674]","1","2","","","9181","101","5","1","win","go","1"
"pit-trial","220","1359808","0.0-106.0","battery-v0.2","","""event"",""trial"",""time""
""fullscreenenter"",""1"",""3598""
","
","
","""event"",""trial"",""time""
""fullscreenenter"",""1"",""3598""
","
","","","-1","","","23","9181","294","l","elianto","#3366ff99","-1","-1","1","+10","[]","0","2","","","9181","102","8","2","win","no-go","0"
"pit-trial","221","1363413","0.0-107.0","battery-v0.2","","""event"",""trial"",""time""
""fullscreenenter"",""1"",""3598""
","
","
","""event"",""trial"",""time""
""fullscreenenter"",""1"",""3598""
","
","","","743.2000000476837","","","23","9181","294","g","elianto","#f73b6a7A","-1"," ","0","-10","[1595.0999999046326]","1","2","","","9181","103","6","4","lose","no-go","0"
"pit-trial","222","1368269","0.0-108.0","battery-v0.2","","""event"",""trial"",""time""
""fullscreenenter"",""1"",""3598""
","
","
","""event"",""trial"",""time""
""fullscreenenter"",""1"",""3598""
","
","","","-1","","","23","9181","294","u","elianto","#3366ff99","-1","-1","1","0","[]","0","2","","","9181","104","9","2","win","no-go","1"
"pit-trial","223","1371893","0.0-109.0","battery-v0.2","","""event"",""trial"",""time""
""fullscreenenter"",""1"",""3598""
","
","
","""event"",""trial"",""time""
""fullscreenenter"",""1"",""3598""
","
","","","767.3000001907349","","","23","9181","294","p","elianto","#3366ff99"," "," ","1","+10","[1618.0999999046326]","1","2","","","9181","105","5","1","win","go","0"
"pit-trial","224","1376765","0.0-110.0","battery-v0.2","","""event"",""trial"",""time""
""fullscreenenter"",""1"",""3598""
","
","
","""event"",""trial"",""time""
""fullscreenenter"",""1"",""3598""
","
","","","-1","","","23","9181","294","l","elianto","#3366ff99","-1","-1","1","+10","[]","0","2","","","9181","106","8","2","win","no-go","0"
"pit-trial","225","1380983","0.0-111.0","battery-v0.2","","""event"",""trial"",""time""
""fullscreenenter"",""1"",""3598""
","
","
","""event"",""trial"",""time""
""fullscreenenter"",""1"",""3598""
","
","","","1360.3999998569489","","","23","9181","294","g","elianto","#f73b6a7A","-1"," ","0","-10","[2211.699999809265]","1","2","","","9181","107","6","4","lose","no-go","0"
"pit-trial","226","1385010","0.0-112.0","battery-v0.2","","""event"",""trial"",""time""
""fullscreenenter"",""1"",""3598""
","
","
","""event"",""trial"",""time""
""fullscreenenter"",""1"",""3598""
","
","","","1166.8000001907349","","","23","9181","294","u","elianto","#3366ff99","-1"," ","0","0","[2018.1000001430511]","1","2","","","9181","108","9","2","win","no-go","0"
"pit-trial","227","1389872","0.0-113.0","battery-v0.2","","""event"",""trial"",""time""
""fullscreenenter"",""1"",""3598""
","
","
","""event"",""trial"",""time""
""fullscreenenter"",""1"",""3598""
","
","","","-1","","","23","9181","294","l","elianto","#3366ff99","-1","-1","1","+10","[]","0","2","","","9181","109","8","2","win","no-go","0"
"pit-trial","228","1393536","0.0-114.0","battery-v0.2","","""event"",""trial"",""time""
""fullscreenenter"",""1"",""3598""
","
","
","""event"",""trial"",""time""
""fullscreenenter"",""1"",""3598""
","
","","","800.8999998569489","","","23","9181","294","p","elianto","#3366ff99"," "," ","1","+10","[1652.6999998092651]","1","2","","","9181","110","5","1","win","go","0"
"pit-trial","229","1397402","0.0-115.0","battery-v0.2","","""event"",""trial"",""time""
""fullscreenenter"",""1"",""3598""
","
","
","""event"",""trial"",""time""
""fullscreenenter"",""1"",""3598""
","
","","","1004.5","","","23","9181","294","u","elianto","#3366ff99","-1"," ","0","0","[1856]","1","2","","","9181","111","9","2","win","no-go","0"
"pit-trial","230","1402259","0.0-116.0","battery-v0.2","","""event"",""trial"",""time""
""fullscreenenter"",""1"",""3598""
","
","
","""event"",""trial"",""time""
""fullscreenenter"",""1"",""3598""
","
","","","-1","","","23","9181","294","g","elianto","#f73b6a7A","-1","-1","1","0","[]","0","2","","","9181","112","6","4","lose","no-go","0"
"pit-trial","231","1405928","0.0-117.0","battery-v0.2","","""event"",""trial"",""time""
""fullscreenenter"",""1"",""3598""
","
","
","""event"",""trial"",""time""
""fullscreenenter"",""1"",""3598""
","
","","","813","","","23","9181","294","a","elianto","#f73b6a7A"," "," ","1","0","[1663.6000001430511]","1","2","","","9181","113","7","3","lose","go","0"
"pit-trial","232","1409733","0.0-118.0","battery-v0.2","","""event"",""trial"",""time""
""fullscreenenter"",""1"",""3598""
","
","
","""event"",""trial"",""time""
""fullscreenenter"",""1"",""3598""
","
","","","948.5","","","23","9181","294","p","elianto","#3366ff99"," "," ","1","0","[1799.3000001907349]","1","2","","","9181","114","5","1","win","go","1"
"pit-trial","233","1414450","0.0-119.0","battery-v0.2","","""event"",""trial"",""time""
""fullscreenenter"",""1"",""3598""
","
","
","""event"",""trial"",""time""
""fullscreenenter"",""1"",""3598""
","
","","","1860","","","23","9181","294","u","elianto","#3366ff99","-1"," ","0","0","[2710.5]","1","2","","","9181","115","9","2","win","no-go","0"
"pit-trial","234","1419307","0.0-120.0","battery-v0.2","","""event"",""trial"",""time""
""fullscreenenter"",""1"",""3598""
","
","
","""event"",""trial"",""time""
""fullscreenenter"",""1"",""3598""
","
","","","-1","","","23","9181","294","l","elianto","#3366ff99","-1","-1","1","+10","[]","0","2","","","9181","116","8","2","win","no-go","0"
"pit-trial","235","1424163","0.0-121.0","battery-v0.2","","""event"",""trial"",""time""
""fullscreenenter"",""1"",""3598""
","
","
","""event"",""trial"",""time""
""fullscreenenter"",""1"",""3598""
","
","","","-1","","","23","9181","294","u","elianto","#3366ff99","-1","-1","1","+10","[]","0","2","","","9181","117","9","2","win","no-go","0"
"pit-trial","236","1429020","0.0-122.0","battery-v0.2","","""event"",""trial"",""time""
""fullscreenenter"",""1"",""3598""
","
","
","""event"",""trial"",""time""
""fullscreenenter"",""1"",""3598""
","
","","","-1","","","23","9181","294","g","elianto","#f73b6a7A","-1","-1","1","0","[]","0","2","","","9181","118","6","4","lose","no-go","0"
"pit-trial","237","1433877","0.0-123.0","battery-v0.2","","""event"",""trial"",""time""
""fullscreenenter"",""1"",""3598""
","
","
","""event"",""trial"",""time""
""fullscreenenter"",""1"",""3598""
","
","","","-1","","","23","9181","294","l","elianto","#3366ff99","-1","-1","1","+10","[]","0","2","","","9181","119","8","2","win","no-go","0"
"pit-trial","238","1437658","0.0-124.0","battery-v0.2","","""event"",""trial"",""time""
""fullscreenenter"",""1"",""3598""
","
","
","""event"",""trial"",""time""
""fullscreenenter"",""1"",""3598""
","
","","","924.2999999523163","","","23","9181","294","p","elianto","#3366ff99"," "," ","1","+10","[1775]","1","2","","","9181","120","5","1","win","go","0"
"pit-trial","239","1442515","0.0-125.0","battery-v0.2","","""event"",""trial"",""time""
""fullscreenenter"",""1"",""3598""
","
","
","""event"",""trial"",""time""
""fullscreenenter"",""1"",""3598""
","
","","","-1","","","23","9181","294","l","elianto","#3366ff99","-1","-1","1","+10","[]","0","2","","","9181","121","8","2","win","no-go","0"
"pit-trial","240","1446285","0.0-126.0","battery-v0.2","","""event"",""trial"",""time""
""fullscreenenter"",""1"",""3598""
","
","
","""event"",""trial"",""time""
""fullscreenenter"",""1"",""3598""
","
","","","914.5","","","23","9181","294","a","elianto","#f73b6a7A"," "," ","1","0","[1764.7999999523163]","1","2","","","9181","122","7","3","lose","go","0"
"pit-trial","241","1449947","0.0-127.0","battery-v0.2","","""event"",""trial"",""time""
""fullscreenenter"",""1"",""3598""
","
","
","""event"",""trial"",""time""
""fullscreenenter"",""1"",""3598""
","
","","","805.3000001907349","","","23","9181","294","p","elianto","#3366ff99"," "," ","1","0","[1655.7999999523163]","1","2","","","9181","123","5","1","win","go","1"
"pit-trial","242","1454809","0.0-128.0","battery-v0.2","","""event"",""trial"",""time""
""fullscreenenter"",""1"",""3598""
","
","
","""event"",""trial"",""time""
""fullscreenenter"",""1"",""3598""
","
","","","-1","","","23","9181","294","u","elianto","#3366ff99","-1","-1","1","+10","[]","0","2","","","9181","124","9","2","win","no-go","0"
"pit-trial","243","1459665","0.0-129.0","battery-v0.2","","""event"",""trial"",""time""
""fullscreenenter"",""1"",""3598""
","
","
","""event"",""trial"",""time""
""fullscreenenter"",""1"",""3598""
","
","","","-1","","","23","9181","294","u","elianto","#3366ff99","-1","-1","1","+10","[]","0","2","","","9181","125","9","2","win","no-go","0"
"pit-trial","244","1464521","0.0-130.0","battery-v0.2","","""event"",""trial"",""time""
""fullscreenenter"",""1"",""3598""
","
","
","""event"",""trial"",""time""
""fullscreenenter"",""1"",""3598""
","
","","","-1","","","23","9181","294","g","elianto","#f73b6a7A","-1","-1","1","0","[]","0","2","","","9181","126","6","4","lose","no-go","0"
"pit-trial","245","1469377","0.0-131.0","battery-v0.2","","""event"",""trial"",""time""
""fullscreenenter"",""1"",""3598""
","
","
","""event"",""trial"",""time""
""fullscreenenter"",""1"",""3598""
","
","","","-1","","","23","9181","294","l","elianto","#3366ff99","-1","-1","1","+10","[]","0","2","","","9181","127","8","2","win","no-go","0"
"pit-trial","246","1473144","0.0-132.0","battery-v0.2","","""event"",""trial"",""time""
""fullscreenenter"",""1"",""3598""
","
","
","""event"",""trial"",""time""
""fullscreenenter"",""1"",""3598""
","
","","","908.5","","","23","9181","294","a","elianto","#f73b6a7A"," "," ","1","0","[1760.2000000476837]","1","2","","","9181","128","7","3","lose","go","0"
"pit-trial","247","1478006","0.0-133.0","battery-v0.2","","""event"",""trial"",""time""
""fullscreenenter"",""1"",""3598""
","
","
","""event"",""trial"",""time""
""fullscreenenter"",""1"",""3598""
","
","","","-1","","","23","9181","294","g","elianto","#f73b6a7A","-1","-1","1","0","[]","0","2","","","9181","129","6","4","lose","no-go","0"
"pit-trial","248","1482862","0.0-134.0","battery-v0.2","","""event"",""trial"",""time""
""fullscreenenter"",""1"",""3598""
","
","
","""event"",""trial"",""time""
""fullscreenenter"",""1"",""3598""
","
","","","-1","","","23","9181","294","l","elianto","#3366ff99","-1","-1","1","+10","[]","0","2","","","9181","130","8","2","win","no-go","0"
"pit-trial","249","1486933","0.0-135.0","battery-v0.2","","""event"",""trial"",""time""
""fullscreenenter"",""1"",""3598""
","
","
","""event"",""trial"",""time""
""fullscreenenter"",""1"",""3598""
","
","","","1212.7000000476837","","","23","9181","294","a","elianto","#f73b6a7A"," "," ","1","0","[2065.5]","1","2","","","9181","131","7","3","lose","go","0"
"pit-trial","250","1491794","0.0-136.0","battery-v0.2","","""event"",""trial"",""time""
""fullscreenenter"",""1"",""3598""
","
","
","""event"",""trial"",""time""
""fullscreenenter"",""1"",""3598""
","
","","","-1","","","23","9181","294","u","elianto","#3366ff99","-1","-1","1","+10","[]","0","2","","","9181","132","9","2","win","no-go","0"
"pit-trial","251","1496651","0.0-137.0","battery-v0.2","","""event"",""trial"",""time""
""fullscreenenter"",""1"",""3598""
","
","
","""event"",""trial"",""time""
""fullscreenenter"",""1"",""3598""
","
","","","-1","","","23","9181","294","l","elianto","#3366ff99","-1","-1","1","+10","[]","0","2","","","9181","133","8","2","win","no-go","0"
"pit-trial","252","1501507","0.0-138.0","battery-v0.2","","""event"",""trial"",""time""
""fullscreenenter"",""1"",""3598""
","
","
","""event"",""trial"",""time""
""fullscreenenter"",""1"",""3598""
","
","","","-1","","","23","9181","294","g","elianto","#f73b6a7A","-1","-1","1","0","[]","0","2","","","9181","134","6","4","lose","no-go","0"
"pit-trial","253","1506363","0.0-139.0","battery-v0.2","","""event"",""trial"",""time""
""fullscreenenter"",""1"",""3598""
","
","
","""event"",""trial"",""time""
""fullscreenenter"",""1"",""3598""
","
","","","-1","","","23","9181","294","u","elianto","#3366ff99","-1","-1","1","+10","[]","0","2","","","9181","135","9","2","win","no-go","0"
"pit-trial","254","1510292","0.0-140.0","battery-v0.2","","""event"",""trial"",""time""
""fullscreenenter"",""1"",""3598""
","
","
","""event"",""trial"",""time""
""fullscreenenter"",""1"",""3598""
","
","","","1072.3000001907349","","","23","9181","294","a","elianto","#f73b6a7A"," "," ","1","0","[1923.2000000476837]","1","2","","","9181","136","7","3","lose","go","0"
"pit-trial","255","1515154","0.0-141.0","battery-v0.2","","""event"",""trial"",""time""
""fullscreenenter"",""1"",""3598""
","
","
","""event"",""trial"",""time""
""fullscreenenter"",""1"",""3598""
","
","","","-1","","","23","9181","294","u","elianto","#3366ff99","-1","-1","1","+10","[]","0","2","","","9181","137","9","2","win","no-go","0"
"pit-trial","256","1519158","0.0-142.0","battery-v0.2","","""event"",""trial"",""time""
""fullscreenenter"",""1"",""3598""
","
","
","""event"",""trial"",""time""
""fullscreenenter"",""1"",""3598""
","
","","","1146","","","23","9181","294","a","elianto","#f73b6a7A"," "," ","1","0","[1997.0999999046326]","1","2","","","9181","138","7","3","lose","go","0"
"pit-trial","257","1524016","0.0-143.0","battery-v0.2","","""event"",""trial"",""time""
""fullscreenenter"",""1"",""3598""
","
","
","""event"",""trial"",""time""
""fullscreenenter"",""1"",""3598""
","
","","","-1","","","23","9181","294","l","elianto","#3366ff99","-1","-1","1","+10","[]","0","2","","","9181","139","8","2","win","no-go","0"
"pit-trial","258","1528873","0.0-144.0","battery-v0.2","","""event"",""trial"",""time""
""fullscreenenter"",""1"",""3598""
","
","
","""event"",""trial"",""time""
""fullscreenenter"",""1"",""3598""
","
","","","-1","","","23","9181","294","g","elianto","#f73b6a7A","-1","-1","1","0","[]","0","2","","","9181","140","6","4","lose","no-go","0"
"pit-instructions","259","1544640","0.0-145.0","battery-v0.2","","""event"",""trial"",""time""
""fullscreenenter"",""1"",""3598""
","
","
","""event"",""trial"",""time""
""fullscreenenter"",""1"",""3598""
","
","","[{""page_index"":0,""viewing_time"":7402.599999904633},{""page_index"":1,""viewing_time"":8354.900000095367}]","15757.799999952316","","","","","","","","","","","","","","","","","","","","","","","",""
"pit-trial","260","1548520","0.0-146.0","battery-v0.2","","""event"",""trial"",""time""
""fullscreenenter"",""1"",""3598""
","
","
","""event"",""trial"",""time""
""fullscreenenter"",""1"",""3598""
","
","","","1001.2999999523163","","","23","9181","294","r","elianto","#3366ff99","-1"," ","0","0","[1856.7000000476837]","1","3","","","9181","141","1","2","win","no-go","0"
"pit-trial","261","1552355","0.0-147.0","battery-v0.2","","""event"",""trial"",""time""
""fullscreenenter"",""1"",""3598""
","
","
","""event"",""trial"",""time""
""fullscreenenter"",""1"",""3598""
","
","","","962.2999999523163","","","23","9181","294","m","elianto","#f73b6a7A"," "," ","1","-10","[1823.2999999523163]","1","3","","","9181","142","0","3","lose","go","1"
"pit-trial","262","1555848","0.0-148.0","battery-v0.2","","""event"",""trial"",""time""
""fullscreenenter"",""1"",""3598""
","
","
","""event"",""trial"",""time""
""fullscreenenter"",""1"",""3598""
","
","","","626.5999999046326","","","23","9181","294","y","elianto","#f73b6a7A"," "," ","1","0","[1477.9000000953674]","1","3","","","9181","143","2","3","lose","go","0"
"pit-trial","263","1560175","0.0-149.0","battery-v0.2","","""event"",""trial"",""time""
""fullscreenenter"",""1"",""3598""
","
","
","""event"",""trial"",""time""
""fullscreenenter"",""1"",""3598""
","
","","","1466.8000001907349","","","23","9181","294","h","elianto","#f73b6a7A","-1"," ","0","-10","[2320.899999856949]","1","3","","","9181","144","3","4","lose","no-go","0"
"pit-trial","264","1565048","0.0-150.0","battery-v0.2","","""event"",""trial"",""time""
""fullscreenenter"",""1"",""3598""
","
","
","""event"",""trial"",""time""
""fullscreenenter"",""1"",""3598""
","
","","","-1","","","23","9181","294","h","elianto","#f73b6a7A","-1","-1","1","-10","[]","0","3","","","9181","145","3","4","lose","no-go","1"
"pit-trial","265","1569908","0.0-151.0","battery-v0.2","","""event"",""trial"",""time""
""fullscreenenter"",""1"",""3598""
","
","
","""event"",""trial"",""time""
""fullscreenenter"",""1"",""3598""
","
","","","-1","","","23","9181","294","r","elianto","#3366ff99","-1","-1","1","+10","[]","0","3","","","9181","146","1","2","win","no-go","0"
"pit-trial","266","1574779","0.0-152.0","battery-v0.2","","""event"",""trial"",""time""
""fullscreenenter"",""1"",""3598""
","
","
","""event"",""trial"",""time""
""fullscreenenter"",""1"",""3598""
","
","","","-1","","","23","9181","294","m","elianto","#f73b6a7A"," ","-1","0","-10","[]","0","3","","","9181","147","0","3","lose","go","0"
"pit-trial","267","1578596","0.0-153.0","battery-v0.2","","""event"",""trial"",""time""
""fullscreenenter"",""1"",""3598""
","
","
","""event"",""trial"",""time""
""fullscreenenter"",""1"",""3598""
","
","","","959.9000000953674","","","23","9181","294","y","elianto","#f73b6a7A"," "," ","1","0","[1810.7000000476837]","1","3","","","9181","148","2","3","lose","go","0"
"pit-trial","268","1583454","0.0-154.0","battery-v0.2","","""event"",""trial"",""time""
""fullscreenenter"",""1"",""3598""
","
","
","""event"",""trial"",""time""
""fullscreenenter"",""1"",""3598""
","
","","","-1","","","23","9181","294","r","elianto","#3366ff99","-1","-1","1","+10","[4349]","1","3","","","9181","149","1","2","win","no-go","0"
"pit-trial","269","1588315","0.0-155.0","battery-v0.2","","""event"",""trial"",""time""
