"trial_type","trial_index","time_elapsed","internal_node_id","task_version","subject_id","interactions","blur_events","focus_events","fullscreenenter_events","fullscreenexit_events","success","view_history","rt","responses","num_errors","age","subject","participantId","rune","rune_set","hex","correct","choice","accuracy","outcome","keys","total_keys","block","practice","value","sub","trial","stimulus","robot","valence","action","sham"
"pavlovia","0","26","0.0-0.0","battery-v0.2","","""event"",""trial"",""time""
""focus"",""0"",""2""
""fullscreenenter"",""1"",""2848""
","
","""event"",""trial"",""time""
""focus"",""0"",""2""
","""event"",""trial"",""time""
""fullscreenenter"",""1"",""2848""
","
","","","","","","","","","","","","","","","","","","","","","","","","","","",""
"fullscreen","1","3837","0.0-1.0","battery-v0.2","","""event"",""trial"",""time""
""focus"",""0"",""2""
""fullscreenenter"",""1"",""2848""
","
","""event"",""trial"",""time""
""focus"",""0"",""2""
","""event"",""trial"",""time""
""fullscreenenter"",""1"",""2848""
","
","true","","","","","","","","","","","","","","","","","","","","","","","","","",""
"pit-instructions","2","10291","0.0-2.0-0.0","battery-v0.2","","""event"",""trial"",""time""
""focus"",""0"",""2""
""fullscreenenter"",""1"",""2848""
","
","""event"",""trial"",""time""
""focus"",""0"",""2""
","""event"",""trial"",""time""
""fullscreenenter"",""1"",""2848""
","
","","[{""page_index"":0,""viewing_time"":6450}]","6450","","","","","","","","","","","","","","","","","","","","","","","",""
"pit-comprehension","3","14224","0.0-2.0-1.0-0.0","battery-v0.2","","""event"",""trial"",""time""
""focus"",""0"",""2""
""fullscreenenter"",""1"",""2848""
","
","""event"",""trial"",""time""
""focus"",""0"",""2""
","""event"",""trial"",""time""
""fullscreenenter"",""1"",""2848""
","
","","","3925","[""shark""]","0","13","3171","2334","","","","","","","","","","","","","","","","","","",""
"pit-instructions","4","16075","0.0-2.0-1.0-1.0","battery-v0.2","","""event"",""trial"",""time""
""focus"",""0"",""2""
""fullscreenenter"",""1"",""2848""
","
","""event"",""trial"",""time""
""focus"",""0"",""2""
","""event"",""trial"",""time""
""fullscreenenter"",""1"",""2848""
","
","","[{""page_index"":0,""viewing_time"":1842}]","1843","","","","","","","","","","","","","","","","","","","","","","","",""
"pit-comprehension","5","19228","0.0-2.0-2.0-0.0","battery-v0.2","","""event"",""trial"",""time""
""focus"",""0"",""2""
""fullscreenenter"",""1"",""2848""
","
","""event"",""trial"",""time""
""focus"",""0"",""2""
","""event"",""trial"",""time""
""fullscreenenter"",""1"",""2848""
","
","","","3147","[""tiger""]","0","13","3171","2334","","","","","","","","","","","","","","","","","","",""
"pit-instructions","6","20011","0.0-2.0-2.0-1.0","battery-v0.2","","""event"",""trial"",""time""
""focus"",""0"",""2""
""fullscreenenter"",""1"",""2848""
","
","""event"",""trial"",""time""
""focus"",""0"",""2""
","""event"",""trial"",""time""
""fullscreenenter"",""1"",""2848""
","
","","[{""page_index"":0,""viewing_time"":776}]","776","","","","","","","","","","","","","","","","","","","","","","","",""
"pit-instructions","7","105705","0.0-2.0-3.0","battery-v0.2","","""event"",""trial"",""time""
""focus"",""0"",""2""
""fullscreenenter"",""1"",""2848""
","
","""event"",""trial"",""time""
""focus"",""0"",""2""
","""event"",""trial"",""time""
""fullscreenenter"",""1"",""2848""
","
","","[{""page_index"":0,""viewing_time"":9746},{""page_index"":1,""viewing_time"":5576},{""page_index"":2,""viewing_time"":6056},{""page_index"":3,""viewing_time"":5024},{""page_index"":4,""viewing_time"":5200},{""page_index"":5,""viewing_time"":5135},{""page_index"":6,""viewing_time"":6993},{""page_index"":7,""viewing_time"":6015},{""page_index"":8,""viewing_time"":6024},{""page_index"":9,""viewing_time"":5143},{""page_index"":10,""viewing_time"":7617},{""page_index"":11,""viewing_time"":6792},{""page_index"":12,""viewing_time"":6199},{""page_index"":13,""viewing_time"":4169}]","85689","","","","","","","","","","","","","","","","","","","","","","","",""
"pit-trial","8","109361","0.0-2.0-4.0-0.0","battery-v0.2","","""event"",""trial"",""time""
""focus"",""0"",""2""
""fullscreenenter"",""1"",""2848""
","
","""event"",""trial"",""time""
""focus"",""0"",""2""
","""event"",""trial"",""time""
""fullscreenenter"",""1"",""2848""
","
","","","791","","","13","3171","2334","&#9784;","elianto","#FFFFF080"," "," ","1","&#10004","[1640]","1","0","0","","","","","","","",""
"pit-trial","9","112760","0.0-2.0-4.1-0.1","battery-v0.2","","""event"",""trial"",""time""
""focus"",""0"",""2""
""fullscreenenter"",""1"",""2848""
","
","""event"",""trial"",""time""
""focus"",""0"",""2""
","""event"",""trial"",""time""
""fullscreenenter"",""1"",""2848""
","
","","","538","","","13","3171","2334","&#9784;","elianto","#FFFFF080"," "," ","1","&#10004","[1394]","1","0","0","","","","","","","",""
"pit-trial","10","115680","0.0-2.0-4.2-0.2","battery-v0.2","","""event"",""trial"",""time""
""focus"",""0"",""2""
""fullscreenenter"",""1"",""2848""
","
","""event"",""trial"",""time""
""focus"",""0"",""2""
","""event"",""trial"",""time""
""fullscreenenter"",""1"",""2848""
","
","","","50","","","13","3171","2334","&#9784;","elianto","#FFFFF080"," "," ","1","&#10004","[907]","1","0","0","","","","","","","",""
"pit-trial","11","118950","0.0-2.0-4.3-0.3","battery-v0.2","","""event"",""trial"",""time""
""focus"",""0"",""2""
""fullscreenenter"",""1"",""2848""
","
","""event"",""trial"",""time""
""focus"",""0"",""2""
","""event"",""trial"",""time""
""fullscreenenter"",""1"",""2848""
","
","","","401","","","13","3171","2334","&#9784;","elianto","#FFFFF080"," "," ","1","&#10004","[1258]","1","0","0","","","","","","","",""
"pit-trial","12","122210","0.0-2.0-4.4-0.4","battery-v0.2","","""event"",""trial"",""time""
""focus"",""0"",""2""
""fullscreenenter"",""1"",""2848""
","
","""event"",""trial"",""time""
""focus"",""0"",""2""
","""event"",""trial"",""time""
""fullscreenenter"",""1"",""2848""
","
","","","395","","","13","3171","2334","&#9784;","elianto","#FFFFF080"," "," ","1","&#10004","[1252]","1","0","0","","","","","","","",""
"pit-instructions","13","142952","0.0-2.0-5.0","battery-v0.2","","""event"",""trial"",""time""
""focus"",""0"",""2""
""fullscreenenter"",""1"",""2848""
","
","""event"",""trial"",""time""
""focus"",""0"",""2""
","""event"",""trial"",""time""
""fullscreenenter"",""1"",""2848""
","
","","[{""page_index"":0,""viewing_time"":4721},{""page_index"":1,""viewing_time"":5966},{""page_index"":2,""viewing_time"":4370},{""page_index"":3,""viewing_time"":5679}]","20736","","","","","","","","","","","","","","","","","","","","","","","",""
"pit-trial","14","147823","0.0-2.0-6.0-0.0","battery-v0.2","","""event"",""trial"",""time""
""focus"",""0"",""2""
""fullscreenenter"",""1"",""2848""
","
","""event"",""trial"",""time""
""focus"",""0"",""2""
","""event"",""trial"",""time""
""fullscreenenter"",""1"",""2848""
","
","","","-1","","","13","3171","2334","&#9854;","elianto","#FFFFF080","-1","-1","1","&#10004","[]","0","0","1","","","","","","","",""
"pit-trial","15","152694","0.0-2.0-6.1-0.1","battery-v0.2","","""event"",""trial"",""time""
""focus"",""0"",""2""
""fullscreenenter"",""1"",""2848""
","
","""event"",""trial"",""time""
""focus"",""0"",""2""
","""event"",""trial"",""time""
""fullscreenenter"",""1"",""2848""
","
","","","-1","","","13","3171","2334","&#9854;","elianto","#FFFFF080","-1","-1","1","&#10004","[]","0","0","1","","","","","","","",""
"pit-trial","16","157563","0.0-2.0-6.2-0.2","battery-v0.2","","""event"",""trial"",""time""
""focus"",""0"",""2""
""fullscreenenter"",""1"",""2848""
","
","""event"",""trial"",""time""
""focus"",""0"",""2""
","""event"",""trial"",""time""
""fullscreenenter"",""1"",""2848""
","
","","","-1","","","13","3171","2334","&#9854;","elianto","#FFFFF080","-1","-1","1","&#10004","[]","0","0","1","","","","","","","",""
"pit-trial","17","162423","0.0-2.0-6.3-0.3","battery-v0.2","","""event"",""trial"",""time""
""focus"",""0"",""2""
""fullscreenenter"",""1"",""2848""
","
","""event"",""trial"",""time""
""focus"",""0"",""2""
","""event"",""trial"",""time""
""fullscreenenter"",""1"",""2848""
","
","","","-1","","","13","3171","2334","&#9854;","elianto","#FFFFF080","-1","-1","1","&#10004","[]","0","0","1","","","","","","","",""
"pit-trial","18","167283","0.0-2.0-6.4-0.4","battery-v0.2","","""event"",""trial"",""time""
""focus"",""0"",""2""
""fullscreenenter"",""1"",""2848""
","
","""event"",""trial"",""time""
""focus"",""0"",""2""
","""event"",""trial"",""time""
""fullscreenenter"",""1"",""2848""
","
","","","-1","","","13","3171","2334","&#9854;","elianto","#FFFFF080","-1","-1","1","&#10004","[]","0","0","1","","","","","","","",""
"pit-instructions","19","271676","0.0-2.0-7.0","battery-v0.2","","""event"",""trial"",""time""
""focus"",""0"",""2""
""fullscreenenter"",""1"",""2848""
","
","""event"",""trial"",""time""
""focus"",""0"",""2""
","""event"",""trial"",""time""
""fullscreenenter"",""1"",""2848""
","
","","[{""page_index"":0,""viewing_time"":5486},{""page_index"":1,""viewing_time"":6064},{""page_index"":2,""viewing_time"":5033},{""page_index"":3,""viewing_time"":5839},{""page_index"":4,""viewing_time"":5216},{""page_index"":5,""viewing_time"":5336},{""page_index"":6,""viewing_time"":4040},{""page_index"":7,""viewing_time"":7103},{""page_index"":8,""viewing_time"":6296},{""page_index"":9,""viewing_time"":5777},{""page_index"":10,""viewing_time"":6270},{""page_index"":11,""viewing_time"":4033},{""page_index"":12,""viewing_time"":6063},{""page_index"":13,""viewing_time"":6896},{""page_index"":14,""viewing_time"":6161},{""page_index"":15,""viewing_time"":6103},{""page_index"":14,""viewing_time"":784},{""page_index"":15,""viewing_time"":5440},{""page_index"":16,""viewing_time"":2961},{""page_index"":17,""viewing_time"":3487}]","104388","","","","","","","","","","","","","","","","","","","","","","","",""
"pit-trial","20","275285","0.0-2.0-8.0-0.0","battery-v0.2","","""event"",""trial"",""time""
""focus"",""0"",""2""
""fullscreenenter"",""1"",""2848""
","
","""event"",""trial"",""time""
""focus"",""0"",""2""
","""event"",""trial"",""time""
""fullscreenenter"",""1"",""2848""
","
","","","748","","","13","3171","2334","&#9776;","elianto","#3366ff99"," "," ","1","+10","[1600]","1","0","1","","","","","","","",""
"pit-trial","21","278635","0.0-2.0-8.0-1.0","battery-v0.2","","""event"",""trial"",""time""
""focus"",""0"",""2""
""fullscreenenter"",""1"",""2848""
","
","""event"",""trial"",""time""
""focus"",""0"",""2""
","""event"",""trial"",""time""
""fullscreenenter"",""1"",""2848""
","
","","","480","","","13","3171","2334","&#9776;","elianto","#3366ff99"," "," ","1","+10","[1337]","1","0","1","","","","","","","",""
"pit-trial","22","282015","0.0-2.0-8.0-2.0","battery-v0.2","","""event"",""trial"",""time""
""focus"",""0"",""2""
""fullscreenenter"",""1"",""2848""
","
","""event"",""trial"",""time""
""focus"",""0"",""2""
","""event"",""trial"",""time""
""fullscreenenter"",""1"",""2848""
","
","","","514","","","13","3171","2334","&#9776;","elianto","#3366ff99"," "," ","1","+10","[1373]","1","0","1","","","","","","","",""
"pit-trial","23","285275","0.0-2.0-8.0-3.0","battery-v0.2","","""event"",""trial"",""time""
""focus"",""0"",""2""
""fullscreenenter"",""1"",""2848""
","
","""event"",""trial"",""time""
""focus"",""0"",""2""
","""event"",""trial"",""time""
""fullscreenenter"",""1"",""2848""
","
","","","390","","","13","3171","2334","&#9776;","elianto","#3366ff99"," "," ","1","0","[1248]","1","0","1","","","","","","","",""
"pit-trial","24","288574","0.0-2.0-8.0-4.0","battery-v0.2","","""event"",""trial"",""time""
""focus"",""0"",""2""
""fullscreenenter"",""1"",""2848""
","
","""event"",""trial"",""time""
""focus"",""0"",""2""
","""event"",""trial"",""time""
""fullscreenenter"",""1"",""2848""
","
","","","435","","","13","3171","2334","&#9776;","elianto","#3366ff99"," "," ","1","+10","[1292]","1","0","1","","","","","","","",""
"call-function","25","288577","0.0-2.0-9.0","battery-v0.2","","""event"",""trial"",""time""
""focus"",""0"",""2""
""fullscreenenter"",""1"",""2848""
","
","""event"",""trial"",""time""
""focus"",""0"",""2""
","""event"",""trial"",""time""
""fullscreenenter"",""1"",""2848""
","
","","","","","","","","","","","","","","","","","","","","","","","","","","",""
"pit-instructions","26","328162","0.0-2.0-10.0","battery-v0.2","","""event"",""trial"",""time""
""focus"",""0"",""2""
""fullscreenenter"",""1"",""2848""
","
","""event"",""trial"",""time""
""focus"",""0"",""2""
","""event"",""trial"",""time""
""fullscreenenter"",""1"",""2848""
","
","","[{""page_index"":0,""viewing_time"":6122},{""page_index"":1,""viewing_time"":6408},{""page_index"":2,""viewing_time"":9208},{""page_index"":3,""viewing_time"":4015},{""page_index"":2,""viewing_time"":4329},{""page_index"":3,""viewing_time"":7039},{""page_index"":4,""viewing_time"":2464}]","39585","","","","","","","","","","","","","","","","","","","","","","","",""
"pit-trial","27","331453","0.0-2.0-11.0-0.0","battery-v0.2","","""event"",""trial"",""time""
""focus"",""0"",""2""
""fullscreenenter"",""1"",""2848""
","
","""event"",""trial"",""time""
""focus"",""0"",""2""
","""event"",""trial"",""time""
""fullscreenenter"",""1"",""2848""
","
","","","425","","","13","3171","2334","&#9761;","elianto","#3366ff99","-1"," ","0","0","[1284]","1","0","2","","","","","","","",""
"pit-trial","28","334853","0.0-2.0-11.0-1.0","battery-v0.2","","""event"",""trial"",""time""
""focus"",""0"",""2""
""fullscreenenter"",""1"",""2848""
","
","""event"",""trial"",""time""
""focus"",""0"",""2""
","""event"",""trial"",""time""
""fullscreenenter"",""1"",""2848""
","
","","","535","","","13","3171","2334","&#9761;","elianto","#3366ff99","-1"," ","0","0","[1393]","1","0","2","","","","","","","",""
"pit-trial","29","339713","0.0-2.0-11.0-2.0","battery-v0.2","","""event"",""trial"",""time""
""focus"",""0"",""2""
""fullscreenenter"",""1"",""2848""
","
","""event"",""trial"",""time""
""focus"",""0"",""2""
","""event"",""trial"",""time""
""fullscreenenter"",""1"",""2848""
","
","","","-1","","","13","3171","2334","&#9761;","elianto","#3366ff99","-1","-1","1","+10","[]","0","0","2","","","","","","","",""
"pit-trial","30","344573","0.0-2.0-11.0-3.0","battery-v0.2","","""event"",""trial"",""time""
""focus"",""0"",""2""
""fullscreenenter"",""1"",""2848""
","
","""event"",""trial"",""time""
""focus"",""0"",""2""
","""event"",""trial"",""time""
""fullscreenenter"",""1"",""2848""
","
","","","-1","","","13","3171","2334","&#9761;","elianto","#3366ff99","-1","-1","1","0","[]","0","0","2","","","","","","","",""
"pit-trial","31","349432","0.0-2.0-11.0-4.0","battery-v0.2","","""event"",""trial"",""time""
""focus"",""0"",""2""
""fullscreenenter"",""1"",""2848""
","
","""event"",""trial"",""time""
""focus"",""0"",""2""
","""event"",""trial"",""time""
""fullscreenenter"",""1"",""2848""
","
","","","-1","","","13","3171","2334","&#9761;","elianto","#3366ff99","-1","-1","1","+10","[]","0","0","2","","","","","","","",""
"pit-trial","32","354293","0.0-2.0-11.1-0.1","battery-v0.2","","""event"",""trial"",""time""
""focus"",""0"",""2""
""fullscreenenter"",""1"",""2848""
","
","""event"",""trial"",""time""
""focus"",""0"",""2""
","""event"",""trial"",""time""
""fullscreenenter"",""1"",""2848""
","
","","","-1","","","13","3171","2334","&#9761;","elianto","#3366ff99","-1","-1","1","+10","[]","0","0","2","","","","","","","",""
"pit-trial","33","357813","0.0-2.0-11.1-1.1","battery-v0.2","","""event"",""trial"",""time""
""focus"",""0"",""2""
""fullscreenenter"",""1"",""2848""
","
","""event"",""trial"",""time""
""focus"",""0"",""2""
","""event"",""trial"",""time""
""fullscreenenter"",""1"",""2848""
","
","","","654","","","13","3171","2334","&#9761;","elianto","#3366ff99","-1"," ","0","0","[1512]","1","0","2","","","","","","","",""
"pit-trial","34","361123","0.0-2.0-11.1-2.1","battery-v0.2","","""event"",""trial"",""time""
""focus"",""0"",""2""
""fullscreenenter"",""1"",""2848""
","
","""event"",""trial"",""time""
""focus"",""0"",""2""
","""event"",""trial"",""time""
""fullscreenenter"",""1"",""2848""
","
","","","446","","","13","3171","2334","&#9761;","elianto","#3366ff99","-1"," ","0","0","[1304]","1","0","2","","","","","","","",""
"pit-trial","35","365982","0.0-2.0-11.1-3.1","battery-v0.2","","""event"",""trial"",""time""
""focus"",""0"",""2""
""fullscreenenter"",""1"",""2848""
","
","""event"",""trial"",""time""
""focus"",""0"",""2""
","""event"",""trial"",""time""
""fullscreenenter"",""1"",""2848""
","
","","","-1","","","13","3171","2334","&#9761;","elianto","#3366ff99","-1","-1","1","0","[]","0","0","2","","","","","","","",""
"pit-trial","36","370842","0.0-2.0-11.1-4.1","battery-v0.2","","""event"",""trial"",""time""
""focus"",""0"",""2""
""fullscreenenter"",""1"",""2848""
","
","""event"",""trial"",""time""
""focus"",""0"",""2""
","""event"",""trial"",""time""
""fullscreenenter"",""1"",""2848""
","
","","","-1","","","13","3171","2334","&#9761;","elianto","#3366ff99","-1","-1","1","+10","[]","0","0","2","","","","","","","",""
"pit-trial","37","375702","0.0-2.0-11.2-0.2","battery-v0.2","","""event"",""trial"",""time""
""focus"",""0"",""2""
""fullscreenenter"",""1"",""2848""
","
","""event"",""trial"",""time""
""focus"",""0"",""2""
","""event"",""trial"",""time""
""fullscreenenter"",""1"",""2848""
","
","","","-1","","","13","3171","2334","&#9761;","elianto","#3366ff99","-1","-1","1","+10","[]","0","0","2","","","","","","","",""
"pit-trial","38","380562","0.0-2.0-11.2-1.2","battery-v0.2","","""event"",""trial"",""time""
""focus"",""0"",""2""
""fullscreenenter"",""1"",""2848""
","
","""event"",""trial"",""time""
""focus"",""0"",""2""
","""event"",""trial"",""time""
""fullscreenenter"",""1"",""2848""
","
","","","-1","","","13","3171","2334","&#9761;","elianto","#3366ff99","-1","-1","1","+10","[]","0","0","2","","","","","","","",""
"pit-trial","39","385422","0.0-2.0-11.2-2.2","battery-v0.2","","""event"",""trial"",""time""
""focus"",""0"",""2""
""fullscreenenter"",""1"",""2848""
","
","""event"",""trial"",""time""
""focus"",""0"",""2""
","""event"",""trial"",""time""
""fullscreenenter"",""1"",""2848""
","
","","","-1","","","13","3171","2334","&#9761;","elianto","#3366ff99","-1","-1","1","+10","[]","0","0","2","","","","","","","",""
"pit-trial","40","390282","0.0-2.0-11.2-3.2","battery-v0.2","","""event"",""trial"",""time""
""focus"",""0"",""2""
""fullscreenenter"",""1"",""2848""
","
","""event"",""trial"",""time""
""focus"",""0"",""2""
","""event"",""trial"",""time""
""fullscreenenter"",""1"",""2848""
","
","","","-1","","","13","3171","2334","&#9761;","elianto","#3366ff99","-1","-1","1","0","[3959]","1","0","2","","","","","","","",""
"pit-trial","41","395142","0.0-2.0-11.2-4.2","battery-v0.2","","""event"",""trial"",""time""
""focus"",""0"",""2""
""fullscreenenter"",""1"",""2848""
","
","""event"",""trial"",""time""
""focus"",""0"",""2""
","""event"",""trial"",""time""
""fullscreenenter"",""1"",""2848""
","
","","","-1","","","13","3171","2334","&#9761;","elianto","#3366ff99","-1","-1","1","+10","[]","0","0","2","","","","","","","",""
"call-function","42","395143","0.0-2.0-12.0","battery-v0.2","","""event"",""trial"",""time""
""focus"",""0"",""2""
""fullscreenenter"",""1"",""2848""
","
","""event"",""trial"",""time""
""focus"",""0"",""2""
","""event"",""trial"",""time""
""fullscreenenter"",""1"",""2848""
","
","","","","","","","","","","","","","","","","","","","","","","","","","","",""
"pit-instructions","43","423703","0.0-2.0-13.0","battery-v0.2","","""event"",""trial"",""time""
""focus"",""0"",""2""
""fullscreenenter"",""1"",""2848""
","
","""event"",""trial"",""time""
""focus"",""0"",""2""
","""event"",""trial"",""time""
""fullscreenenter"",""1"",""2848""
","
","","[{""page_index"":0,""viewing_time"":5176},{""page_index"":1,""viewing_time"":6072},{""page_index"":2,""viewing_time"":3088},{""page_index"":3,""viewing_time"":10056},{""page_index"":4,""viewing_time"":4168}]","28560","","","","","","","","","","","","","","","","","","","","","","","",""
"pit-trial","44","428030","0.0-2.0-14.0-0.0","battery-v0.2","","""event"",""trial"",""time""
""focus"",""0"",""2""
""fullscreenenter"",""1"",""2848""
","
","""event"",""trial"",""time""
""focus"",""0"",""2""
","""event"",""trial"",""time""
""fullscreenenter"",""1"",""2848""
","
","","","1460","","","13","3171","2334","&#9826;","elianto","#f73b6a7A","-1"," ","0","-10","[2315]","1","0","3","","","","","","","",""
"pit-trial","45","432891","0.0-2.0-14.0-1.0","battery-v0.2","","""event"",""trial"",""time""
""focus"",""0"",""2""
""fullscreenenter"",""1"",""2848""
","
","""event"",""trial"",""time""
""focus"",""0"",""2""
","""event"",""trial"",""time""
""fullscreenenter"",""1"",""2848""
","
","","","-1","","","13","3171","2334","&#9826;","elianto","#f73b6a7A","-1","-1","1","0","[]","0","0","3","","","","","","","",""
"pit-trial","46","437670","0.0-2.0-14.0-2.0","battery-v0.2","","""event"",""trial"",""time""
""focus"",""0"",""2""
""fullscreenenter"",""1"",""2848""
","
","""event"",""trial"",""time""
""focus"",""0"",""2""
","""event"",""trial"",""time""
""fullscreenenter"",""1"",""2848""
","
","","","1917","","","13","3171","2334","&#9826;","elianto","#f73b6a7A","-1"," ","0","-10","[2775]","1","0","3","","","","","","","",""
"pit-trial","47","442531","0.0-2.0-14.0-3.0","battery-v0.2","","""event"",""trial"",""time""
""focus"",""0"",""2""
""fullscreenenter"",""1"",""2848""
","
","""event"",""trial"",""time""
""focus"",""0"",""2""
","""event"",""trial"",""time""
""fullscreenenter"",""1"",""2848""
","
","","","-1","","","13","3171","2334","&#9826;","elianto","#f73b6a7A","-1","-1","1","-10","[]","0","0","3","","","","","","","",""
"pit-trial","48","447391","0.0-2.0-14.0-4.0","battery-v0.2","","""event"",""trial"",""time""
""focus"",""0"",""2""
""fullscreenenter"",""1"",""2848""
","
","""event"",""trial"",""time""
""focus"",""0"",""2""
","""event"",""trial"",""time""
""fullscreenenter"",""1"",""2848""
","
","","","-1","","","13","3171","2334","&#9826;","elianto","#f73b6a7A","-1","-1","1","0","[]","0","0","3","","","","","","","",""
"pit-trial","49","452260","0.0-2.0-14.1-0.1","battery-v0.2","","""event"",""trial"",""time""
""focus"",""0"",""2""
""fullscreenenter"",""1"",""2848""
","
","""event"",""trial"",""time""
""focus"",""0"",""2""
","""event"",""trial"",""time""
""fullscreenenter"",""1"",""2848""
","
","","","-1","","","13","3171","2334","&#9826;","elianto","#f73b6a7A","-1","-1","1","0","[]","0","0","3","","","","","","","",""
"pit-trial","50","457120","0.0-2.0-14.1-1.1","battery-v0.2","","""event"",""trial"",""time""
""focus"",""0"",""2""
""fullscreenenter"",""1"",""2848""
","
","""event"",""trial"",""time""
""focus"",""0"",""2""
","""event"",""trial"",""time""
""fullscreenenter"",""1"",""2848""
","
","","","-1","","","13","3171","2334","&#9826;","elianto","#f73b6a7A","-1","-1","1","0","[]","0","0","3","","","","","","","",""
"pit-trial","51","461980","0.0-2.0-14.1-2.1","battery-v0.2","","""event"",""trial"",""time""
""focus"",""0"",""2""
""fullscreenenter"",""1"",""2848""
","
","""event"",""trial"",""time""
""focus"",""0"",""2""
","""event"",""trial"",""time""
""fullscreenenter"",""1"",""2848""
","
","","","-1","","","13","3171","2334","&#9826;","elianto","#f73b6a7A","-1","-1","1","0","[]","0","0","3","","","","","","","",""
"pit-trial","52","466840","0.0-2.0-14.1-3.1","battery-v0.2","","""event"",""trial"",""time""
""focus"",""0"",""2""
""fullscreenenter"",""1"",""2848""
","
","""event"",""trial"",""time""
""focus"",""0"",""2""
","""event"",""trial"",""time""
""fullscreenenter"",""1"",""2848""
","
","","","-1","","","13","3171","2334","&#9826;","elianto","#f73b6a7A","-1","-1","1","-10","[]","0","0","3","","","","","","","",""
"pit-trial","53","471699","0.0-2.0-14.1-4.1","battery-v0.2","","""event"",""trial"",""time""
""focus"",""0"",""2""
""fullscreenenter"",""1"",""2848""
","
","""event"",""trial"",""time""
""focus"",""0"",""2""
","""event"",""trial"",""time""
""fullscreenenter"",""1"",""2848""
","
","","","-1","","","13","3171","2334","&#9826;","elianto","#f73b6a7A","-1","-1","1","0","[]","0","0","3","","","","","","","",""
"call-function","54","471701","0.0-2.0-15.0","battery-v0.2","","""event"",""trial"",""time""
""focus"",""0"",""2""
""fullscreenenter"",""1"",""2848""
","
","""event"",""trial"",""time""
""focus"",""0"",""2""
","""event"",""trial"",""time""
""fullscreenenter"",""1"",""2848""
","
","","","","","","","","","","","","","","","","","","","","","","","","","","",""
"pit-instructions","55","495085","0.0-2.0-16.0","battery-v0.2","","""event"",""trial"",""time""
""focus"",""0"",""2""
""fullscreenenter"",""1"",""2848""
","
","""event"",""trial"",""time""
""focus"",""0"",""2""
","""event"",""trial"",""time""
""fullscreenenter"",""1"",""2848""
","
","","[{""page_index"":0,""viewing_time"":6937},{""page_index"":1,""viewing_time"":8151},{""page_index"":2,""viewing_time"":4057},{""page_index"":3,""viewing_time"":4240}]","23385","","","","","","","","","","","","","","","","","","","","","","","",""
"pit-trial","56","498659","0.0-2.0-17.0-0.0","battery-v0.2","","""event"",""trial"",""time""
""focus"",""0"",""2""
""fullscreenenter"",""1"",""2848""
","
","""event"",""trial"",""time""
""focus"",""0"",""2""
","""event"",""trial"",""time""
""fullscreenenter"",""1"",""2848""
","
","","","712","","","13","3171","2334","&#9789;","elianto","#f73b6a7A"," "," ","1","0","[1563]","1","0","4","","","","","","","",""
"pit-trial","57","502019","0.0-2.0-17.0-1.0","battery-v0.2","","""event"",""trial"",""time""
""focus"",""0"",""2""
""fullscreenenter"",""1"",""2848""
","
","""event"",""trial"",""time""
""focus"",""0"",""2""
","""event"",""trial"",""time""
""fullscreenenter"",""1"",""2848""
","
","","","492","","","13","3171","2334","&#9789;","elianto","#f73b6a7A"," "," ","1","0","[1350]","1","0","4","","","","","","","",""
"pit-trial","58","505469","0.0-2.0-17.0-2.0","battery-v0.2","","""event"",""trial"",""time""
""focus"",""0"",""2""
""fullscreenenter"",""1"",""2848""
","
","""event"",""trial"",""time""
""focus"",""0"",""2""
","""event"",""trial"",""time""
""fullscreenenter"",""1"",""2848""
","
","","","581","","","13","3171","2334","&#9789;","elianto","#f73b6a7A"," "," ","1","0","[1439]","1","0","4","","","","","","","",""
"pit-trial","59","508729","0.0-2.0-17.0-3.0","battery-v0.2","","""event"",""trial"",""time""
""focus"",""0"",""2""
""fullscreenenter"",""1"",""2848""
","
","""event"",""trial"",""time""
""focus"",""0"",""2""
","""event"",""trial"",""time""
""fullscreenenter"",""1"",""2848""
","
","","","394","","","13","3171","2334","&#9789;","elianto","#f73b6a7A"," "," ","1","-10","[1252]","1","0","4","","","","","","","",""
"pit-trial","60","511789","0.0-2.0-17.0-4.0","battery-v0.2","","""event"",""trial"",""time""
""focus"",""0"",""2""
""fullscreenenter"",""1"",""2848""
","
","""event"",""trial"",""time""
""focus"",""0"",""2""
","""event"",""trial"",""time""
""fullscreenenter"",""1"",""2848""
","
","","","189","","","13","3171","2334","&#9789;","elianto","#f73b6a7A"," "," ","1","0","[1048]","1","0","4","","","","","","","",""
"call-function","61","511790","0.0-2.0-18.0","battery-v0.2","","""event"",""trial"",""time""
""focus"",""0"",""2""
""fullscreenenter"",""1"",""2848""
","
","""event"",""trial"",""time""
""focus"",""0"",""2""
","""event"",""trial"",""time""
""fullscreenenter"",""1"",""2848""
","
","","","","","","","","","","","","","","","","","","","","","","","","","","",""
"pit-instructions","62","562964","0.0-2.0-19.0","battery-v0.2","","""event"",""trial"",""time""
""focus"",""0"",""2""
""fullscreenenter"",""1"",""2848""
","
","""event"",""trial"",""time""
""focus"",""0"",""2""
","""event"",""trial"",""time""
""fullscreenenter"",""1"",""2848""
","
","","[{""page_index"":0,""viewing_time"":6549},{""page_index"":1,""viewing_time"":4978},{""page_index"":2,""viewing_time"":8150},{""page_index"":3,""viewing_time"":4256},{""page_index"":4,""viewing_time"":6015},{""page_index"":5,""viewing_time"":8200},{""page_index"":6,""viewing_time"":5696},{""page_index"":7,""viewing_time"":4177},{""page_index"":8,""viewing_time"":3151}]","51172","","","","","","","","","","","","","","","","","","","","","","","",""
"pit-comprehension","63","567366","0.0-2.0-20.0-0.0","battery-v0.2","","""event"",""trial"",""time""
""focus"",""0"",""2""
""fullscreenenter"",""1"",""2848""
","
","""event"",""trial"",""time""
""focus"",""0"",""2""
","""event"",""trial"",""time""
""fullscreenenter"",""1"",""2848""
","
","","","4398","[""SPACE""]","0","13","3171","2334","","","","","","","","","","","","","","","","","","",""
"pit-instructions","64","570115","0.0-2.0-20.0-1.0","battery-v0.2","","""event"",""trial"",""time""
""focus"",""0"",""2""
""fullscreenenter"",""1"",""2848""
","
","""event"",""trial"",""time""
""focus"",""0"",""2""
","""event"",""trial"",""time""
""fullscreenenter"",""1"",""2848""
","
","","[{""page_index"":0,""viewing_time"":2695}]","2695","","","","","","","","","","","","","","","","","","","","","","","",""
"pit-comprehension","65","574894","0.0-2.0-21.0-0.0","battery-v0.2","","""event"",""trial"",""time""
""focus"",""0"",""2""
""fullscreenenter"",""1"",""2848""
","
","""event"",""trial"",""time""
""focus"",""0"",""2""
","""event"",""trial"",""time""
""fullscreenenter"",""1"",""2848""
","
","","","4774","[""10""]","0","13","3171","2334","","","","","","","","","","","","","","","","","","",""
"pit-instructions","66","576259","0.0-2.0-21.0-1.0","battery-v0.2","","""event"",""trial"",""time""
""focus"",""0"",""2""
""fullscreenenter"",""1"",""2848""
","
","""event"",""trial"",""time""
""focus"",""0"",""2""
","""event"",""trial"",""time""
""fullscreenenter"",""1"",""2848""
","
","","[{""page_index"":0,""viewing_time"":1311}]","1311","","","","","","","","","","","","","","","","","","","","","","","",""
"pit-comprehension","67","582573","0.0-2.0-22.0-0.0","battery-v0.2","","""event"",""trial"",""time""
""focus"",""0"",""2""
""fullscreenenter"",""1"",""2848""
","
","""event"",""trial"",""time""
""focus"",""0"",""2""
","""event"",""trial"",""time""
""fullscreenenter"",""1"",""2848""
","
","","","6308","[""0""]","0","13","3171","2334","","","","","","","","","","","","","","","","","","",""
"pit-instructions","68","583699","0.0-2.0-22.0-1.0","battery-v0.2","","""event"",""trial"",""time""
""focus"",""0"",""2""
""fullscreenenter"",""1"",""2848""
","
","""event"",""trial"",""time""
""focus"",""0"",""2""
","""event"",""trial"",""time""
""fullscreenenter"",""1"",""2848""
","
","","[{""page_index"":0,""viewing_time"":1071}]","1071","","","","","","","","","","","","","","","","","","","","","","","",""
"pit-comprehension","69","591733","0.0-2.0-23.0-0.0","battery-v0.2","","""event"",""trial"",""time""
""focus"",""0"",""2""
""fullscreenenter"",""1"",""2848""
","
","""event"",""trial"",""time""
""focus"",""0"",""2""
","""event"",""trial"",""time""
""fullscreenenter"",""1"",""2848""
","
","","","8030","[""True""]","0","13","3171","2334","","","","","","","","","","","","","","","","","","",""
"pit-instructions","70","592794","0.0-2.0-23.0-1.0","battery-v0.2","","""event"",""trial"",""time""
""focus"",""0"",""2""
""fullscreenenter"",""1"",""2848""
","
","""event"",""trial"",""time""
""focus"",""0"",""2""
","""event"",""trial"",""time""
""fullscreenenter"",""1"",""2848""
","
","","[{""page_index"":0,""viewing_time"":1058}]","1058","","","","","","","","","","","","","","","","","","","","","","","",""
"pit-comprehension","71","600132","0.0-2.0-24.0-0.0","battery-v0.2","","""event"",""trial"",""time""
""focus"",""0"",""2""
""fullscreenenter"",""1"",""2848""
","
","""event"",""trial"",""time""
""focus"",""0"",""2""
","""event"",""trial"",""time""
""fullscreenenter"",""1"",""2848""
","
","","","7333","[""True""]","0","13","3171","2334","","","","","","","","","","","","","","","","","","",""
"pit-instructions","72","602443","0.0-2.0-24.0-1.0","battery-v0.2","","""event"",""trial"",""time""
""focus"",""0"",""2""
""fullscreenenter"",""1"",""2848""
","
","""event"",""trial"",""time""
""focus"",""0"",""2""
","""event"",""trial"",""time""
""fullscreenenter"",""1"",""2848""
","
","","[{""page_index"":0,""viewing_time"":2252}]","2253","","","","","","","","","","","","","","","","","","","","","","","",""
"pit-comprehension","73","609035","0.0-2.0-25.0-0.0","battery-v0.2","","""event"",""trial"",""time""
""focus"",""0"",""2""
""fullscreenenter"",""1"",""2848""
","
","""event"",""trial"",""time""
""focus"",""0"",""2""
","""event"",""trial"",""time""
""fullscreenenter"",""1"",""2848""
","
","","","6588","[""True""]","0","13","3171","2334","","","","","","","","","","","","","","","","","","",""
"pit-instructions","74","610114","0.0-2.0-25.0-1.0","battery-v0.2","","""event"",""trial"",""time""
""focus"",""0"",""2""
""fullscreenenter"",""1"",""2848""
","
","""event"",""trial"",""time""
""focus"",""0"",""2""
","""event"",""trial"",""time""
""fullscreenenter"",""1"",""2848""
","
","","[{""page_index"":0,""viewing_time"":1019}]","1019","","","","","","","","","","","","","","","","","","","","","","","",""
"pit-comprehension","75","616460","0.0-2.0-26.0-0.0","battery-v0.2","","""event"",""trial"",""time""
""focus"",""0"",""2""
""fullscreenenter"",""1"",""2848""
","
","""event"",""trial"",""time""
""focus"",""0"",""2""
","""event"",""trial"",""time""
""fullscreenenter"",""1"",""2848""
","
","","","6342","[""False""]","0","13","3171","2334","","","","","","","","","","","","","","","","","","",""
"pit-instructions","76","618554","0.0-2.0-26.0-1.0","battery-v0.2","","""event"",""trial"",""time""
""focus"",""0"",""2""
""fullscreenenter"",""1"",""2848""
","
","""event"",""trial"",""time""
""focus"",""0"",""2""
","""event"",""trial"",""time""
""fullscreenenter"",""1"",""2848""
","
","","[{""page_index"":0,""viewing_time"":2033}]","2033","","","","","","","","","","","","","","","","","","","","","","","",""
"pit-instructions","77","639193","0.0-3.0","battery-v0.2","","""event"",""trial"",""time""
""focus"",""0"",""2""
""fullscreenenter"",""1"",""2848""
","
","""event"",""trial"",""time""
""focus"",""0"",""2""
","""event"",""trial"",""time""
""fullscreenenter"",""1"",""2848""
","
","","[{""page_index"":0,""viewing_time"":4686},{""page_index"":1,""viewing_time"":9743},{""page_index"":2,""viewing_time"":6208}]","20637","","","","","","","","","","","","","","","","","","","","","","","",""
"pit-trial","78","643241","0.0-4.0","battery-v0.2","","""event"",""trial"",""time""
""focus"",""0"",""2""
""fullscreenenter"",""1"",""2848""
","
","""event"",""trial"",""time""
""focus"",""0"",""2""
","""event"",""trial"",""time""
""fullscreenenter"",""1"",""2848""
","
","","","1179","","","13","3171","2334","&#9730;","elianto","#3366ff99"," "," ","1","+10","[2030]","1","1","","","3171","1","1","1","win","go","0"
"pit-trial","79","646661","0.0-5.0","battery-v0.2","","""event"",""trial"",""time""
""focus"",""0"",""2""
""fullscreenenter"",""1"",""2848""
","
","""event"",""trial"",""time""
""focus"",""0"",""2""
","""event"",""trial"",""time""
""fullscreenenter"",""1"",""2848""
","
","","","555","","","13","3171","2334","&#9733;","elianto","#3366ff99","-1"," ","0","0","[1413]","1","1","","","3171","2","2","2","win","no-go","0"
"pit-trial","80","651531","0.0-6.0","battery-v0.2","","""event"",""trial"",""time""
""focus"",""0"",""2""
""fullscreenenter"",""1"",""2848""
","
","""event"",""trial"",""time""
""focus"",""0"",""2""
","""event"",""trial"",""time""
""fullscreenenter"",""1"",""2848""
","
","","","-1","","","13","3171","2334","&#9752;","elianto","#f73b6a7A"," ","-1","0","-10","[]","0","1","","","3171","3","3","3","lose","go","0"
"pit-trial","81","656161","0.0-7.0","battery-v0.2","","""event"",""trial"",""time""
""focus"",""0"",""2""
""fullscreenenter"",""1"",""2848""
","
","""event"",""trial"",""time""
""focus"",""0"",""2""
","""event"",""trial"",""time""
""fullscreenenter"",""1"",""2848""
","
","","","1759","","","13","3171","2334","&#9728;","elianto","#f73b6a7A","-1"," ","0","-10","[2617]","1","1","","","3171","4","0","4","lose","no-go","0"
"pit-trial","82","659590","0.0-8.0","battery-v0.2","","""event"",""trial"",""time""
""focus"",""0"",""2""
""fullscreenenter"",""1"",""2848""
","
","""event"",""trial"",""time""
""focus"",""0"",""2""
","""event"",""trial"",""time""
""fullscreenenter"",""1"",""2848""
","
","","","562","","","13","3171","2334","&#9733;","elianto","#3366ff99","-1"," ","0","0","[1419]","1","1","","","3171","5","2","2","win","no-go","0"
"pit-trial","83","663761","0.0-9.0","battery-v0.2","","""event"",""trial"",""time""
""focus"",""0"",""2""
""fullscreenenter"",""1"",""2848""
","
","""event"",""trial"",""time""
""focus"",""0"",""2""
","""event"",""trial"",""time""
""fullscreenenter"",""1"",""2848""
","
","","","1300","","","13","3171","2334","&#9752;","elianto","#f73b6a7A"," "," ","1","0","[2158]","1","1","","","3171","6","3","3","lose","go","0"
"pit-trial","84","667310","0.0-10.0","battery-v0.2","","""event"",""trial"",""time""
""focus"",""0"",""2""
""fullscreenenter"",""1"",""2848""
","
","""event"",""trial"",""time""
""focus"",""0"",""2""
","""event"",""trial"",""time""
""fullscreenenter"",""1"",""2848""
","
","","","682","","","13","3171","2334","&#9730;","elianto","#3366ff99"," "," ","1","0","[1540]","1","1","","","3171","7","1","1","win","go","1"
"pit-trial","85","672170","0.0-11.0","battery-v0.2","","""event"",""trial"",""time""
""focus"",""0"",""2""
""fullscreenenter"",""1"",""2848""
","
","""event"",""trial"",""time""
""focus"",""0"",""2""
","""event"",""trial"",""time""
""fullscreenenter"",""1"",""2848""
","
","","","-1","","","13","3171","2334","&#9728;","elianto","#f73b6a7A","-1","-1","1","0","[]","0","1","","","3171","8","0","4","lose","no-go","0"
"pit-trial","86","676870","0.0-12.0","battery-v0.2","","""event"",""trial"",""time""
""focus"",""0"",""2""
""fullscreenenter"",""1"",""2848""
","
","""event"",""trial"",""time""
""focus"",""0"",""2""
","""event"",""trial"",""time""
""fullscreenenter"",""1"",""2848""
","
","","","1832","","","13","3171","2334","&#9752;","elianto","#f73b6a7A"," "," ","1","0","[2690]","1","1","","","3171","9","3","3","lose","go","0"
"pit-trial","87","681740","0.0-13.0","battery-v0.2","","""event"",""trial"",""time""
""focus"",""0"",""2""
""fullscreenenter"",""1"",""2848""
","
","""event"",""trial"",""time""
""focus"",""0"",""2""
","""event"",""trial"",""time""
""fullscreenenter"",""1"",""2848""
","
","","","-1","","","13","3171","2334","&#9730;","elianto","#3366ff99"," ","-1","0","0","[3558,3909]","2","1","","","3171","10","1","1","win","go","0"
"pit-trial","88","686600","0.0-14.0","battery-v0.2","","""event"",""trial"",""time""
""focus"",""0"",""2""
""fullscreenenter"",""1"",""2848""
","
","""event"",""trial"",""time""
""focus"",""0"",""2""
","""event"",""trial"",""time""
""fullscreenenter"",""1"",""2848""
","
","","","-1","","","13","3171","2334","&#9733;","elianto","#3366ff99","-1","-1","1","+10","[]","0","1","","","3171","11","2","2","win","no-go","0"
"pit-trial","89","691460","0.0-15.0","battery-v0.2","","""event"",""trial"",""time""
""focus"",""0"",""2""
""fullscreenenter"",""1"",""2848""
","
","""event"",""trial"",""time""
""focus"",""0"",""2""
","""event"",""trial"",""time""
""fullscreenenter"",""1"",""2848""
","
","","","-1","","","13","3171","2334","&#9728;","elianto","#f73b6a7A","-1","-1","1","0","[]","0","1","","","3171","12","0","4","lose","no-go","0"
"pit-trial","90","694920","0.0-16.0","battery-v0.2","","""event"",""trial"",""time""
""focus"",""0"",""2""
""fullscreenenter"",""1"",""2848""
","
","""event"",""trial"",""time""
""focus"",""0"",""2""
","""event"",""trial"",""time""
""fullscreenenter"",""1"",""2848""
","
","","","598","","","13","3171","2334","&#9752;","elianto","#f73b6a7A"," "," ","1","-10","[1456]","1","1","","","3171","13","3","3","lose","go","1"
"pit-trial","91","698859","0.0-17.0","battery-v0.2","","""event"",""trial"",""time""
""focus"",""0"",""2""
""fullscreenenter"",""1"",""2848""
","
","""event"",""trial"",""time""
""focus"",""0"",""2""
","""event"",""trial"",""time""
""fullscreenenter"",""1"",""2848""
","
","","","1074","","","13","3171","2334","&#9730;","elianto","#3366ff99"," "," ","1","+10","[1931]","1","1","","","3171","14","1","1","win","go","0"
"pit-trial","92","702360","0.0-18.0","battery-v0.2","","""event"",""trial"",""time""
""focus"",""0"",""2""
""fullscreenenter"",""1"",""2848""
","
","""event"",""trial"",""time""
""focus"",""0"",""2""
","""event"",""trial"",""time""
""fullscreenenter"",""1"",""2848""
","
","","","638","","","13","3171","2334","&#9733;","elianto","#3366ff99","-1"," ","0","0","[1496]","1","1","","","3171","15","2","2","win","no-go","0"
"pit-trial","93","707219","0.0-19.0","battery-v0.2","","""event"",""trial"",""time""
""focus"",""0"",""2""
""fullscreenenter"",""1"",""2848""
","
","""event"",""trial"",""time""
""focus"",""0"",""2""
","""event"",""trial"",""time""
""fullscreenenter"",""1"",""2848""
","
","","","-1","","","13","3171","2334","&#9728;","elianto","#f73b6a7A","-1","-1","1","0","[]","0","1","","","3171","16","0","4","lose","no-go","0"
"pit-trial","94","712079","0.0-20.0","battery-v0.2","","""event"",""trial"",""time""
""focus"",""0"",""2""
""fullscreenenter"",""1"",""2848""
","
","""event"",""trial"",""time""
""focus"",""0"",""2""
","""event"",""trial"",""time""
""fullscreenenter"",""1"",""2848""
","
","","","-1","","","13","3171","2334","&#9733;","elianto","#3366ff99","-1","-1","1","+10","[]","0","1","","","3171","17","2","2","win","no-go","0"
"pit-trial","95","716089","0.0-21.0","battery-v0.2","","""event"",""trial"",""time""
""focus"",""0"",""2""
""fullscreenenter"",""1"",""2848""
","
","""event"",""trial"",""time""
""focus"",""0"",""2""
","""event"",""trial"",""time""
""fullscreenenter"",""1"",""2848""
","
","","","1146","","","13","3171","2334","&#9730;","elianto","#3366ff99"," "," ","1","0","[2004]","1","1","","","3171","18","1","1","win","go","1"
"pit-trial","96","720008","0.0-22.0","battery-v0.2","","""event"",""trial"",""time""
""focus"",""0"",""2""
""fullscreenenter"",""1"",""2848""
","
","""event"",""trial"",""time""
""focus"",""0"",""2""
","""event"",""trial"",""time""
""fullscreenenter"",""1"",""2848""
","
","","","1056","","","13","3171","2334","&#9752;","elianto","#f73b6a7A"," "," ","1","0","[1914]","1","1","","","3171","19","3","3","lose","go","0"
"pit-trial","97","724869","0.0-23.0","battery-v0.2","","""event"",""trial"",""time""
""focus"",""0"",""2""
""fullscreenenter"",""1"",""2848""
","
","""event"",""trial"",""time""
""focus"",""0"",""2""
","""event"",""trial"",""time""
""fullscreenenter"",""1"",""2848""
","
","","","-1","","","13","3171","2334","&#9728;","elianto","#f73b6a7A","-1","-1","1","0","[]","0","1","","","3171","20","0","4","lose","no-go","0"
"pit-instructions","98","739070","0.0-24.0","battery-v0.2","","""event"",""trial"",""time""
""focus"",""0"",""2""
""fullscreenenter"",""1"",""2848""
","
","""event"",""trial"",""time""
""focus"",""0"",""2""
","""event"",""trial"",""time""
""fullscreenenter"",""1"",""2848""
","
","","[{""page_index"":0,""viewing_time"":5497},{""page_index"":1,""viewing_time"":8704}]","14201","","","","","","","","","","","","","","","","","","","","","","","",""
"pit-trial","99","743878","0.0-25.0","battery-v0.2","","""event"",""trial"",""time""
""focus"",""0"",""2""
""fullscreenenter"",""1"",""2848""
","
","""event"",""trial"",""time""
""focus"",""0"",""2""
","""event"",""trial"",""time""
""fullscreenenter"",""1"",""2848""
","
","","","1940","","","13","3171","2334","u","elianto","#f73b6a7A"," "," ","1","-10","[2792]","1","2","","","3171","21","0","3","lose","go","1"
"pit-trial","100","748738","0.0-26.0","battery-v0.2","","""event"",""trial"",""time""
""focus"",""0"",""2""
""fullscreenenter"",""1"",""2848""
","
","""event"",""trial"",""time""
""focus"",""0"",""2""
","""event"",""trial"",""time""
""fullscreenenter"",""1"",""2848""
","
","","","-1","","","13","3171","2334","a","elianto","#f73b6a7A"," ","-1","0","-10","[]","0","2","","","3171","22","2","3","lose","go","0"
"pit-trial","101","752437","0.0-27.0","battery-v0.2","","""event"",""trial"",""time""
""focus"",""0"",""2""
""fullscreenenter"",""1"",""2848""
","
","""event"",""trial"",""time""
""focus"",""0"",""2""
","""event"",""trial"",""time""
""fullscreenenter"",""1"",""2848""
","
","","","839","","","13","3171","2334","g","elianto","#f73b6a7A","-1"," ","0","0","[1698]","1","2","","","3171","23","3","4","lose","no-go","1"
"pit-trial","102","756588","0.0-28.0","battery-v0.2","","""event"",""trial"",""time""
""focus"",""0"",""2""
""fullscreenenter"",""1"",""2848""
","
","""event"",""trial"",""time""
""focus"",""0"",""2""
","""event"",""trial"",""time""
""fullscreenenter"",""1"",""2848""
","
","","","1282","","","13","3171","2334","l","elianto","#3366ff99","-1"," ","0","0","[2141]","1","2","","","3171","24","1","2","win","no-go","0"
"pit-trial","103","761148","0.0-29.0","battery-v0.2","","""event"",""trial"",""time""
""focus"",""0"",""2""
""fullscreenenter"",""1"",""2848""
","
","""event"",""trial"",""time""
""focus"",""0"",""2""
","""event"",""trial"",""time""
""fullscreenenter"",""1"",""2848""
","
","","","1692","","","13","3171","2334","u","elianto","#f73b6a7A"," "," ","1","0","[2550]","1","2","","","3171","25","0","3","lose","go","0"
"pit-trial","104","766007","0.0-30.0","battery-v0.2","","""event"",""trial"",""time""
""focus"",""0"",""2""
""fullscreenenter"",""1"",""2848""
","
","""event"",""trial"",""time""
""focus"",""0"",""2""
","""event"",""trial"",""time""
""fullscreenenter"",""1"",""2848""
","
","","","-1","","","13","3171","2334","l","elianto","#3366ff99","-1","-1","1","+10","[]","0","2","","","3171","26","1","2","win","no-go","0"
"pit-trial","105","769888","0.0-31.0","battery-v0.2","","""event"",""trial"",""time""
""focus"",""0"",""2""
""fullscreenenter"",""1"",""2848""
","
","""event"",""trial"",""time""
""focus"",""0"",""2""
","""event"",""trial"",""time""
""fullscreenenter"",""1"",""2848""
","
","","","1017","","","13","3171","2334","a","elianto","#f73b6a7A"," "," ","1","0","[1875]","1","2","","","3171","27","2","3","lose","go","0"
"pit-trial","106","774748","0.0-32.0","battery-v0.2","","""event"",""trial"",""time""
""focus"",""0"",""2""
""fullscreenenter"",""1"",""2848""
","
","""event"",""trial"",""time""
""focus"",""0"",""2""
","""event"",""trial"",""time""
""fullscreenenter"",""1"",""2848""
","
","","","-1","","","13","3171","2334","g","elianto","#f73b6a7A","-1","-1","1","0","[]","0","2","","","3171","28","3","4","lose","no-go","0"
"pit-trial","107","778597","0.0-33.0","battery-v0.2","","""event"",""trial"",""time""
""focus"",""0"",""2""
""fullscreenenter"",""1"",""2848""
","
","""event"",""trial"",""time""
""focus"",""0"",""2""
","""event"",""trial"",""time""
""fullscreenenter"",""1"",""2848""
","
","","","988","","","13","3171","2334","u","elianto","#f73b6a7A"," "," ","1","0","[1846]","1","2","","","3171","29","0","3","lose","go","0"
"pit-trial","108","783457","0.0-34.0","battery-v0.2","","""event"",""trial"",""time""
""focus"",""0"",""2""
""fullscreenenter"",""1"",""2848""
","
","""event"",""trial"",""time""
""focus"",""0"",""2""
","""event"",""trial"",""time""
""fullscreenenter"",""1"",""2848""
","
","","","-1","","","13","3171","2334","l","elianto","#3366ff99","-1","-1","1","+10","[]","0","2","","","3171","30","1","2","win","no-go","0"
"pit-trial","109","787397","0.0-35.0","battery-v0.2","","""event"",""trial"",""time""
""focus"",""0"",""2""
""fullscreenenter"",""1"",""2848""
","
","""event"",""trial"",""time""
""focus"",""0"",""2""
","""event"",""trial"",""time""
""fullscreenenter"",""1"",""2848""
","
","","","1078","","","13","3171","2334","a","elianto","#f73b6a7A"," "," ","1","0","[1937]","1","2","","","3171","31","2","3","lose","go","0"
"pit-trial","110","792257","0.0-36.0","battery-v0.2","","""event"",""trial"",""time""
""focus"",""0"",""2""
""fullscreenenter"",""1"",""2848""
","
","""event"",""trial"",""time""
""focus"",""0"",""2""
","""event"",""trial"",""time""
""fullscreenenter"",""1"",""2848""
","
","","","-1","","","13","3171","2334","g","elianto","#f73b6a7A","-1","-1","1","0","[]","0","2","","","3171","32","3","4","lose","no-go","0"
"pit-trial","111","797117","0.0-37.0","battery-v0.2","","""event"",""trial"",""time""
""focus"",""0"",""2""
""fullscreenenter"",""1"",""2848""
","
","""event"",""trial"",""time""
""focus"",""0"",""2""
","""event"",""trial"",""time""
""fullscreenenter"",""1"",""2848""
","
","","","-1","","","13","3171","2334","g","elianto","#f73b6a7A","-1","-1","1","0","[]","0","2","","","3171","33","3","4","lose","no-go","0"
"pit-trial","112","801977","0.0-38.0","battery-v0.2","","""event"",""trial"",""time""
""focus"",""0"",""2""
""fullscreenenter"",""1"",""2848""
","
","""event"",""trial"",""time""
""focus"",""0"",""2""
","""event"",""trial"",""time""
""fullscreenenter"",""1"",""2848""
","
","","","-1","","","13","3171","2334","l","elianto","#3366ff99","-1","-1","1","+10","[]","0","2","","","3171","34","1","2","win","no-go","0"
"pit-trial","113","805676","0.0-39.0","battery-v0.2","","""event"",""trial"",""time""
""focus"",""0"",""2""
""fullscreenenter"",""1"",""2848""
","
","""event"",""trial"",""time""
""focus"",""0"",""2""
","""event"",""trial"",""time""
""fullscreenenter"",""1"",""2848""
","
","","","838","","","13","3171","2334","u","elianto","#f73b6a7A"," "," ","1","0","[1696]","1","2","","","3171","35","0","3","lose","go","0"
"pit-trial","114","810536","0.0-40.0","battery-v0.2","","""event"",""trial"",""time""
""focus"",""0"",""2""
""fullscreenenter"",""1"",""2848""
","
","""event"",""trial"",""time""
""focus"",""0"",""2""
","""event"",""trial"",""time""
""fullscreenenter"",""1"",""2848""
","
","","","-1","","","13","3171","2334","a","elianto","#f73b6a7A"," ","-1","0","-10","[]","0","2","","","3171","36","2","3","lose","go","0"
"pit-trial","115","813986","0.0-41.0","battery-v0.2","","""event"",""trial"",""time""
""focus"",""0"",""2""
""fullscreenenter"",""1"",""2848""
","
","""event"",""trial"",""time""
""focus"",""0"",""2""
","""event"",""trial"",""time""
""fullscreenenter"",""1"",""2848""
","
","","","590","","","13","3171","2334","u","elianto","#f73b6a7A"," "," ","1","0","[1448]","1","2","","","3171","37","0","3","lose","go","0"
"pit-trial","116","818856","0.0-42.0","battery-v0.2","","""event"",""trial"",""time""
""focus"",""0"",""2""
""fullscreenenter"",""1"",""2848""
","
","""event"",""trial"",""time""
""focus"",""0"",""2""
","""event"",""trial"",""time""
""fullscreenenter"",""1"",""2848""
","
","","","-1","","","13","3171","2334","g","elianto","#f73b6a7A","-1","-1","1","-10","[]","0","2","","","3171","38","3","4","lose","no-go","1"
"pit-trial","117","822546","0.0-43.0","battery-v0.2","","""event"",""trial"",""time""
""focus"",""0"",""2""
""fullscreenenter"",""1"",""2848""
","
","""event"",""trial"",""time""
""focus"",""0"",""2""
","""event"",""trial"",""time""
""fullscreenenter"",""1"",""2848""
","
","","","822","","","13","3171","2334","a","elianto","#f73b6a7A"," "," ","1","0","[1679]","1","2","","","3171","39","2","3","lose","go","0"
"pit-trial","118","827398","0.0-44.0","battery-v0.2","","""event"",""trial"",""time""
""focus"",""0"",""2""
""fullscreenenter"",""1"",""2848""
","
","""event"",""trial"",""time""
""focus"",""0"",""2""
","""event"",""trial"",""time""
""fullscreenenter"",""1"",""2848""
","
","","","-1","","","13","3171","2334","l","elianto","#3366ff99","-1","-1","1","0","[]","0","2","","","3171","40","1","2","win","no-go","1"
"pit-trial","119","831047","0.0-45.0","battery-v0.2","","""event"",""trial"",""time""
""focus"",""0"",""2""
""fullscreenenter"",""1"",""2848""
","
","""event"",""trial"",""time""
""focus"",""0"",""2""
","""event"",""trial"",""time""
""fullscreenenter"",""1"",""2848""
","
","","","783","","","13","3171","2334","u","elianto","#f73b6a7A"," "," ","1","0","[1641]","1","2","","","3171","41","0","3","lose","go","0"
"pit-trial","120","834827","0.0-46.0","battery-v0.2","","""event"",""trial"",""time""
""focus"",""0"",""2""
""fullscreenenter"",""1"",""2848""
","
","""event"",""trial"",""time""
""focus"",""0"",""2""
","""event"",""trial"",""time""
""fullscreenenter"",""1"",""2848""
","
","","","919","","","13","3171","2334","a","elianto","#f73b6a7A"," "," ","1","0","[1777]","1","2","","","3171","42","2","3","lose","go","0"
"pit-trial","121","839687","0.0-47.0","battery-v0.2","","""event"",""trial"",""time""
""focus"",""0"",""2""
""fullscreenenter"",""1"",""2848""
","
","""event"",""trial"",""time""
""focus"",""0"",""2""
","""event"",""trial"",""time""
""fullscreenenter"",""1"",""2848""
","
","","","-1","","","13","3171","2334","l","elianto","#3366ff99","-1","-1","1","+10","[]","0","2","","","3171","43","1","2","win","no-go","0"
"pit-trial","122","843467","0.0-48.0","battery-v0.2","","""event"",""trial"",""time""
""focus"",""0"",""2""
""fullscreenenter"",""1"",""2848""
","
","""event"",""trial"",""time""
""focus"",""0"",""2""
","""event"",""trial"",""time""
""fullscreenenter"",""1"",""2848""
","
","","","917","","","13","3171","2334","g","elianto","#f73b6a7A","-1"," ","0","-10","[1776]","1","2","","","3171","44","3","4","lose","no-go","0"
"pit-trial","123","846957","0.0-49.0","battery-v0.2","","""event"",""trial"",""time""
""focus"",""0"",""2""
""fullscreenenter"",""1"",""2848""
","
","""event"",""trial"",""time""
""focus"",""0"",""2""
","""event"",""trial"",""time""
""fullscreenenter"",""1"",""2848""
","
","","","627","","","13","3171","2334","a","elianto","#f73b6a7A"," "," ","1","-10","[1485]","1","2","","","3171","45","2","3","lose","go","1"
"pit-trial","124","851817","0.0-50.0","battery-v0.2","","""event"",""trial"",""time""
""focus"",""0"",""2""
""fullscreenenter"",""1"",""2848""
","
","""event"",""trial"",""time""
""focus"",""0"",""2""
","""event"",""trial"",""time""
""fullscreenenter"",""1"",""2848""
","
","","","-1","","","13","3171","2334","g","elianto","#f73b6a7A","-1","-1","1","0","[]","0","2","","","3171","46","3","4","lose","no-go","0"
"pit-trial","125","856677","0.0-51.0","battery-v0.2","","""event"",""trial"",""time""
""focus"",""0"",""2""
""fullscreenenter"",""1"",""2848""
","
","""event"",""trial"",""time""
""focus"",""0"",""2""
","""event"",""trial"",""time""
""fullscreenenter"",""1"",""2848""
","
","","","-1","","","13","3171","2334","l","elianto","#3366ff99","-1","-1","1","+10","[]","0","2","","","3171","47","1","2","win","no-go","0"
"pit-trial","126","860377","0.0-52.0","battery-v0.2","","""event"",""trial"",""time""
""focus"",""0"",""2""
""fullscreenenter"",""1"",""2848""
","
","""event"",""trial"",""time""
""focus"",""0"",""2""
","""event"",""trial"",""time""
""fullscreenenter"",""1"",""2848""
","
","","","832","","","13","3171","2334","u","elianto","#f73b6a7A"," "," ","1","-10","[1690]","1","2","","","3171","48","0","3","lose","go","1"
"pit-trial","127","864217","0.0-53.0","battery-v0.2","","""event"",""trial"",""time""
""focus"",""0"",""2""
""fullscreenenter"",""1"",""2848""
","
","""event"",""trial"",""time""
""focus"",""0"",""2""
","""event"",""trial"",""time""
""fullscreenenter"",""1"",""2848""
","
","","","973","","","13","3171","2334","u","elianto","#f73b6a7A"," "," ","1","0","[1831]","1","2","","","3171","49","0","3","lose","go","0"
"pit-trial","128","869077","0.0-54.0","battery-v0.2","","""event"",""trial"",""time""
""focus"",""0"",""2""
""fullscreenenter"",""1"",""2848""
","
","""event"",""trial"",""time""
""focus"",""0"",""2""
","""event"",""trial"",""time""
""fullscreenenter"",""1"",""2848""
","
","","","-1","","","13","3171","2334","g","elianto","#f73b6a7A","-1","-1","1","0","[]","0","2","","","3171","50","3","4","lose","no-go","0"
"pit-trial","129","873936","0.0-55.0","battery-v0.2","","""event"",""trial"",""time""
""focus"",""0"",""2""
""fullscreenenter"",""1"",""2848""
","
","""event"",""trial"",""time""
""focus"",""0"",""2""
","""event"",""trial"",""time""
""fullscreenenter"",""1"",""2848""
","
","","","-1","","","13","3171","2334","l","elianto","#3366ff99","-1","-1","1","+10","[]","0","2","","","3171","51","1","2","win","no-go","0"
"pit-trial","130","878796","0.0-56.0","battery-v0.2","","""event"",""trial"",""time""
""focus"",""0"",""2""
""fullscreenenter"",""1"",""2848""
","
","""event"",""trial"",""time""
""focus"",""0"",""2""
","""event"",""trial"",""time""
""fullscreenenter"",""1"",""2848""
","
","","","-1","","","13","3171","2334","a","elianto","#f73b6a7A"," ","-1","0","-10","[3462,3670,3838,3990,4126,4238]","6","2","","","3171","52","2","3","lose","go","0"
"pit-trial","131","883656","0.0-57.0","battery-v0.2","","""event"",""trial"",""time""
""focus"",""0"",""2""
""fullscreenenter"",""1"",""2848""
","
","""event"",""trial"",""time""
""focus"",""0"",""2""
","""event"",""trial"",""time""
""fullscreenenter"",""1"",""2848""
","
","","","-1","","","13","3171","2334","g","elianto","#f73b6a7A","-1","-1","1","0","[]","0","2","","","3171","53","3","4","lose","no-go","0"
"pit-trial","132","888516","0.0-58.0","battery-v0.2","","""event"",""trial"",""time""
""focus"",""0"",""2""
""fullscreenenter"",""1"",""2848""
","
","""event"",""trial"",""time""
""focus"",""0"",""2""
","""event"",""trial"",""time""
""fullscreenenter"",""1"",""2848""
","
","","","-1","","","13","3171","2334","l","elianto","#3366ff99","-1","-1","1","0","[]","0","2","","","3171","54","1","2","win","no-go","1"
"pit-trial","133","891926","0.0-59.0","battery-v0.2","","""event"",""trial"",""time""
""focus"",""0"",""2""
""fullscreenenter"",""1"",""2848""
","
","""event"",""trial"",""time""
""focus"",""0"",""2""
","""event"",""trial"",""time""
""fullscreenenter"",""1"",""2848""
","
","","","544","","","13","3171","2334","u","elianto","#f73b6a7A"," "," ","1","0","[1402]","1","2","","","3171","55","0","3","lose","go","0"
"pit-trial","134","896796","0.0-60.0","battery-v0.2","","""event"",""trial"",""time""
""focus"",""0"",""2""
""fullscreenenter"",""1"",""2848""
","
","""event"",""trial"",""time""
""focus"",""0"",""2""
","""event"",""trial"",""time""
""fullscreenenter"",""1"",""2848""
","
","","","-1","","","13","3171","2334","a","elianto","#f73b6a7A"," ","-1","0","-10","[]","0","2","","","3171","56","2","3","lose","go","0"
"pit-trial","135","901656","0.0-61.0","battery-v0.2","","""event"",""trial"",""time""
""focus"",""0"",""2""
""fullscreenenter"",""1"",""2848""
","
","""event"",""trial"",""time""
""focus"",""0"",""2""
","""event"",""trial"",""time""
""fullscreenenter"",""1"",""2848""
","
","","","-1","","","13","3171","2334","g","elianto","#f73b6a7A","-1","-1","1","-10","[]","0","2","","","3171","57","3","4","lose","no-go","1"
"pit-trial","136","906516","0.0-62.0","battery-v0.2","","""event"",""trial"",""time""
""focus"",""0"",""2""
""fullscreenenter"",""1"",""2848""
","
","""event"",""trial"",""time""
""focus"",""0"",""2""
","""event"",""trial"",""time""
""fullscreenenter"",""1"",""2848""
","
","","","-1","","","13","3171","2334","a","elianto","#f73b6a7A"," ","-1","0","-10","[3607]","1","2","","","3171","58","2","3","lose","go","0"
"pit-trial","137","911039","0.0-63.0","battery-v0.2","","""event"",""trial"",""time""
""focus"",""0"",""2""
""fullscreenenter"",""1"",""2848""
","
","""event"",""trial"",""time""
""focus"",""0"",""2""
","""event"",""trial"",""time""
""fullscreenenter"",""1"",""2848""
","
","","","1656","","","13","3171","2334","p","elianto","#3366ff99"," "," ","1","+10","[2515]","1","2","","","3171","59","4","1","win","go","0"
"pit-trial","138","914732","0.0-64.0","battery-v0.2","","""event"",""trial"",""time""
""focus"",""0"",""2""
""fullscreenenter"",""1"",""2848""
","
","""event"",""trial"",""time""
""focus"",""0"",""2""
","""event"",""trial"",""time""
""fullscreenenter"",""1"",""2848""
","
","","","835","","","13","3171","2334","u","elianto","#f73b6a7A"," "," ","1","0","[1687]","1","2","","","3171","60","0","3","lose","go","0"
"pit-trial","139","919593","0.0-65.0","battery-v0.2","","""event"",""trial"",""time""
""focus"",""0"",""2""
""fullscreenenter"",""1"",""2848""
","
","""event"",""trial"",""time""
""focus"",""0"",""2""
","""event"",""trial"",""time""
""fullscreenenter"",""1"",""2848""
","
","","","-1","","","13","3171","2334","l","elianto","#3366ff99","-1","-1","1","+10","[]","0","2","","","3171","61","1","2","win","no-go","0"
"pit-trial","140","923163","0.0-66.0","battery-v0.2","","""event"",""trial"",""time""
""focus"",""0"",""2""
""fullscreenenter"",""1"",""2848""
","
","""event"",""trial"",""time""
""focus"",""0"",""2""
","""event"",""trial"",""time""
""fullscreenenter"",""1"",""2848""
","
","","","707","","","13","3171","2334","a","elianto","#f73b6a7A"," "," ","1","0","[1565]","1","2","","","3171","62","2","3","lose","go","0"
"pit-trial","141","928022","0.0-67.0","battery-v0.2","","""event"",""trial"",""time""
""focus"",""0"",""2""
""fullscreenenter"",""1"",""2848""
","
","""event"",""trial"",""time""
""focus"",""0"",""2""
","""event"",""trial"",""time""
""fullscreenenter"",""1"",""2848""
","
","","","-1","","","13","3171","2334","g","elianto","#f73b6a7A","-1","-1","1","0","[]","0","2","","","3171","63","3","4","lose","no-go","0"
"pit-trial","142","931632","0.0-68.0","battery-v0.2","","""event"",""trial"",""time""
""focus"",""0"",""2""
""fullscreenenter"",""1"",""2848""
","
","""event"",""trial"",""time""
""focus"",""0"",""2""
","""event"",""trial"",""time""
""fullscreenenter"",""1"",""2848""
","
","","","740","","","13","3171","2334","p","elianto","#3366ff99"," "," ","1","0","[1598]","1","2","","","3171","64","4","1","win","go","1"
"pit-trial","143","935482","0.0-69.0","battery-v0.2","","""event"",""trial"",""time""
""focus"",""0"",""2""
""fullscreenenter"",""1"",""2848""
","
","""event"",""trial"",""time""
""focus"",""0"",""2""
","""event"",""trial"",""time""
""fullscreenenter"",""1"",""2848""
","
","","","987","","","13","3171","2334","s","elianto","#3366ff99","-1"," ","0","0","[1846]","1","2","","","3171","65","5","2","win","no-go","0"
"pit-trial","144","940342","0.0-70.0","battery-v0.2","","""event"",""trial"",""time""
""focus"",""0"",""2""
""fullscreenenter"",""1"",""2848""
","
","""event"",""trial"",""time""
""focus"",""0"",""2""
","""event"",""trial"",""time""
""fullscreenenter"",""1"",""2848""
","
","","","-1","","","13","3171","2334","g","elianto","#f73b6a7A","-1","-1","1","0","[]","0","2","","","3171","66","3","4","lose","no-go","0"
"pit-trial","145","945202","0.0-71.0","battery-v0.2","","""event"",""trial"",""time""
""focus"",""0"",""2""
""fullscreenenter"",""1"",""2848""
","
","""event"",""trial"",""time""
""focus"",""0"",""2""
","""event"",""trial"",""time""
""fullscreenenter"",""1"",""2848""
","
","","","-1","","","13","3171","2334","l","elianto","#3366ff99","-1","-1","1","+10","[]","0","2","","","3171","67","1","2","win","no-go","0"
"pit-trial","146","949031","0.0-72.0","battery-v0.2","","""event"",""trial"",""time""
""focus"",""0"",""2""
""fullscreenenter"",""1"",""2848""
","
","""event"",""trial"",""time""
""focus"",""0"",""2""
","""event"",""trial"",""time""
""fullscreenenter"",""1"",""2848""
","
","","","970","","","13","3171","2334","p","elianto","#3366ff99"," "," ","1","+10","[1828]","1","2","","","3171","68","4","1","win","go","0"
"pit-trial","147","952931","0.0-73.0","battery-v0.2","","""event"",""trial"",""time""
""focus"",""0"",""2""
""fullscreenenter"",""1"",""2848""
","
","""event"",""trial"",""time""
""focus"",""0"",""2""
","""event"",""trial"",""time""
""fullscreenenter"",""1"",""2848""
","
","","","1034","","","13","3171","2334","p","elianto","#3366ff99"," "," ","1","+10","[1893]","1","2","","","3171","69","4","1","win","go","0"
"pit-trial","148","957791","0.0-74.0","battery-v0.2","","""event"",""trial"",""time""
""focus"",""0"",""2""
""fullscreenenter"",""1"",""2848""
","
","""event"",""trial"",""time""
""focus"",""0"",""2""
","""event"",""trial"",""time""
""fullscreenenter"",""1"",""2848""
","
","","","-1","","","13","3171","2334","l","elianto","#3366ff99","-1","-1","1","+10","[]","0","2","","","3171","70","1","2","win","no-go","0"
"pit-trial","149","961701","0.0-75.0","battery-v0.2","","""event"",""trial"",""time""
""focus"",""0"",""2""
""fullscreenenter"",""1"",""2848""
","
","""event"",""trial"",""time""
""focus"",""0"",""2""
","""event"",""trial"",""time""
""fullscreenenter"",""1"",""2848""
","
","","","1043","","","13","3171","2334","a","elianto","#f73b6a7A"," "," ","1","0","[1902]","1","2","","","3171","71","2","3","lose","go","0"
"pit-trial","150","965431","0.0-76.0","battery-v0.2","","""event"",""trial"",""time""
""focus"",""0"",""2""
""fullscreenenter"",""1"",""2848""
","
","""event"",""trial"",""time""
""focus"",""0"",""2""
","""event"",""trial"",""time""
""fullscreenenter"",""1"",""2848""
","
","","","861","","","13","3171","2334","s","elianto","#3366ff99","-1"," ","0","0","[1719]","1","2","","","3171","72","5","2","win","no-go","0"
"pit-trial","151","970283","0.0-77.0","battery-v0.2","","""event"",""trial"",""time""
""focus"",""0"",""2""
""fullscreenenter"",""1"",""2848""
","
","""event"",""trial"",""time""
""focus"",""0"",""2""
","""event"",""trial"",""time""
""fullscreenenter"",""1"",""2848""
","
","","","-1","","","13","3171","2334","g","elianto","#f73b6a7A","-1","-1","1","-10","[]","0","2","","","3171","73","3","4","lose","no-go","1"
"pit-trial","152","975143","0.0-78.0","battery-v0.2","","""event"",""trial"",""time""
""focus"",""0"",""2""
""fullscreenenter"",""1"",""2848""
","
","""event"",""trial"",""time""
""focus"",""0"",""2""
","""event"",""trial"",""time""
""fullscreenenter"",""1"",""2848""
","
","","","-1","","","13","3171","2334","l","elianto","#3366ff99","-1","-1","1","+10","[]","0","2","","","3171","74","1","2","win","no-go","0"
"pit-trial","153","980003","0.0-79.0","battery-v0.2","","""event"",""trial"",""time""
""focus"",""0"",""2""
""fullscreenenter"",""1"",""2848""
","
","""event"",""trial"",""time""
""focus"",""0"",""2""
","""event"",""trial"",""time""
""fullscreenenter"",""1"",""2848""
","
","","","-1","","","13","3171","2334","s","elianto","#3366ff99","-1","-1","1","+10","[]","0","2","","","3171","75","5","2","win","no-go","0"
"pit-trial","154","983603","0.0-80.0","battery-v0.2","","""event"",""trial"",""time""
""focus"",""0"",""2""
""fullscreenenter"",""1"",""2848""
","
","""event"",""trial"",""time""
""focus"",""0"",""2""
","""event"",""trial"",""time""
""fullscreenenter"",""1"",""2848""
","
","","","735","","","13","3171","2334","p","elianto","#3366ff99"," "," ","1","0","[1593]","1","2","","","3171","76","4","1","win","go","1"
"pit-trial","155","987033","0.0-81.0","battery-v0.2","","""event"",""trial"",""time""
""focus"",""0"",""2""
""fullscreenenter"",""1"",""2848""
","
","""event"",""trial"",""time""
""focus"",""0"",""2""
","""event"",""trial"",""time""
""fullscreenenter"",""1"",""2848""
","
","","","568","","","13","3171","2334","p","elianto","#3366ff99"," "," ","1","0","[1425,2336,2576,2792,2992]","5","2","","","3171","77","4","1","win","go","1"
"pit-trial","156","991892","0.0-82.0","battery-v0.2","","""event"",""trial"",""time""
""focus"",""0"",""2""
""fullscreenenter"",""1"",""2848""
","
","""event"",""trial"",""time""
""focus"",""0"",""2""
","""event"",""trial"",""time""
""fullscreenenter"",""1"",""2848""
","
","","","-1","","","13","3171","2334","s","elianto","#3366ff99","-1","-1","1","+10","[]","0","2","","","3171","78","5","2","win","no-go","0"
"pit-trial","157","995982","0.0-83.0","battery-v0.2","","""event"",""trial"",""time""
""focus"",""0"",""2""
""fullscreenenter"",""1"",""2848""
","
","""event"",""trial"",""time""
""focus"",""0"",""2""
","""event"",""trial"",""time""
""fullscreenenter"",""1"",""2848""
","
","","","1229","","","13","3171","2334","p","elianto","#3366ff99"," "," ","1","+10","[2087]","1","2","","","3171","79","4","1","win","go","0"
"pit-trial","158","1000842","0.0-84.0","battery-v0.2","","""event"",""trial"",""time""
""focus"",""0"",""2""
""fullscreenenter"",""1"",""2848""
","
","""event"",""trial"",""time""
""focus"",""0"",""2""
","""event"",""trial"",""time""
""fullscreenenter"",""1"",""2848""
","
","","","-1","","","13","3171","2334","g","elianto","#f73b6a7A","-1","-1","1","-10","[]","0","2","","","3171","80","3","4","lose","no-go","1"
"pit-trial","159","1005382","0.0-85.0","battery-v0.2","","""event"",""trial"",""time""
""focus"",""0"",""2""
""fullscreenenter"",""1"",""2848""
","
","""event"",""trial"",""time""
""focus"",""0"",""2""
","""event"",""trial"",""time""
""fullscreenenter"",""1"",""2848""
","
","","","1671","","","13","3171","2334","e","elianto","#f73b6a7A","-1"," ","0","-10","[2529]","1","2","","","3171","81","7","4","lose","no-go","0"
"pit-trial","160","1010242","0.0-86.0","battery-v0.2","","""event"",""trial"",""time""
""focus"",""0"",""2""
""fullscreenenter"",""1"",""2848""
","
","""event"",""trial"",""time""
""focus"",""0"",""2""
","""event"",""trial"",""time""
""fullscreenenter"",""1"",""2848""
","
","","","-1","","","13","3171","2334","g","elianto","#f73b6a7A","-1","-1","1","0","[]","0","2","","","3171","82","3","4","lose","no-go","0"
"pit-trial","161","1015102","0.0-87.0","battery-v0.2","","""event"",""trial"",""time""
""focus"",""0"",""2""
""fullscreenenter"",""1"",""2848""
","
","""event"",""trial"",""time""
""focus"",""0"",""2""
","""event"",""trial"",""time""
""fullscreenenter"",""1"",""2848""
","
","","","-1","","","13","3171","2334","s","elianto","#3366ff99","-1","-1","1","+10","[]","0","2","","","3171","83","5","2","win","no-go","0"
"pit-trial","162","1018611","0.0-88.0","battery-v0.2","","""event"",""trial"",""time""
""focus"",""0"",""2""
""fullscreenenter"",""1"",""2848""
","
","""event"",""trial"",""time""
""focus"",""0"",""2""
","""event"",""trial"",""time""
""fullscreenenter"",""1"",""2848""
","
","","","644","","","13","3171","2334","p","elianto","#3366ff99"," "," ","1","+10","[1502]","1","2","","","3171","84","4","1","win","go","0"
"pit-trial","163","1023471","0.0-89.0","battery-v0.2","","""event"",""trial"",""time""
""focus"",""0"",""2""
""fullscreenenter"",""1"",""2848""
","
","""event"",""trial"",""time""
""focus"",""0"",""2""
","""event"",""trial"",""time""
""fullscreenenter"",""1"",""2848""
","
","","","-1","","","13","3171","2334","e","elianto","#f73b6a7A","-1","-1","1","0","[]","0","2","","","3171","85","7","4","lose","no-go","0"
"pit-trial","164","1028331","0.0-90.0","battery-v0.2","","""event"",""trial"",""time""
""focus"",""0"",""2""
""fullscreenenter"",""1"",""2848""
","
","""event"",""trial"",""time""
""focus"",""0"",""2""
","""event"",""trial"",""time""
""fullscreenenter"",""1"",""2848""
","
","","","-1","","","13","3171","2334","s","elianto","#3366ff99","-1","-1","1","+10","[]","0","2","","","3171","86","5","2","win","no-go","0"
"pit-trial","165","1031957","0.0-91.0","battery-v0.2","","""event"",""trial"",""time""
""focus"",""0"",""2""
""fullscreenenter"",""1"",""2848""
","
","""event"",""trial"",""time""
""focus"",""0"",""2""
","""event"",""trial"",""time""
""fullscreenenter"",""1"",""2848""
","
","","","769","","","13","3171","2334","p","elianto","#3366ff99"," "," ","1","+10","[1623]","1","2","","","3171","87","4","1","win","go","0"
"pit-trial","166","1036448","0.0-92.0","battery-v0.2","","""event"",""trial"",""time""
""focus"",""0"",""2""
""fullscreenenter"",""1"",""2848""
","
","""event"",""trial"",""time""
""focus"",""0"",""2""
","""event"",""trial"",""time""
""fullscreenenter"",""1"",""2848""
","
","","","1627","","","13","3171","2334","w","elianto","#f73b6a7A"," "," ","1","0","[2485]","1","2","","","3171","88","6","3","lose","go","0"
"pit-trial","167","1041308","0.0-93.0","battery-v0.2","","""event"",""trial"",""time""
""focus"",""0"",""2""
""fullscreenenter"",""1"",""2848""
","
","""event"",""trial"",""time""
""focus"",""0"",""2""
","""event"",""trial"",""time""
""fullscreenenter"",""1"",""2848""
","
","","","-1","","","13","3171","2334","s","elianto","#3366ff99","-1","-1","1","+10","[]","0","2","","","3171","89","5","2","win","no-go","0"
"pit-trial","168","1046177","0.0-94.0","battery-v0.2","","""event"",""trial"",""time""
""focus"",""0"",""2""
""fullscreenenter"",""1"",""2848""
","
","""event"",""trial"",""time""
""focus"",""0"",""2""
","""event"",""trial"",""time""
""fullscreenenter"",""1"",""2848""
","
","","","-1","","","13","3171","2334","e","elianto","#f73b6a7A","-1","-1","1","0","[]","0","2","","","3171","90","7","4","lose","no-go","0"
"pit-trial","169","1050157","0.0-95.0","battery-v0.2","","""event"",""trial"",""time""
""focus"",""0"",""2""
""fullscreenenter"",""1"",""2848""
","
","""event"",""trial"",""time""
""focus"",""0"",""2""
","""event"",""trial"",""time""
""fullscreenenter"",""1"",""2848""
","
","","","1110","","","13","3171","2334","w","elianto","#f73b6a7A"," "," ","1","0","[1968]","1","2","","","3171","91","6","3","lose","go","0"
"pit-trial","170","1053937","0.0-96.0","battery-v0.2","","""event"",""trial"",""time""
""focus"",""0"",""2""
""fullscreenenter"",""1"",""2848""
","
","""event"",""trial"",""time""
""focus"",""0"",""2""
","""event"",""trial"",""time""
""fullscreenenter"",""1"",""2848""
","
","","","914","","","13","3171","2334","p","elianto","#3366ff99"," "," ","1","+10","[1773]","1","2","","","3171","92","4","1","win","go","0"
"pit-trial","171","1058807","0.0-97.0","battery-v0.2","","""event"",""trial"",""time""
""focus"",""0"",""2""
""fullscreenenter"",""1"",""2848""
","
","""event"",""trial"",""time""
""focus"",""0"",""2""
","""event"",""trial"",""time""
""fullscreenenter"",""1"",""2848""
","
","","","-1","","","13","3171","2334","s","elianto","#3366ff99","-1","-1","1","+10","[]","0","2","","","3171","93","5","2","win","no-go","0"
"pit-trial","172","1062777","0.0-98.0","battery-v0.2","","""event"",""trial"",""time""
""focus"",""0"",""2""
""fullscreenenter"",""1"",""2848""
","
","""event"",""trial"",""time""
""focus"",""0"",""2""
","""event"",""trial"",""time""
""fullscreenenter"",""1"",""2848""
","
","","","1104","","","13","3171","2334","d","elianto","#3366ff99"," "," ","1","+10","[1962]","1","2","","","3171","94","8","1","win","go","0"
"pit-trial","173","1066846","0.0-99.0","battery-v0.2","","""event"",""trial"",""time""
""focus"",""0"",""2""
""fullscreenenter"",""1"",""2848""
","
","""event"",""trial"",""time""
""focus"",""0"",""2""
","""event"",""trial"",""time""
""fullscreenenter"",""1"",""2848""
","
","","","1206","","","13","3171","2334","e","elianto","#f73b6a7A","-1"," ","0","-10","[2064]","1","2","","","3171","95","7","4","lose","no-go","0"
"pit-trial","174","1070606","0.0-100.0","battery-v0.2","","""event"",""trial"",""time""
""focus"",""0"",""2""
""fullscreenenter"",""1"",""2848""
","
","""event"",""trial"",""time""
""focus"",""0"",""2""
","""event"",""trial"",""time""
""fullscreenenter"",""1"",""2848""
","
","","","897","","","13","3171","2334","w","elianto","#f73b6a7A"," "," ","1","-10","[1754]","1","2","","","3171","96","6","3","lose","go","1"
"pit-trial","175","1075477","0.0-101.0","battery-v0.2","","""event"",""trial"",""time""
""focus"",""0"",""2""
""fullscreenenter"",""1"",""2848""
","
","""event"",""trial"",""time""
""focus"",""0"",""2""
","""event"",""trial"",""time""
""fullscreenenter"",""1"",""2848""
","
","","","-1","","","13","3171","2334","s","elianto","#3366ff99","-1","-1","1","0","[3722]","1","2","","","3171","97","5","2","win","no-go","1"
"pit-trial","176","1079896","0.0-102.0","battery-v0.2","","""event"",""trial"",""time""
""focus"",""0"",""2""
""fullscreenenter"",""1"",""2848""
","
","""event"",""trial"",""time""
""focus"",""0"",""2""
","""event"",""trial"",""time""
""fullscreenenter"",""1"",""2848""
","
","","","1555","","","13","3171","2334","d","elianto","#3366ff99"," "," ","1","+10","[2413]","1","2","","","3171","98","8","1","win","go","0"
"pit-trial","177","1084756","0.0-103.0","battery-v0.2","","""event"",""trial"",""time""
""focus"",""0"",""2""
""fullscreenenter"",""1"",""2848""
","
","""event"",""trial"",""time""
""focus"",""0"",""2""
","""event"",""trial"",""time""
""fullscreenenter"",""1"",""2848""
","
","","","-1","","","13","3171","2334","e","elianto","#f73b6a7A","-1","-1","1","-10","[]","0","2","","","3171","99","7","4","lose","no-go","1"
"pit-trial","178","1088336","0.0-104.0","battery-v0.2","","""event"",""trial"",""time""
""focus"",""0"",""2""
""fullscreenenter"",""1"",""2848""
","
","""event"",""trial"",""time""
""focus"",""0"",""2""
","""event"",""trial"",""time""
""fullscreenenter"",""1"",""2848""
","
","","","715","","","13","3171","2334","w","elianto","#f73b6a7A"," "," ","1","0","[1574]","1","2","","","3171","100","6","3","lose","go","0"
"pit-trial","179","1093196","0.0-105.0","battery-v0.2","","""event"",""trial"",""time""
""focus"",""0"",""2""
""fullscreenenter"",""1"",""2848""
","
","""event"",""trial"",""time""
""focus"",""0"",""2""
","""event"",""trial"",""time""
""fullscreenenter"",""1"",""2848""
","
","","","-1","","","13","3171","2334","e","elianto","#f73b6a7A","-1","-1","1","0","[]","0","2","","","3171","101","7","4","lose","no-go","0"
"pit-trial","180","1096936","0.0-106.0","battery-v0.2","","""event"",""trial"",""time""
""focus"",""0"",""2""
""fullscreenenter"",""1"",""2848""
","
","""event"",""trial"",""time""
""focus"",""0"",""2""
","""event"",""trial"",""time""
""fullscreenenter"",""1"",""2848""
","
","","","874","","","13","3171","2334","j","elianto","#3366ff99"," "," ","1","+10","[1733]","1","2","","","3171","102","9","1","win","go","0"
"pit-trial","181","1101805","0.0-107.0","battery-v0.2","","""event"",""trial"",""time""
""focus"",""0"",""2""
""fullscreenenter"",""1"",""2848""
","
","""event"",""trial"",""time""
""focus"",""0"",""2""
","""event"",""trial"",""time""
""fullscreenenter"",""1"",""2848""
","
","","","-1","","","13","3171","2334","s","elianto","#3366ff99","-1","-1","1","+10","[]","0","2","","","3171","103","5","2","win","no-go","0"
"pit-trial","182","1105526","0.0-108.0","battery-v0.2","","""event"",""trial"",""time""
""focus"",""0"",""2""
""fullscreenenter"",""1"",""2848""
","
","""event"",""trial"",""time""
""focus"",""0"",""2""
","""event"",""trial"",""time""
""fullscreenenter"",""1"",""2848""
","
","","","856","","","13","3171","2334","d","elianto","#3366ff99"," "," ","1","0","[1715,2427]","2","2","","","3171","104","8","1","win","go","1"
"pit-trial","183","1108996","0.0-109.0","battery-v0.2","","""event"",""trial"",""time""
""focus"",""0"",""2""
""fullscreenenter"",""1"",""2848""
","
","""event"",""trial"",""time""
""focus"",""0"",""2""
","""event"",""trial"",""time""
""fullscreenenter"",""1"",""2848""
","
","","","609","","","13","3171","2334","j","elianto","#3366ff99"," "," ","1","+10","[1467]","1","2","","","3171","105","9","1","win","go","0"
"pit-trial","184","1112576","0.0-110.0","battery-v0.2","","""event"",""trial"",""time""
""focus"",""0"",""2""
""fullscreenenter"",""1"",""2848""
","
","""event"",""trial"",""time""
""focus"",""0"",""2""
","""event"",""trial"",""time""
""fullscreenenter"",""1"",""2848""
","
","","","714","","","13","3171","2334","w","elianto","#f73b6a7A"," "," ","1","0","[1572]","1","2","","","3171","106","6","3","lose","go","0"
"pit-trial","185","1117256","0.0-111.0","battery-v0.2","","""event"",""trial"",""time""
""focus"",""0"",""2""
""fullscreenenter"",""1"",""2848""
","
","""event"",""trial"",""time""
""focus"",""0"",""2""
","""event"",""trial"",""time""
""fullscreenenter"",""1"",""2848""
","
","","","1814","","","13","3171","2334","d","elianto","#3366ff99"," "," ","1","0","[2672]","1","2","","","3171","107","8","1","win","go","1"
"pit-trial","186","1121075","0.0-112.0","battery-v0.2","","""event"",""trial"",""time""
""focus"",""0"",""2""
""fullscreenenter"",""1"",""2848""
","
","""event"",""trial"",""time""
""focus"",""0"",""2""
","""event"",""trial"",""time""
""fullscreenenter"",""1"",""2848""
","
","","","951","","","13","3171","2334","p","elianto","#3366ff99"," "," ","1","+10","[1809]","1","2","","","3171","108","4","1","win","go","0"
"pit-trial","187","1124535","0.0-113.0","battery-v0.2","","""event"",""trial"",""time""
""focus"",""0"",""2""
""fullscreenenter"",""1"",""2848""
","
","""event"",""trial"",""time""
""focus"",""0"",""2""
","""event"",""trial"",""time""
""fullscreenenter"",""1"",""2848""
","
","","","594","","","13","3171","2334","j","elianto","#3366ff99"," "," ","1","+10","[1452]","1","2","","","3171","109","9","1","win","go","0"
"pit-trial","188","1128026","0.0-114.0","battery-v0.2","","""event"",""trial"",""time""
""focus"",""0"",""2""
""fullscreenenter"",""1"",""2848""
","
","""event"",""trial"",""time""
""focus"",""0"",""2""
","""event"",""trial"",""time""
""fullscreenenter"",""1"",""2848""
","
","","","582","","","13","3171","2334","d","elianto","#3366ff99"," "," ","1","+10","[1441]","1","2","","","3171","110","8","1","win","go","0"
"pit-trial","189","1131638","0.0-115.0","battery-v0.2","","""event"",""trial"",""time""
""focus"",""0"",""2""
""fullscreenenter"",""1"",""2848""
","
","""event"",""trial"",""time""
""focus"",""0"",""2""
","""event"",""trial"",""time""
""fullscreenenter"",""1"",""2848""
","
","","","745","","","13","3171","2334","w","elianto","#f73b6a7A"," "," ","1","0","[1605]","1","2","","","3171","111","6","3","lose","go","0"
"pit-trial","190","1136498","0.0-116.0","battery-v0.2","","""event"",""trial"",""time""
""focus"",""0"",""2""
""fullscreenenter"",""1"",""2848""
","
","""event"",""trial"",""time""
""focus"",""0"",""2""
","""event"",""trial"",""time""
""fullscreenenter"",""1"",""2848""
","
","","","-1","","","13","3171","2334","s","elianto","#3366ff99","-1","-1","1","+10","[]","0","2","","","3171","112","5","2","win","no-go","0"
"pit-trial","191","1139997","0.0-117.0","battery-v0.2","","""event"",""trial"",""time""
""focus"",""0"",""2""
""fullscreenenter"",""1"",""2848""
","
","""event"",""trial"",""time""
""focus"",""0"",""2""
","""event"",""trial"",""time""
""fullscreenenter"",""1"",""2848""
","
","","","635","","","13","3171","2334","d","elianto","#3366ff99"," "," ","1","+10","[1494]","1","2","","","3171","113","8","1","win","go","0"
"pit-trial","192","1143698","0.0-118.0","battery-v0.2","","""event"",""trial"",""time""
""focus"",""0"",""2""
""fullscreenenter"",""1"",""2848""
","
","""event"",""trial"",""time""
""focus"",""0"",""2""
","""event"",""trial"",""time""
""fullscreenenter"",""1"",""2848""
","
","","","832","","","13","3171","2334","w","elianto","#f73b6a7A"," "," ","1","0","[1690]","1","2","","","3171","114","6","3","lose","go","0"
"pit-trial","193","1147209","0.0-119.0","battery-v0.2","","""event"",""trial"",""time""
""focus"",""0"",""2""
""fullscreenenter"",""1"",""2848""
","
","""event"",""trial"",""time""
""focus"",""0"",""2""
","""event"",""trial"",""time""
""fullscreenenter"",""1"",""2848""
","
","","","652","","","13","3171","2334","j","elianto","#3366ff99"," "," ","1","+10","[1502]","1","2","","","3171","115","9","1","win","go","0"
"pit-trial","194","1152071","0.0-120.0","battery-v0.2","","""event"",""trial"",""time""
""focus"",""0"",""2""
""fullscreenenter"",""1"",""2848""
","
","""event"",""trial"",""time""
""focus"",""0"",""2""
","""event"",""trial"",""time""
""fullscreenenter"",""1"",""2848""
","
","","","-1","","","13","3171","2334","s","elianto","#3366ff99","-1","-1","1","0","[]","0","2","","","3171","116","5","2","win","no-go","1"
"pit-trial","195","1155441","0.0-121.0","battery-v0.2","","""event"",""trial"",""time""
""focus"",""0"",""2""
""fullscreenenter"",""1"",""2848""
","
","""event"",""trial"",""time""
""focus"",""0"",""2""
","""event"",""trial"",""time""
""fullscreenenter"",""1"",""2848""
","
","","","509","","","13","3171","2334","j","elianto","#3366ff99"," "," ","1","+10","[1367]","1","2","","","3171","117","9","1","win","go","0"
"pit-trial","196","1160301","0.0-122.0","battery-v0.2","","""event"",""trial"",""time""
""focus"",""0"",""2""
""fullscreenenter"",""1"",""2848""
","
","""event"",""trial"",""time""
""focus"",""0"",""2""
","""event"",""trial"",""time""
""fullscreenenter"",""1"",""2848""
","
","","","-1","","","13","3171","2334","s","elianto","#3366ff99","-1","-1","1","0","[]","0","2","","","3171","118","5","2","win","no-go","1"
"pit-trial","197","1163740","0.0-123.0","battery-v0.2","","""event"",""trial"",""time""
""focus"",""0"",""2""
""fullscreenenter"",""1"",""2848""
","
","""event"",""trial"",""time""
""focus"",""0"",""2""
","""event"",""trial"",""time""
""fullscreenenter"",""1"",""2848""
","
","","","576","","","13","3171","2334","w","elianto","#f73b6a7A"," "," ","1","0","[1434]","1","2","","","3171","119","6","3","lose","go","0"
"pit-trial","198","1167201","0.0-124.0","battery-v0.2","","""event"",""trial"",""time""
""focus"",""0"",""2""
""fullscreenenter"",""1"",""2848""
","
","""event"",""trial"",""time""
""focus"",""0"",""2""
","""event"",""trial"",""time""
""fullscreenenter"",""1"",""2848""
","
","","","591","","","13","3171","2334","d","elianto","#3366ff99"," "," ","1","0","[1450]","1","2","","","3171","120","8","1","win","go","1"
"pit-trial","199","1170721","0.0-125.0","battery-v0.2","","""event"",""trial"",""time""
""focus"",""0"",""2""
""fullscreenenter"",""1"",""2848""
","
","""event"",""trial"",""time""
""focus"",""0"",""2""
","""event"",""trial"",""time""
""fullscreenenter"",""1"",""2848""
","
","","","660","","","13","3171","2334","d","elianto","#3366ff99"," "," ","1","+10","[1518]","1","2","","","3171","121","8","1","win","go","0"
"pit-trial","200","1175581","0.0-126.0","battery-v0.2","","""event"",""trial"",""time""
""focus"",""0"",""2""
""fullscreenenter"",""1"",""2848""
","
","""event"",""trial"",""time""
""focus"",""0"",""2""
","""event"",""trial"",""time""
""fullscreenenter"",""1"",""2848""
","
","","","-1","","","13","3171","2334","e","elianto","#f73b6a7A","-1","-1","1","-10","[3598]","1","2","","","3171","122","7","4","lose","no-go","1"
"pit-trial","201","1179011","0.0-127.0","battery-v0.2","","""event"",""trial"",""time""
""focus"",""0"",""2""
""fullscreenenter"",""1"",""2848""
","
","""event"",""trial"",""time""
""focus"",""0"",""2""
","""event"",""trial"",""time""
""fullscreenenter"",""1"",""2848""
","
","","","568","","","13","3171","2334","w","elianto","#f73b6a7A"," "," ","1","0","[1426]","1","2","","","3171","123","6","3","lose","go","0"
"pit-trial","202","1182441","0.0-128.0","battery-v0.2","","""event"",""trial"",""time""
""focus"",""0"",""2""
""fullscreenenter"",""1"",""2848""
","
","""event"",""trial"",""time""
""focus"",""0"",""2""
","""event"",""trial"",""time""
""fullscreenenter"",""1"",""2848""
","
","","","562","","","13","3171","2334","j","elianto","#3366ff99"," "," ","1","0","[1419]","1","2","","","3171","124","9","1","win","go","1"
"pit-trial","203","1185821","0.0-129.0","battery-v0.2","","""event"",""trial"",""time""
""focus"",""0"",""2""
""fullscreenenter"",""1"",""2848""
","
","""event"",""trial"",""time""
""focus"",""0"",""2""
","""event"",""trial"",""time""
""fullscreenenter"",""1"",""2848""
","
","","","516","","","13","3171","2334","w","elianto","#f73b6a7A"," "," ","1","0","[1374]","1","2","","","3171","125","6","3","lose","go","0"
"pit-trial","204","1189250","0.0-130.0","battery-v0.2","","""event"",""trial"",""time""
""focus"",""0"",""2""
""fullscreenenter"",""1"",""2848""
","
","""event"",""trial"",""time""
""focus"",""0"",""2""
","""event"",""trial"",""time""
""fullscreenenter"",""1"",""2848""
","
","","","568","","","13","3171","2334","j","elianto","#3366ff99"," "," ","1","+10","[1427]","1","2","","","3171","126","9","1","win","go","0"
"pit-trial","205","1192790","0.0-131.0","battery-v0.2","","""event"",""trial"",""time""
""focus"",""0"",""2""
""fullscreenenter"",""1"",""2848""
","
","""event"",""trial"",""time""
""focus"",""0"",""2""
","""event"",""trial"",""time""
""fullscreenenter"",""1"",""2848""
","
","","","675","","","13","3171","2334","e","elianto","#f73b6a7A","-1"," ","0","0","[1533]","1","2","","","3171","127","7","4","lose","no-go","1"
"pit-trial","206","1196900","0.0-132.0","battery-v0.2","","""event"",""trial"",""time""
""focus"",""0"",""2""
""fullscreenenter"",""1"",""2848""
","
","""event"",""trial"",""time""
""focus"",""0"",""2""
","""event"",""trial"",""time""
""fullscreenenter"",""1"",""2848""
","
","","","1245","","","13","3171","2334","d","elianto","#3366ff99"," "," ","1","+10","[2103]","1","2","","","3171","128","8","1","win","go","0"
"pit-trial","207","1200300","0.0-133.0","battery-v0.2","","""event"",""trial"",""time""
""focus"",""0"",""2""
""fullscreenenter"",""1"",""2848""
","
","""event"",""trial"",""time""
""focus"",""0"",""2""
","""event"",""trial"",""time""
""fullscreenenter"",""1"",""2848""
","
","","","535","","","13","3171","2334","j","elianto","#3366ff99"," "," ","1","+10","[1393]","1","2","","","3171","129","9","1","win","go","0"
"pit-trial","208","1203770","0.0-134.0","battery-v0.2","","""event"",""trial"",""time""
""focus"",""0"",""2""
""fullscreenenter"",""1"",""2848""
","
","""event"",""trial"",""time""
""focus"",""0"",""2""
","""event"",""trial"",""time""
""fullscreenenter"",""1"",""2848""
","
","","","607","","","13","3171","2334","d","elianto","#3366ff99"," "," ","1","+10","[1466]","1","2","","","3171","130","8","1","win","go","0"
"pit-trial","209","1208179","0.0-135.0","battery-v0.2","","""event"",""trial"",""time""
""focus"",""0"",""2""
""fullscreenenter"",""1"",""2848""
","
","""event"",""trial"",""time""
""focus"",""0"",""2""
","""event"",""trial"",""time""
""fullscreenenter"",""1"",""2848""
","
","","","1546","","","13","3171","2334","e","elianto","#f73b6a7A","-1"," ","0","-10","[2404]","1","2","","","3171","131","7","4","lose","no-go","0"
"pit-trial","210","1211669","0.0-136.0","battery-v0.2","","""event"",""trial"",""time""
""focus"",""0"",""2""
""fullscreenenter"",""1"",""2848""
","
","""event"",""trial"",""time""
""focus"",""0"",""2""
","""event"",""trial"",""time""
""fullscreenenter"",""1"",""2848""
","
","","","623","","","13","3171","2334","w","elianto","#f73b6a7A"," "," ","1","0","[1481]","1","2","","","3171","132","6","3","lose","go","0"
"pit-trial","211","1215339","0.0-137.0","battery-v0.2","","""event"",""trial"",""time""
""focus"",""0"",""2""
""fullscreenenter"",""1"",""2848""
","
","""event"",""trial"",""time""
""focus"",""0"",""2""
","""event"",""trial"",""time""
""fullscreenenter"",""1"",""2848""
","
","","","806","","","13","3171","2334","e","elianto","#f73b6a7A","-1"," ","0","-10","[1664]","1","2","","","3171","133","7","4","lose","no-go","0"
"pit-trial","212","1218790","0.0-138.0","battery-v0.2","","""event"",""trial"",""time""
""focus"",""0"",""2""
""fullscreenenter"",""1"",""2848""
","
","""event"",""trial"",""time""
""focus"",""0"",""2""
","""event"",""trial"",""time""
""fullscreenenter"",""1"",""2848""
","
","","","583","","","13","3171","2334","d","elianto","#3366ff99"," "," ","1","+10","[1441]","1","2","","","3171","134","8","1","win","go","0"
"pit-trial","213","1222199","0.0-139.0","battery-v0.2","","""event"",""trial"",""time""
""focus"",""0"",""2""
""fullscreenenter"",""1"",""2848""
","
","""event"",""trial"",""time""
""focus"",""0"",""2""
","""event"",""trial"",""time""
""fullscreenenter"",""1"",""2848""
","
","","","542","","","13","3171","2334","j","elianto","#3366ff99"," "," ","1","+10","[1400]","1","2","","","3171","135","9","1","win","go","0"
"pit-trial","214","1225689","0.0-140.0","battery-v0.2","","""event"",""trial"",""time""
""focus"",""0"",""2""
""fullscreenenter"",""1"",""2848""
""blur"",""215"",""1227615""
","""event"",""trial"",""time""
""blur"",""215"",""1227615""
","""event"",""trial"",""time""
""focus"",""0"",""2""
","""event"",""trial"",""time""
""fullscreenenter"",""1"",""2848""
","
","","","627","","","13","3171","2334","w","elianto","#f73b6a7A"," "," ","1","-10","[1486]","1","2","","","3171","136","6","3","lose","go","1"
"pit-trial","215","1229069","0.0-141.0","battery-v0.2","","""event"",""trial"",""time""
""focus"",""0"",""2""
""fullscreenenter"",""1"",""2848""
""blur"",""215"",""1227615""
""focus"",""216"",""1229070""
","""event"",""trial"",""time""
""blur"",""215"",""1227615""
","""event"",""trial"",""time""
""focus"",""0"",""2""
""focus"",""216"",""1229070""
","""event"",""trial"",""time""
""fullscreenenter"",""1"",""2848""
","
","","","514","","","13","3171","2334","d","elianto","#3366ff99"," "," ","1","0","[1372]","1","2","","","3171","137","8","1","win","go","1"
"pit-trial","216","1232609","0.0-142.0","battery-v0.2","","""event"",""trial"",""time""
""focus"",""0"",""2""
""fullscreenenter"",""1"",""2848""
""blur"",""215"",""1227615""
""focus"",""216"",""1229070""
","""event"",""trial"",""time""
""blur"",""215"",""1227615""
","""event"",""trial"",""time""
""focus"",""0"",""2""
""focus"",""216"",""1229070""
","""event"",""trial"",""time""
""fullscreenenter"",""1"",""2848""
","
","","","677","","","13","3171","2334","j","elianto","#3366ff99"," "," ","1","+10","[1534]","1","2","","","3171","138","9","1","win","go","0"
"pit-trial","217","1236119","0.0-143.0","battery-v0.2","","""event"",""trial"",""time""
""focus"",""0"",""2""
""fullscreenenter"",""1"",""2848""
""blur"",""215"",""1227615""
""focus"",""216"",""1229070""
","""event"",""trial"",""time""
""blur"",""215"",""1227615""
","""event"",""trial"",""time""
""focus"",""0"",""2""
""focus"",""216"",""1229070""
","""event"",""trial"",""time""
""fullscreenenter"",""1"",""2848""
","
","","","646","","","13","3171","2334","w","elianto","#f73b6a7A"," "," ","1","-10","[1505]","1","2","","","3171","139","6","3","lose","go","1"
"pit-trial","218","1239819","0.0-144.0","battery-v0.2","","""event"",""trial"",""time""
""focus"",""0"",""2""
""fullscreenenter"",""1"",""2848""
""blur"",""215"",""1227615""
""focus"",""216"",""1229070""
","""event"",""trial"",""time""
""blur"",""215"",""1227615""
","""event"",""trial"",""time""
""focus"",""0"",""2""
""focus"",""216"",""1229070""
","""event"",""trial"",""time""
""fullscreenenter"",""1"",""2848""
","
","","","836","","","13","3171","2334","e","elianto","#f73b6a7A","-1"," ","0","-10","[1693]","1","2","","","3171","140","7","4","lose","no-go","0"
"pit-instructions","219","1327109","0.0-145.0","battery-v0.2","","""event"",""trial"",""time""
""focus"",""0"",""2""
""fullscreenenter"",""1"",""2848""
""blur"",""215"",""1227615""
""focus"",""216"",""1229070""
","""event"",""trial"",""time""
""blur"",""215"",""1227615""
","""event"",""trial"",""time""
""focus"",""0"",""2""
""focus"",""216"",""1229070""
","""event"",""trial"",""time""
""fullscreenenter"",""1"",""2848""
","
","","[{""page_index"":0,""viewing_time"":77250},{""page_index"":1,""viewing_time"":10039}]","87289","","","","","","","","","","","","","","","","","","","","","","","",""
"pit-trial","220","1331200","0.0-146.0","battery-v0.2","","""event"",""trial"",""time""
""focus"",""0"",""2""
""fullscreenenter"",""1"",""2848""
""blur"",""215"",""1227615""
""focus"",""216"",""1229070""
","""event"",""trial"",""time""
""blur"",""215"",""1227615""
","""event"",""trial"",""time""
""focus"",""0"",""2""
""focus"",""216"",""1229070""
","""event"",""trial"",""time""
""fullscreenenter"",""1"",""2848""
","
","","","1226","","","13","3171","2334","n","elianto","#f73b6a7A","-1"," ","0","0","[2080]","1","3","","","3171","141","0","4","lose","no-go","1"
"pit-trial","221","1335320","0.0-147.0","battery-v0.2","","""event"",""trial"",""time""
""focus"",""0"",""2""
""fullscreenenter"",""1"",""2848""
""blur"",""215"",""1227615""
""focus"",""216"",""1229070""
","""event"",""trial"",""time""
""blur"",""215"",""1227615""
","""event"",""trial"",""time""
""focus"",""0"",""2""
""focus"",""216"",""1229070""
","""event"",""trial"",""time""
""fullscreenenter"",""1"",""2848""
","
","","","1256","","","13","3171","2334","f","elianto","#3366ff99"," "," ","1","+10","[2114]","1","3","","","3171","142","1","1","win","go","0"
"pit-trial","222","1340181","0.0-148.0","battery-v0.2","","""event"",""trial"",""time""
""focus"",""0"",""2""
""fullscreenenter"",""1"",""2848""
""blur"",""215"",""1227615""
""focus"",""216"",""1229070""
","""event"",""trial"",""time""
""blur"",""215"",""1227615""
","""event"",""trial"",""time""
""focus"",""0"",""2""
""focus"",""216"",""1229070""
","""event"",""trial"",""time""
""fullscreenenter"",""1"",""2848""
","
","","","-1","","","13","3171","2334","t","elianto","#f73b6a7A","-1","-1","1","0","[]","0","3","","","3171","143","2","4","lose","no-go","0"
"pit-trial","223","1343994","0.0-149.0","battery-v0.2","","""event"",""trial"",""time""
""focus"",""0"",""2""
""fullscreenenter"",""1"",""2848""
""blur"",""215"",""1227615""
""focus"",""216"",""1229070""
","""event"",""trial"",""time""
""blur"",""215"",""1227615""
","""event"",""trial"",""time""
""focus"",""0"",""2""
""focus"",""216"",""1229070""
","""event"",""trial"",""time""
""fullscreenenter"",""1"",""2848""
","
","","","943","","","13","3171","2334","b","elianto","#f73b6a7A"," "," ","1","-10","[1805]","1","3","","","3171","144","3","3","lose","go","1"
"pit-trial","224","1347664","0.0-150.0","battery-v0.2","","""event"",""trial"",""time""
""focus"",""0"",""2""
""fullscreenenter"",""1"",""2848""
""blur"",""215"",""1227615""
""focus"",""216"",""1229070""
","""event"",""trial"",""time""
""blur"",""215"",""1227615""
","""event"",""trial"",""time""
""focus"",""0"",""2""
""focus"",""216"",""1229070""
","""event"",""trial"",""time""
""fullscreenenter"",""1"",""2848""
","
","","","805","","","13","3171","2334","n","elianto","#f73b6a7A","-1"," ","0","-10","[1663]","1","3","","","3171","145","0","4","lose","no-go","0"
"pit-trial","225","1351084","0.0-151.0","battery-v0.2","","""event"",""trial"",""time""
""focus"",""0"",""2""
""fullscreenenter"",""1"",""2848""
""blur"",""215"",""1227615""
""focus"",""216"",""1229070""
","""event"",""trial"",""time""
""blur"",""215"",""1227615""
","""event"",""trial"",""time""
""focus"",""0"",""2""
""focus"",""216"",""1229070""
","""event"",""trial"",""time""
""fullscreenenter"",""1"",""2848""
","
","","","560","","","13","3171","2334","f","elianto","#3366ff99"," "," ","1","+10","[1418]","1","3","","","3171","146","1","1","win","go","0"
