"trial_type","trial_index","time_elapsed","internal_node_id","task_version","subject_id","interactions","blur_events","focus_events","fullscreenenter_events","fullscreenexit_events","success","view_history","rt","responses","num_errors","age","subject","participantId","rune","rune_set","hex","correct","choice","accuracy","outcome","keys","total_keys","block","practice","value","sub","trial","stimulus","robot","valence","action","sham"
"pavlovia","0","8","0.0-0.0","battery-v0.2","","""event"",""trial"",""time""
""fullscreenenter"",""1"",""3505""
","
","
","""event"",""trial"",""time""
""fullscreenenter"",""1"",""3505""
","
","","","","","","","","","","","","","","","","","","","","","","","","","","",""
"fullscreen","1","4476","0.0-1.0","battery-v0.2","","""event"",""trial"",""time""
""fullscreenenter"",""1"",""3505""
","
","
","""event"",""trial"",""time""
""fullscreenenter"",""1"",""3505""
","
","true","","","","","","","","","","","","","","","","","","","","","","","","","",""
"pit-instructions","2","10407","0.0-2.0-0.0","battery-v0.2","","""event"",""trial"",""time""
""fullscreenenter"",""1"",""3505""
","
","
","""event"",""trial"",""time""
""fullscreenenter"",""1"",""3505""
","
","","[{""page_index"":0,""viewing_time"":5923.199999988079}]","5924.599999964237","","","","","","","","","","","","","","","","","","","","","","","",""
"pit-comprehension","3","15588","0.0-2.0-1.0-0.0","battery-v0.2","","""event"",""trial"",""time""
""fullscreenenter"",""1"",""3505""
","
","
","""event"",""trial"",""time""
""fullscreenenter"",""1"",""3505""
","
","","","5174.699999988079","[""shark""]","0","18","3040","2785","","","","","","","","","","","","","","","","","","",""
"pit-instructions","4","18201","0.0-2.0-1.0-1.0","battery-v0.2","","""event"",""trial"",""time""
""fullscreenenter"",""1"",""3505""
","
","
","""event"",""trial"",""time""
""fullscreenenter"",""1"",""3505""
","
","","[{""page_index"":0,""viewing_time"":2600.699999988079}]","2601.399999976158","","","","","","","","","","","","","","","","","","","","","","","",""
"pit-comprehension","5","21532","0.0-2.0-2.0-0.0","battery-v0.2","","""event"",""trial"",""time""
""fullscreenenter"",""1"",""3505""
","
","
","""event"",""trial"",""time""
""fullscreenenter"",""1"",""3505""
","
","","","3325.400000035763","[""tiger""]","0","18","3040","2785","","","","","","","","","","","","","","","","","","",""
"pit-instructions","6","22751","0.0-2.0-2.0-1.0","battery-v0.2","","""event"",""trial"",""time""
""fullscreenenter"",""1"",""3505""
","
","
","""event"",""trial"",""time""
""fullscreenenter"",""1"",""3505""
","
","","[{""page_index"":0,""viewing_time"":1213.3999999761581}]","1213.800000011921","","","","","","","","","","","","","","","","","","","","","","","",""
"pit-instructions","7","120346","0.0-2.0-3.0","battery-v0.2","","""event"",""trial"",""time""
""fullscreenenter"",""1"",""3505""
","
","
","""event"",""trial"",""time""
""fullscreenenter"",""1"",""3505""
","
","","[{""page_index"":0,""viewing_time"":9294.600000023842},{""page_index"":1,""viewing_time"":5438.399999976158},{""page_index"":2,""viewing_time"":6422.899999976158},{""page_index"":3,""viewing_time"":6611.700000047684},{""page_index"":4,""viewing_time"":5504.599999964237},{""page_index"":5,""viewing_time"":5708.900000035763},{""page_index"":6,""viewing_time"":7033.5},{""page_index"":7,""viewing_time"":7231.199999988079},{""page_index"":8,""viewing_time"":6489.399999976158},{""page_index"":9,""viewing_time"":9024},{""page_index"":10,""viewing_time"":8060.300000011921},{""page_index"":11,""viewing_time"":6817.699999988079},{""page_index"":12,""viewing_time"":6316.800000011921},{""page_index"":13,""viewing_time"":7640.100000023842}]","97594.69999998808","","","","","","","","","","","","","","","","","","","","","","","",""
"pit-trial","8","123977","0.0-2.0-4.0-0.0","battery-v0.2","","""event"",""trial"",""time""
""fullscreenenter"",""1"",""3505""
","
","
","""event"",""trial"",""time""
""fullscreenenter"",""1"",""3505""
","
","","","769.5","","","18","3040","2785","&#9784;","elianto","#FFFFF080"," "," ","1","&#10004","[1622.699999988079]","1","0","0","","","","","","","",""
"pit-trial","9","127420","0.0-2.0-4.1-0.1","battery-v0.2","","""event"",""trial"",""time""
""fullscreenenter"",""1"",""3505""
","
","
","""event"",""trial"",""time""
""fullscreenenter"",""1"",""3505""
","
","","","581.1000000238419","","","18","3040","2785","&#9784;","elianto","#FFFFF080"," "," ","1","&#10004","[1434.6000000238419]","1","0","0","","","","","","","",""
"pit-trial","10","130761","0.0-2.0-4.2-0.2","battery-v0.2","","""event"",""trial"",""time""
""fullscreenenter"",""1"",""3505""
","
","
","""event"",""trial"",""time""
""fullscreenenter"",""1"",""3505""
","
","","","482","","","18","3040","2785","&#9784;","elianto","#FFFFF080"," "," ","1","&#10004","[1335.0999999642372]","1","0","0","","","","","","","",""
"pit-trial","11","134318","0.0-2.0-4.3-0.3","battery-v0.2","","""event"",""trial"",""time""
""fullscreenenter"",""1"",""3505""
","
","
","""event"",""trial"",""time""
""fullscreenenter"",""1"",""3505""
","
","","","699.6000000238419","","","18","3040","2785","&#9784;","elianto","#FFFFF080"," "," ","1","&#10004","[1552]","1","0","0","","","","","","","",""
"pit-trial","12","137758","0.0-2.0-4.4-0.4","battery-v0.2","","""event"",""trial"",""time""
""fullscreenenter"",""1"",""3505""
","
","
","""event"",""trial"",""time""
""fullscreenenter"",""1"",""3505""
","
","","","576.8000000119209","","","18","3040","2785","&#9784;","elianto","#FFFFF080"," "," ","1","&#10004","[1430.5]","1","0","0","","","","","","","",""
"pit-instructions","13","161100","0.0-2.0-5.0","battery-v0.2","","""event"",""trial"",""time""
""fullscreenenter"",""1"",""3505""
","
","
","""event"",""trial"",""time""
""fullscreenenter"",""1"",""3505""
","
","","[{""page_index"":0,""viewing_time"":6756.400000035763},{""page_index"":1,""viewing_time"":6255.300000011921},{""page_index"":2,""viewing_time"":4366.899999976158},{""page_index"":3,""viewing_time"":5958.699999988079}]","23337.700000047684","","","","","","","","","","","","","","","","","","","","","","","",""
"pit-trial","14","165960","0.0-2.0-6.0-0.0","battery-v0.2","","""event"",""trial"",""time""
""fullscreenenter"",""1"",""3505""
","
","
","""event"",""trial"",""time""
""fullscreenenter"",""1"",""3505""
","
","","","-1","","","18","3040","2785","&#9854;","elianto","#FFFFF080","-1","-1","1","&#10004","[]","0","0","1","","","","","","","",""
"pit-trial","15","170823","0.0-2.0-6.1-0.1","battery-v0.2","","""event"",""trial"",""time""
""fullscreenenter"",""1"",""3505""
","
","
","""event"",""trial"",""time""
""fullscreenenter"",""1"",""3505""
","
","","","-1","","","18","3040","2785","&#9854;","elianto","#FFFFF080","-1","-1","1","&#10004","[]","0","0","1","","","","","","","",""
"pit-trial","16","175688","0.0-2.0-6.2-0.2","battery-v0.2","","""event"",""trial"",""time""
""fullscreenenter"",""1"",""3505""
","
","
","""event"",""trial"",""time""
""fullscreenenter"",""1"",""3505""
","
","","","-1","","","18","3040","2785","&#9854;","elianto","#FFFFF080","-1","-1","1","&#10004","[]","0","0","1","","","","","","","",""
"pit-trial","17","180552","0.0-2.0-6.3-0.3","battery-v0.2","","""event"",""trial"",""time""
""fullscreenenter"",""1"",""3505""
","
","
","""event"",""trial"",""time""
""fullscreenenter"",""1"",""3505""
","
","","","-1","","","18","3040","2785","&#9854;","elianto","#FFFFF080","-1","-1","1","&#10004","[]","0","0","1","","","","","","","",""
"pit-trial","18","185415","0.0-2.0-6.4-0.4","battery-v0.2","","""event"",""trial"",""time""
""fullscreenenter"",""1"",""3505""
","
","
","""event"",""trial"",""time""
""fullscreenenter"",""1"",""3505""
","
","","","-1","","","18","3040","2785","&#9854;","elianto","#FFFFF080","-1","-1","1","&#10004","[]","0","0","1","","","","","","","",""
"pit-instructions","19","314415","0.0-2.0-7.0","battery-v0.2","","""event"",""trial"",""time""
""fullscreenenter"",""1"",""3505""
","
","
","""event"",""trial"",""time""
""fullscreenenter"",""1"",""3505""
","
","","[{""page_index"":0,""viewing_time"":5951},{""page_index"":1,""viewing_time"":6847.800000011921},{""page_index"":2,""viewing_time"":5506.5},{""page_index"":3,""viewing_time"":5524.899999976158},{""page_index"":4,""viewing_time"":6011.700000047684},{""page_index"":5,""viewing_time"":6368.099999964237},{""page_index"":6,""viewing_time"":5833.5},{""page_index"":7,""viewing_time"":7917.900000035763},{""page_index"":8,""viewing_time"":9356.099999964237},{""page_index"":9,""viewing_time"":5901},{""page_index"":10,""viewing_time"":7024.800000011921},{""page_index"":11,""viewing_time"":4273.199999988079},{""page_index"":12,""viewing_time"":11989.600000023842},{""page_index"":13,""viewing_time"":6859.099999964237},{""page_index"":14,""viewing_time"":7157.900000035763},{""page_index"":15,""viewing_time"":10439.399999976158},{""page_index"":16,""viewing_time"":8705},{""page_index"":17,""viewing_time"":7330.100000023842}]","128998.19999998808","","","","","","","","","","","","","","","","","","","","","","","",""
"pit-trial","20","319278","0.0-2.0-8.0-0.0","battery-v0.2","","""event"",""trial"",""time""
""fullscreenenter"",""1"",""3505""
","
","
","""event"",""trial"",""time""
""fullscreenenter"",""1"",""3505""
","
","","","-1","","","18","3040","2785","&#9776;","elianto","#3366ff99"," ","-1","0","0","[]","0","0","1","","","","","","","",""
"pit-trial","21","323296","0.0-2.0-8.0-1.0","battery-v0.2","","""event"",""trial"",""time""
""fullscreenenter"",""1"",""3505""
","
","
","""event"",""trial"",""time""
""fullscreenenter"",""1"",""3505""
","
","","","1160.300000011921","","","18","3040","2785","&#9776;","elianto","#3366ff99"," "," ","1","+10","[2013.6000000238419]","1","0","1","","","","","","","",""
"pit-trial","22","326585","0.0-2.0-8.0-2.0","battery-v0.2","","""event"",""trial"",""time""
""fullscreenenter"",""1"",""3505""
","
","
","""event"",""trial"",""time""
""fullscreenenter"",""1"",""3505""
","
","","","431.30000001192093","","","18","3040","2785","&#9776;","elianto","#3366ff99"," "," ","1","+10","[1284.5999999642372]","1","0","1","","","","","","","",""
"pit-trial","23","329932","0.0-2.0-8.0-3.0","battery-v0.2","","""event"",""trial"",""time""
""fullscreenenter"",""1"",""3505""
","
","
","""event"",""trial"",""time""
""fullscreenenter"",""1"",""3505""
","
","","","486.0999999642372","","","18","3040","2785","&#9776;","elianto","#3366ff99"," "," ","1","0","[1339.4000000357628]","1","0","1","","","","","","","",""
"pit-trial","24","333881","0.0-2.0-8.0-4.0","battery-v0.2","","""event"",""trial"",""time""
""fullscreenenter"",""1"",""3505""
","
","
","""event"",""trial"",""time""
""fullscreenenter"",""1"",""3505""
","
","","","1088.300000011921","","","18","3040","2785","&#9776;","elianto","#3366ff99"," "," ","1","+10","[1940.300000011921]","1","0","1","","","","","","","",""
"call-function","25","333885","0.0-2.0-9.0","battery-v0.2","","""event"",""trial"",""time""
""fullscreenenter"",""1"",""3505""
","
","
","""event"",""trial"",""time""
""fullscreenenter"",""1"",""3505""
","
","","","","","","","","","","","","","","","","","","","","","","","","","","",""
"pit-instructions","26","372178","0.0-2.0-10.0","battery-v0.2","","""event"",""trial"",""time""
""fullscreenenter"",""1"",""3505""
","
","
","""event"",""trial"",""time""
""fullscreenenter"",""1"",""3505""
","
","","[{""page_index"":0,""viewing_time"":7029.600000023842},{""page_index"":1,""viewing_time"":6085.800000011921},{""page_index"":2,""viewing_time"":9096.599999964237},{""page_index"":3,""viewing_time"":9020},{""page_index"":4,""viewing_time"":7060.699999988079}]","38293.10000002384","","","","","","","","","","","","","","","","","","","","","","","",""
"pit-trial","27","377037","0.0-2.0-11.0-0.0","battery-v0.2","","""event"",""trial"",""time""
""fullscreenenter"",""1"",""3505""
","
","
","""event"",""trial"",""time""
""fullscreenenter"",""1"",""3505""
","
","","","-1","","","18","3040","2785","&#9761;","elianto","#3366ff99","-1","-1","1","+10","[]","0","0","2","","","","","","","",""
"pit-trial","28","380246","0.0-2.0-11.0-1.0","battery-v0.2","","""event"",""trial"",""time""
""fullscreenenter"",""1"",""3505""
","
","
","""event"",""trial"",""time""
""fullscreenenter"",""1"",""3505""
","
","","","345.80000001192093","","","18","3040","2785","&#9761;","elianto","#3366ff99","-1"," ","0","0","[1200.699999988079]","1","0","2","","","","","","","",""
"pit-trial","29","385106","0.0-2.0-11.0-2.0","battery-v0.2","","""event"",""trial"",""time""
""fullscreenenter"",""1"",""3505""
","
","
","""event"",""trial"",""time""
""fullscreenenter"",""1"",""3505""
","
","","","-1","","","18","3040","2785","&#9761;","elianto","#3366ff99","-1","-1","1","+10","[]","0","0","2","","","","","","","",""
"pit-trial","30","389966","0.0-2.0-11.0-3.0","battery-v0.2","","""event"",""trial"",""time""
""fullscreenenter"",""1"",""3505""
","
","
","""event"",""trial"",""time""
""fullscreenenter"",""1"",""3505""
","
","","","-1","","","18","3040","2785","&#9761;","elianto","#3366ff99","-1","-1","1","0","[]","0","0","2","","","","","","","",""
"pit-trial","31","394829","0.0-2.0-11.0-4.0","battery-v0.2","","""event"",""trial"",""time""
""fullscreenenter"",""1"",""3505""
","
","
","""event"",""trial"",""time""
""fullscreenenter"",""1"",""3505""
","
","","","-1","","","18","3040","2785","&#9761;","elianto","#3366ff99","-1","-1","1","+10","[]","0","0","2","","","","","","","",""
"pit-trial","32","399692","0.0-2.0-11.1-0.1","battery-v0.2","","""event"",""trial"",""time""
""fullscreenenter"",""1"",""3505""
","
","
","""event"",""trial"",""time""
""fullscreenenter"",""1"",""3505""
","
","","","-1","","","18","3040","2785","&#9761;","elianto","#3366ff99","-1","-1","1","+10","[]","0","0","2","","","","","","","",""
"pit-trial","33","404551","0.0-2.0-11.1-1.1","battery-v0.2","","""event"",""trial"",""time""
""fullscreenenter"",""1"",""3505""
","
","
","""event"",""trial"",""time""
""fullscreenenter"",""1"",""3505""
","
","","","-1","","","18","3040","2785","&#9761;","elianto","#3366ff99","-1","-1","1","+10","[]","0","0","2","","","","","","","",""
"pit-trial","34","409410","0.0-2.0-11.1-2.1","battery-v0.2","","""event"",""trial"",""time""
""fullscreenenter"",""1"",""3505""
","
","
","""event"",""trial"",""time""
""fullscreenenter"",""1"",""3505""
","
","","","-1","","","18","3040","2785","&#9761;","elianto","#3366ff99","-1","-1","1","+10","[]","0","0","2","","","","","","","",""
"pit-trial","35","414268","0.0-2.0-11.1-3.1","battery-v0.2","","""event"",""trial"",""time""
""fullscreenenter"",""1"",""3505""
","
","
","""event"",""trial"",""time""
""fullscreenenter"",""1"",""3505""
","
","","","-1","","","18","3040","2785","&#9761;","elianto","#3366ff99","-1","-1","1","0","[]","0","0","2","","","","","","","",""
"pit-trial","36","419127","0.0-2.0-11.1-4.1","battery-v0.2","","""event"",""trial"",""time""
""fullscreenenter"",""1"",""3505""
","
","
","""event"",""trial"",""time""
""fullscreenenter"",""1"",""3505""
","
","","","-1","","","18","3040","2785","&#9761;","elianto","#3366ff99","-1","-1","1","+10","[]","0","0","2","","","","","","","",""
"call-function","37","419130","0.0-2.0-12.0","battery-v0.2","","""event"",""trial"",""time""
""fullscreenenter"",""1"",""3505""
","
","
","""event"",""trial"",""time""
""fullscreenenter"",""1"",""3505""
","
","","","","","","","","","","","","","","","","","","","","","","","","","","",""
"pit-instructions","38","449514","0.0-2.0-13.0","battery-v0.2","","""event"",""trial"",""time""
""fullscreenenter"",""1"",""3505""
","
","
","""event"",""trial"",""time""
""fullscreenenter"",""1"",""3505""
","
","","[{""page_index"":0,""viewing_time"":5401.800000011921},{""page_index"":1,""viewing_time"":6885.800000011921},{""page_index"":2,""viewing_time"":3260.399999976158},{""page_index"":3,""viewing_time"":10247.300000011921},{""page_index"":4,""viewing_time"":4588.600000023842}]","30384.400000035763","","","","","","","","","","","","","","","","","","","","","","","",""
"pit-trial","39","454374","0.0-2.0-14.0-0.0","battery-v0.2","","""event"",""trial"",""time""
""fullscreenenter"",""1"",""3505""
","
","
","""event"",""trial"",""time""
""fullscreenenter"",""1"",""3505""
","
","","","-1","","","18","3040","2785","&#9826;","elianto","#f73b6a7A","-1","-1","1","0","[]","0","0","3","","","","","","","",""
"pit-trial","40","457408","0.0-2.0-14.0-1.0","battery-v0.2","","""event"",""trial"",""time""
""fullscreenenter"",""1"",""3505""
","
","
","""event"",""trial"",""time""
""fullscreenenter"",""1"",""3505""
","
","","","178.79999995231628","","","18","3040","2785","&#9826;","elianto","#f73b6a7A","-1"," ","0","-10","[1029.2999999523163]","1","0","3","","","","","","","",""
"pit-trial","41","462266","0.0-2.0-14.0-2.0","battery-v0.2","","""event"",""trial"",""time""
""fullscreenenter"",""1"",""3505""
","
","
","""event"",""trial"",""time""
""fullscreenenter"",""1"",""3505""
","
","","","-1","","","18","3040","2785","&#9826;","elianto","#f73b6a7A","-1","-1","1","0","[]","0","0","3","","","","","","","",""
"pit-trial","42","467125","0.0-2.0-14.0-3.0","battery-v0.2","","""event"",""trial"",""time""
""fullscreenenter"",""1"",""3505""
","
","
","""event"",""trial"",""time""
""fullscreenenter"",""1"",""3505""
","
","","","-1","","","18","3040","2785","&#9826;","elianto","#f73b6a7A","-1","-1","1","-10","[]","0","0","3","","","","","","","",""
"pit-trial","43","471984","0.0-2.0-14.0-4.0","battery-v0.2","","""event"",""trial"",""time""
""fullscreenenter"",""1"",""3505""
","
","
","""event"",""trial"",""time""
""fullscreenenter"",""1"",""3505""
","
","","","-1","","","18","3040","2785","&#9826;","elianto","#f73b6a7A","-1","-1","1","0","[]","0","0","3","","","","","","","",""
"pit-trial","44","476847","0.0-2.0-14.1-0.1","battery-v0.2","","""event"",""trial"",""time""
""fullscreenenter"",""1"",""3505""
","
","
","""event"",""trial"",""time""
""fullscreenenter"",""1"",""3505""
","
","","","-1","","","18","3040","2785","&#9826;","elianto","#f73b6a7A","-1","-1","1","0","[]","0","0","3","","","","","","","",""
"pit-trial","45","481708","0.0-2.0-14.1-1.1","battery-v0.2","","""event"",""trial"",""time""
""fullscreenenter"",""1"",""3505""
","
","
","""event"",""trial"",""time""
""fullscreenenter"",""1"",""3505""
","
","","","-1","","","18","3040","2785","&#9826;","elianto","#f73b6a7A","-1","-1","1","0","[]","0","0","3","","","","","","","",""
"pit-trial","46","486570","0.0-2.0-14.1-2.1","battery-v0.2","","""event"",""trial"",""time""
""fullscreenenter"",""1"",""3505""
","
","
","""event"",""trial"",""time""
""fullscreenenter"",""1"",""3505""
","
","","","-1","","","18","3040","2785","&#9826;","elianto","#f73b6a7A","-1","-1","1","0","[]","0","0","3","","","","","","","",""
"pit-trial","47","491431","0.0-2.0-14.1-3.1","battery-v0.2","","""event"",""trial"",""time""
""fullscreenenter"",""1"",""3505""
","
","
","""event"",""trial"",""time""
""fullscreenenter"",""1"",""3505""
","
","","","-1","","","18","3040","2785","&#9826;","elianto","#f73b6a7A","-1","-1","1","-10","[]","0","0","3","","","","","","","",""
"pit-trial","48","496290","0.0-2.0-14.1-4.1","battery-v0.2","","""event"",""trial"",""time""
""fullscreenenter"",""1"",""3505""
","
","
","""event"",""trial"",""time""
""fullscreenenter"",""1"",""3505""
","
","","","-1","","","18","3040","2785","&#9826;","elianto","#f73b6a7A","-1","-1","1","0","[]","0","0","3","","","","","","","",""
"call-function","49","496293","0.0-2.0-15.0","battery-v0.2","","""event"",""trial"",""time""
""fullscreenenter"",""1"",""3505""
","
","
","""event"",""trial"",""time""
""fullscreenenter"",""1"",""3505""
","
","","","","","","","","","","","","","","","","","","","","","","","","","","",""
"pit-instructions","50","563692","0.0-2.0-16.0","battery-v0.2","","""event"",""trial"",""time""
""fullscreenenter"",""1"",""3505""
","
","
","""event"",""trial"",""time""
""fullscreenenter"",""1"",""3505""
","
","","[{""page_index"":0,""viewing_time"":6674.199999988079},{""page_index"":1,""viewing_time"":42411.69999998808},{""page_index"":2,""viewing_time"":10153.199999988079},{""page_index"":3,""viewing_time"":8160.300000011921}]","67399.80000001192","","","","","","","","","","","","","","","","","","","","","","","",""
"pit-trial","51","568552","0.0-2.0-17.0-0.0","battery-v0.2","","""event"",""trial"",""time""
""fullscreenenter"",""1"",""3505""
","
","
","""event"",""trial"",""time""
""fullscreenenter"",""1"",""3505""
","
","","","-1","","","18","3040","2785","&#9789;","elianto","#f73b6a7A"," ","-1","0","-10","[]","0","0","4","","","","","","","",""
"pit-trial","52","571816","0.0-2.0-17.0-1.0","battery-v0.2","","""event"",""trial"",""time""
""fullscreenenter"",""1"",""3505""
","
","
","""event"",""trial"",""time""
""fullscreenenter"",""1"",""3505""
","
","","","407.30000001192093","","","18","3040","2785","&#9789;","elianto","#f73b6a7A"," "," ","1","0","[1260]","1","0","4","","","","","","","",""
"pit-trial","53","575101","0.0-2.0-17.0-2.0","battery-v0.2","","""event"",""trial"",""time""
""fullscreenenter"",""1"",""3505""
","
","
","""event"",""trial"",""time""
""fullscreenenter"",""1"",""3505""
","
","","","422.89999997615814","","","18","3040","2785","&#9789;","elianto","#f73b6a7A"," "," ","1","0","[1277.3999999761581]","1","0","4","","","","","","","",""
"pit-trial","54","578409","0.0-2.0-17.0-3.0","battery-v0.2","","""event"",""trial"",""time""
""fullscreenenter"",""1"",""3505""
","
","
","""event"",""trial"",""time""
""fullscreenenter"",""1"",""3505""
","
","","","450.69999998807907","","","18","3040","2785","&#9789;","elianto","#f73b6a7A"," "," ","1","-10","[1303.5]","1","0","4","","","","","","","",""
"pit-trial","55","582019","0.0-2.0-17.0-4.0","battery-v0.2","","""event"",""trial"",""time""
""fullscreenenter"",""1"",""3505""
","
","
","""event"",""trial"",""time""
""fullscreenenter"",""1"",""3505""
","
","","","754.6000000238419","","","18","3040","2785","&#9789;","elianto","#f73b6a7A"," "," ","1","0","[1605.1000000238419]","1","0","4","","","","","","","",""
"call-function","56","582022","0.0-2.0-18.0","battery-v0.2","","""event"",""trial"",""time""
""fullscreenenter"",""1"",""3505""
","
","
","""event"",""trial"",""time""
""fullscreenenter"",""1"",""3505""
","
","","","","","","","","","","","","","","","","","","","","","","","","","","",""
"pit-instructions","57","669921","0.0-2.0-19.0","battery-v0.2","","""event"",""trial"",""time""
""fullscreenenter"",""1"",""3505""
","
","
","""event"",""trial"",""time""
""fullscreenenter"",""1"",""3505""
","
","","[{""page_index"":0,""viewing_time"":13997.900000035763},{""page_index"":1,""viewing_time"":8678},{""page_index"":2,""viewing_time"":17368.30000001192},{""page_index"":3,""viewing_time"":9942.599999964237},{""page_index"":4,""viewing_time"":8380.900000035763},{""page_index"":5,""viewing_time"":8896.099999964237},{""page_index"":6,""viewing_time"":9481.699999988079},{""page_index"":7,""viewing_time"":5880.800000011921},{""page_index"":8,""viewing_time"":5274.100000023842}]","87900.90000003576","","","","","","","","","","","","","","","","","","","","","","","",""
"pit-comprehension","58","674609","0.0-2.0-20.0-0.0","battery-v0.2","","""event"",""trial"",""time""
""fullscreenenter"",""1"",""3505""
","
","
","""event"",""trial"",""time""
""fullscreenenter"",""1"",""3505""
","
","","","4682.100000023842","[""SPACE""]","0","18","3040","2785","","","","","","","","","","","","","","","","","","",""
"pit-instructions","59","681361","0.0-2.0-20.0-1.0","battery-v0.2","","""event"",""trial"",""time""
""fullscreenenter"",""1"",""3505""
","
","
","""event"",""trial"",""time""
""fullscreenenter"",""1"",""3505""
","
","","[{""page_index"":0,""viewing_time"":6720.600000023842}]","6721.199999988079","","","","","","","","","","","","","","","","","","","","","","","",""
"pit-comprehension","60","686204","0.0-2.0-21.0-0.0","battery-v0.2","","""event"",""trial"",""time""
""fullscreenenter"",""1"",""3505""
","
","
","""event"",""trial"",""time""
""fullscreenenter"",""1"",""3505""
","
","","","4836.599999964237","[""10""]","0","18","3040","2785","","","","","","","","","","","","","","","","","","",""
"pit-instructions","61","688365","0.0-2.0-21.0-1.0","battery-v0.2","","""event"",""trial"",""time""
""fullscreenenter"",""1"",""3505""
","
","
","""event"",""trial"",""time""
""fullscreenenter"",""1"",""3505""
","
","","[{""page_index"":0,""viewing_time"":2128.399999976158}]","2128.800000011921","","","","","","","","","","","","","","","","","","","","","","","",""
"pit-comprehension","62","694986","0.0-2.0-22.0-0.0","battery-v0.2","","""event"",""trial"",""time""
""fullscreenenter"",""1"",""3505""
","
","
","""event"",""trial"",""time""
""fullscreenenter"",""1"",""3505""
","
","","","6617.5","[""0""]","0","18","3040","2785","","","","","","","","","","","","","","","","","","",""
"pit-instructions","63","700259","0.0-2.0-22.0-1.0","battery-v0.2","","""event"",""trial"",""time""
""fullscreenenter"",""1"",""3505""
","
","
","""event"",""trial"",""time""
""fullscreenenter"",""1"",""3505""
","
","","[{""page_index"":0,""viewing_time"":5237.100000023842}]","5237.600000023842","","","","","","","","","","","","","","","","","","","","","","","",""
"pit-comprehension","64","708898","0.0-2.0-23.0-0.0","battery-v0.2","","""event"",""trial"",""time""
""fullscreenenter"",""1"",""3505""
","
","
","""event"",""trial"",""time""
""fullscreenenter"",""1"",""3505""
","
","","","8633.099999964237","[""True""]","0","18","3040","2785","","","","","","","","","","","","","","","","","","",""
"pit-instructions","65","711210","0.0-2.0-23.0-1.0","battery-v0.2","","""event"",""trial"",""time""
""fullscreenenter"",""1"",""3505""
","
","
","""event"",""trial"",""time""
""fullscreenenter"",""1"",""3505""
","
","","[{""page_index"":0,""viewing_time"":2280.7000000476837}]","2281.300000011921","","","","","","","","","","","","","","","","","","","","","","","",""
"pit-comprehension","66","718870","0.0-2.0-24.0-0.0","battery-v0.2","","""event"",""trial"",""time""
""fullscreenenter"",""1"",""3505""
","
","
","""event"",""trial"",""time""
""fullscreenenter"",""1"",""3505""
","
","","","7654.899999976158","[""True""]","0","18","3040","2785","","","","","","","","","","","","","","","","","","",""
"pit-instructions","67","723850","0.0-2.0-24.0-1.0","battery-v0.2","","""event"",""trial"",""time""
""fullscreenenter"",""1"",""3505""
","
","
","""event"",""trial"",""time""
""fullscreenenter"",""1"",""3505""
","
","","[{""page_index"":0,""viewing_time"":4947.199999988079}]","4947.899999976158","","","","","","","","","","","","","","","","","","","","","","","",""
"pit-comprehension","68","730330","0.0-2.0-25.0-0.0","battery-v0.2","","""event"",""trial"",""time""
""fullscreenenter"",""1"",""3505""
","
","
","""event"",""trial"",""time""
""fullscreenenter"",""1"",""3505""
","
","","","6474.5","[""True""]","0","18","3040","2785","","","","","","","","","","","","","","","","","","",""
"pit-instructions","69","733374","0.0-2.0-25.0-1.0","battery-v0.2","","""event"",""trial"",""time""
""fullscreenenter"",""1"",""3505""
","
","
","""event"",""trial"",""time""
""fullscreenenter"",""1"",""3505""
","
","","[{""page_index"":0,""viewing_time"":3007.7000000476837}]","3008.100000023842","","","","","","","","","","","","","","","","","","","","","","","",""
"pit-comprehension","70","743401","0.0-2.0-26.0-0.0","battery-v0.2","","""event"",""trial"",""time""
""fullscreenenter"",""1"",""3505""
","
","
","""event"",""trial"",""time""
""fullscreenenter"",""1"",""3505""
","
","","","10021.900000035763","[""False""]","0","18","3040","2785","","","","","","","","","","","","","","","","","","",""
"pit-instructions","71","745309","0.0-2.0-26.0-1.0","battery-v0.2","","""event"",""trial"",""time""
""fullscreenenter"",""1"",""3505""
","
","
","""event"",""trial"",""time""
""fullscreenenter"",""1"",""3505""
","
","","[{""page_index"":0,""viewing_time"":1876.0999999642372}]","1876.5999999642372","","","","","","","","","","","","","","","","","","","","","","","",""
"pit-instructions","72","761989","0.0-3.0","battery-v0.2","","""event"",""trial"",""time""
""fullscreenenter"",""1"",""3505""
","
","
","""event"",""trial"",""time""
""fullscreenenter"",""1"",""3505""
","
","","[{""page_index"":0,""viewing_time"":3933.099999964237},{""page_index"":1,""viewing_time"":5010.699999988079},{""page_index"":2,""viewing_time"":7732.5}]","16676.899999976158","","","","","","","","","","","","","","","","","","","","","","","",""
"pit-trial","73","766852","0.0-4.0","battery-v0.2","","""event"",""trial"",""time""
""fullscreenenter"",""1"",""3505""
","
","
","""event"",""trial"",""time""
""fullscreenenter"",""1"",""3505""
","
","","","-1","","","18","3040","2785","&#9728;","elianto","#f73b6a7A","-1","-1","1","0","[]","0","1","","","3040","1","0","4","lose","no-go","0"
"pit-trial","74","770952","0.0-5.0","battery-v0.2","","""event"",""trial"",""time""
""fullscreenenter"",""1"",""3505""
","
","
","""event"",""trial"",""time""
""fullscreenenter"",""1"",""3505""
","
","","","1240.800000011921","","","18","3040","2785","&#9752;","elianto","#f73b6a7A"," "," ","1","-10","[2095.600000023842]","1","1","","","3040","2","3","3","lose","go","1"
"pit-trial","75","774899","0.0-6.0","battery-v0.2","","""event"",""trial"",""time""
""fullscreenenter"",""1"",""3505""
","
","
","""event"",""trial"",""time""
""fullscreenenter"",""1"",""3505""
","
","","","1089.6000000238419","","","18","3040","2785","&#9730;","elianto","#3366ff99"," "," ","1","+10","[1941.699999988079]","1","1","","","3040","3","1","1","win","go","0"
"pit-trial","76","779278","0.0-7.0","battery-v0.2","","""event"",""trial"",""time""
""fullscreenenter"",""1"",""3505""
","
","
","""event"",""trial"",""time""
""fullscreenenter"",""1"",""3505""
","
","","","1518.9000000357628","","","18","3040","2785","&#9733;","elianto","#3366ff99","-1"," ","0","0","[2372.800000011921]","1","1","","","3040","4","2","2","win","no-go","0"
"pit-trial","77","784142","0.0-8.0","battery-v0.2","","""event"",""trial"",""time""
""fullscreenenter"",""1"",""3505""
","
","
","""event"",""trial"",""time""
""fullscreenenter"",""1"",""3505""
","
","","","-1","","","18","3040","2785","&#9733;","elianto","#3366ff99","-1","-1","1","+10","[]","0","1","","","3040","5","2","2","win","no-go","0"
"pit-trial","78","788179","0.0-9.0","battery-v0.2","","""event"",""trial"",""time""
""fullscreenenter"",""1"",""3505""
","
","
","""event"",""trial"",""time""
""fullscreenenter"",""1"",""3505""
","
","","","1178.199999988079","","","18","3040","2785","&#9730;","elianto","#3366ff99"," "," ","1","+10","[2030.0999999642372]","1","1","","","3040","6","1","1","win","go","0"
"pit-trial","79","793033","0.0-10.0","battery-v0.2","","""event"",""trial"",""time""
""fullscreenenter"",""1"",""3505""
","
","
","""event"",""trial"",""time""
""fullscreenenter"",""1"",""3505""
","
","","","-1","","","18","3040","2785","&#9752;","elianto","#f73b6a7A"," ","-1","0","-10","[]","0","1","","","3040","7","3","3","lose","go","0"
"pit-trial","80","796770","0.0-11.0","battery-v0.2","","""event"",""trial"",""time""
""fullscreenenter"",""1"",""3505""
","
","
","""event"",""trial"",""time""
""fullscreenenter"",""1"",""3505""
","
","","","874.4000000357628","","","18","3040","2785","&#9728;","elianto","#f73b6a7A","-1"," ","0","-10","[1729.699999988079]","1","1","","","3040","8","0","4","lose","no-go","0"
"pit-trial","81","800718","0.0-12.0","battery-v0.2","","""event"",""trial"",""time""
""fullscreenenter"",""1"",""3505""
","
","
","""event"",""trial"",""time""
""fullscreenenter"",""1"",""3505""
","
","","","1091","","","18","3040","2785","&#9730;","elianto","#3366ff99"," "," ","1","+10","[1941.6000000238419]","1","1","","","3040","9","1","1","win","go","0"
"pit-trial","82","804354","0.0-13.0","battery-v0.2","","""event"",""trial"",""time""
""fullscreenenter"",""1"",""3505""
","
","
","""event"",""trial"",""time""
""fullscreenenter"",""1"",""3505""
","
","","","779.3999999761581","","","18","3040","2785","&#9733;","elianto","#3366ff99","-1"," ","0","0","[1629.699999988079]","1","1","","","3040","10","2","2","win","no-go","0"
"pit-trial","83","809216","0.0-14.0","battery-v0.2","","""event"",""trial"",""time""
""fullscreenenter"",""1"",""3505""
","
","
","""event"",""trial"",""time""
""fullscreenenter"",""1"",""3505""
","
","","","-1","","","18","3040","2785","&#9728;","elianto","#f73b6a7A","-1","-1","1","0","[]","0","1","","","3040","11","0","4","lose","no-go","0"
"pit-trial","84","814077","0.0-15.0","battery-v0.2","","""event"",""trial"",""time""
""fullscreenenter"",""1"",""3505""
","
","
","""event"",""trial"",""time""
""fullscreenenter"",""1"",""3505""
","
","","","-1","","","18","3040","2785","&#9752;","elianto","#f73b6a7A"," ","-1","0","-10","[]","0","1","","","3040","12","3","3","lose","go","0"
"pit-trial","85","817738","0.0-16.0","battery-v0.2","","""event"",""trial"",""time""
""fullscreenenter"",""1"",""3505""
","
","
","""event"",""trial"",""time""
""fullscreenenter"",""1"",""3505""
","
","","","802","","","18","3040","2785","&#9733;","elianto","#3366ff99","-1"," ","0","0","[1654.300000011921]","1","1","","","3040","13","2","2","win","no-go","0"
"pit-trial","86","821282","0.0-17.0","battery-v0.2","","""event"",""trial"",""time""
""fullscreenenter"",""1"",""3505""
","
","
","""event"",""trial"",""time""
""fullscreenenter"",""1"",""3505""
","
","","","684.1999999880791","","","18","3040","2785","&#9730;","elianto","#3366ff99"," "," ","1","+10","[1536.9000000357628]","1","1","","","3040","14","1","1","win","go","0"
"pit-trial","87","825133","0.0-18.0","battery-v0.2","","""event"",""trial"",""time""
""fullscreenenter"",""1"",""3505""
","
","
","""event"",""trial"",""time""
""fullscreenenter"",""1"",""3505""
","
","","","990","","","18","3040","2785","&#9752;","elianto","#f73b6a7A"," "," ","1","-10","[1842.800000011921]","1","1","","","3040","15","3","3","lose","go","1"
"pit-trial","88","829991","0.0-19.0","battery-v0.2","","""event"",""trial"",""time""
""fullscreenenter"",""1"",""3505""
","
","
","""event"",""trial"",""time""
""fullscreenenter"",""1"",""3505""
","
","","","-1","","","18","3040","2785","&#9728;","elianto","#f73b6a7A","-1","-1","1","0","[]","0","1","","","3040","16","0","4","lose","no-go","0"
"pit-trial","89","834855","0.0-20.0","battery-v0.2","","""event"",""trial"",""time""
""fullscreenenter"",""1"",""3505""
","
","
","""event"",""trial"",""time""
""fullscreenenter"",""1"",""3505""
","
","","","-1","","","18","3040","2785","&#9728;","elianto","#f73b6a7A","-1","-1","1","0","[]","0","1","","","3040","17","0","4","lose","no-go","0"
"pit-trial","90","838403","0.0-21.0","battery-v0.2","","""event"",""trial"",""time""
""fullscreenenter"",""1"",""3505""
","
","
","""event"",""trial"",""time""
""fullscreenenter"",""1"",""3505""
","
","","","684.6000000238419","","","18","3040","2785","&#9730;","elianto","#3366ff99"," "," ","1","+10","[1539.5999999642372,1778.699999988079]","2","1","","","3040","18","1","1","win","go","0"
"pit-trial","91","843265","0.0-22.0","battery-v0.2","","""event"",""trial"",""time""
""fullscreenenter"",""1"",""3505""
","
","
","""event"",""trial"",""time""
""fullscreenenter"",""1"",""3505""
","
","","","-1","","","18","3040","2785","&#9733;","elianto","#3366ff99","-1","-1","1","+10","[]","0","1","","","3040","19","2","2","win","no-go","0"
"pit-trial","92","848126","0.0-23.0","battery-v0.2","","""event"",""trial"",""time""
""fullscreenenter"",""1"",""3505""
","
","
","""event"",""trial"",""time""
""fullscreenenter"",""1"",""3505""
","
","","","-1","","","18","3040","2785","&#9752;","elianto","#f73b6a7A"," ","-1","0","0","[]","0","1","","","3040","20","3","3","lose","go","1"
"pit-instructions","93","860638","0.0-24.0","battery-v0.2","","""event"",""trial"",""time""
""fullscreenenter"",""1"",""3505""
","
","
","""event"",""trial"",""time""
""fullscreenenter"",""1"",""3505""
","
","","[{""page_index"":0,""viewing_time"":5764.5},{""page_index"":1,""viewing_time"":6744.199999988079}]","12509.399999976158","","","","","","","","","","","","","","","","","","","","","","","",""
"pit-trial","94","865500","0.0-25.0","battery-v0.2","","""event"",""trial"",""time""
""fullscreenenter"",""1"",""3505""
","
","
","""event"",""trial"",""time""
""fullscreenenter"",""1"",""3505""
","
","","","-1","","","18","3040","2785","r","elianto","#3366ff99"," ","-1","0","+10","[]","0","2","","","3040","21","1","1","win","go","1"
"pit-trial","95","869121","0.0-26.0","battery-v0.2","","""event"",""trial"",""time""
""fullscreenenter"",""1"",""3505""
","
","
","""event"",""trial"",""time""
""fullscreenenter"",""1"",""3505""
","
","","","761.3999999761581","","","18","3040","2785","m","elianto","#f73b6a7A","-1"," ","0","0","[1615.199999988079]","1","2","","","3040","22","0","4","lose","no-go","1"
"pit-trial","96","873977","0.0-27.0","battery-v0.2","","""event"",""trial"",""time""
""fullscreenenter"",""1"",""3505""
","
","
","""event"",""trial"",""time""
""fullscreenenter"",""1"",""3505""
","
","","","-1","","","18","3040","2785","y","elianto","#f73b6a7A","-1","-1","1","-10","[]","0","2","","","3040","23","2","4","lose","no-go","1"
"pit-trial","97","877692","0.0-28.0","battery-v0.2","","""event"",""trial"",""time""
""fullscreenenter"",""1"",""3505""
","
","
","""event"",""trial"",""time""
""fullscreenenter"",""1"",""3505""
","
","","","851","","","18","3040","2785","h","elianto","#f73b6a7A"," "," ","1","0","[1705.2999999523163]","1","2","","","3040","24","3","3","lose","go","0"
"pit-trial","98","882555","0.0-29.0","battery-v0.2","","""event"",""trial"",""time""
""fullscreenenter"",""1"",""3505""
","
","
","""event"",""trial"",""time""
""fullscreenenter"",""1"",""3505""
","
","","","-1","","","18","3040","2785","r","elianto","#3366ff99"," ","-1","0","+10","[]","0","2","","","3040","25","1","1","win","go","1"
"pit-trial","99","886683","0.0-30.0","battery-v0.2","","""event"",""trial"",""time""
""fullscreenenter"",""1"",""3505""
","
","
","""event"",""trial"",""time""
""fullscreenenter"",""1"",""3505""
","
","","","1268.8999999761581","","","18","3040","2785","h","elianto","#f73b6a7A"," "," ","1","0","[2122.699999988079]","1","2","","","3040","26","3","3","lose","go","0"
"pit-trial","100","891125","0.0-31.0","battery-v0.2","","""event"",""trial"",""time""
""fullscreenenter"",""1"",""3505""
","
","
","""event"",""trial"",""time""
""fullscreenenter"",""1"",""3505""
","
","","","1585.5999999642372","","","18","3040","2785","y","elianto","#f73b6a7A","-1"," ","0","-10","[2435.699999988079]","1","2","","","3040","27","2","4","lose","no-go","0"
"pit-trial","101","894851","0.0-32.0","battery-v0.2","","""event"",""trial"",""time""
""fullscreenenter"",""1"",""3505""
","
","
","""event"",""trial"",""time""
""fullscreenenter"",""1"",""3505""
","
","","","866.3000000119209","","","18","3040","2785","m","elianto","#f73b6a7A","-1"," ","0","-10","[1719]","1","2","","","3040","28","0","4","lose","no-go","0"
"pit-trial","102","899504","0.0-33.0","battery-v0.2","","""event"",""trial"",""time""
""fullscreenenter"",""1"",""3505""
","
","
","""event"",""trial"",""time""
""fullscreenenter"",""1"",""3505""
","
","","","1793","","","18","3040","2785","h","elianto","#f73b6a7A"," "," ","1","-10","[2645.2999999523163]","1","2","","","3040","29","3","3","lose","go","1"
"pit-trial","103","904365","0.0-34.0","battery-v0.2","","""event"",""trial"",""time""
""fullscreenenter"",""1"",""3505""
","
","
","""event"",""trial"",""time""
""fullscreenenter"",""1"",""3505""
","
","","","-1","","","18","3040","2785","m","elianto","#f73b6a7A","-1","-1","1","0","[]","0","2","","","3040","30","0","4","lose","no-go","0"
"pit-trial","104","909226","0.0-35.0","battery-v0.2","","""event"",""trial"",""time""
""fullscreenenter"",""1"",""3505""
","
","
","""event"",""trial"",""time""
""fullscreenenter"",""1"",""3505""
","
","","","-1","","","18","3040","2785","y","elianto","#f73b6a7A","-1","-1","1","0","[]","0","2","","","3040","31","2","4","lose","no-go","0"
"pit-trial","105","914085","0.0-36.0","battery-v0.2","","""event"",""trial"",""time""
""fullscreenenter"",""1"",""3505""
","
","
","""event"",""trial"",""time""
""fullscreenenter"",""1"",""3505""
","
","","","-1","","","18","3040","2785","r","elianto","#3366ff99"," ","-1","0","0","[]","0","2","","","3040","32","1","1","win","go","0"
"pit-trial","106","918947","0.0-37.0","battery-v0.2","","""event"",""trial"",""time""
""fullscreenenter"",""1"",""3505""
","
","
","""event"",""trial"",""time""
""fullscreenenter"",""1"",""3505""
","
","","","-1","","","18","3040","2785","m","elianto","#f73b6a7A","-1","-1","1","-10","[]","0","2","","","3040","33","0","4","lose","no-go","1"
"pit-trial","107","923807","0.0-38.0","battery-v0.2","","""event"",""trial"",""time""
""fullscreenenter"",""1"",""3505""
","
","
","""event"",""trial"",""time""
""fullscreenenter"",""1"",""3505""
","
","","","-1","","","18","3040","2785","h","elianto","#f73b6a7A"," ","-1","0","-10","[]","0","2","","","3040","34","3","3","lose","go","0"
"pit-trial","108","927498","0.0-39.0","battery-v0.2","","""event"",""trial"",""time""
""fullscreenenter"",""1"",""3505""
","
","
","""event"",""trial"",""time""
""fullscreenenter"",""1"",""3505""
","
","","","828","","","18","3040","2785","r","elianto","#3366ff99"," "," ","1","+10","[1683]","1","2","","","3040","35","1","1","win","go","0"
"pit-trial","109","932361","0.0-40.0","battery-v0.2","","""event"",""trial"",""time""
""fullscreenenter"",""1"",""3505""
","
","
","""event"",""trial"",""time""
""fullscreenenter"",""1"",""3505""
","
","","","-1","","","18","3040","2785","y","elianto","#f73b6a7A","-1","-1","1","0","[]","0","2","","","3040","36","2","4","lose","no-go","0"
"pit-trial","110","937220","0.0-41.0","battery-v0.2","","""event"",""trial"",""time""
""fullscreenenter"",""1"",""3505""
","
","
","""event"",""trial"",""time""
""fullscreenenter"",""1"",""3505""
","
","","","-1","","","18","3040","2785","y","elianto","#f73b6a7A","-1","-1","1","0","[]","0","2","","","3040","37","2","4","lose","no-go","0"
"pit-trial","111","942084","0.0-42.0","battery-v0.2","","""event"",""trial"",""time""
""fullscreenenter"",""1"",""3505""
","
","
","""event"",""trial"",""time""
""fullscreenenter"",""1"",""3505""
","
","","","-1","","","18","3040","2785","m","elianto","#f73b6a7A","-1","-1","1","0","[]","0","2","","","3040","38","0","4","lose","no-go","0"
"pit-trial","112","946948","0.0-43.0","battery-v0.2","","""event"",""trial"",""time""
""fullscreenenter"",""1"",""3505""
","
","
","""event"",""trial"",""time""
""fullscreenenter"",""1"",""3505""
","
","","","-1","","","18","3040","2785","h","elianto","#f73b6a7A"," ","-1","0","0","[]","0","2","","","3040","39","3","3","lose","go","1"
"pit-trial","113","951809","0.0-44.0","battery-v0.2","","""event"",""trial"",""time""
""fullscreenenter"",""1"",""3505""
","
","
","""event"",""trial"",""time""
""fullscreenenter"",""1"",""3505""
","
","","","-1","","","18","3040","2785","r","elianto","#3366ff99"," ","-1","0","0","[]","0","2","","","3040","40","1","1","win","go","0"
"pit-trial","114","956667","0.0-45.0","battery-v0.2","","""event"",""trial"",""time""
""fullscreenenter"",""1"",""3505""
","
","
","""event"",""trial"",""time""
""fullscreenenter"",""1"",""3505""
","
","","","-1","","","18","3040","2785","m","elianto","#f73b6a7A","-1","-1","1","0","[]","0","2","","","3040","41","0","4","lose","no-go","0"
"pit-trial","115","961526","0.0-46.0","battery-v0.2","","""event"",""trial"",""time""
""fullscreenenter"",""1"",""3505""
","
","
","""event"",""trial"",""time""
""fullscreenenter"",""1"",""3505""
","
","","","-1","","","18","3040","2785","y","elianto","#f73b6a7A","-1","-1","1","0","[]","0","2","","","3040","42","2","4","lose","no-go","0"
"pit-trial","116","966388","0.0-47.0","battery-v0.2","","""event"",""trial"",""time""
""fullscreenenter"",""1"",""3505""
","
","
","""event"",""trial"",""time""
""fullscreenenter"",""1"",""3505""
","
","","","-1","","","18","3040","2785","h","elianto","#f73b6a7A"," ","-1","0","-10","[]","0","2","","","3040","43","3","3","lose","go","0"
"pit-trial","117","971252","0.0-48.0","battery-v0.2","","""event"",""trial"",""time""
""fullscreenenter"",""1"",""3505""
","
","
","""event"",""trial"",""time""
""fullscreenenter"",""1"",""3505""
","
","","","-1","","","18","3040","2785","r","elianto","#3366ff99"," ","-1","0","0","[]","0","2","","","3040","44","1","1","win","go","0"
"pit-trial","118","975198","0.0-49.0","battery-v0.2","","""event"",""trial"",""time""
""fullscreenenter"",""1"",""3505""
","
","
","""event"",""trial"",""time""
""fullscreenenter"",""1"",""3505""
","
","","","1088.4000000357628","","","18","3040","2785","z","elianto","#3366ff99","-1"," ","0","0","[1940.699999988079]","1","2","","","3040","45","4","2","win","no-go","0"
"pit-trial","119","979056","0.0-50.0","battery-v0.2","","""event"",""trial"",""time""
""fullscreenenter"",""1"",""3505""
","
","
","""event"",""trial"",""time""
""fullscreenenter"",""1"",""3505""
","
","","","999.3999999761581","","","18","3040","2785","h","elianto","#f73b6a7A"," "," ","1","0","[1849.699999988079]","1","2","","","3040","46","3","3","lose","go","0"
"pit-trial","120","983915","0.0-51.0","battery-v0.2","","""event"",""trial"",""time""
""fullscreenenter"",""1"",""3505""
","
","
","""event"",""trial"",""time""
""fullscreenenter"",""1"",""3505""
","
","","","-1","","","18","3040","2785","y","elianto","#f73b6a7A","-1","-1","1","0","[]","0","2","","","3040","47","2","4","lose","no-go","0"
"pit-trial","121","988776","0.0-52.0","battery-v0.2","","""event"",""trial"",""time""
""fullscreenenter"",""1"",""3505""
","
","
","""event"",""trial"",""time""
""fullscreenenter"",""1"",""3505""
","
","","","-1","","","18","3040","2785","m","elianto","#f73b6a7A","-1","-1","1","0","[]","0","2","","","3040","48","0","4","lose","no-go","0"
"pit-trial","122","992425","0.0-53.0","battery-v0.2","","""event"",""trial"",""time""
""fullscreenenter"",""1"",""3505""
","
","
","""event"",""trial"",""time""
""fullscreenenter"",""1"",""3505""
","
","","","790.3999999761581","","","18","3040","2785","h","elianto","#f73b6a7A"," "," ","1","-10","[1640.7999999523163]","1","2","","","3040","49","3","3","lose","go","1"
"pit-trial","123","997288","0.0-54.0","battery-v0.2","","""event"",""trial"",""time""
""fullscreenenter"",""1"",""3505""
","
","
","""event"",""trial"",""time""
""fullscreenenter"",""1"",""3505""
","
","","","-1","","","18","3040","2785","m","elianto","#f73b6a7A","-1","-1","1","0","[]","0","2","","","3040","50","0","4","lose","no-go","0"
"pit-trial","124","1001853","0.0-55.0","battery-v0.2","","""event"",""trial"",""time""
""fullscreenenter"",""1"",""3505""
","
","
","""event"",""trial"",""time""
""fullscreenenter"",""1"",""3505""
","
","","","1704.800000011921","","","18","3040","2785","z","elianto","#3366ff99","-1"," ","0","0","[2557.600000023842]","1","2","","","3040","51","4","2","win","no-go","0"
"pit-trial","125","1005496","0.0-56.0","battery-v0.2","","""event"",""trial"",""time""
""fullscreenenter"",""1"",""3505""
","
","
","""event"",""trial"",""time""
""fullscreenenter"",""1"",""3505""
","
","","","780.8999999761581","","","18","3040","2785","r","elianto","#3366ff99"," "," ","1","+10","[1634.800000011921]","1","2","","","3040","52","1","1","win","go","0"
"pit-trial","126","1010359","0.0-57.0","battery-v0.2","","""event"",""trial"",""time""
""fullscreenenter"",""1"",""3505""
","
","
","""event"",""trial"",""time""
""fullscreenenter"",""1"",""3505""
","
","","","-1","","","18","3040","2785","z","elianto","#3366ff99","-1","-1","1","0","[]","0","2","","","3040","53","4","2","win","no-go","1"
"pit-trial","127","1014181","0.0-58.0","battery-v0.2","","""event"",""trial"",""time""
""fullscreenenter"",""1"",""3505""
","
","
","""event"",""trial"",""time""
""fullscreenenter"",""1"",""3505""
","
","","","961.6000000238419","","","18","3040","2785","r","elianto","#3366ff99"," "," ","1","+10","[1814.300000011921]","1","2","","","3040","54","1","1","win","go","0"
"pit-trial","128","1019042","0.0-59.0","battery-v0.2","","""event"",""trial"",""time""
""fullscreenenter"",""1"",""3505""
","
","
","""event"",""trial"",""time""
""fullscreenenter"",""1"",""3505""
","
","","","-1","","","18","3040","2785","y","elianto","#f73b6a7A","-1","-1","1","-10","[]","0","2","","","3040","55","2","4","lose","no-go","1"
"pit-trial","129","1023906","0.0-60.0","battery-v0.2","","""event"",""trial"",""time""
""fullscreenenter"",""1"",""3505""
","
","
","""event"",""trial"",""time""
""fullscreenenter"",""1"",""3505""
","
","","","-1","","","18","3040","2785","m","elianto","#f73b6a7A","-1","-1","1","0","[]","0","2","","","3040","56","0","4","lose","no-go","0"
"pit-trial","130","1027759","0.0-61.0","battery-v0.2","","""event"",""trial"",""time""
""fullscreenenter"",""1"",""3505""
","
","
","""event"",""trial"",""time""
""fullscreenenter"",""1"",""3505""
","
","","","991.5","","","18","3040","2785","r","elianto","#3366ff99"," "," ","1","+10","[1845.699999988079]","1","2","","","3040","57","1","1","win","go","0"
"pit-trial","131","1031816","0.0-62.0","battery-v0.2","","""event"",""trial"",""time""
""fullscreenenter"",""1"",""3505""
","
","
","""event"",""trial"",""time""
""fullscreenenter"",""1"",""3505""
","
","","","1196.199999988079","","","18","3040","2785","z","elianto","#3366ff99","-1"," ","0","0","[2048.800000011921]","1","2","","","3040","58","4","2","win","no-go","0"
"pit-trial","132","1035700","0.0-63.0","battery-v0.2","","""event"",""trial"",""time""
""fullscreenenter"",""1"",""3505""
","
","
","""event"",""trial"",""time""
""fullscreenenter"",""1"",""3505""
","
","","","1024.1000000238419","","","18","3040","2785","h","elianto","#f73b6a7A"," "," ","1","0","[1877.6000000238419]","1","2","","","3040","59","3","3","lose","go","0"
"pit-trial","133","1040562","0.0-64.0","battery-v0.2","","""event"",""trial"",""time""
""fullscreenenter"",""1"",""3505""
","
","
","""event"",""trial"",""time""
""fullscreenenter"",""1"",""3505""
","
","","","-1","","","18","3040","2785","m","elianto","#f73b6a7A","-1","-1","1","-10","[]","0","2","","","3040","60","0","4","lose","no-go","1"
"pit-trial","134","1044483","0.0-65.0","battery-v0.2","","""event"",""trial"",""time""
""fullscreenenter"",""1"",""3505""
","
","
","""event"",""trial"",""time""
""fullscreenenter"",""1"",""3505""
","
","","","1063.1000000238419","","","18","3040","2785","h","elianto","#f73b6a7A"," "," ","1","-10","[1913.300000011921]","1","2","","","3040","61","3","3","lose","go","1"
"pit-trial","135","1048825","0.0-66.0","battery-v0.2","","""event"",""trial"",""time""
""fullscreenenter"",""1"",""3505""
","
","
","""event"",""trial"",""time""
""fullscreenenter"",""1"",""3505""
","
","","","1481.199999988079","","","18","3040","2785","z","elianto","#3366ff99","-1"," ","0","+10","[2333.2999999523163]","1","2","","","3040","62","4","2","win","no-go","1"
"pit-trial","136","1052186","0.0-67.0","battery-v0.2","","""event"",""trial"",""time""
""fullscreenenter"",""1"",""3505""
","
","
","""event"",""trial"",""time""
""fullscreenenter"",""1"",""3505""
","
","","","500.19999998807907","","","18","3040","2785","r","elianto","#3366ff99"," "," ","1","0","[1353.0999999642372]","1","2","","","3040","63","1","1","win","go","1"
"pit-trial","137","1057047","0.0-68.0","battery-v0.2","","""event"",""trial"",""time""
""fullscreenenter"",""1"",""3505""
","
","
","""event"",""trial"",""time""
""fullscreenenter"",""1"",""3505""
","
","","","-1","","","18","3040","2785","y","elianto","#f73b6a7A","-1","-1","1","0","[]","0","2","","","3040","64","2","4","lose","no-go","0"
"pit-trial","138","1061911","0.0-69.0","battery-v0.2","","""event"",""trial"",""time""
""fullscreenenter"",""1"",""3505""
","
","
","""event"",""trial"",""time""
""fullscreenenter"",""1"",""3505""
","
","","","-1","","","18","3040","2785","y","elianto","#f73b6a7A","-1","-1","1","0","[]","0","2","","","3040","65","2","4","lose","no-go","0"
"pit-trial","139","1065708","0.0-70.0","battery-v0.2","","""event"",""trial"",""time""
""fullscreenenter"",""1"",""3505""
","
","
","""event"",""trial"",""time""
""fullscreenenter"",""1"",""3505""
","
","","","933.1999999880791","","","18","3040","2785","z","elianto","#3366ff99","-1"," ","0","0","[1787.800000011921]","1","2","","","3040","66","4","2","win","no-go","0"
"pit-trial","140","1070571","0.0-71.0","battery-v0.2","","""event"",""trial"",""time""
""fullscreenenter"",""1"",""3505""
","
","
","""event"",""trial"",""time""
""fullscreenenter"",""1"",""3505""
","
","","","-1","","","18","3040","2785","h","elianto","#f73b6a7A"," ","-1","0","-10","[2872.100000023842]","1","2","","","3040","67","3","3","lose","go","0"
"pit-trial","141","1074518","0.0-72.0","battery-v0.2","","""event"",""trial"",""time""
""fullscreenenter"",""1"",""3505""
","
","
","""event"",""trial"",""time""
""fullscreenenter"",""1"",""3505""
","
","","","1087.199999988079","","","18","3040","2785","r","elianto","#3366ff99"," "," ","1","0","[1940.800000011921]","1","2","","","3040","68","1","1","win","go","1"
"pit-trial","142","1078824","0.0-73.0","battery-v0.2","","""event"",""trial"",""time""
""fullscreenenter"",""1"",""3505""
","
","
","""event"",""trial"",""time""
""fullscreenenter"",""1"",""3505""
","
","","","1447.1000000238419","","","18","3040","2785","h","elianto","#f73b6a7A"," "," ","1","0","[2299.699999988079]","1","2","","","3040","69","3","3","lose","go","0"
"pit-trial","143","1082847","0.0-74.0","battery-v0.2","","""event"",""trial"",""time""
""fullscreenenter"",""1"",""3505""
","
","
","""event"",""trial"",""time""
""fullscreenenter"",""1"",""3505""
","
","","","1163.7000000476837","","","18","3040","2785","r","elianto","#3366ff99"," "," ","1","+10","[2017.2000000476837]","1","2","","","3040","70","1","1","win","go","0"
"pit-trial","144","1086915","0.0-75.0","battery-v0.2","","""event"",""trial"",""time""
""fullscreenenter"",""1"",""3505""
","
","
","""event"",""trial"",""time""
""fullscreenenter"",""1"",""3505""
","
","","","1203.5999999642372","","","18","3040","2785","z","elianto","#3366ff99","-1"," ","0","0","[2058.800000011921]","1","2","","","3040","71","4","2","win","no-go","0"
"pit-trial","145","1091131","0.0-76.0","battery-v0.2","","""event"",""trial"",""time""
""fullscreenenter"",""1"",""3505""
","
","
","""event"",""trial"",""time""
""fullscreenenter"",""1"",""3505""
","
","","","1355.300000011921","","","18","3040","2785","c","elianto","#3366ff99"," "," ","1","+10","[2208.5]","1","2","","","3040","72","5","1","win","go","0"
"pit-trial","146","1095008","0.0-77.0","battery-v0.2","","""event"",""trial"",""time""
""fullscreenenter"",""1"",""3505""
","
","
","""event"",""trial"",""time""
""fullscreenenter"",""1"",""3505""
","
","","","1019.3000000119209","","","18","3040","2785","h","elianto","#f73b6a7A"," "," ","1","0","[1869.5999999642372]","1","2","","","3040","73","3","3","lose","go","0"
"pit-trial","147","1098629","0.0-78.0","battery-v0.2","","""event"",""trial"",""time""
""fullscreenenter"",""1"",""3505""
","
","
","""event"",""trial"",""time""
""fullscreenenter"",""1"",""3505""
","
","","","757.5999999642372","","","18","3040","2785","c","elianto","#3366ff99"," "," ","1","0","[1612.3999999761581]","1","2","","","3040","74","5","1","win","go","1"
"pit-trial","148","1102241","0.0-79.0","battery-v0.2","","""event"",""trial"",""time""
""fullscreenenter"",""1"",""3505""
","
","
","""event"",""trial"",""time""
""fullscreenenter"",""1"",""3505""
","
","","","754.8000000119209","","","18","3040","2785","r","elianto","#3366ff99"," "," ","1","+10","[1605.9000000357628]","1","2","","","3040","75","1","1","win","go","0"
"pit-trial","149","1105695","0.0-80.0","battery-v0.2","","""event"",""trial"",""time""
""fullscreenenter"",""1"",""3505""
","
","
","""event"",""trial"",""time""
""fullscreenenter"",""1"",""3505""
","
","","","591.5999999642372","","","18","3040","2785","z","elianto","#3366ff99","-1"," ","0","0","[1445.300000011921]","1","2","","","3040","76","4","2","win","no-go","0"
"pit-trial","150","1110555","0.0-81.0","battery-v0.2","","""event"",""trial"",""time""
""fullscreenenter"",""1"",""3505""
","
","
","""event"",""trial"",""time""
""fullscreenenter"",""1"",""3505""
","
","","","-1","","","18","3040","2785","z","elianto","#3366ff99","-1","-1","1","0","[]","0","2","","","3040","77","4","2","win","no-go","1"
"pit-trial","151","1114251","0.0-82.0","battery-v0.2","","""event"",""trial"",""time""
""fullscreenenter"",""1"",""3505""
","
","
","""event"",""trial"",""time""
""fullscreenenter"",""1"",""3505""
","
","","","841.8000000119209","","","18","3040","2785","c","elianto","#3366ff99"," "," ","1","+10","[1692]","1","2","","","3040","78","5","1","win","go","0"
"pit-trial","152","1118321","0.0-83.0","battery-v0.2","","""event"",""trial"",""time""
""fullscreenenter"",""1"",""3505""
","
","
","""event"",""trial"",""time""
""fullscreenenter"",""1"",""3505""
","
","","","1209.8999999761581","","","18","3040","2785","b","elianto","#f73b6a7A","-1"," ","0","0","[2062.100000023842]","1","2","","","3040","79","6","4","lose","no-go","1"
"pit-trial","153","1122275","0.0-84.0","battery-v0.2","","""event"",""trial"",""time""
""fullscreenenter"",""1"",""3505""
","
","
","""event"",""trial"",""time""
""fullscreenenter"",""1"",""3505""
","
","","","1092.199999988079","","","18","3040","2785","h","elianto","#f73b6a7A"," "," ","1","0","[1946.3999999761581]","1","2","","","3040","80","3","3","lose","go","0"
"pit-trial","154","1125797","0.0-85.0","battery-v0.2","","""event"",""trial"",""time""
""fullscreenenter"",""1"",""3505""
","
","
","""event"",""trial"",""time""
""fullscreenenter"",""1"",""3505""
","
","","","662","","","18","3040","2785","b","elianto","#f73b6a7A","-1"," ","0","-10","[1516.699999988079]","1","2","","","3040","81","6","4","lose","no-go","0"
"pit-trial","155","1129492","0.0-86.0","battery-v0.2","","""event"",""trial"",""time""
""fullscreenenter"",""1"",""3505""
","
","
","""event"",""trial"",""time""
""fullscreenenter"",""1"",""3505""
","
","","","836.3999999761581","","","18","3040","2785","t","elianto","#f73b6a7A"," "," ","1","0","[1688]","1","2","","","3040","82","7","3","lose","go","0"
"pit-trial","156","1133690","0.0-87.0","battery-v0.2","","""event"",""trial"",""time""
""fullscreenenter"",""1"",""3505""
","
","
","""event"",""trial"",""time""
""fullscreenenter"",""1"",""3505""
","
","","","1338.699999988079","","","18","3040","2785","z","elianto","#3366ff99","-1"," ","0","0","[2189.599999964237]","1","2","","","3040","83","4","2","win","no-go","0"
"pit-trial","157","1137445","0.0-88.0","battery-v0.2","","""event"",""trial"",""time""
""fullscreenenter"",""1"",""3505""
","
","
","""event"",""trial"",""time""
""fullscreenenter"",""1"",""3505""
","
","","","895","","","18","3040","2785","c","elianto","#3366ff99"," "," ","1","+10","[1748]","1","2","","","3040","84","5","1","win","go","0"
"pit-trial","158","1142309","0.0-89.0","battery-v0.2","","""event"",""trial"",""time""
""fullscreenenter"",""1"",""3505""
","
","
","""event"",""trial"",""time""
""fullscreenenter"",""1"",""3505""
","
","","","-1","","","18","3040","2785","z","elianto","#3366ff99","-1","-1","1","0","[]","0","2","","","3040","85","4","2","win","no-go","1"
"pit-trial","159","1146331","0.0-90.0","battery-v0.2","","""event"",""trial"",""time""
""fullscreenenter"",""1"",""3505""
","
","
","""event"",""trial"",""time""
""fullscreenenter"",""1"",""3505""
","
","","","1162.300000011921","","","18","3040","2785","t","elianto","#f73b6a7A"," "," ","1","0","[2017]","1","2","","","3040","86","7","3","lose","go","0"
"pit-trial","160","1149968","0.0-91.0","battery-v0.2","","""event"",""trial"",""time""
""fullscreenenter"",""1"",""3505""
","
","
","""event"",""trial"",""time""
""fullscreenenter"",""1"",""3505""
","
","","","779.8999999761581","","","18","3040","2785","b","elianto","#f73b6a7A","-1"," ","0","-10","[1630.3999999761581]","1","2","","","3040","87","6","4","lose","no-go","0"
"pit-trial","161","1154043","0.0-92.0","battery-v0.2","","""event"",""trial"",""time""
""fullscreenenter"",""1"",""3505""
","
","
","""event"",""trial"",""time""
""fullscreenenter"",""1"",""3505""
","
","","","1213.800000011921","","","18","3040","2785","c","elianto","#3366ff99"," "," ","1","0","[2067.2999999523163]","1","2","","","3040","88","5","1","win","go","1"
"pit-trial","162","1158106","0.0-93.0","battery-v0.2","","""event"",""trial"",""time""
""fullscreenenter"",""1"",""3505""
","
","
","""event"",""trial"",""time""
""fullscreenenter"",""1"",""3505""
","
","","","1208.199999988079","","","18","3040","2785","t","elianto","#f73b6a7A"," "," ","1","0","[2059.399999976158]","1","2","","","3040","89","7","3","lose","go","0"
"pit-trial","163","1162329","0.0-94.0","battery-v0.2","","""event"",""trial"",""time""
""fullscreenenter"",""1"",""3505""
","
","
","""event"",""trial"",""time""
""fullscreenenter"",""1"",""3505""
","
","","","1365.7000000476837","","","18","3040","2785","c","elianto","#3366ff99"," "," ","1","0","[2217]","1","2","","","3040","90","5","1","win","go","1"
"pit-trial","164","1165860","0.0-95.0","battery-v0.2","","""event"",""trial"",""time""
""fullscreenenter"",""1"",""3505""
","
","
","""event"",""trial"",""time""
""fullscreenenter"",""1"",""3505""
","
","","","669.4000000357628","","","18","3040","2785","b","elianto","#f73b6a7A","-1"," ","0","-10","[1523.5]","1","2","","","3040","91","6","4","lose","no-go","0"
"pit-trial","165","1169722","0.0-96.0","battery-v0.2","","""event"",""trial"",""time""
""fullscreenenter"",""1"",""3505""
","
","
","""event"",""trial"",""time""
""fullscreenenter"",""1"",""3505""
","
","","","999.3999999761581","","","18","3040","2785","z","elianto","#3366ff99","-1"," ","0","0","[1853.8999999761581]","1","2","","","3040","92","4","2","win","no-go","0"
"pit-trial","166","1173367","0.0-97.0","battery-v0.2","","""event"",""trial"",""time""
""fullscreenenter"",""1"",""3505""
","
","
","""event"",""trial"",""time""
""fullscreenenter"",""1"",""3505""
","
","","","782.3000000119209","","","18","3040","2785","t","elianto","#f73b6a7A"," "," ","1","0","[1636.199999988079]","1","2","","","3040","93","7","3","lose","go","0"
"pit-trial","167","1177239","0.0-98.0","battery-v0.2","","""event"",""trial"",""time""
""fullscreenenter"",""1"",""3505""
","
","
","""event"",""trial"",""time""
""fullscreenenter"",""1"",""3505""
","
","","","1008.0999999642372","","","18","3040","2785","f","elianto","#3366ff99","-1"," ","0","0","[1863]","1","2","","","3040","94","8","2","win","no-go","0"
"pit-trial","168","1181506","0.0-99.0","battery-v0.2","","""event"",""trial"",""time""
""fullscreenenter"",""1"",""3505""
","
","
","""event"",""trial"",""time""
""fullscreenenter"",""1"",""3505""
","
","","","1407.199999988079","","","18","3040","2785","b","elianto","#f73b6a7A","-1"," ","0","-10","[2258.699999988079]","1","2","","","3040","95","6","4","lose","no-go","0"
"pit-trial","169","1185192","0.0-100.0","battery-v0.2","","""event"",""trial"",""time""
""fullscreenenter"",""1"",""3505""
","
","
","""event"",""trial"",""time""
""fullscreenenter"",""1"",""3505""
","
","","","828.1999999880791","","","18","3040","2785","c","elianto","#3366ff99"," "," ","1","0","[1679.1000000238419]","1","2","","","3040","96","5","1","win","go","1"
"pit-trial","170","1190051","0.0-101.0","battery-v0.2","","""event"",""trial"",""time""
""fullscreenenter"",""1"",""3505""
","
","
","""event"",""trial"",""time""
""fullscreenenter"",""1"",""3505""
","
","","","-1","","","18","3040","2785","t","elianto","#f73b6a7A"," ","-1","0","-10","[3333.5]","1","2","","","3040","97","7","3","lose","go","0"
"pit-trial","171","1194910","0.0-102.0","battery-v0.2","","""event"",""trial"",""time""
""fullscreenenter"",""1"",""3505""
","
","
","""event"",""trial"",""time""
""fullscreenenter"",""1"",""3505""
","
","","","-1","","","18","3040","2785","c","elianto","#3366ff99"," ","-1","0","0","[]","0","2","","","3040","98","5","1","win","go","0"
"pit-trial","172","1199773","0.0-103.0","battery-v0.2","","""event"",""trial"",""time""
""fullscreenenter"",""1"",""3505""
","
","
","""event"",""trial"",""time""
""fullscreenenter"",""1"",""3505""
","
","","","-1","","","18","3040","2785","b","elianto","#f73b6a7A","-1","-1","1","0","[]","0","2","","","3040","99","6","4","lose","no-go","0"
"pit-trial","173","1203491","0.0-104.0","battery-v0.2","","""event"",""trial"",""time""
""fullscreenenter"",""1"",""3505""
","
","
","""event"",""trial"",""time""
""fullscreenenter"",""1"",""3505""
","
","","","856.3999999761581","","","18","3040","2785","f","elianto","#3366ff99","-1"," ","0","+10","[1708.699999988079]","1","2","","","3040","100","8","2","win","no-go","1"
"pit-trial","174","1207502","0.0-105.0","battery-v0.2","","""event"",""trial"",""time""
""fullscreenenter"",""1"",""3505""
","
","
","""event"",""trial"",""time""
""fullscreenenter"",""1"",""3505""
","
","","","1154","","","18","3040","2785","n","elianto","#3366ff99","-1"," ","0","0","[2005]","1","2","","","3040","101","9","2","win","no-go","0"
"pit-trial","175","1211064","0.0-106.0","battery-v0.2","","""event"",""trial"",""time""
""fullscreenenter"",""1"",""3505""
","
","
","""event"",""trial"",""time""
""fullscreenenter"",""1"",""3505""
","
","","","702.8000000119209","","","18","3040","2785","f","elianto","#3366ff99","-1"," ","0","0","[1557.4000000357628]","1","2","","","3040","102","8","2","win","no-go","0"
"pit-trial","176","1214736","0.0-107.0","battery-v0.2","","""event"",""trial"",""time""
""fullscreenenter"",""1"",""3505""
","
","
","""event"",""trial"",""time""
""fullscreenenter"",""1"",""3505""
","
","","","806.1000000238419","","","18","3040","2785","c","elianto","#3366ff99"," "," ","1","+10","[1661.1000000238419]","1","2","","","3040","103","5","1","win","go","0"
"pit-trial","177","1219597","0.0-108.0","battery-v0.2","","""event"",""trial"",""time""
""fullscreenenter"",""1"",""3505""
","
","
","""event"",""trial"",""time""
""fullscreenenter"",""1"",""3505""
","
","","","-1","","","18","3040","2785","b","elianto","#f73b6a7A","-1","-1","1","-10","[]","0","2","","","3040","104","6","4","lose","no-go","1"
"pit-trial","178","1224461","0.0-109.0","battery-v0.2","","""event"",""trial"",""time""
""fullscreenenter"",""1"",""3505""
","
","
","""event"",""trial"",""time""
""fullscreenenter"",""1"",""3505""
","
","","","-1","","","18","3040","2785","b","elianto","#f73b6a7A","-1","-1","1","0","[]","0","2","","","3040","105","6","4","lose","no-go","0"
"pit-trial","179","1228211","0.0-110.0","battery-v0.2","","""event"",""trial"",""time""
""fullscreenenter"",""1"",""3505""
","
","
","""event"",""trial"",""time""
""fullscreenenter"",""1"",""3505""
","
","","","890.5999999642372","","","18","3040","2785","n","elianto","#3366ff99","-1"," ","0","+10","[1741.1000000238419]","1","2","","","3040","106","9","2","win","no-go","1"
"pit-trial","180","1231753","0.0-111.0","battery-v0.2","","""event"",""trial"",""time""
""fullscreenenter"",""1"",""3505""
","
","
","""event"",""trial"",""time""
""fullscreenenter"",""1"",""3505""
","
","","","685.8999999761581","","","18","3040","2785","c","elianto","#3366ff99"," "," ","1","+10","[1536.300000011921]","1","2","","","3040","107","5","1","win","go","0"
"pit-trial","181","1235463","0.0-112.0","battery-v0.2","","""event"",""trial"",""time""
""fullscreenenter"",""1"",""3505""
","
","
","""event"",""trial"",""time""
""fullscreenenter"",""1"",""3505""
","
","","","850.8000000119209","","","18","3040","2785","f","elianto","#3366ff99","-1"," ","0","0","[1702.6000000238419]","1","2","","","3040","108","8","2","win","no-go","0"
"pit-trial","182","1239206","0.0-113.0","battery-v0.2","","""event"",""trial"",""time""
""fullscreenenter"",""1"",""3505""
","
","
","""event"",""trial"",""time""
""fullscreenenter"",""1"",""3505""
","
","","","880","","","18","3040","2785","n","elianto","#3366ff99","-1"," ","0","+10","[1734.7000000476837]","1","2","","","3040","109","9","2","win","no-go","1"
"pit-trial","183","1242802","0.0-114.0","battery-v0.2","","""event"",""trial"",""time""
""fullscreenenter"",""1"",""3505""
","
","
","""event"",""trial"",""time""
""fullscreenenter"",""1"",""3505""
","
","","","739.1000000238419","","","18","3040","2785","c","elianto","#3366ff99"," "," ","1","+10","[1589.699999988079]","1","2","","","3040","110","5","1","win","go","0"
"pit-trial","184","1247436","0.0-115.0","battery-v0.2","","""event"",""trial"",""time""
""fullscreenenter"",""1"",""3505""
","
","
","""event"",""trial"",""time""
""fullscreenenter"",""1"",""3505""
","
","","","1775.300000011921","","","18","3040","2785","f","elianto","#3366ff99","-1"," ","0","0","[2626.100000023842]","1","2","","","3040","111","8","2","win","no-go","0"
"pit-trial","185","1252300","0.0-116.0","battery-v0.2","","""event"",""trial"",""time""
""fullscreenenter"",""1"",""3505""
","
","
","""event"",""trial"",""time""
""fullscreenenter"",""1"",""3505""
","
","","","-1","","","18","3040","2785","b","elianto","#f73b6a7A","-1","-1","1","0","[]","0","2","","","3040","112","6","4","lose","no-go","0"
"pit-trial","186","1256167","0.0-117.0","battery-v0.2","","""event"",""trial"",""time""
""fullscreenenter"",""1"",""3505""
","
","
","""event"",""trial"",""time""
""fullscreenenter"",""1"",""3505""
","
","","","1002.5999999642372","","","18","3040","2785","n","elianto","#3366ff99","-1"," ","0","0","[1857.6000000238419]","1","2","","","3040","113","9","2","win","no-go","0"
"pit-trial","187","1260657","0.0-118.0","battery-v0.2","","""event"",""trial"",""time""
""fullscreenenter"",""1"",""3505""
","
","
","""event"",""trial"",""time""
""fullscreenenter"",""1"",""3505""
","
","","","1631.6000000238419","","","18","3040","2785","t","elianto","#f73b6a7A"," "," ","1","0","[2482]","1","2","","","3040","114","7","3","lose","go","0"
"pit-trial","188","1265513","0.0-119.0","battery-v0.2","","""event"",""trial"",""time""
""fullscreenenter"",""1"",""3505""
","
","
","""event"",""trial"",""time""
""fullscreenenter"",""1"",""3505""
","
","","","-1","","","18","3040","2785","f","elianto","#3366ff99","-1","-1","1","+10","[]","0","2","","","3040","115","8","2","win","no-go","0"
"pit-trial","189","1269376","0.0-120.0","battery-v0.2","","""event"",""trial"",""time""
""fullscreenenter"",""1"",""3505""
","
","
","""event"",""trial"",""time""
""fullscreenenter"",""1"",""3505""
","
","","","1005.6999999880791","","","18","3040","2785","c","elianto","#3366ff99"," "," ","1","+10","[1859.800000011921]","1","2","","","3040","116","5","1","win","go","0"
"pit-trial","190","1272775","0.0-121.0","battery-v0.2","","""event"",""trial"",""time""
""fullscreenenter"",""1"",""3505""
","
","
","""event"",""trial"",""time""
""fullscreenenter"",""1"",""3505""
","
","","","539","","","18","3040","2785","c","elianto","#3366ff99"," "," ","1","+10","[1393.5999999642372]","1","2","","","3040","117","5","1","win","go","0"
"pit-trial","191","1277633","0.0-122.0","battery-v0.2","","""event"",""trial"",""time""
""fullscreenenter"",""1"",""3505""
","
","
","""event"",""trial"",""time""
""fullscreenenter"",""1"",""3505""
","
","","","-1","","","18","3040","2785","f","elianto","#3366ff99","-1","-1","1","+10","[]","0","2","","","3040","118","8","2","win","no-go","0"
"pit-trial","192","1281675","0.0-123.0","battery-v0.2","","""event"",""trial"",""time""
""fullscreenenter"",""1"",""3505""
","
","
","""event"",""trial"",""time""
""fullscreenenter"",""1"",""3505""
","
","","","1187.6000000238419","","","18","3040","2785","n","elianto","#3366ff99","-1"," ","0","0","[2039]","1","2","","","3040","119","9","2","win","no-go","0"
"pit-trial","193","1286534","0.0-124.0","battery-v0.2","","""event"",""trial"",""time""
""fullscreenenter"",""1"",""3505""
","
","
","""event"",""trial"",""time""
""fullscreenenter"",""1"",""3505""
","
","","","-1","","","18","3040","2785","b","elianto","#f73b6a7A","-1","-1","1","0","[]","0","2","","","3040","120","6","4","lose","no-go","0"
"pit-trial","194","1290144","0.0-125.0","battery-v0.2","","""event"",""trial"",""time""
""fullscreenenter"",""1"",""3505""
","
","
","""event"",""trial"",""time""
""fullscreenenter"",""1"",""3505""
","
","","","750.1999999880791","","","18","3040","2785","c","elianto","#3366ff99"," "," ","1","+10","[1600.6000000238419]","1","2","","","3040","121","5","1","win","go","0"
"pit-trial","195","1295003","0.0-126.0","battery-v0.2","","""event"",""trial"",""time""
""fullscreenenter"",""1"",""3505""
","
","
","""event"",""trial"",""time""
""fullscreenenter"",""1"",""3505""
","
","","","-1","","","18","3040","2785","n","elianto","#3366ff99","-1","-1","1","+10","[]","0","2","","","3040","122","9","2","win","no-go","0"
"pit-trial","196","1299869","0.0-127.0","battery-v0.2","","""event"",""trial"",""time""
""fullscreenenter"",""1"",""3505""
","
","
","""event"",""trial"",""time""
""fullscreenenter"",""1"",""3505""
","
","","","-1","","","18","3040","2785","f","elianto","#3366ff99","-1","-1","1","0","[]","0","2","","","3040","123","8","2","win","no-go","1"
"pit-trial","197","1303901","0.0-128.0","battery-v0.2","","""event"",""trial"",""time""
""fullscreenenter"",""1"",""3505""
","
","
","""event"",""trial"",""time""
""fullscreenenter"",""1"",""3505""
","
","","","1172.6000000238419","","","18","3040","2785","t","elianto","#f73b6a7A"," "," ","1","0","[2025.5999999642372]","1","2","","","3040","124","7","3","lose","go","0"
"pit-trial","198","1308761","0.0-129.0","battery-v0.2","","""event"",""trial"",""time""
""fullscreenenter"",""1"",""3505""
","
","
","""event"",""trial"",""time""
""fullscreenenter"",""1"",""3505""
","
","","","-1","","","18","3040","2785","b","elianto","#f73b6a7A","-1","-1","1","0","[]","0","2","","","3040","125","6","4","lose","no-go","0"
"pit-trial","199","1313622","0.0-130.0","battery-v0.2","","""event"",""trial"",""time""
""fullscreenenter"",""1"",""3505""
","
","
","""event"",""trial"",""time""
""fullscreenenter"",""1"",""3505""
","
","","","-1","","","18","3040","2785","n","elianto","#3366ff99","-1","-1","1","+10","[]","0","2","","","3040","126","9","2","win","no-go","0"
"pit-trial","200","1318486","0.0-131.0","battery-v0.2","","""event"",""trial"",""time""
""fullscreenenter"",""1"",""3505""
","
","
","""event"",""trial"",""time""
""fullscreenenter"",""1"",""3505""
","
","","","-1","","","18","3040","2785","f","elianto","#3366ff99","-1","-1","1","0","[]","0","2","","","3040","127","8","2","win","no-go","1"
"pit-trial","201","1322685","0.0-132.0","battery-v0.2","","""event"",""trial"",""time""
""fullscreenenter"",""1"",""3505""
","
","
","""event"",""trial"",""time""
""fullscreenenter"",""1"",""3505""
","
","","","1337.3999999761581","","","18","3040","2785","t","elianto","#f73b6a7A"," "," ","1","-10","[2191.5]","1","2","","","3040","128","7","3","lose","go","1"
"pit-trial","202","1327546","0.0-133.0","battery-v0.2","","""event"",""trial"",""time""
""fullscreenenter"",""1"",""3505""
","
","
","""event"",""trial"",""time""
""fullscreenenter"",""1"",""3505""
","
","","","-1","","","18","3040","2785","n","elianto","#3366ff99","-1","-1","1","+10","[]","0","2","","","3040","129","9","2","win","no-go","0"
"pit-trial","203","1332180","0.0-134.0","battery-v0.2","","""event"",""trial"",""time""
""fullscreenenter"",""1"",""3505""
","
","
","""event"",""trial"",""time""
""fullscreenenter"",""1"",""3505""
","
","","","1773.1000000238419","","","18","3040","2785","f","elianto","#3366ff99","-1"," ","0","0","[2626.300000011921]","1","2","","","3040","130","8","2","win","no-go","0"
"pit-trial","204","1337041","0.0-135.0","battery-v0.2","","""event"",""trial"",""time""
""fullscreenenter"",""1"",""3505""
","
","
","""event"",""trial"",""time""
""fullscreenenter"",""1"",""3505""
","
","","","-1","","","18","3040","2785","t","elianto","#f73b6a7A"," ","-1","0","-10","[]","0","2","","","3040","131","7","3","lose","go","0"
"pit-trial","205","1341903","0.0-136.0","battery-v0.2","","""event"",""trial"",""time""
""fullscreenenter"",""1"",""3505""
","
","
","""event"",""trial"",""time""
""fullscreenenter"",""1"",""3505""
","
","","","-1","","","18","3040","2785","b","elianto","#f73b6a7A","-1","-1","1","0","[]","0","2","","","3040","132","6","4","lose","no-go","0"
"pit-trial","206","1346764","0.0-137.0","battery-v0.2","","""event"",""trial"",""time""
""fullscreenenter"",""1"",""3505""
","
","
","""event"",""trial"",""time""
""fullscreenenter"",""1"",""3505""
","
","","","-1","","","18","3040","2785","b","elianto","#f73b6a7A","-1","-1","1","0","[]","0","2","","","3040","133","6","4","lose","no-go","0"
"pit-trial","207","1350694","0.0-138.0","battery-v0.2","","""event"",""trial"",""time""
""fullscreenenter"",""1"",""3505""
","
","
","""event"",""trial"",""time""
""fullscreenenter"",""1"",""3505""
","
","","","1071.800000011921","","","18","3040","2785","t","elianto","#f73b6a7A"," "," ","1","-10","[1924.300000011921]","1","2","","","3040","134","7","3","lose","go","1"
"pit-trial","208","1355556","0.0-139.0","battery-v0.2","","""event"",""trial"",""time""
""fullscreenenter"",""1"",""3505""
","
","
","""event"",""trial"",""time""
""fullscreenenter"",""1"",""3505""
","
","","","-1","","","18","3040","2785","n","elianto","#3366ff99","-1","-1","1","+10","[]","0","2","","","3040","135","9","2","win","no-go","0"
"pit-trial","209","1360028","0.0-140.0","battery-v0.2","","""event"",""trial"",""time""
""fullscreenenter"",""1"",""3505""
","
","
","""event"",""trial"",""time""
""fullscreenenter"",""1"",""3505""
","
","","","1612","","","18","3040","2785","f","elianto","#3366ff99","-1"," ","0","0","[2462.800000011921]","1","2","","","3040","136","8","2","win","no-go","0"
"pit-trial","210","1364887","0.0-141.0","battery-v0.2","","""event"",""trial"",""time""
""fullscreenenter"",""1"",""3505""
","
","
","""event"",""trial"",""time""
""fullscreenenter"",""1"",""3505""
","
","","","-1","","","18","3040","2785","f","elianto","#3366ff99","-1","-1","1","+10","[]","0","2","","","3040","137","8","2","win","no-go","0"
"pit-trial","211","1369748","0.0-142.0","battery-v0.2","","""event"",""trial"",""time""
""fullscreenenter"",""1"",""3505""
","
","
","""event"",""trial"",""time""
""fullscreenenter"",""1"",""3505""
","
","","","-1","","","18","3040","2785","t","elianto","#f73b6a7A"," ","-1","0","-10","[]","0","2","","","3040","138","7","3","lose","go","0"
"pit-trial","212","1374607","0.0-143.0","battery-v0.2","","""event"",""trial"",""time""
""fullscreenenter"",""1"",""3505""
","
","
","""event"",""trial"",""time""
""fullscreenenter"",""1"",""3505""
","
","","","-1","","","18","3040","2785","b","elianto","#f73b6a7A","-1","-1","1","0","[]","0","2","","","3040","139","6","4","lose","no-go","0"
"pit-trial","213","1379471","0.0-144.0","battery-v0.2","","""event"",""trial"",""time""
""fullscreenenter"",""1"",""3505""
","
","
","""event"",""trial"",""time""
""fullscreenenter"",""1"",""3505""
","
","","","-1","","","18","3040","2785","n","elianto","#3366ff99","-1","-1","1","0","[]","0","2","","","3040","140","9","2","win","no-go","1"
"pit-instructions","214","1394634","0.0-145.0","battery-v0.2","","""event"",""trial"",""time""
""fullscreenenter"",""1"",""3505""
","
","
","""event"",""trial"",""time""
""fullscreenenter"",""1"",""3505""
","
","","[{""page_index"":0,""viewing_time"":6441.899999976158},{""page_index"":1,""viewing_time"":8717.800000011921}]","15160.199999988079","","","","","","","","","","","","","","","","","","","","","","","",""
"pit-trial","215","1399502","0.0-146.0","battery-v0.2","","""event"",""trial"",""time""
""fullscreenenter"",""1"",""3505""
","
","
","""event"",""trial"",""time""
""fullscreenenter"",""1"",""3505""
","
","","","-1","","","18","3040","2785","l","elianto","#3366ff99","-1","-1","1","+10","[]","0","3","","","3040","141","1","2","win","no-go","0"
"pit-trial","216","1404366","0.0-147.0","battery-v0.2","","""event"",""trial"",""time""
""fullscreenenter"",""1"",""3505""
","
","
","""event"",""trial"",""time""
""fullscreenenter"",""1"",""3505""
","
","","","-1","","","18","3040","2785","g","elianto","#f73b6a7A","-1","-1","1","0","[]","0","3","","","3040","142","3","4","lose","no-go","0"
"pit-trial","217","1409229","0.0-148.0","battery-v0.2","","""event"",""trial"",""time""
""fullscreenenter"",""1"",""3505""
","
","
","""event"",""trial"",""time""
""fullscreenenter"",""1"",""3505""
","
","","","-1","","","18","3040","2785","u","elianto","#f73b6a7A"," ","-1","0","-10","[]","0","3","","","3040","143","0","3","lose","go","0"
"pit-trial","218","1414088","0.0-149.0","battery-v0.2","","""event"",""trial"",""time""
""fullscreenenter"",""1"",""3505""
","
","
","""event"",""trial"",""time""
""fullscreenenter"",""1"",""3505""
","
","","","-1","","","18","3040","2785","a","elianto","#f73b6a7A"," ","-1","0","-10","[3031.5]","1","3","","","3040","144","2","3","lose","go","0"
"pit-trial","219","1418947","0.0-150.0","battery-v0.2","","""event"",""trial"",""time""
""fullscreenenter"",""1"",""3505""
","
","
","""event"",""trial"",""time""
""fullscreenenter"",""1"",""3505""
","
","","","-1","","","18","3040","2785","g","elianto","#f73b6a7A","-1","-1","1","0","[]","0","3","","","3040","145","3","4","lose","no-go","0"
"pit-trial","220","1423709","0.0-151.0","battery-v0.2","","""event"",""trial"",""time""
""fullscreenenter"",""1"",""3505""
","
","
","""event"",""trial"",""time""
""fullscreenenter"",""1"",""3505""
","
","","","1904.300000011921","","","18","3040","2785","a","elianto","#f73b6a7A"," "," ","1","0","[2754.5]","1","3","","","3040","146","2","3","lose","go","0"
"pit-trial","221","1428515","0.0-152.0","battery-v0.2","","""event"",""trial"",""time""
""fullscreenenter"",""1"",""3505""
","
","
","""event"",""trial"",""time""
""fullscreenenter"",""1"",""3505""
","
","","","1947.1000000238419","","","18","3040","2785","l","elianto","#3366ff99","-1"," ","0","0","[2798.199999988079]","1","3","","","3040","147","1","2","win","no-go","0"
"pit-trial","222","1433128","0.0-153.0","battery-v0.2","","""event"",""trial"",""time""
""fullscreenenter"",""1"",""3505""
","
","
","""event"",""trial"",""time""
""fullscreenenter"",""1"",""3505""
","
","","","1752.800000011921","","","18","3040","2785","u","elianto","#f73b6a7A"," "," ","1","0","[2607.600000023842]","1","3","","","3040","148","0","3","lose","go","0"
"pit-trial","223","1437322","0.0-154.0","battery-v0.2","","""event"",""trial"",""time""
""fullscreenenter"",""1"",""3505""
","
","
","""event"",""trial"",""time""
""fullscreenenter"",""1"",""3505""
","
","","","1339.5","","","18","3040","2785","g","elianto","#f73b6a7A","-1"," ","0","-10","[2189.800000011921]","1","3","","","3040","149","3","4","lose","no-go","0"
"pit-trial","224","1442184","0.0-155.0","battery-v0.2","","""event"",""trial"",""time""
""fullscreenenter"",""1"",""3505""
","
","
","""event"",""trial"",""time""
""fullscreenenter"",""1"",""3505""
","
","","","-1","","","18","3040","2785","l","elianto","#3366ff99","-1","-1","1","+10","[]","0","3","","","3040","150","1","2","win","no-go","0"
"pit-trial","225","1446490","0.0-156.0","battery-v0.2","","""event"",""trial"",""time""
""fullscreenenter"",""1"",""3505""
","
","
","""event"",""trial"",""time""
""fullscreenenter"",""1"",""3505""
","
","","","1446.6000000238419","","","18","3040","2785","u","elianto","#f73b6a7A"," "," ","1","0","[2298.699999988079]","1","3","","","3040","151","0","3","lose","go","0"
"pit-trial","226","1450317","0.0-157.0","battery-v0.2","","""event"",""trial"",""time""
""fullscreenenter"",""1"",""3505""
","
","
","""event"",""trial"",""time""
""fullscreenenter"",""1"",""3505""
","
","","","970.8999999761581","","","18","3040","2785","a","elianto","#f73b6a7A"," "," ","1","-10","[1822.699999988079]","1","3","","","3040","152","2","3","lose","go","1"
"pit-trial","227","1453945","0.0-158.0","battery-v0.2","","""event"",""trial"",""time""
""fullscreenenter"",""1"",""3505""
","
","
","""event"",""trial"",""time""
""fullscreenenter"",""1"",""3505""
","
","","","765.5999999642372","","","18","3040","2785","u","elianto","#f73b6a7A"," "," ","1","0","[1620.800000011921]","1","3","","","3040","153","0","3","lose","go","0"
"pit-trial","228","1457381","0.0-159.0","battery-v0.2","","""event"",""trial"",""time""
""fullscreenenter"",""1"",""3505""
","
","
","""event"",""trial"",""time""
""fullscreenenter"",""1"",""3505""
","
","","","574.6999999880791","","","18","3040","2785","a","elianto","#f73b6a7A"," "," ","1","0","[1428.1000000238419]","1","3","","","3040","154","2","3","lose","go","0"
"pit-trial","229","1460982","0.0-160.0","battery-v0.2","","""event"",""trial"",""time""
""fullscreenenter"",""1"",""3505""
","
","
","""event"",""trial"",""time""
""fullscreenenter"",""1"",""3505""
","
","","","741.8000000119209","","","18","3040","2785","l","elianto","#3366ff99","-1"," ","0","0","[1593.6000000238419]","1","3","","","3040","155","1","2","win","no-go","0"
"pit-trial","230","1465839","0.0-161.0","battery-v0.2","","""event"",""trial"",""time""
""fullscreenenter"",""1"",""3505""
","
","
","""event"",""trial"",""time""
""fullscreenenter"",""1"",""3505""
","
","","","-1","","","18","3040","2785","g","elianto","#f73b6a7A","-1","-1","1","0","[]","0","3","","","3040","156","3","4","lose","no-go","0"
"pit-trial","231","1470700","0.0-162.0","battery-v0.2","","""event"",""trial"",""time""
""fullscreenenter"",""1"",""3505""
","
","
","""event"",""trial"",""time""
""fullscreenenter"",""1"",""3505""
","
","","","-1","","","18","3040","2785","l","elianto","#3366ff99","-1","-1","1","+10","[]","0","3","","","3040","157","1","2","win","no-go","0"
"pit-trial","232","1475564","0.0-163.0","battery-v0.2","","""event"",""trial"",""time""
""fullscreenenter"",""1"",""3505""
","
","
","""event"",""trial"",""time""
""fullscreenenter"",""1"",""3505""
","
","","","-1","","","18","3040","2785","g","elianto","#f73b6a7A","-1","-1","1","0","[]","0","3","","","3040","158","3","4","lose","no-go","0"
"pit-trial","233","1479649","0.0-164.0","battery-v0.2","","""event"",""trial"",""time""
""fullscreenenter"",""1"",""3505""
","
","
","""event"",""trial"",""time""
""fullscreenenter"",""1"",""3505""
","
","","","1224.699999988079","","","18","3040","2785","a","elianto","#f73b6a7A"," "," ","1","0","[2079.699999988079]","1","3","","","3040","159","2","3","lose","go","0"
"pit-trial","234","1483057","0.0-165.0","battery-v0.2","","""event"",""trial"",""time""
""fullscreenenter"",""1"",""3505""
","
","
","""event"",""trial"",""time""
""fullscreenenter"",""1"",""3505""
","
","","","548","","","18","3040","2785","u","elianto","#f73b6a7A"," "," ","1","0","[1401.1000000238419]","1","3","","","3040","160","0","3","lose","go","0"
"pit-trial","235","1487921","0.0-166.0","battery-v0.2","","""event"",""trial"",""time""
""fullscreenenter"",""1"",""3505""
","
","
","""event"",""trial"",""time""
""fullscreenenter"",""1"",""3505""
","
","","","-1","","","18","3040","2785","l","elianto","#3366ff99","-1","-1","1","+10","[]","0","3","","","3040","161","1","2","win","no-go","0"
"pit-trial","236","1491740","0.0-167.0","battery-v0.2","","""event"",""trial"",""time""
""fullscreenenter"",""1"",""3505""
","
","
","""event"",""trial"",""time""
""fullscreenenter"",""1"",""3505""
","
","","","957.1000000238419","","","18","3040","2785","a","elianto","#f73b6a7A"," "," ","1","0","[1812.1000000238419]","1","3","","","3040","162","2","3","lose","go","0"
"pit-trial","237","1496606","0.0-168.0","battery-v0.2","","""event"",""trial"",""time""
""fullscreenenter"",""1"",""3505""
","
","
","""event"",""trial"",""time""
""fullscreenenter"",""1"",""3505""
","
","","","-1","","","18","3040","2785","g","elianto","#f73b6a7A","-1","-1","1","0","[]","0","3","","","3040","163","3","4","lose","no-go","0"
"pit-trial","238","1501260","0.0-169.0","battery-v0.2","","""event"",""trial"",""time""
""fullscreenenter"",""1"",""3505""
","
","
","""event"",""trial"",""time""
""fullscreenenter"",""1"",""3505""
","
","","","1797.0999999642372","","","18","3040","2785","u","elianto","#f73b6a7A"," "," ","1","-10","[2648.300000011921]","1","3","","","3040","164","0","3","lose","go","1"
"pit-trial","239","1506124","0.0-170.0","battery-v0.2","","""event"",""trial"",""time""
""fullscreenenter"",""1"",""3505""
","
","
","""event"",""trial"",""time""
""fullscreenenter"",""1"",""3505""
","
","","","-1","","","18","3040","2785","l","elianto","#3366ff99","-1","-1","1","0","[]","0","3","","","3040","165","1","2","win","no-go","1"
"pit-trial","240","1510983","0.0-171.0","battery-v0.2","","""event"",""trial"",""time""
""fullscreenenter"",""1"",""3505""
","
","
","""event"",""trial"",""time""
""fullscreenenter"",""1"",""3505""
","
","","","-1","","","18","3040","2785","g","elianto","#f73b6a7A","-1","-1","1","0","[]","0","3","","","3040","166","3","4","lose","no-go","0"
"pit-trial","241","1514789","0.0-172.0","battery-v0.2","","""event"",""trial"",""time""
""fullscreenenter"",""1"",""3505""
","
","
","""event"",""trial"",""time""
""fullscreenenter"",""1"",""3505""
","
","","","947","","","18","3040","2785","a","elianto","#f73b6a7A"," "," ","1","0","[1797.8999999761581]","1","3","","","3040","167","2","3","lose","go","0"
"pit-trial","242","1518512","0.0-173.0","battery-v0.2","","""event"",""trial"",""time""
""fullscreenenter"",""1"",""3505""
","
","
","""event"",""trial"",""time""
""fullscreenenter"",""1"",""3505""
","
","","","863.8000000119209","","","18","3040","2785","u","elianto","#f73b6a7A"," "," ","1","0","[1715.199999988079]","1","3","","","3040","168","0","3","lose","go","0"
"pit-trial","243","1523370","0.0-174.0","battery-v0.2","","""event"",""trial"",""time""
""fullscreenenter"",""1"",""3505""
","
","
","""event"",""trial"",""time""
""fullscreenenter"",""1"",""3505""
","
","","","-1","","","18","3040","2785","g","elianto","#f73b6a7A","-1","-1","1","0","[]","0","3","","","3040","169","3","4","lose","no-go","0"
"pit-trial","244","1528226","0.0-175.0","battery-v0.2","","""event"",""trial"",""time""
""fullscreenenter"",""1"",""3505""
","
","
","""event"",""trial"",""time""
""fullscreenenter"",""1"",""3505""
","
","","","-1","","","18","3040","2785","l","elianto","#3366ff99","-1","-1","1","+10","[]","0","3","","","3040","170","1","2","win","no-go","0"
"pit-trial","245","1532057","0.0-176.0","battery-v0.2","","""event"",""trial"",""time""
""fullscreenenter"",""1"",""3505""
","
","
","""event"",""trial"",""time""
""fullscreenenter"",""1"",""3505""
","
","","","969.1999999880791","","","18","3040","2785","u","elianto","#f73b6a7A"," "," ","1","0","[1822.199999988079]","1","3","","","3040","171","0","3","lose","go","0"
"pit-trial","246","1535525","0.0-177.0","battery-v0.2","","""event"",""trial"",""time""
""fullscreenenter"",""1"",""3505""
","
","
","""event"",""trial"",""time""
""fullscreenenter"",""1"",""3505""
","
","","","607.3000000119209","","","18","3040","2785","a","elianto","#f73b6a7A"," "," ","1","0","[1460.8999999761581]","1","3","","","3040","172","2","3","lose","go","0"
"pit-trial","247","1539212","0.0-178.0","battery-v0.2","","""event"",""trial"",""time""
""fullscreenenter"",""1"",""3505""
","
","
","""event"",""trial"",""time""
""fullscreenenter"",""1"",""3505""
","
","","","825.5","","","18","3040","2785","u","elianto","#f73b6a7A"," "," ","1","0","[1680.2999999523163]","1","3","","","3040","173","0","3","lose","go","0"
"pit-trial","248","1542689","0.0-179.0","battery-v0.2","","""event"",""trial"",""time""
""fullscreenenter"",""1"",""3505""
","
","
","""event"",""trial"",""time""
""fullscreenenter"",""1"",""3505""
","
","","","620.1000000238419","","","18","3040","2785","a","elianto","#f73b6a7A"," "," ","1","-10","[1471.5999999642372]","1","3","","","3040","174","2","3","lose","go","1"
"pit-trial","249","1547552","0.0-180.0","battery-v0.2","","""event"",""trial"",""time""
""fullscreenenter"",""1"",""3505""
","
","
","""event"",""trial"",""time""
""fullscreenenter"",""1"",""3505""
","
","","","-1","","","18","3040","2785","l","elianto","#3366ff99","-1","-1","1","+10","[]","0","3","","","3040","175","1","2","win","no-go","0"
"pit-trial","250","1552412","0.0-181.0","battery-v0.2","","""event"",""trial"",""time""
""fullscreenenter"",""1"",""3505""
","
","
","""event"",""trial"",""time""
""fullscreenenter"",""1"",""3505""
","
","","","-1","","","18","3040","2785","g","elianto","#f73b6a7A","-1","-1","1","0","[]","0","3","","","3040","176","3","4","lose","no-go","0"
"pit-trial","251","1556436","0.0-182.0","battery-v0.2","","""event"",""trial"",""time""
""fullscreenenter"",""1"",""3505""
","
","
","""event"",""trial"",""time""
""fullscreenenter"",""1"",""3505""
","
","","","1166.3999999761581","","","18","3040","2785","a","elianto","#f73b6a7A"," "," ","1","-10","[2019.5]","1","3","","","3040","177","2","3","lose","go","1"
"pit-trial","252","1561009","0.0-183.0","battery-v0.2","","""event"",""trial"",""time""
""fullscreenenter"",""1"",""3505""
","
","
","""event"",""trial"",""time""
""fullscreenenter"",""1"",""3505""
","
","","","1710.800000011921","","","18","3040","2785","u","elianto","#f73b6a7A"," "," ","1","0","[2564.599999964237]","1","3","","","3040","178","0","3","lose","go","0"
"pit-trial","253","1565868","0.0-184.0","battery-v0.2","","""event"",""trial"",""time""
""fullscreenenter"",""1"",""3505""
","
","
","""event"",""trial"",""time""
""fullscreenenter"",""1"",""3505""
","
","","","-1","","","18","3040","2785","p","elianto","#3366ff99"," ","-1","0","0","[]","0","3","","","3040","179","4","1","win","go","0"
"pit-trial","254","1570730","0.0-185.0","battery-v0.2","","""event"",""trial"",""time""
""fullscreenenter"",""1"",""3505""
","
","
","""event"",""trial"",""time""
""fullscreenenter"",""1"",""3505""
","
","","","-1","","","18","3040","2785","g","elianto","#f73b6a7A","-1","-1","1","0","[]","0","3","","","3040","180","3","4","lose","no-go","0"
"pit-trial","255","1575594","0.0-186.0","battery-v0.2","","""event"",""trial"",""time""
""fullscreenenter"",""1"",""3505""
","
","
","""event"",""trial"",""time""
""fullscreenenter"",""1"",""3505""
","
","","","-1","","","18","3040","2785","l","elianto","#3366ff99","-1","-1","1","+10","[]","0","3","","","3040","181","1","2","win","no-go","0"
"pit-trial","256","1579386","0.0-187.0","battery-v0.2","","""event"",""trial"",""time""
""fullscreenenter"",""1"",""3505""
","
","
","""event"",""trial"",""time""
""fullscreenenter"",""1"",""3505""
","
","","","929.3000000119209","","","18","3040","2785","a","elianto","#f73b6a7A"," "," ","1","-10","[1784.1000000238419]","1","3","","","3040","182","2","3","lose","go","1"
"pit-trial","257","1584249","0.0-188.0","battery-v0.2","","""event"",""trial"",""time""
""fullscreenenter"",""1"",""3505""
","
","
","""event"",""trial"",""time""
""fullscreenenter"",""1"",""3505""
","
","","","-1","","","18","3040","2785","g","elianto","#f73b6a7A","-1","-1","1","0","[]","0","3","","","3040","183","3","4","lose","no-go","0"
"pit-trial","258","1588753","0.0-189.0","battery-v0.2","","""event"",""trial"",""time""
""fullscreenenter"",""1"",""3505""
","
","
","""event"",""trial"",""time""
""fullscreenenter"",""1"",""3505""
","
","","","1642.800000011921","","","18","3040","2785","p","elianto","#3366ff99"," "," ","1","+10","[2497.399999976158]","1","3","","","3040","184","4","1","win","go","0"
"pit-trial","259","1593615","0.0-190.0","battery-v0.2","","""event"",""trial"",""time""
""fullscreenenter"",""1"",""3505""
","
","
","""event"",""trial"",""time""
""fullscreenenter"",""1"",""3505""
","
","","","-1","","","18","3040","2785","g","elianto","#f73b6a7A","-1","-1","1","0","[]","0","3","","","3040","185","3","4","lose","no-go","0"
"pit-trial","260","1597668","0.0-191.0","battery-v0.2","","""event"",""trial"",""time""
""fullscreenenter"",""1"",""3505""
","
","
","""event"",""trial"",""time""
""fullscreenenter"",""1"",""3505""
","
","","","1192.0999999642372","","","18","3040","2785","p","elianto","#3366ff99"," "," ","1","0","[2046.699999988079]","1","3","","","3040","186","4","1","win","go","1"
"pit-trial","261","1602526","0.0-192.0","battery-v0.2","","""event"",""trial"",""time""
""fullscreenenter"",""1"",""3505""
","
","
","""event"",""trial"",""time""
""fullscreenenter"",""1"",""3505""
","
","","","-1","","","18","3040","2785","l","elianto","#3366ff99","-1","-1","1","+10","[]","0","3","","","3040","187","1","2","win","no-go","0"
"pit-trial","262","1607049","0.0-193.0","battery-v0.2","","""event"",""trial"",""time""
""fullscreenenter"",""1"",""3505""
","
","
","""event"",""trial"",""time""
""fullscreenenter"",""1"",""3505""
","
","","","1662.1000000238419","","","18","3040","2785","s","elianto","#3366ff99","-1"," ","0","0","[2516.099999964237]","1","3","","","3040","188","5","2","win","no-go","0"
"pit-trial","263","1611907","0.0-194.0","battery-v0.2","","""event"",""trial"",""time""
""fullscreenenter"",""1"",""3505""
","
","
","""event"",""trial"",""time""
""fullscreenenter"",""1"",""3505""
","
","","","-1","","","18","3040","2785","l","elianto","#3366ff99","-1","-1","1","+10","[]","0","3","","","3040","189","1","2","win","no-go","0"
"pit-trial","264","1615814","0.0-195.0","battery-v0.2","","""event"",""trial"",""time""
""fullscreenenter"",""1"",""3505""
","
","
","""event"",""trial"",""time""
""fullscreenenter"",""1"",""3505""
","
","","","1047.2999999523163","","","18","3040","2785","a","elianto","#f73b6a7A"," "," ","1","0","[1899.9000000357628]","1","3","","","3040","190","2","3","lose","go","0"
"pit-trial","265","1619783","0.0-196.0","battery-v0.2","","""event"",""trial"",""time""
""fullscreenenter"",""1"",""3505""
","
","
","""event"",""trial"",""time""
""fullscreenenter"",""1"",""3505""
","
","","","1108","","","18","3040","2785","s","elianto","#3366ff99","-1"," ","0","+10","[1961.0999999642372]","1","3","","","3040","191","5","2","win","no-go","1"
"pit-trial","266","1624643","0.0-197.0","battery-v0.2","","""event"",""trial"",""time""
""fullscreenenter"",""1"",""3505""
","
","
","""event"",""trial"",""time""
""fullscreenenter"",""1"",""3505""
","
","","","-1","","","18","3040","2785","p","elianto","#3366ff99"," ","-1","0","0","[3079.599999964237]","1","3","","","3040","192","4","1","win","go","0"
"pit-trial","267","1628061","0.0-198.0","battery-v0.2","","""event"",""trial"",""time""
""fullscreenenter"",""1"",""3505""
","
","
","""event"",""trial"",""time""
