"trial_type","trial_index","time_elapsed","internal_node_id","task_version","subject_id","interactions","blur_events","focus_events","fullscreenenter_events","fullscreenexit_events","success","view_history","rt","responses","num_errors","age","subject","participantId","rune","rune_set","hex","correct","choice","accuracy","outcome","keys","total_keys","block","practice","value","sub","trial","stimulus","robot","valence","action","sham"
"pavlovia","0","9","0.0-0.0","battery-v0.2","","""event"",""trial"",""time""
""fullscreenenter"",""1"",""40976""
","
","
","""event"",""trial"",""time""
""fullscreenenter"",""1"",""40976""
","
","","","","","","","","","","","","","","","","","","","","","","","","","","",""
"fullscreen","1","41967","0.0-1.0","battery-v0.2","","""event"",""trial"",""time""
""fullscreenenter"",""1"",""40976""
","
","
","""event"",""trial"",""time""
""fullscreenenter"",""1"",""40976""
","
","true","","","","","","","","","","","","","","","","","","","","","","","","","",""
"pit-instructions","2","50634","0.0-2.0-0.0","battery-v0.2","","""event"",""trial"",""time""
""fullscreenenter"",""1"",""40976""
","
","
","""event"",""trial"",""time""
""fullscreenenter"",""1"",""40976""
","
","","[{""page_index"":0,""viewing_time"":8658.399999976158}]","8660.799999982119","","","","","","","","","","","","","","","","","","","","","","","",""
"pit-comprehension","3","55984","0.0-2.0-1.0-0.0","battery-v0.2","","""event"",""trial"",""time""
""fullscreenenter"",""1"",""40976""
","
","
","""event"",""trial"",""time""
""fullscreenenter"",""1"",""40976""
","
","","","5345","[""shark""]","0","10","4133","147","","","","","","","","","","","","","","","","","","",""
"pit-instructions","4","60315","0.0-2.0-1.0-1.0","battery-v0.2","","""event"",""trial"",""time""
""fullscreenenter"",""1"",""40976""
","
","
","""event"",""trial"",""time""
""fullscreenenter"",""1"",""40976""
","
","","[{""page_index"":0,""viewing_time"":4319.0999999940395}]","4319.699999988079","","","","","","","","","","","","","","","","","","","","","","","",""
"pit-comprehension","5","67700","0.0-2.0-2.0-0.0","battery-v0.2","","""event"",""trial"",""time""
""fullscreenenter"",""1"",""40976""
","
","
","""event"",""trial"",""time""
""fullscreenenter"",""1"",""40976""
","
","","","7378.4000000059605","[""tiger""]","0","10","4133","147","","","","","","","","","","","","","","","","","","",""
"pit-instructions","6","69563","0.0-2.0-2.0-1.0","battery-v0.2","","""event"",""trial"",""time""
""fullscreenenter"",""1"",""40976""
","
","
","""event"",""trial"",""time""
""fullscreenenter"",""1"",""40976""
","
","","[{""page_index"":0,""viewing_time"":1857}]","1857.199999988079","","","","","","","","","","","","","","","","","","","","","","","",""
"pit-instructions","7","262031","0.0-2.0-3.0","battery-v0.2","","""event"",""trial"",""time""
""fullscreenenter"",""1"",""40976""
","
","
","""event"",""trial"",""time""
""fullscreenenter"",""1"",""40976""
","
","","[{""page_index"":0,""viewing_time"":11316.300000011921},{""page_index"":1,""viewing_time"":21400.90000000596},{""page_index"":2,""viewing_time"":7917.299999982119},{""page_index"":3,""viewing_time"":5416.9000000059605},{""page_index"":4,""viewing_time"":7217},{""page_index"":5,""viewing_time"":6266.4000000059605},{""page_index"":6,""viewing_time"":6984.199999988079},{""page_index"":7,""viewing_time"":11017},{""page_index"":8,""viewing_time"":69586.80000001192},{""page_index"":9,""viewing_time"":17266.90000000596},{""page_index"":10,""viewing_time"":8650.399999976158},{""page_index"":11,""viewing_time"":6717.200000017881},{""page_index"":12,""viewing_time"":6950.4000000059605},{""page_index"":13,""viewing_time"":5766.799999982119}]","192475.70000001788","","","","","","","","","","","","","","","","","","","","","","","",""
"pit-trial","8","265518","0.0-2.0-4.0-0.0","battery-v0.2","","""event"",""trial"",""time""
""fullscreenenter"",""1"",""40976""
","
","
","""event"",""trial"",""time""
""fullscreenenter"",""1"",""40976""
","
","","","630","","","10","4133","147","&#9784;","elianto","#FFFFF080"," "," ","1","&#10004","[1480.300000011921]","1","0","0","","","","","","","",""
"pit-trial","9","269150","0.0-2.0-4.1-0.1","battery-v0.2","","""event"",""trial"",""time""
""fullscreenenter"",""1"",""40976""
","
","
","""event"",""trial"",""time""
""fullscreenenter"",""1"",""40976""
","
","","","772.8000000119209","","","10","4133","147","&#9784;","elianto","#FFFFF080"," "," ","1","&#10004","[1623.199999988079]","1","0","0","","","","","","","",""
"pit-trial","10","272756","0.0-2.0-4.2-0.2","battery-v0.2","","""event"",""trial"",""time""
""fullscreenenter"",""1"",""40976""
","
","
","""event"",""trial"",""time""
""fullscreenenter"",""1"",""40976""
","
","","","744.4000000059605","","","10","4133","147","&#9784;","elianto","#FFFFF080"," "," ","1","&#10004","[1596.4000000059605]","1","0","0","","","","","","","",""
"pit-trial","11","275892","0.0-2.0-4.3-0.3","battery-v0.2","","""event"",""trial"",""time""
""fullscreenenter"",""1"",""40976""
","
","
","""event"",""trial"",""time""
""fullscreenenter"",""1"",""40976""
","
","","","276.80000001192093","","","10","4133","147","&#9784;","elianto","#FFFFF080"," "," ","1","&#10004","[1126.5999999940395]","1","0","0","","","","","","","",""
"pit-trial","12","279602","0.0-2.0-4.4-0.4","battery-v0.2","","""event"",""trial"",""time""
""fullscreenenter"",""1"",""40976""
","
","
","""event"",""trial"",""time""
""fullscreenenter"",""1"",""40976""
","
","","","853.6999999880791","","","10","4133","147","&#9784;","elianto","#FFFFF080"," "," ","1","&#10004","[1704.300000011921]","1","0","0","","","","","","","",""
"pit-instructions","13","334430","0.0-2.0-5.0","battery-v0.2","","""event"",""trial"",""time""
""fullscreenenter"",""1"",""40976""
","
","
","""event"",""trial"",""time""
""fullscreenenter"",""1"",""40976""
","
","","[{""page_index"":0,""viewing_time"":4905.5999999940395},{""page_index"":1,""viewing_time"":4367.300000011921},{""page_index"":0,""viewing_time"":9799.199999988079},{""page_index"":1,""viewing_time"":6118.199999988079},{""page_index"":2,""viewing_time"":22783.80000001192},{""page_index"":3,""viewing_time"":6850.4000000059605}]","54825.59999999404","","","","","","","","","","","","","","","","","","","","","","","",""
"pit-trial","14","339290","0.0-2.0-6.0-0.0","battery-v0.2","","""event"",""trial"",""time""
""fullscreenenter"",""1"",""40976""
","
","
","""event"",""trial"",""time""
""fullscreenenter"",""1"",""40976""
","
","","","-1","","","10","4133","147","&#9854;","elianto","#FFFFF080","-1","-1","1","&#10004","[]","0","0","1","","","","","","","",""
"pit-trial","15","344152","0.0-2.0-6.1-0.1","battery-v0.2","","""event"",""trial"",""time""
""fullscreenenter"",""1"",""40976""
","
","
","""event"",""trial"",""time""
""fullscreenenter"",""1"",""40976""
","
","","","-1","","","10","4133","147","&#9854;","elianto","#FFFFF080","-1","-1","1","&#10004","[]","0","0","1","","","","","","","",""
"pit-trial","16","349013","0.0-2.0-6.2-0.2","battery-v0.2","","""event"",""trial"",""time""
""fullscreenenter"",""1"",""40976""
","
","
","""event"",""trial"",""time""
""fullscreenenter"",""1"",""40976""
","
","","","-1","","","10","4133","147","&#9854;","elianto","#FFFFF080","-1","-1","1","&#10004","[]","0","0","1","","","","","","","",""
"pit-trial","17","353873","0.0-2.0-6.3-0.3","battery-v0.2","","""event"",""trial"",""time""
""fullscreenenter"",""1"",""40976""
","
","
","""event"",""trial"",""time""
""fullscreenenter"",""1"",""40976""
","
","","","-1","","","10","4133","147","&#9854;","elianto","#FFFFF080","-1","-1","1","&#10004","[]","0","0","1","","","","","","","",""
"pit-trial","18","358735","0.0-2.0-6.4-0.4","battery-v0.2","","""event"",""trial"",""time""
""fullscreenenter"",""1"",""40976""
","
","
","""event"",""trial"",""time""
""fullscreenenter"",""1"",""40976""
","
","","","-1","","","10","4133","147","&#9854;","elianto","#FFFFF080","-1","-1","1","&#10004","[]","0","0","1","","","","","","","",""
"pit-instructions","19","547876","0.0-2.0-7.0","battery-v0.2","","""event"",""trial"",""time""
""fullscreenenter"",""1"",""40976""
","
","
","""event"",""trial"",""time""
""fullscreenenter"",""1"",""40976""
","
","","[{""page_index"":0,""viewing_time"":5671.4000000059605},{""page_index"":1,""viewing_time"":7651},{""page_index"":2,""viewing_time"":6503.5999999940395},{""page_index"":3,""viewing_time"":6696.100000023842},{""page_index"":4,""viewing_time"":5200.5999999940395},{""page_index"":5,""viewing_time"":5517.0999999940395},{""page_index"":6,""viewing_time"":4650.5},{""page_index"":7,""viewing_time"":8732.90000000596},{""page_index"":8,""viewing_time"":32051.79999998212},{""page_index"":9,""viewing_time"":7152.800000011921},{""page_index"":10,""viewing_time"":6631},{""page_index"":11,""viewing_time"":47701.90000000596},{""page_index"":12,""viewing_time"":7500.9000000059605},{""page_index"":13,""viewing_time"":6483.899999976158},{""page_index"":14,""viewing_time"":8150.4000000059605},{""page_index"":15,""viewing_time"":7300.300000011921},{""page_index"":16,""viewing_time"":7950.5999999940395},{""page_index"":17,""viewing_time"":7598.9000000059605}]","189146.10000002384","","","","","","","","","","","","","","","","","","","","","","","",""
"pit-trial","20","551740","0.0-2.0-8.0-0.0","battery-v0.2","","""event"",""trial"",""time""
""fullscreenenter"",""1"",""40976""
","
","
","""event"",""trial"",""time""
""fullscreenenter"",""1"",""40976""
","
","","","1007.2000000178814","","","10","4133","147","&#9776;","elianto","#3366ff99"," "," ","1","+10","[1858.4000000059605]","1","0","1","","","","","","","",""
"pit-trial","21","555230","0.0-2.0-8.0-1.0","battery-v0.2","","""event"",""trial"",""time""
""fullscreenenter"",""1"",""40976""
","
","
","""event"",""trial"",""time""
""fullscreenenter"",""1"",""40976""
","
","","","634.3000000119209","","","10","4133","147","&#9776;","elianto","#3366ff99"," "," ","1","+10","[1484.7000000178814]","1","0","1","","","","","","","",""
"pit-trial","22","558798","0.0-2.0-8.0-2.0","battery-v0.2","","""event"",""trial"",""time""
""fullscreenenter"",""1"",""40976""
","
","
","""event"",""trial"",""time""
""fullscreenenter"",""1"",""40976""
","
","","","710.5","","","10","4133","147","&#9776;","elianto","#3366ff99"," "," ","1","+10","[1561.1000000238419]","1","0","1","","","","","","","",""
"pit-trial","23","562330","0.0-2.0-8.0-3.0","battery-v0.2","","""event"",""trial"",""time""
""fullscreenenter"",""1"",""40976""
","
","
","""event"",""trial"",""time""
""fullscreenenter"",""1"",""40976""
","
","","","672.5","","","10","4133","147","&#9776;","elianto","#3366ff99"," "," ","1","0","[1524.7999999821186]","1","0","1","","","","","","","",""
"pit-trial","24","565889","0.0-2.0-8.0-4.0","battery-v0.2","","""event"",""trial"",""time""
""fullscreenenter"",""1"",""40976""
","
","
","""event"",""trial"",""time""
""fullscreenenter"",""1"",""40976""
","
","","","702.0999999940395","","","10","4133","147","&#9776;","elianto","#3366ff99"," "," ","1","+10","[1554.300000011921]","1","0","1","","","","","","","",""
"pit-trial","25","569665","0.0-2.0-8.1-0.1","battery-v0.2","","""event"",""trial"",""time""
""fullscreenenter"",""1"",""40976""
","
","
","""event"",""trial"",""time""
""fullscreenenter"",""1"",""40976""
","
","","","919.8000000119209","","","10","4133","147","&#9776;","elianto","#3366ff99"," "," ","1","+10","[1770.300000011921]","1","0","1","","","","","","","",""
"pit-trial","26","574105","0.0-2.0-8.1-1.1","battery-v0.2","","""event"",""trial"",""time""
""fullscreenenter"",""1"",""40976""
","
","
","""event"",""trial"",""time""
""fullscreenenter"",""1"",""40976""
","
","","","1579.5","","","10","4133","147","&#9776;","elianto","#3366ff99"," "," ","1","+10","[2431.300000011921]","1","0","1","","","","","","","",""
"pit-trial","27","577683","0.0-2.0-8.1-2.1","battery-v0.2","","""event"",""trial"",""time""
""fullscreenenter"",""1"",""40976""
","
","
","""event"",""trial"",""time""
""fullscreenenter"",""1"",""40976""
","
","","","720.4000000059605","","","10","4133","147","&#9776;","elianto","#3366ff99"," "," ","1","+10","[1571]","1","0","1","","","","","","","",""
"pit-trial","28","581028","0.0-2.0-8.1-3.1","battery-v0.2","","""event"",""trial"",""time""
""fullscreenenter"",""1"",""40976""
","
","
","""event"",""trial"",""time""
""fullscreenenter"",""1"",""40976""
","
","","","486.10000002384186","","","10","4133","147","&#9776;","elianto","#3366ff99"," "," ","1","0","[1337.1000000238419]","1","0","1","","","","","","","",""
"pit-trial","29","584333","0.0-2.0-8.1-4.1","battery-v0.2","","""event"",""trial"",""time""
""fullscreenenter"",""1"",""40976""
","
","
","""event"",""trial"",""time""
""fullscreenenter"",""1"",""40976""
","
","","","444.19999998807907","","","10","4133","147","&#9776;","elianto","#3366ff99"," "," ","1","+10","[1296.5999999940395]","1","0","1","","","","","","","",""
"pit-trial","30","587719","0.0-2.0-8.2-0.2","battery-v0.2","","""event"",""trial"",""time""
""fullscreenenter"",""1"",""40976""
","
","
","""event"",""trial"",""time""
""fullscreenenter"",""1"",""40976""
","
","","","529.1999999880791","","","10","4133","147","&#9776;","elianto","#3366ff99"," "," ","1","+10","[1379.199999988079]","1","0","1","","","","","","","",""
"pit-trial","31","591500","0.0-2.0-8.2-1.2","battery-v0.2","","""event"",""trial"",""time""
""fullscreenenter"",""1"",""40976""
","
","
","""event"",""trial"",""time""
""fullscreenenter"",""1"",""40976""
","
","","","926.7000000178814","","","10","4133","147","&#9776;","elianto","#3366ff99"," "," ","1","+10","[1777]","1","0","1","","","","","","","",""
"pit-trial","32","595089","0.0-2.0-8.2-2.2","battery-v0.2","","""event"",""trial"",""time""
""fullscreenenter"",""1"",""40976""
","
","
","""event"",""trial"",""time""
""fullscreenenter"",""1"",""40976""
","
","","","730.8000000119209","","","10","4133","147","&#9776;","elianto","#3366ff99"," "," ","1","+10","[1580.8999999761581]","1","0","1","","","","","","","",""
"pit-trial","33","598524","0.0-2.0-8.2-3.2","battery-v0.2","","""event"",""trial"",""time""
""fullscreenenter"",""1"",""40976""
","
","
","""event"",""trial"",""time""
""fullscreenenter"",""1"",""40976""
","
","","","577.2000000178814","","","10","4133","147","&#9776;","elianto","#3366ff99"," "," ","1","0","[1428]","1","0","1","","","","","","","",""
"pit-trial","34","603254","0.0-2.0-8.2-4.2","battery-v0.2","","""event"",""trial"",""time""
""fullscreenenter"",""1"",""40976""
","
","
","""event"",""trial"",""time""
""fullscreenenter"",""1"",""40976""
","
","","","1871.5999999940395","","","10","4133","147","&#9776;","elianto","#3366ff99"," "," ","1","+10","[2722.5999999940395]","1","0","1","","","","","","","",""
"call-function","35","603259","0.0-2.0-9.0","battery-v0.2","","""event"",""trial"",""time""
""fullscreenenter"",""1"",""40976""
","
","
","""event"",""trial"",""time""
""fullscreenenter"",""1"",""40976""
","
","","","","","","","","","","","","","","","","","","","","","","","","","","",""
"pit-instructions","36","658993","0.0-2.0-10.0","battery-v0.2","","""event"",""trial"",""time""
""fullscreenenter"",""1"",""40976""
","
","
","""event"",""trial"",""time""
""fullscreenenter"",""1"",""40976""
","
","","[{""page_index"":0,""viewing_time"":21349.5},{""page_index"":1,""viewing_time"":7674.799999982119},{""page_index"":2,""viewing_time"":9743.300000011921},{""page_index"":3,""viewing_time"":9217},{""page_index"":4,""viewing_time"":7750.299999982119}]","55735.79999998212","","","","","","","","","","","","","","","","","","","","","","","",""
"pit-trial","37","662474","0.0-2.0-11.0-0.0","battery-v0.2","","""event"",""trial"",""time""
""fullscreenenter"",""1"",""40976""
","
","
","""event"",""trial"",""time""
""fullscreenenter"",""1"",""40976""
","
","","","622.3000000119209","","","10","4133","147","&#9761;","elianto","#3366ff99","-1"," ","0","0","[1474.5999999940395]","1","0","2","","","","","","","",""
"pit-trial","38","665911","0.0-2.0-11.0-1.0","battery-v0.2","","""event"",""trial"",""time""
""fullscreenenter"",""1"",""40976""
","
","
","""event"",""trial"",""time""
""fullscreenenter"",""1"",""40976""
","
","","","581.5999999940395","","","10","4133","147","&#9761;","elianto","#3366ff99","-1"," ","0","0","[1431.9000000059605]","1","0","2","","","","","","","",""
"pit-trial","39","670773","0.0-2.0-11.0-2.0","battery-v0.2","","""event"",""trial"",""time""
""fullscreenenter"",""1"",""40976""
","
","
","""event"",""trial"",""time""
""fullscreenenter"",""1"",""40976""
","
","","","-1","","","10","4133","147","&#9761;","elianto","#3366ff99","-1","-1","1","+10","[]","0","0","2","","","","","","","",""
"pit-trial","40","675173","0.0-2.0-11.0-3.0","battery-v0.2","","""event"",""trial"",""time""
""fullscreenenter"",""1"",""40976""
","
","
","""event"",""trial"",""time""
""fullscreenenter"",""1"",""40976""
","
","","","1540.199999988079","","","10","4133","147","&#9761;","elianto","#3366ff99","-1"," ","0","+10","[2391.199999988079]","1","0","2","","","","","","","",""
"pit-trial","41","680038","0.0-2.0-11.0-4.0","battery-v0.2","","""event"",""trial"",""time""
""fullscreenenter"",""1"",""40976""
","
","
","""event"",""trial"",""time""
""fullscreenenter"",""1"",""40976""
","
","","","-1","","","10","4133","147","&#9761;","elianto","#3366ff99","-1","-1","1","+10","[2954.800000011921]","1","0","2","","","","","","","",""
"pit-trial","42","683847","0.0-2.0-11.1-0.1","battery-v0.2","","""event"",""trial"",""time""
""fullscreenenter"",""1"",""40976""
","
","
","""event"",""trial"",""time""
""fullscreenenter"",""1"",""40976""
","
","","","946.5999999940395","","","10","4133","147","&#9761;","elianto","#3366ff99","-1"," ","0","0","[1796.800000011921]","1","0","2","","","","","","","",""
"pit-trial","43","687580","0.0-2.0-11.1-1.1","battery-v0.2","","""event"",""trial"",""time""
""fullscreenenter"",""1"",""40976""
","
","
","""event"",""trial"",""time""
""fullscreenenter"",""1"",""40976""
","
","","","874.0999999940395","","","10","4133","147","&#9761;","elianto","#3366ff99","-1"," ","0","0","[1725.9000000059605]","1","0","2","","","","","","","",""
"pit-trial","44","691402","0.0-2.0-11.1-2.1","battery-v0.2","","""event"",""trial"",""time""
""fullscreenenter"",""1"",""40976""
","
","
","""event"",""trial"",""time""
""fullscreenenter"",""1"",""40976""
","
","","","961.5","","","10","4133","147","&#9761;","elianto","#3366ff99","-1"," ","0","0","[1814.0999999940395]","1","0","2","","","","","","","",""
"pit-trial","45","695074","0.0-2.0-11.1-3.1","battery-v0.2","","""event"",""trial"",""time""
""fullscreenenter"",""1"",""40976""
","
","
","""event"",""trial"",""time""
""fullscreenenter"",""1"",""40976""
","
","","","815.5","","","10","4133","147","&#9761;","elianto","#3366ff99","-1"," ","0","+10","[1665.4000000059605]","1","0","2","","","","","","","",""
"pit-trial","46","698511","0.0-2.0-11.1-4.1","battery-v0.2","","""event"",""trial"",""time""
""fullscreenenter"",""1"",""40976""
","
","
","""event"",""trial"",""time""
""fullscreenenter"",""1"",""40976""
","
","","","577.3000000119209","","","10","4133","147","&#9761;","elianto","#3366ff99","-1"," ","0","0","[1428.7000000178814]","1","0","2","","","","","","","",""
"pit-trial","47","703375","0.0-2.0-11.2-0.2","battery-v0.2","","""event"",""trial"",""time""
""fullscreenenter"",""1"",""40976""
","
","
","""event"",""trial"",""time""
""fullscreenenter"",""1"",""40976""
","
","","","-1","","","10","4133","147","&#9761;","elianto","#3366ff99","-1","-1","1","+10","[3385.300000011921]","1","0","2","","","","","","","",""
"pit-trial","48","708239","0.0-2.0-11.2-1.2","battery-v0.2","","""event"",""trial"",""time""
""fullscreenenter"",""1"",""40976""
","
","
","""event"",""trial"",""time""
""fullscreenenter"",""1"",""40976""
","
","","","-1","","","10","4133","147","&#9761;","elianto","#3366ff99","-1","-1","1","+10","[4093.7000000178814]","1","0","2","","","","","","","",""
"pit-trial","49","711434","0.0-2.0-11.2-2.2","battery-v0.2","","""event"",""trial"",""time""
""fullscreenenter"",""1"",""40976""
","
","
","""event"",""trial"",""time""
""fullscreenenter"",""1"",""40976""
","
","","","338.59999999403954","","","10","4133","147","&#9761;","elianto","#3366ff99","-1"," ","0","0","[1189.5999999940395]","1","0","2","","","","","","","",""
"pit-trial","50","714857","0.0-2.0-11.2-3.2","battery-v0.2","","""event"",""trial"",""time""
""fullscreenenter"",""1"",""40976""
","
","
","""event"",""trial"",""time""
""fullscreenenter"",""1"",""40976""
","
","","","565.7999999821186","","","10","4133","147","&#9761;","elianto","#3366ff99","-1"," ","0","+10","[1416]","1","0","2","","","","","","","",""
"pit-trial","51","718893","0.0-2.0-11.2-4.2","battery-v0.2","","""event"",""trial"",""time""
""fullscreenenter"",""1"",""40976""
","
","
","""event"",""trial"",""time""
""fullscreenenter"",""1"",""40976""
","
","","","1178.2000000178814","","","10","4133","147","&#9761;","elianto","#3366ff99","-1"," ","0","0","[2029.699999988079]","1","0","2","","","","","","","",""
"pit-trial","52","722275","0.0-2.0-11.3-0.3","battery-v0.2","","""event"",""trial"",""time""
""fullscreenenter"",""1"",""40976""
","
","
","""event"",""trial"",""time""
""fullscreenenter"",""1"",""40976""
","
","","","522.9000000059605","","","10","4133","147","&#9761;","elianto","#3366ff99","-1"," ","0","0","[1374.5]","1","0","2","","","","","","","",""
"pit-trial","53","725915","0.0-2.0-11.3-1.3","battery-v0.2","","""event"",""trial"",""time""
""fullscreenenter"",""1"",""40976""
","
","
","""event"",""trial"",""time""
""fullscreenenter"",""1"",""40976""
","
","","","781.5999999940395","","","10","4133","147","&#9761;","elianto","#3366ff99","-1"," ","0","0","[1632.9000000059605,2112]","2","0","2","","","","","","","",""
"pit-trial","54","730776","0.0-2.0-11.3-2.3","battery-v0.2","","""event"",""trial"",""time""
""fullscreenenter"",""1"",""40976""
","
","
","""event"",""trial"",""time""
""fullscreenenter"",""1"",""40976""
","
","","","-1","","","10","4133","147","&#9761;","elianto","#3366ff99","-1","-1","1","+10","[]","0","0","2","","","","","","","",""
"pit-trial","55","734203","0.0-2.0-11.3-3.3","battery-v0.2","","""event"",""trial"",""time""
""fullscreenenter"",""1"",""40976""
","
","
","""event"",""trial"",""time""
""fullscreenenter"",""1"",""40976""
","
","","","567.2000000178814","","","10","4133","147","&#9761;","elianto","#3366ff99","-1"," ","0","+10","[1419.2000000178814]","1","0","2","","","","","","","",""
"pit-trial","56","737778","0.0-2.0-11.3-4.3","battery-v0.2","","""event"",""trial"",""time""
""fullscreenenter"",""1"",""40976""
","
","
","""event"",""trial"",""time""
""fullscreenenter"",""1"",""40976""
","
","","","718.4000000059605","","","10","4133","147","&#9761;","elianto","#3366ff99","-1"," ","0","0","[1569]","1","0","2","","","","","","","",""
"call-function","57","737782","0.0-2.0-12.0","battery-v0.2","","""event"",""trial"",""time""
""fullscreenenter"",""1"",""40976""
","
","
","""event"",""trial"",""time""
""fullscreenenter"",""1"",""40976""
","
","","","","","","","","","","","","","","","","","","","","","","","","","","",""
"pit-instructions","58","790709","0.0-2.0-13.0","battery-v0.2","","""event"",""trial"",""time""
""fullscreenenter"",""1"",""40976""
","
","
","""event"",""trial"",""time""
""fullscreenenter"",""1"",""40976""
","
","","[{""page_index"":0,""viewing_time"":5275.9000000059605},{""page_index"":1,""viewing_time"":25834.90000000596},{""page_index"":2,""viewing_time"":4800},{""page_index"":3,""viewing_time"":12233.699999988079},{""page_index"":4,""viewing_time"":4783.200000017881}]","52928.59999999404","","","","","","","","","","","","","","","","","","","","","","","",""
"pit-trial","59","794214","0.0-2.0-14.0-0.0","battery-v0.2","","""event"",""trial"",""time""
""fullscreenenter"",""1"",""40976""
","
","
","""event"",""trial"",""time""
""fullscreenenter"",""1"",""40976""
","
","","","646","","","10","4133","147","&#9826;","elianto","#f73b6a7A","-1"," ","0","-10","[1497.9000000059605]","1","0","3","","","","","","","",""
"pit-trial","60","799072","0.0-2.0-14.0-1.0","battery-v0.2","","""event"",""trial"",""time""
""fullscreenenter"",""1"",""40976""
","
","
","""event"",""trial"",""time""
""fullscreenenter"",""1"",""40976""
","
","","","-1","","","10","4133","147","&#9826;","elianto","#f73b6a7A","-1","-1","1","0","[]","0","0","3","","","","","","","",""
"pit-trial","61","802792","0.0-2.0-14.0-2.0","battery-v0.2","","""event"",""trial"",""time""
""fullscreenenter"",""1"",""40976""
","
","
","""event"",""trial"",""time""
""fullscreenenter"",""1"",""40976""
","
","","","861.5","","","10","4133","147","&#9826;","elianto","#f73b6a7A","-1"," ","0","-10","[1712.800000011921]","1","0","3","","","","","","","",""
"pit-trial","62","807652","0.0-2.0-14.0-3.0","battery-v0.2","","""event"",""trial"",""time""
""fullscreenenter"",""1"",""40976""
","
","
","""event"",""trial"",""time""
""fullscreenenter"",""1"",""40976""
","
","","","-1","","","10","4133","147","&#9826;","elianto","#f73b6a7A","-1","-1","1","-10","[]","0","0","3","","","","","","","",""
"pit-trial","63","810842","0.0-2.0-14.0-4.0","battery-v0.2","","""event"",""trial"",""time""
""fullscreenenter"",""1"",""40976""
","
","
","""event"",""trial"",""time""
""fullscreenenter"",""1"",""40976""
","
","","","332.5","","","10","4133","147","&#9826;","elianto","#f73b6a7A","-1"," ","0","-10","[1182.699999988079]","1","0","3","","","","","","","",""
"pit-trial","64","815707","0.0-2.0-14.1-0.1","battery-v0.2","","""event"",""trial"",""time""
""fullscreenenter"",""1"",""40976""
","
","
","""event"",""trial"",""time""
""fullscreenenter"",""1"",""40976""
","
","","","-1","","","10","4133","147","&#9826;","elianto","#f73b6a7A","-1","-1","1","0","[]","0","0","3","","","","","","","",""
"pit-trial","65","820568","0.0-2.0-14.1-1.1","battery-v0.2","","""event"",""trial"",""time""
""fullscreenenter"",""1"",""40976""
","
","
","""event"",""trial"",""time""
""fullscreenenter"",""1"",""40976""
","
","","","-1","","","10","4133","147","&#9826;","elianto","#f73b6a7A","-1","-1","1","0","[2923.5]","1","0","3","","","","","","","",""
"pit-trial","66","824766","0.0-2.0-14.1-2.1","battery-v0.2","","""event"",""trial"",""time""
""fullscreenenter"",""1"",""40976""
","
","
","""event"",""trial"",""time""
""fullscreenenter"",""1"",""40976""
","
","","","1337.3999999761581","","","10","4133","147","&#9826;","elianto","#f73b6a7A","-1"," ","0","-10","[2187.9000000059605]","1","0","3","","","","","","","",""
"pit-trial","67","829630","0.0-2.0-14.1-3.1","battery-v0.2","","""event"",""trial"",""time""
""fullscreenenter"",""1"",""40976""
","
","
","""event"",""trial"",""time""
""fullscreenenter"",""1"",""40976""
","
","","","-1","","","10","4133","147","&#9826;","elianto","#f73b6a7A","-1","-1","1","-10","[]","0","0","3","","","","","","","",""
"pit-trial","68","832952","0.0-2.0-14.1-4.1","battery-v0.2","","""event"",""trial"",""time""
""fullscreenenter"",""1"",""40976""
","
","
","""event"",""trial"",""time""
""fullscreenenter"",""1"",""40976""
","
","","","460.5","","","10","4133","147","&#9826;","elianto","#f73b6a7A","-1"," ","0","-10","[1312.8999999761581]","1","0","3","","","","","","","",""
"pit-trial","69","837482","0.0-2.0-14.2-0.2","battery-v0.2","","""event"",""trial"",""time""
""fullscreenenter"",""1"",""40976""
","
","
","""event"",""trial"",""time""
""fullscreenenter"",""1"",""40976""
","
","","","1671.5999999940395","","","10","4133","147","&#9826;","elianto","#f73b6a7A","-1"," ","0","-10","[2522.0999999940395]","1","0","3","","","","","","","",""
"pit-trial","70","842340","0.0-2.0-14.2-1.2","battery-v0.2","","""event"",""trial"",""time""
""fullscreenenter"",""1"",""40976""
","
","
","""event"",""trial"",""time""
""fullscreenenter"",""1"",""40976""
","
","","","-1","","","10","4133","147","&#9826;","elianto","#f73b6a7A","-1","-1","1","0","[]","0","0","3","","","","","","","",""
"pit-trial","71","847203","0.0-2.0-14.2-2.2","battery-v0.2","","""event"",""trial"",""time""
""fullscreenenter"",""1"",""40976""
","
","
","""event"",""trial"",""time""
""fullscreenenter"",""1"",""40976""
","
","","","-1","","","10","4133","147","&#9826;","elianto","#f73b6a7A","-1","-1","1","0","[]","0","0","3","","","","","","","",""
"pit-trial","72","852066","0.0-2.0-14.2-3.2","battery-v0.2","","""event"",""trial"",""time""
""fullscreenenter"",""1"",""40976""
","
","
","""event"",""trial"",""time""
""fullscreenenter"",""1"",""40976""
","
","","","-1","","","10","4133","147","&#9826;","elianto","#f73b6a7A","-1","-1","1","-10","[]","0","0","3","","","","","","","",""
"pit-trial","73","856230","0.0-2.0-14.2-4.2","battery-v0.2","","""event"",""trial"",""time""
""fullscreenenter"",""1"",""40976""
","
","
","""event"",""trial"",""time""
""fullscreenenter"",""1"",""40976""
","
","","","1306.4000000059605","","","10","4133","147","&#9826;","elianto","#f73b6a7A","-1"," ","0","-10","[2156.5999999940395]","1","0","3","","","","","","","",""
"pit-trial","74","860609","0.0-2.0-14.3-0.3","battery-v0.2","","""event"",""trial"",""time""
""fullscreenenter"",""1"",""40976""
","
","
","""event"",""trial"",""time""
""fullscreenenter"",""1"",""40976""
","
","","","1520.5","","","10","4133","147","&#9826;","elianto","#f73b6a7A","-1"," ","0","-10","[2370.5]","1","0","3","","","","","","","",""
"pit-trial","75","865473","0.0-2.0-14.3-1.3","battery-v0.2","","""event"",""trial"",""time""
""fullscreenenter"",""1"",""40976""
","
","
","""event"",""trial"",""time""
""fullscreenenter"",""1"",""40976""
","
","","","-1","","","10","4133","147","&#9826;","elianto","#f73b6a7A","-1","-1","1","0","[]","0","0","3","","","","","","","",""
"pit-trial","76","870336","0.0-2.0-14.3-2.3","battery-v0.2","","""event"",""trial"",""time""
""fullscreenenter"",""1"",""40976""
","
","
","""event"",""trial"",""time""
""fullscreenenter"",""1"",""40976""
","
","","","-1","","","10","4133","147","&#9826;","elianto","#f73b6a7A","-1","-1","1","0","[]","0","0","3","","","","","","","",""
"pit-trial","77","875200","0.0-2.0-14.3-3.3","battery-v0.2","","""event"",""trial"",""time""
""fullscreenenter"",""1"",""40976""
","
","
","""event"",""trial"",""time""
""fullscreenenter"",""1"",""40976""
","
","","","-1","","","10","4133","147","&#9826;","elianto","#f73b6a7A","-1","-1","1","-10","[]","0","0","3","","","","","","","",""
"pit-trial","78","878795","0.0-2.0-14.3-4.3","battery-v0.2","","""event"",""trial"",""time""
""fullscreenenter"",""1"",""40976""
","
","
","""event"",""trial"",""time""
""fullscreenenter"",""1"",""40976""
","
","","","736.3000000119209","","","10","4133","147","&#9826;","elianto","#f73b6a7A","-1"," ","0","-10","[1586.2999999821186]","1","0","3","","","","","","","",""
"call-function","79","878799","0.0-2.0-15.0","battery-v0.2","","""event"",""trial"",""time""
""fullscreenenter"",""1"",""40976""
","
","
","""event"",""trial"",""time""
""fullscreenenter"",""1"",""40976""
","
","","","","","","","","","","","","","","","","","","","","","","","","","","",""
"pit-instructions","80","925141","0.0-2.0-16.0","battery-v0.2","","""event"",""trial"",""time""
""fullscreenenter"",""1"",""40976""
","
","
","""event"",""trial"",""time""
""fullscreenenter"",""1"",""40976""
","
","","[{""page_index"":0,""viewing_time"":25442.09999999404},{""page_index"":1,""viewing_time"":9866.699999988079},{""page_index"":2,""viewing_time"":5783.100000023842},{""page_index"":3,""viewing_time"":5250.0999999940395}]","46343.09999999404","","","","","","","","","","","","","","","","","","","","","","","",""
"pit-trial","81","930004","0.0-2.0-17.0-0.0","battery-v0.2","","""event"",""trial"",""time""
""fullscreenenter"",""1"",""40976""
","
","
","""event"",""trial"",""time""
""fullscreenenter"",""1"",""40976""
","
","","","-1","","","10","4133","147","&#9789;","elianto","#f73b6a7A"," ","-1","0","-10","[]","0","0","4","","","","","","","",""
"pit-trial","82","934233","0.0-2.0-17.0-1.0","battery-v0.2","","""event"",""trial"",""time""
""fullscreenenter"",""1"",""40976""
","
","
","""event"",""trial"",""time""
""fullscreenenter"",""1"",""40976""
","
","","","1372.8999999761581","","","10","4133","147","&#9789;","elianto","#f73b6a7A"," "," ","1","0","[2223.4000000059605]","1","0","4","","","","","","","",""
"pit-trial","83","937340","0.0-2.0-17.0-2.0","battery-v0.2","","""event"",""trial"",""time""
""fullscreenenter"",""1"",""40976""
","
","
","""event"",""trial"",""time""
""fullscreenenter"",""1"",""40976""
","
","","","249.80000001192093","","","10","4133","147","&#9789;","elianto","#f73b6a7A"," "," ","1","0","[1100]","1","0","4","","","","","","","",""
"pit-trial","84","940557","0.0-2.0-17.0-3.0","battery-v0.2","","""event"",""trial"",""time""
""fullscreenenter"",""1"",""40976""
","
","
","""event"",""trial"",""time""
""fullscreenenter"",""1"",""40976""
","
","","","355","","","10","4133","147","&#9789;","elianto","#f73b6a7A"," "," ","1","-10","[1207.199999988079]","1","0","4","","","","","","","",""
"pit-trial","85","944108","0.0-2.0-17.0-4.0","battery-v0.2","","""event"",""trial"",""time""
""fullscreenenter"",""1"",""40976""
","
","
","""event"",""trial"",""time""
""fullscreenenter"",""1"",""40976""
","
","","","691.8000000119209","","","10","4133","147","&#9789;","elianto","#f73b6a7A"," "," ","1","0","[1543.2999999821186]","1","0","4","","","","","","","",""
"pit-trial","86","947280","0.0-2.0-17.1-0.1","battery-v0.2","","""event"",""trial"",""time""
""fullscreenenter"",""1"",""40976""
","
","
","""event"",""trial"",""time""
""fullscreenenter"",""1"",""40976""
","
","","","308.39999997615814","","","10","4133","147","&#9789;","elianto","#f73b6a7A"," "," ","1","0","[1160.2999999821186]","1","0","4","","","","","","","",""
"pit-trial","87","950496","0.0-2.0-17.1-1.1","battery-v0.2","","""event"",""trial"",""time""
""fullscreenenter"",""1"",""40976""
","
","
","""event"",""trial"",""time""
""fullscreenenter"",""1"",""40976""
","
","","","358","","","10","4133","147","&#9789;","elianto","#f73b6a7A"," "," ","1","0","[1208.9000000059605]","1","0","4","","","","","","","",""
"pit-trial","88","953546","0.0-2.0-17.1-2.1","battery-v0.2","","""event"",""trial"",""time""
""fullscreenenter"",""1"",""40976""
","
","
","""event"",""trial"",""time""
""fullscreenenter"",""1"",""40976""
","
","","","193.59999999403954","","","10","4133","147","&#9789;","elianto","#f73b6a7A"," "," ","1","0","[1044.7999999821186]","1","0","4","","","","","","","",""
"pit-trial","89","956612","0.0-2.0-17.1-3.1","battery-v0.2","","""event"",""trial"",""time""
""fullscreenenter"",""1"",""40976""
","
","
","""event"",""trial"",""time""
""fullscreenenter"",""1"",""40976""
","
","","","207.40000000596046","","","10","4133","147","&#9789;","elianto","#f73b6a7A"," "," ","1","-10","[1057.800000011921]","1","0","4","","","","","","","",""
"pit-trial","90","959513","0.0-2.0-17.1-4.1","battery-v0.2","","""event"",""trial"",""time""
""fullscreenenter"",""1"",""40976""
","
","
","""event"",""trial"",""time""
""fullscreenenter"",""1"",""40976""
","
","","","44.099999994039536","","","10","4133","147","&#9789;","elianto","#f73b6a7A"," "," ","1","0","[895.5]","1","0","4","","","","","","","",""
"pit-trial","91","962525","0.0-2.0-17.2-0.2","battery-v0.2","","""event"",""trial"",""time""
""fullscreenenter"",""1"",""40976""
","
","
","""event"",""trial"",""time""
""fullscreenenter"",""1"",""40976""
","
","","","155.10000002384186","","","10","4133","147","&#9789;","elianto","#f73b6a7A"," "," ","1","0","[1005.1000000238419]","1","0","4","","","","","","","",""
"pit-trial","92","967386","0.0-2.0-17.2-1.2","battery-v0.2","","""event"",""trial"",""time""
""fullscreenenter"",""1"",""40976""
","
","
","""event"",""trial"",""time""
""fullscreenenter"",""1"",""40976""
","
","","","-1","","","10","4133","147","&#9789;","elianto","#f73b6a7A"," ","-1","0","-10","[]","0","0","4","","","","","","","",""
"pit-trial","93","971092","0.0-2.0-17.2-2.2","battery-v0.2","","""event"",""trial"",""time""
""fullscreenenter"",""1"",""40976""
","
","
","""event"",""trial"",""time""
""fullscreenenter"",""1"",""40976""
","
","","","848","","","10","4133","147","&#9789;","elianto","#f73b6a7A"," "," ","1","0","[644.5999999940395,1699.0999999940395]","2","0","4","","","","","","","",""
"pit-trial","94","974265","0.0-2.0-17.2-3.2","battery-v0.2","","""event"",""trial"",""time""
""fullscreenenter"",""1"",""40976""
","
","
","""event"",""trial"",""time""
""fullscreenenter"",""1"",""40976""
","
","","","317.10000002384186","","","10","4133","147","&#9789;","elianto","#f73b6a7A"," "," ","1","-10","[1167.3999999761581]","1","0","4","","","","","","","",""
"pit-trial","95","979124","0.0-2.0-17.2-4.2","battery-v0.2","","""event"",""trial"",""time""
""fullscreenenter"",""1"",""40976""
","
","
","""event"",""trial"",""time""
""fullscreenenter"",""1"",""40976""
","
","","","-1","","","10","4133","147","&#9789;","elianto","#f73b6a7A"," ","-1","0","-10","[]","0","0","4","","","","","","","",""
"pit-trial","96","983314","0.0-2.0-17.3-0.3","battery-v0.2","","""event"",""trial"",""time""
""fullscreenenter"",""1"",""40976""
","
","
","""event"",""trial"",""time""
""fullscreenenter"",""1"",""40976""
","
","","","1326.300000011921","","","10","4133","147","&#9789;","elianto","#f73b6a7A"," "," ","1","0","[2179.0999999940395]","1","0","4","","","","","","","",""
"pit-trial","97","986594","0.0-2.0-17.3-1.3","battery-v0.2","","""event"",""trial"",""time""
""fullscreenenter"",""1"",""40976""
","
","
","""event"",""trial"",""time""
""fullscreenenter"",""1"",""40976""
","
","","","421.09999999403954","","","10","4133","147","&#9789;","elianto","#f73b6a7A"," "," ","1","0","[543.1999999880791,1272,1487,1653.5999999940395,1831.5999999940395,2020.5999999940395,2157.5999999940395,2318,2466.9000000059605,2624.699999988079,2778.0999999940395]","11","0","4","","","","","","","",""
"pit-trial","98","990145","0.0-2.0-17.3-2.3","battery-v0.2","","""event"",""trial"",""time""
""fullscreenenter"",""1"",""40976""
","
","
","""event"",""trial"",""time""
""fullscreenenter"",""1"",""40976""
","
","","","693","","","10","4133","147","&#9789;","elianto","#f73b6a7A"," "," ","1","0","[1545.800000011921]","1","0","4","","","","","","","",""
"pit-trial","99","993345","0.0-2.0-17.3-3.3","battery-v0.2","","""event"",""trial"",""time""
""fullscreenenter"",""1"",""40976""
","
","
","""event"",""trial"",""time""
""fullscreenenter"",""1"",""40976""
","
","","","340.10000002384186","","","10","4133","147","&#9789;","elianto","#f73b6a7A"," "," ","1","-10","[1192.5999999940395]","1","0","4","","","","","","","",""
"pit-trial","100","998126","0.0-2.0-17.3-4.3","battery-v0.2","","""event"",""trial"",""time""
""fullscreenenter"",""1"",""40976""
","
","
","""event"",""trial"",""time""
""fullscreenenter"",""1"",""40976""
","
","","","1919.5","","","10","4133","147","&#9789;","elianto","#f73b6a7A"," "," ","1","0","[2770.800000011921]","1","0","4","","","","","","","",""
"call-function","101","998130","0.0-2.0-18.0","battery-v0.2","","""event"",""trial"",""time""
""fullscreenenter"",""1"",""40976""
","
","
","""event"",""trial"",""time""
""fullscreenenter"",""1"",""40976""
","
","","","","","","","","","","","","","","","","","","","","","","","","","","",""
"pit-instructions","102","1085356","0.0-2.0-19.0","battery-v0.2","","""event"",""trial"",""time""
""fullscreenenter"",""1"",""40976""
","
","
","""event"",""trial"",""time""
""fullscreenenter"",""1"",""40976""
","
","","[{""page_index"":0,""viewing_time"":16508.5},{""page_index"":1,""viewing_time"":7165.899999976158},{""page_index"":2,""viewing_time"":13051.5},{""page_index"":3,""viewing_time"":8617.100000023842},{""page_index"":4,""viewing_time"":8050.899999976158},{""page_index"":5,""viewing_time"":9266.600000023842},{""page_index"":6,""viewing_time"":8867.399999976158},{""page_index"":7,""viewing_time"":7567},{""page_index"":8,""viewing_time"":8133.600000023842}]","87229.79999998212","","","","","","","","","","","","","","","","","","","","","","","",""
"pit-comprehension","103","1093141","0.0-2.0-20.0-0.0","battery-v0.2","","""event"",""trial"",""time""
""fullscreenenter"",""1"",""40976""
","
","
","""event"",""trial"",""time""
""fullscreenenter"",""1"",""40976""
","
","","","7775.5999999940395","[""SPACE""]","0","10","4133","147","","","","","","","","","","","","","","","","","","",""
"pit-instructions","104","1096804","0.0-2.0-20.0-1.0","battery-v0.2","","""event"",""trial"",""time""
""fullscreenenter"",""1"",""40976""
","
","
","""event"",""trial"",""time""
""fullscreenenter"",""1"",""40976""
","
","","[{""page_index"":0,""viewing_time"":3625.800000011921}]","3626","","","","","","","","","","","","","","","","","","","","","","","",""
"pit-comprehension","105","1105356","0.0-2.0-21.0-0.0","battery-v0.2","","""event"",""trial"",""time""
""fullscreenenter"",""1"",""40976""
","
","
","""event"",""trial"",""time""
""fullscreenenter"",""1"",""40976""
","
","","","8549.399999976158","[""10""]","0","10","4133","147","","","","","","","","","","","","","","","","","","",""
"pit-instructions","106","1111072","0.0-2.0-21.0-1.0","battery-v0.2","","""event"",""trial"",""time""
""fullscreenenter"",""1"",""40976""
","
","
","""event"",""trial"",""time""
""fullscreenenter"",""1"",""40976""
","
","","[{""page_index"":0,""viewing_time"":5683.899999976158}]","5684.399999976158","","","","","","","","","","","","","","","","","","","","","","","",""
"pit-comprehension","107","1127923","0.0-2.0-22.0-0.0","battery-v0.2","","""event"",""trial"",""time""
""fullscreenenter"",""1"",""40976""
","
","
","""event"",""trial"",""time""
""fullscreenenter"",""1"",""40976""
","
","","","16847.79999998212","[""10""]","1","10","4133","147","","","","","","","","","","","","","","","","","","",""
"pit-instructions","108","1136423","0.0-2.0-22.0-1.0","battery-v0.2","","""event"",""trial"",""time""
""fullscreenenter"",""1"",""40976""
","
","
","""event"",""trial"",""time""
""fullscreenenter"",""1"",""40976""
","
","","[{""page_index"":0,""viewing_time"":8467.09999999404}]","8468.299999982119","","","","","","","","","","","","","","","","","","","","","","","",""
"pit-instructions","109","1137623","0.0-2.0-22.0-2.0-0.0","battery-v0.2","","""event"",""trial"",""time""
""fullscreenenter"",""1"",""40976""
","
","
","""event"",""trial"",""time""
""fullscreenenter"",""1"",""40976""
","
","","[{""page_index"":0,""viewing_time"":1194.199999988079}]","1195.199999988079","","","","","","","","","","","","","","","","","","","","","","","",""
"pit-comprehension","110","1146156","0.0-2.0-22.1-0.1","battery-v0.2","","""event"",""trial"",""time""
""fullscreenenter"",""1"",""40976""
","
","
","""event"",""trial"",""time""
""fullscreenenter"",""1"",""40976""
","
","","","8528.700000017881","[""0""]","0","10","4133","147","","","","","","","","","","","","","","","","","","",""
"pit-instructions","111","1148222","0.0-2.0-22.1-1.1","battery-v0.2","","""event"",""trial"",""time""
""fullscreenenter"",""1"",""40976""
","
","
","""event"",""trial"",""time""
""fullscreenenter"",""1"",""40976""
","
","","[{""page_index"":0,""viewing_time"":2032.2000000178814}]","2032.800000011921","","","","","","","","","","","","","","","","","","","","","","","",""
"pit-comprehension","112","1157140","0.0-2.0-23.0-0.0","battery-v0.2","","""event"",""trial"",""time""
""fullscreenenter"",""1"",""40976""
","
","
","""event"",""trial"",""time""
""fullscreenenter"",""1"",""40976""
","
","","","8913.300000011921","[""True""]","0","10","4133","147","","","","","","","","","","","","","","","","","","",""
"pit-instructions","113","1158904","0.0-2.0-23.0-1.0","battery-v0.2","","""event"",""trial"",""time""
""fullscreenenter"",""1"",""40976""
","
","
","""event"",""trial"",""time""
""fullscreenenter"",""1"",""40976""
","
","","[{""page_index"":0,""viewing_time"":1726.9000000059605}]","1727.4000000059605","","","","","","","","","","","","","","","","","","","","","","","",""
"pit-comprehension","114","1167556","0.0-2.0-24.0-0.0","battery-v0.2","","""event"",""trial"",""time""
""fullscreenenter"",""1"",""40976""
","
","
","""event"",""trial"",""time""
""fullscreenenter"",""1"",""40976""
","
","","","8647.59999999404","[""True""]","0","10","4133","147","","","","","","","","","","","","","","","","","","",""
"pit-instructions","115","1169588","0.0-2.0-24.0-1.0","battery-v0.2","","""event"",""trial"",""time""
""fullscreenenter"",""1"",""40976""
","
","
","""event"",""trial"",""time""
""fullscreenenter"",""1"",""40976""
","
","","[{""page_index"":0,""viewing_time"":1996.5999999940395}]","1997.0999999940395","","","","","","","","","","","","","","","","","","","","","","","",""
"pit-comprehension","116","1178273","0.0-2.0-25.0-0.0","battery-v0.2","","""event"",""trial"",""time""
""fullscreenenter"",""1"",""40976""
","
","
","""event"",""trial"",""time""
""fullscreenenter"",""1"",""40976""
","
","","","8680.40000000596","[""True""]","0","10","4133","147","","","","","","","","","","","","","","","","","","",""
"pit-instructions","117","1182288","0.0-2.0-25.0-1.0","battery-v0.2","","""event"",""trial"",""time""
""fullscreenenter"",""1"",""40976""
","
","
","""event"",""trial"",""time""
""fullscreenenter"",""1"",""40976""
","
","","[{""page_index"":0,""viewing_time"":3983.199999988079}]","3983.7999999821186","","","","","","","","","","","","","","","","","","","","","","","",""
"pit-comprehension","118","1190623","0.0-2.0-26.0-0.0","battery-v0.2","","""event"",""trial"",""time""
""fullscreenenter"",""1"",""40976""
","
","
","""event"",""trial"",""time""
""fullscreenenter"",""1"",""40976""
","
","","","8329.59999999404","[""False""]","0","10","4133","147","","","","","","","","","","","","","","","","","","",""
"pit-instructions","119","1193205","0.0-2.0-26.0-1.0","battery-v0.2","","""event"",""trial"",""time""
""fullscreenenter"",""1"",""40976""
","
","
","""event"",""trial"",""time""
""fullscreenenter"",""1"",""40976""
","
","","[{""page_index"":0,""viewing_time"":2543.600000023842}]","2544.4000000059605","","","","","","","","","","","","","","","","","","","","","","","",""
"pit-instructions","120","1213005","0.0-3.0","battery-v0.2","","""event"",""trial"",""time""
""fullscreenenter"",""1"",""40976""
","
","
","""event"",""trial"",""time""
""fullscreenenter"",""1"",""40976""
","
","","[{""page_index"":0,""viewing_time"":3879.2999999821186},{""page_index"":1,""viewing_time"":7499.300000011921},{""page_index"":2,""viewing_time"":8417.90000000596}]","19797.19999998808","","","","","","","","","","","","","","","","","","","","","","","",""
"pit-trial","121","1217723","0.0-4.0","battery-v0.2","","""event"",""trial"",""time""
""fullscreenenter"",""1"",""40976""
","
","
","""event"",""trial"",""time""
""fullscreenenter"",""1"",""40976""
","
","","","1854.8999999761581","","","10","4133","147","&#9730;","elianto","#3366ff99"," "," ","1","0","[2708]","1","1","","","4133","1","1","1","win","go","1"
"pit-trial","122","1222583","0.0-5.0","battery-v0.2","","""event"",""trial"",""time""
""fullscreenenter"",""1"",""40976""
","
","
","""event"",""trial"",""time""
""fullscreenenter"",""1"",""40976""
","
","","","-1","","","10","4133","147","&#9752;","elianto","#f73b6a7A"," ","-1","0","-10","[]","0","1","","","4133","2","3","3","lose","go","0"
"pit-trial","123","1226158","0.0-6.0","battery-v0.2","","""event"",""trial"",""time""
""fullscreenenter"",""1"",""40976""
","
","
","""event"",""trial"",""time""
""fullscreenenter"",""1"",""40976""
","
","","","719.5","","","10","4133","147","&#9733;","elianto","#3366ff99","-1"," ","0","0","[1570.5]","1","1","","","4133","3","2","2","win","no-go","0"
"pit-trial","124","1230242","0.0-7.0","battery-v0.2","","""event"",""trial"",""time""
""fullscreenenter"",""1"",""40976""
","
","
","""event"",""trial"",""time""
""fullscreenenter"",""1"",""40976""
","
","","","1223.7999999821186","","","10","4133","147","&#9728;","elianto","#f73b6a7A","-1"," ","0","-10","[2076]","1","1","","","4133","4","0","4","lose","no-go","0"
"pit-trial","125","1233752","0.0-8.0","battery-v0.2","","""event"",""trial"",""time""
""fullscreenenter"",""1"",""40976""
","
","
","""event"",""trial"",""time""
""fullscreenenter"",""1"",""40976""
","
","","","648.2999999821186","","","10","4133","147","&#9733;","elianto","#3366ff99","-1"," ","0","0","[1500.0999999940395]","1","1","","","4133","5","2","2","win","no-go","0"
"pit-trial","126","1237422","0.0-9.0","battery-v0.2","","""event"",""trial"",""time""
""fullscreenenter"",""1"",""40976""
","
","
","""event"",""trial"",""time""
""fullscreenenter"",""1"",""40976""
","
","","","811.8000000119209","","","10","4133","147","&#9728;","elianto","#f73b6a7A","-1"," ","0","-10","[1662.7999999821186]","1","1","","","4133","6","0","4","lose","no-go","0"
"pit-trial","127","1241505","0.0-10.0","battery-v0.2","","""event"",""trial"",""time""
""fullscreenenter"",""1"",""40976""
","
","
","""event"",""trial"",""time""
""fullscreenenter"",""1"",""40976""
","
","","","1223.300000011921","","","10","4133","147","&#9752;","elianto","#f73b6a7A"," "," ","1","0","[2073.7000000178814]","1","1","","","4133","7","3","3","lose","go","0"
"pit-trial","128","1246152","0.0-11.0","battery-v0.2","","""event"",""trial"",""time""
""fullscreenenter"",""1"",""40976""
","
","
","""event"",""trial"",""time""
""fullscreenenter"",""1"",""40976""
","
","","","1787.5","","","10","4133","147","&#9730;","elianto","#3366ff99"," "," ","1","+10","[2639.4000000059605]","1","1","","","4133","8","1","1","win","go","0"
"pit-trial","129","1250835","0.0-12.0","battery-v0.2","","""event"",""trial"",""time""
""fullscreenenter"",""1"",""40976""
","
","
","""event"",""trial"",""time""
""fullscreenenter"",""1"",""40976""
","
","","","1822.4000000059605","","","10","4133","147","&#9752;","elianto","#f73b6a7A"," "," ","1","0","[2674.100000023842]","1","1","","","4133","9","3","3","lose","go","0"
"pit-trial","130","1255528","0.0-13.0","battery-v0.2","","""event"",""trial"",""time""
""fullscreenenter"",""1"",""40976""
","
","
","""event"",""trial"",""time""
""fullscreenenter"",""1"",""40976""
","
","","","1834.0999999940395","","","10","4133","147","&#9733;","elianto","#3366ff99","-1"," ","0","0","[2685]","1","1","","","4133","10","2","2","win","no-go","0"
"pit-trial","131","1260386","0.0-14.0","battery-v0.2","","""event"",""trial"",""time""
""fullscreenenter"",""1"",""40976""
","
","
","""event"",""trial"",""time""
""fullscreenenter"",""1"",""40976""
","
","","","-1","","","10","4133","147","&#9728;","elianto","#f73b6a7A","-1","-1","1","-10","[]","0","1","","","4133","11","0","4","lose","no-go","1"
"pit-trial","132","1264045","0.0-15.0","battery-v0.2","","""event"",""trial"",""time""
""fullscreenenter"",""1"",""40976""
","
","
","""event"",""trial"",""time""
""fullscreenenter"",""1"",""40976""
","
","","","798.2000000178814","","","10","4133","147","&#9730;","elianto","#3366ff99"," "," ","1","+10","[1649.7000000178814]","1","1","","","4133","12","1","1","win","go","0"
"pit-trial","133","1267970","0.0-16.0","battery-v0.2","","""event"",""trial"",""time""
""fullscreenenter"",""1"",""40976""
","
","
","""event"",""trial"",""time""
""fullscreenenter"",""1"",""40976""
","
","","","1067.2000000178814","","","10","4133","147","&#9733;","elianto","#3366ff99","-1"," ","0","+10","[1917.5999999940395]","1","1","","","4133","13","2","2","win","no-go","1"
"pit-trial","134","1272313","0.0-17.0","battery-v0.2","","""event"",""trial"",""time""
""fullscreenenter"",""1"",""40976""
","
","
","""event"",""trial"",""time""
""fullscreenenter"",""1"",""40976""
","
","","","1482.0999999940395","","","10","4133","147","&#9752;","elianto","#f73b6a7A"," "," ","1","-10","[2334.100000023842]","1","1","","","4133","14","3","3","lose","go","1"
"pit-trial","135","1277175","0.0-18.0","battery-v0.2","","""event"",""trial"",""time""
""fullscreenenter"",""1"",""40976""
","
","
","""event"",""trial"",""time""
""fullscreenenter"",""1"",""40976""
","
","","","-1","","","10","4133","147","&#9728;","elianto","#f73b6a7A","-1","-1","1","0","[]","0","1","","","4133","15","0","4","lose","no-go","0"
"pit-trial","136","1280966","0.0-19.0","battery-v0.2","","""event"",""trial"",""time""
""fullscreenenter"",""1"",""40976""
","
","
","""event"",""trial"",""time""
""fullscreenenter"",""1"",""40976""
","
","","","931.9000000059605","","","10","4133","147","&#9730;","elianto","#3366ff99"," "," ","1","+10","[1784.2000000178814]","1","1","","","4133","16","1","1","win","go","0"
"pit-trial","137","1284487","0.0-20.0","battery-v0.2","","""event"",""trial"",""time""
""fullscreenenter"",""1"",""40976""
","
","
","""event"",""trial"",""time""
""fullscreenenter"",""1"",""40976""
","
","","","660.7999999821186","","","10","4133","147","&#9730;","elianto","#3366ff99"," "," ","1","+10","[1512]","1","1","","","4133","17","1","1","win","go","0"
"pit-trial","138","1289350","0.0-21.0","battery-v0.2","","""event"",""trial"",""time""
""fullscreenenter"",""1"",""40976""
","
","
","""event"",""trial"",""time""
""fullscreenenter"",""1"",""40976""
","
","","","-1","","","10","4133","147","&#9728;","elianto","#f73b6a7A","-1","-1","1","0","[]","0","1","","","4133","18","0","4","lose","no-go","0"
"pit-trial","139","1294214","0.0-22.0","battery-v0.2","","""event"",""trial"",""time""
""fullscreenenter"",""1"",""40976""
","
","
","""event"",""trial"",""time""
""fullscreenenter"",""1"",""40976""
","
","","","-1","","","10","4133","147","&#9752;","elianto","#f73b6a7A"," ","-1","0","-10","[2988.800000011921]","1","1","","","4133","19","3","3","lose","go","0"
"pit-trial","140","1298361","0.0-23.0","battery-v0.2","","""event"",""trial"",""time""
""fullscreenenter"",""1"",""40976""
","
","
","""event"",""trial"",""time""
""fullscreenenter"",""1"",""40976""
","
","","","1288.5","","","10","4133","147","&#9733;","elianto","#3366ff99","-1"," ","0","0","[2138.699999988079]","1","1","","","4133","20","2","2","win","no-go","0"
"pit-instructions","141","1331354","0.0-24.0","battery-v0.2","","""event"",""trial"",""time""
""fullscreenenter"",""1"",""40976""
","
","
","""event"",""trial"",""time""
""fullscreenenter"",""1"",""40976""
","
","","[{""page_index"":0,""viewing_time"":21339.90000000596},{""page_index"":1,""viewing_time"":11650}]","32991.19999998808","","","","","","","","","","","","","","","","","","","","","","","",""
"pit-trial","142","1335464","0.0-25.0","battery-v0.2","","""event"",""trial"",""time""
""fullscreenenter"",""1"",""40976""
","
","
","""event"",""trial"",""time""
""fullscreenenter"",""1"",""40976""
","
","","","1249","","","10","4133","147","b","elianto","#f73b6a7A","-1"," ","0","-10","[2100]","1","2","","","4133","21","3","4","lose","no-go","0"
"pit-trial","143","1339677","0.0-26.0","battery-v0.2","","""event"",""trial"",""time""
""fullscreenenter"",""1"",""40976""
","
","
","""event"",""trial"",""time""
""fullscreenenter"",""1"",""40976""
","
","","","1359.199999988079","","","10","4133","147","t","elianto","#f73b6a7A"," "," ","1","-10","[2209.300000011921]","1","2","","","4133","22","2","3","lose","go","1"
"pit-trial","144","1343890","0.0-27.0","battery-v0.2","","""event"",""trial"",""time""
""fullscreenenter"",""1"",""40976""
","
","
","""event"",""trial"",""time""
""fullscreenenter"",""1"",""40976""
","
","","","1352.699999988079","","","10","4133","147","f","elianto","#3366ff99","-1"," ","0","0","[2203.800000011921]","1","2","","","4133","23","1","2","win","no-go","0"
"pit-trial","145","1347535","0.0-28.0","battery-v0.2","","""event"",""trial"",""time""
""fullscreenenter"",""1"",""40976""
","
","
","""event"",""trial"",""time""
""fullscreenenter"",""1"",""40976""
","
","","","785.4000000059605","","","10","4133","147","n","elianto","#f73b6a7A"," "," ","1","0","[1638.5999999940395]","1","2","","","4133","24","0","3","lose","go","0"
"pit-trial","146","1351027","0.0-29.0","battery-v0.2","","""event"",""trial"",""time""
""fullscreenenter"",""1"",""40976""
","
","
","""event"",""trial"",""time""
""fullscreenenter"",""1"",""40976""
","
","","","633.3000000119209","","","10","4133","147","t","elianto","#f73b6a7A"," "," ","1","-10","[1484.5999999940395]","1","2","","","4133","25","2","3","lose","go","1"
"pit-trial","147","1355395","0.0-30.0","battery-v0.2","","""event"",""trial"",""time""
""fullscreenenter"",""1"",""40976""
","
","
","""event"",""trial"",""time""
""fullscreenenter"",""1"",""40976""
","
","","","1507.300000011921","","","10","4133","147","f","elianto","#3366ff99","-1"," ","0","0","[2358.4000000059605]","1","2","","","4133","26","1","2","win","no-go","0"
"pit-trial","148","1360256","0.0-31.0","battery-v0.2","","""event"",""trial"",""time""
""fullscreenenter"",""1"",""40976""
","
","
","""event"",""trial"",""time""
""fullscreenenter"",""1"",""40976""
","
","","","-1","","","10","4133","147","b","elianto","#f73b6a7A","-1","-1","1","0","[]","0","2","","","4133","27","3","4","lose","no-go","0"
"pit-trial","149","1365113","0.0-32.0","battery-v0.2","","""event"",""trial"",""time""
""fullscreenenter"",""1"",""40976""
","
","
","""event"",""trial"",""time""
""fullscreenenter"",""1"",""40976""
","
","","","-1","","","10","4133","147","n","elianto","#f73b6a7A"," ","-1","0","-10","[3328.7999999821186]","1","2","","","4133","28","0","3","lose","go","0"
"pit-trial","150","1368891","0.0-33.0","battery-v0.2","","""event"",""trial"",""time""
""fullscreenenter"",""1"",""40976""
","
","
","""event"",""trial"",""time""
""fullscreenenter"",""1"",""40976""
","
","","","918.3999999761581","","","10","4133","147","n","elianto","#f73b6a7A"," "," ","1","0","[1768.699999988079]","1","2","","","4133","29","0","3","lose","go","0"
"pit-trial","151","1373754","0.0-34.0","battery-v0.2","","""event"",""trial"",""time""
""fullscreenenter"",""1"",""40976""
","
","
","""event"",""trial"",""time""
""fullscreenenter"",""1"",""40976""
","
","","","-1","","","10","4133","147","t","elianto","#f73b6a7A"," ","-1","0","-10","[2895.5]","1","2","","","4133","30","2","3","lose","go","0"
"pit-trial","152","1378618","0.0-35.0","battery-v0.2","","""event"",""trial"",""time""
""fullscreenenter"",""1"",""40976""
","
","
","""event"",""trial"",""time""
""fullscreenenter"",""1"",""40976""
","
","","","-1","","","10","4133","147","b","elianto","#f73b6a7A","-1","-1","1","-10","[]","0","2","","","4133","31","3","4","lose","no-go","1"
"pit-trial","153","1383482","0.0-36.0","battery-v0.2","","""event"",""trial"",""time""
""fullscreenenter"",""1"",""40976""
","
","
","""event"",""trial"",""time""
""fullscreenenter"",""1"",""40976""
","
","","","-1","","","10","4133","147","f","elianto","#3366ff99","-1","-1","1","+10","[]","0","2","","","4133","32","1","2","win","no-go","0"
"pit-trial","154","1387215","0.0-37.0","battery-v0.2","","""event"",""trial"",""time""
""fullscreenenter"",""1"",""40976""
","
","
","""event"",""trial"",""time""
""fullscreenenter"",""1"",""40976""
","
","","","877.1999999880791","","","10","4133","147","f","elianto","#3366ff99","-1"," ","0","+10","[1728.199999988079]","1","2","","","4133","33","1","2","win","no-go","1"
"pit-trial","155","1392079","0.0-38.0","battery-v0.2","","""event"",""trial"",""time""
""fullscreenenter"",""1"",""40976""
","
","
","""event"",""trial"",""time""
""fullscreenenter"",""1"",""40976""
","
","","","-1","","","10","4133","147","n","elianto","#f73b6a7A"," ","-1","0","-10","[]","0","2","","","4133","34","0","3","lose","go","0"
"pit-trial","156","1396937","0.0-39.0","battery-v0.2","","""event"",""trial"",""time""
""fullscreenenter"",""1"",""40976""
","
","
","""event"",""trial"",""time""
""fullscreenenter"",""1"",""40976""
","
","","","-1","","","10","4133","147","t","elianto","#f73b6a7A"," ","-1","0","0","[4691]","1","2","","","4133","35","2","3","lose","go","1"
"pit-trial","157","1401799","0.0-40.0","battery-v0.2","","""event"",""trial"",""time""
""fullscreenenter"",""1"",""40976""
","
","
","""event"",""trial"",""time""
""fullscreenenter"",""1"",""40976""
","
","","","-1","","","10","4133","147","b","elianto","#f73b6a7A","-1","-1","1","0","[]","0","2","","","4133","36","3","4","lose","no-go","0"
"pit-trial","158","1406660","0.0-41.0","battery-v0.2","","""event"",""trial"",""time""
""fullscreenenter"",""1"",""40976""
","
","
","""event"",""trial"",""time""
""fullscreenenter"",""1"",""40976""
","
","","","-1","","","10","4133","147","t","elianto","#f73b6a7A"," ","-1","0","-10","[]","0","2","","","4133","37","2","3","lose","go","0"
"pit-trial","159","1410339","0.0-42.0","battery-v0.2","","""event"",""trial"",""time""
""fullscreenenter"",""1"",""40976""
","
","
","""event"",""trial"",""time""
""fullscreenenter"",""1"",""40976""
","
","","","821","","","10","4133","147","n","elianto","#f73b6a7A"," "," ","1","0","[1672]","1","2","","","4133","38","0","3","lose","go","0"
"pit-trial","160","1414291","0.0-43.0","battery-v0.2","","""event"",""trial"",""time""
""fullscreenenter"",""1"",""40976""
","
","
","""event"",""trial"",""time""
""fullscreenenter"",""1"",""40976""
","
","","","1089.7999999821186","","","10","4133","147","b","elianto","#f73b6a7A","-1"," ","0","-10","[1942.5999999940395]","1","2","","","4133","39","3","4","lose","no-go","0"
"pit-trial","161","1417711","0.0-44.0","battery-v0.2","","""event"",""trial"",""time""
""fullscreenenter"",""1"",""40976""
","
","
","""event"",""trial"",""time""
""fullscreenenter"",""1"",""40976""
","
","","","561.7000000178814","","","10","4133","147","f","elianto","#3366ff99","-1"," ","0","0","[1413]","1","2","","","4133","40","1","2","win","no-go","0"
"pit-trial","162","1422573","0.0-45.0","battery-v0.2","","""event"",""trial"",""time""
""fullscreenenter"",""1"",""40976""
","
","
","""event"",""trial"",""time""
""fullscreenenter"",""1"",""40976""
","
","","","-1","","","10","4133","147","t","elianto","#f73b6a7A"," ","-1","0","-10","[3726.9000000059605]","1","2","","","4133","41","2","3","lose","go","0"
"pit-trial","163","1427438","0.0-46.0","battery-v0.2","","""event"",""trial"",""time""
""fullscreenenter"",""1"",""40976""
","
","
","""event"",""trial"",""time""
""fullscreenenter"",""1"",""40976""
","
","","","-1","","","10","4133","147","n","elianto","#f73b6a7A"," ","-1","0","-10","[]","0","2","","","4133","42","0","3","lose","go","0"
"pit-trial","164","1431538","0.0-47.0","battery-v0.2","","""event"",""trial"",""time""
""fullscreenenter"",""1"",""40976""
","
","
","""event"",""trial"",""time""
""fullscreenenter"",""1"",""40976""
","
","","","1241.300000011921","","","10","4133","147","b","elianto","#f73b6a7A","-1"," ","0","-10","[2091.7999999821186]","1","2","","","4133","43","3","4","lose","no-go","0"
"pit-trial","165","1435471","0.0-48.0","battery-v0.2","","""event"",""trial"",""time""
""fullscreenenter"",""1"",""40976""
","
","
","""event"",""trial"",""time""
""fullscreenenter"",""1"",""40976""
","
","","","1072.800000011921","","","10","4133","147","f","elianto","#3366ff99","-1"," ","0","0","[1923]","1","2","","","4133","44","1","2","win","no-go","0"
"pit-trial","166","1440332","0.0-49.0","battery-v0.2","","""event"",""trial"",""time""
""fullscreenenter"",""1"",""40976""
","
","
","""event"",""trial"",""time""
""fullscreenenter"",""1"",""40976""
","
","","","-1","","","10","4133","147","t","elianto","#f73b6a7A"," ","-1","0","-10","[]","0","2","","","4133","45","2","3","lose","go","0"
"pit-trial","167","1443960","0.0-50.0","battery-v0.2","","""event"",""trial"",""time""
""fullscreenenter"",""1"",""40976""
","
","
","""event"",""trial"",""time""
""fullscreenenter"",""1"",""40976""
","
","","","771.2000000178814","","","10","4133","147","b","elianto","#f73b6a7A","-1"," ","0","-10","[1622.0999999940395]","1","2","","","4133","46","3","4","lose","no-go","0"
"pit-trial","168","1447942","0.0-51.0","battery-v0.2","","""event"",""trial"",""time""
""fullscreenenter"",""1"",""40976""
","
","
","""event"",""trial"",""time""
""fullscreenenter"",""1"",""40976""
","
","","","1124","","","10","4133","147","n","elianto","#f73b6a7A"," "," ","1","0","[1974.4000000059605]","1","2","","","4133","47","0","3","lose","go","0"
"pit-trial","169","1451509","0.0-52.0","battery-v0.2","","""event"",""trial"",""time""
""fullscreenenter"",""1"",""40976""
","
","
","""event"",""trial"",""time""
""fullscreenenter"",""1"",""40976""
","
","","","708","","","10","4133","147","f","elianto","#3366ff99","-1"," ","0","+10","[1558.9000000059605]","1","2","","","4133","48","1","2","win","no-go","1"
"pit-trial","170","1456267","0.0-53.0","battery-v0.2","","""event"",""trial"",""time""
""fullscreenenter"",""1"",""40976""
","
","
","""event"",""trial"",""time""
""fullscreenenter"",""1"",""40976""
","
","","","1901.5","","","10","4133","147","t","elianto","#f73b6a7A"," "," ","1","-10","[2752.0999999940395,3161.399999976158]","2","2","","","4133","49","2","3","lose","go","1"
"pit-trial","171","1460295","0.0-54.0","battery-v0.2","","""event"",""trial"",""time""
""fullscreenenter"",""1"",""40976""
","
","
","""event"",""trial"",""time""
""fullscreenenter"",""1"",""40976""
","
","","","1170.699999988079","","","10","4133","147","b","elianto","#f73b6a7A","-1"," ","0","-10","[2022.5]","1","2","","","4133","50","3","4","lose","no-go","0"
"pit-trial","172","1464010","0.0-55.0","battery-v0.2","","""event"",""trial"",""time""
""fullscreenenter"",""1"",""40976""
","
","
","""event"",""trial"",""time""
""fullscreenenter"",""1"",""40976""
","
","","","860.1000000238419","","","10","4133","147","f","elianto","#3366ff99","-1"," ","0","0","[1711.1000000238419]","1","2","","","4133","51","1","2","win","no-go","0"
"pit-trial","173","1468869","0.0-56.0","battery-v0.2","","""event"",""trial"",""time""
""fullscreenenter"",""1"",""40976""
","
","
","""event"",""trial"",""time""
""fullscreenenter"",""1"",""40976""
","
","","","-1","","","10","4133","147","n","elianto","#f73b6a7A"," ","-1","0","-10","[]","0","2","","","4133","52","0","3","lose","go","0"
"pit-trial","174","1473728","0.0-57.0","battery-v0.2","","""event"",""trial"",""time""
""fullscreenenter"",""1"",""40976""
","
","
","""event"",""trial"",""time""
""fullscreenenter"",""1"",""40976""
","
","","","-1","","","10","4133","147","n","elianto","#f73b6a7A"," ","-1","0","0","[]","0","2","","","4133","53","0","3","lose","go","1"
"pit-trial","175","1478591","0.0-58.0","battery-v0.2","","""event"",""trial"",""time""
""fullscreenenter"",""1"",""40976""
","
","
","""event"",""trial"",""time""
""fullscreenenter"",""1"",""40976""
","
","","","-1","","","10","4133","147","b","elianto","#f73b6a7A","-1","-1","1","0","[]","0","2","","","4133","54","3","4","lose","no-go","0"
"pit-trial","176","1483450","0.0-59.0","battery-v0.2","","""event"",""trial"",""time""
""fullscreenenter"",""1"",""40976""
","
","
","""event"",""trial"",""time""
""fullscreenenter"",""1"",""40976""
","
","","","-1","","","10","4133","147","f","elianto","#3366ff99","-1","-1","1","+10","[]","0","2","","","4133","55","1","2","win","no-go","0"
"pit-trial","177","1488314","0.0-60.0","battery-v0.2","","""event"",""trial"",""time""
""fullscreenenter"",""1"",""40976""
","
","
","""event"",""trial"",""time""
""fullscreenenter"",""1"",""40976""
","
","","","-1","","","10","4133","147","t","elianto","#f73b6a7A"," ","-1","0","-10","[]","0","2","","","4133","56","2","3","lose","go","0"
"pit-trial","178","1492431","0.0-61.0","battery-v0.2","","""event"",""trial"",""time""
""fullscreenenter"",""1"",""40976""
","
","
","""event"",""trial"",""time""
""fullscreenenter"",""1"",""40976""
","
","","","1257.5999999940395","","","10","4133","147","b","elianto","#f73b6a7A","-1"," ","0","0","[2108.199999988079,3469.699999988079]","2","2","","","4133","57","3","4","lose","no-go","1"
"pit-trial","179","1497294","0.0-62.0","battery-v0.2","","""event"",""trial"",""time""
""fullscreenenter"",""1"",""40976""
","
","
","""event"",""trial"",""time""
""fullscreenenter"",""1"",""40976""
","
","","","-1","","","10","4133","147","n","elianto","#f73b6a7A"," ","-1","0","0","[4048.5]","1","2","","","4133","58","0","3","lose","go","1"
"pit-trial","180","1500918","0.0-63.0","battery-v0.2","","""event"",""trial"",""time""
""fullscreenenter"",""1"",""40976""
","
","
","""event"",""trial"",""time""
""fullscreenenter"",""1"",""40976""
","
","","","768.6000000238419","","","10","4133","147","c","elianto","#3366ff99"," "," ","1","+10","[1618.5]","1","2","","","4133","59","4","1","win","go","0"
"pit-trial","181","1505782","0.0-64.0","battery-v0.2","","""event"",""trial"",""time""
""fullscreenenter"",""1"",""40976""
","
","
","""event"",""trial"",""time""
""fullscreenenter"",""1"",""40976""
","
","","","-1","","","10","4133","147","t","elianto","#f73b6a7A"," ","-1","0","-10","[]","0","2","","","4133","60","2","3","lose","go","0"
"pit-trial","182","1509150","0.0-65.0","battery-v0.2","","""event"",""trial"",""time""
""fullscreenenter"",""1"",""40976""
","
","
","""event"",""trial"",""time""
""fullscreenenter"",""1"",""40976""
","
","","","508.09999999403954","","","10","4133","147","b","elianto","#f73b6a7A","-1"," ","0","-10","[1359]","1","2","","","4133","61","3","4","lose","no-go","0"
"pit-trial","183","1513678","0.0-66.0","battery-v0.2","","""event"",""trial"",""time""
""fullscreenenter"",""1"",""40976""
","
","
","""event"",""trial"",""time""
""fullscreenenter"",""1"",""40976""
","
","","","1671.199999988079","","","10","4133","147","t","elianto","#f73b6a7A"," "," ","1","0","[2521.699999988079]","1","2","","","4133","62","2","3","lose","go","0"
"pit-trial","184","1517134","0.0-67.0","battery-v0.2","","""event"",""trial"",""time""
""fullscreenenter"",""1"",""40976""
","
","
","""event"",""trial"",""time""
""fullscreenenter"",""1"",""40976""
","
","","","598.5999999940395","","","10","4133","147","c","elianto","#3366ff99"," "," ","1","0","[1449]","1","2","","","4133","63","4","1","win","go","1"
"pit-trial","185","1520739","0.0-68.0","battery-v0.2","","""event"",""trial"",""time""
""fullscreenenter"",""1"",""40976""
","
","
","""event"",""trial"",""time""
""fullscreenenter"",""1"",""40976""
","
","","","744.5999999940395","","","10","4133","147","f","elianto","#3366ff99","-1"," ","0","0","[1596.2999999821186]","1","2","","","4133","64","1","2","win","no-go","0"
"pit-trial","186","1525420","0.0-69.0","battery-v0.2","","""event"",""trial"",""time""
""fullscreenenter"",""1"",""40976""
","
","
","""event"",""trial"",""time""
""fullscreenenter"",""1"",""40976""
","
","","","1822.5","","","10","4133","147","b","elianto","#f73b6a7A","-1"," ","0","-10","[2675.199999988079]","1","2","","","4133","65","3","4","lose","no-go","0"
"pit-trial","187","1528849","0.0-70.0","battery-v0.2","","""event"",""trial"",""time""
""fullscreenenter"",""1"",""40976""
","
","
","""event"",""trial"",""time""
""fullscreenenter"",""1"",""40976""
","
","","","573.0999999940395","","","10","4133","147","c","elianto","#3366ff99"," "," ","1","+10","[1424.0999999940395]","1","2","","","4133","66","4","1","win","go","0"
"pit-trial","188","1532499","0.0-71.0","battery-v0.2","","""event"",""trial"",""time""
""fullscreenenter"",""1"",""40976""
","
","
","""event"",""trial"",""time""
""fullscreenenter"",""1"",""40976""
","
","","","794.3000000119209","","","10","4133","147","z","elianto","#3366ff99","-1"," ","0","0","[1644.9000000059605,3460.0999999940395]","2","2","","","4133","67","5","2","win","no-go","0"
"pit-trial","189","1535831","0.0-72.0","battery-v0.2","","""event"",""trial"",""time""
""fullscreenenter"",""1"",""40976""
","
","
","""event"",""trial"",""time""
""fullscreenenter"",""1"",""40976""
","
","","","474.09999999403954","","","10","4133","147","f","elianto","#3366ff99","-1"," ","0","0","[1325.7999999821186]","1","2","","","4133","68","1","2","win","no-go","0"
"pit-trial","190","1539199","0.0-73.0","battery-v0.2","","""event"",""trial"",""time""
""fullscreenenter"",""1"",""40976""
","
","
","""event"",""trial"",""time""
""fullscreenenter"",""1"",""40976""
","
","","","507.90000000596046","","","10","4133","147","c","elianto","#3366ff99"," "," ","1","+10","[1359]","1","2","","","4133","69","4","1","win","go","0"
"pit-trial","191","1542465","0.0-74.0","battery-v0.2","","""event"",""trial"",""time""
""fullscreenenter"",""1"",""40976""
","
","
","""event"",""trial"",""time""
""fullscreenenter"",""1"",""40976""
","
","","","407.90000000596046","","","10","4133","147","z","elianto","#3366ff99","-1"," ","0","0","[1258.800000011921]","1","2","","","4133","70","5","2","win","no-go","0"
"pit-trial","192","1546331","0.0-75.0","battery-v0.2","","""event"",""trial"",""time""
""fullscreenenter"",""1"",""40976""
","
","
","""event"",""trial"",""time""
""fullscreenenter"",""1"",""40976""
","
","","","1009.4000000059605","","","10","4133","147","f","elianto","#3366ff99","-1"," ","0","0","[1860.300000011921,3714]","2","2","","","4133","71","1","2","win","no-go","0"
"pit-trial","193","1549733","0.0-76.0","battery-v0.2","","""event"",""trial"",""time""
""fullscreenenter"",""1"",""40976""
","
","
","""event"",""trial"",""time""
""fullscreenenter"",""1"",""40976""
","
","","","546.3000000119209","","","10","4133","147","t","elianto","#f73b6a7A"," "," ","1","0","[1397.300000011921]","1","2","","","4133","72","2","3","lose","go","0"
"pit-trial","194","1553075","0.0-77.0","battery-v0.2","","""event"",""trial"",""time""
""fullscreenenter"",""1"",""40976""
","
","
","""event"",""trial"",""time""
""fullscreenenter"",""1"",""40976""
","
","","","483.30000001192093","","","10","4133","147","b","elianto","#f73b6a7A","-1"," ","0","-10","[1333.6000000238419]","1","2","","","4133","73","3","4","lose","no-go","0"
"pit-trial","195","1556326","0.0-78.0","battery-v0.2","","""event"",""trial"",""time""
""fullscreenenter"",""1"",""40976""
","
","
","""event"",""trial"",""time""
""fullscreenenter"",""1"",""40976""
","
","","","394.80000001192093","","","10","4133","147","z","elianto","#3366ff99","-1"," ","0","+10","[1245.699999988079]","1","2","","","4133","74","5","2","win","no-go","1"
"pit-trial","196","1559760","0.0-79.0","battery-v0.2","","""event"",""trial"",""time""
""fullscreenenter"",""1"",""40976""
","
","
","""event"",""trial"",""time""
""fullscreenenter"",""1"",""40976""
","
","","","574.6999999880791","","","10","4133","147","f","elianto","#3366ff99","-1"," ","0","0","[1425]","1","2","","","4133","75","1","2","win","no-go","0"
"pit-trial","197","1563947","0.0-80.0","battery-v0.2","","""event"",""trial"",""time""
""fullscreenenter"",""1"",""40976""
","
","
","""event"",""trial"",""time""
""fullscreenenter"",""1"",""40976""
","
","","","1325.9000000059605","","","10","4133","147","c","elianto","#3366ff99"," "," ","1","0","[2177.0999999940395,2646.2999999821186]","2","2","","","4133","76","4","1","win","go","1"
"pit-trial","198","1568810","0.0-81.0","battery-v0.2","","""event"",""trial"",""time""
""fullscreenenter"",""1"",""40976""
","
","
","""event"",""trial"",""time""
""fullscreenenter"",""1"",""40976""
","
","","","-1","","","10","4133","147","b","elianto","#f73b6a7A","-1","-1","1","0","[]","0","2","","","4133","77","3","4","lose","no-go","0"
"pit-trial","199","1572273","0.0-82.0","battery-v0.2","","""event"",""trial"",""time""
""fullscreenenter"",""1"",""40976""
","
","
","""event"",""trial"",""time""
""fullscreenenter"",""1"",""40976""
","
","","","603.2999999821186","","","10","4133","147","c","elianto","#3366ff99"," "," ","1","+10","[1453.5]","1","2","","","4133","78","4","1","win","go","0"
"pit-trial","200","1575781","0.0-83.0","battery-v0.2","","""event"",""trial"",""time""
""fullscreenenter"",""1"",""40976""
","
","
","""event"",""trial"",""time""
""fullscreenenter"",""1"",""40976""
","
","","","649.3000000119209","","","10","4133","147","c","elianto","#3366ff99"," "," ","1","0","[1502.300000011921]","1","2","","","4133","79","4","1","win","go","1"
"pit-trial","201","1579301","0.0-84.0","battery-v0.2","","""event"",""trial"",""time""
""fullscreenenter"",""1"",""40976""
","
","
","""event"",""trial"",""time""
""fullscreenenter"",""1"",""40976""
","
","","","660.5999999940395","","","10","4133","147","z","elianto","#3366ff99","-1"," ","0","0","[1511,2546,3451.9000000059605]","3","2","","","4133","80","5","2","win","no-go","0"
"pit-trial","202","1584164","0.0-85.0","battery-v0.2","","""event"",""trial"",""time""
""fullscreenenter"",""1"",""40976""
","
","
","""event"",""trial"",""time""
""fullscreenenter"",""1"",""40976""
","
","","","-1","","","10","4133","147","b","elianto","#f73b6a7A","-1","-1","1","0","[]","0","2","","","4133","81","3","4","lose","no-go","0"
"pit-trial","203","1587871","0.0-86.0","battery-v0.2","","""event"",""trial"",""time""
""fullscreenenter"",""1"",""40976""
","
","
","""event"",""trial"",""time""
""fullscreenenter"",""1"",""40976""
","
","","","846.8999999761581","","","10","4133","147","c","elianto","#3366ff99"," "," ","1","+10","[1698]","1","2","","","4133","82","4","1","win","go","0"
"pit-trial","204","1591872","0.0-87.0","battery-v0.2","","""event"",""trial"",""time""
""fullscreenenter"",""1"",""40976""
","
","
","""event"",""trial"",""time""
""fullscreenenter"",""1"",""40976""
","
","","","1139.4000000059605","","","10","4133","147","z","elianto","#3366ff99","-1"," ","0","0","[1992.4000000059605]","1","2","","","4133","83","5","2","win","no-go","0"
"pit-trial","205","1595860","0.0-88.0","battery-v0.2","","""event"",""trial"",""time""
""fullscreenenter"",""1"",""40976""
","
","
","""event"",""trial"",""time""
""fullscreenenter"",""1"",""40976""
","
","","","1128.0999999940395","","","10","4133","147","y","elianto","#f73b6a7A","-1"," ","0","-10","[1980.699999988079]","1","2","","","4133","84","7","4","lose","no-go","0"
"pit-trial","206","1599417","0.0-89.0","battery-v0.2","","""event"",""trial"",""time""
""fullscreenenter"",""1"",""40976""
","
","
","""event"",""trial"",""time""
""fullscreenenter"",""1"",""40976""
","
","","","699.2999999821186","","","10","4133","147","c","elianto","#3366ff99"," "," ","1","+10","[1549.5999999940395]","1","2","","","4133","85","4","1","win","go","0"
"pit-trial","207","1602958","0.0-90.0","battery-v0.2","","""event"",""trial"",""time""
""fullscreenenter"",""1"",""40976""
","
","
","""event"",""trial"",""time""
""fullscreenenter"",""1"",""40976""
","
","","","680.4000000059605","","","10","4133","147","z","elianto","#3366ff99","-1"," ","0","0","[1531]","1","2","","","4133","86","5","2","win","no-go","0"
"pit-trial","208","1606009","0.0-91.0","battery-v0.2","","""event"",""trial"",""time""
""fullscreenenter"",""1"",""40976""
","
","
","""event"",""trial"",""time""
""fullscreenenter"",""1"",""40976""
","
","","","192.30000001192093","","","10","4133","147","y","elianto","#f73b6a7A","-1"," ","0","-10","[1042.5]","1","2","","","4133","87","7","4","lose","no-go","0"
"pit-trial","209","1609570","0.0-92.0","battery-v0.2","","""event"",""trial"",""time""
""fullscreenenter"",""1"",""40976""
","
","
","""event"",""trial"",""time""
""fullscreenenter"",""1"",""40976""
","
","","","703.5999999940395","","","10","4133","147","h","elianto","#f73b6a7A"," "," ","1","0","[1554.0999999940395,3374.7999999821186]","2","2","","","4133","88","6","3","lose","go","0"
"pit-trial","210","1613394","0.0-93.0","battery-v0.2","","""event"",""trial"",""time""
""fullscreenenter"",""1"",""40976""
","
","
","""event"",""trial"",""time""
""fullscreenenter"",""1"",""40976""
","
","","","964.6000000238419","","","10","4133","147","z","elianto","#3366ff99","-1"," ","0","0","[612.4000000059605,1817.2999999821186,2160.2999999821186,2623,2762.0999999940395,2902.699999988079,3020.699999988079,3096.699999988079,3201.2999999821186,3292.699999988079,3380.0999999940395]","11","2","","","4133","89","5","2","win","no-go","0"
"pit-trial","211","1618034","0.0-94.0","battery-v0.2","","""event"",""trial"",""time""
""fullscreenenter"",""1"",""40976""
","
","
","""event"",""trial"",""time""
""fullscreenenter"",""1"",""40976""
","
","","","1786.4000000059605","","","10","4133","147","h","elianto","#f73b6a7A"," "," ","1","0","[2636.800000011921]","1","2","","","4133","90","6","3","lose","go","0"
"pit-trial","212","1622092","0.0-95.0","battery-v0.2","","""event"",""trial"",""time""
""fullscreenenter"",""1"",""40976""
","
","
","""event"",""trial"",""time""
""fullscreenenter"",""1"",""40976""
","
","","","1198.0999999940395","","","10","4133","147","y","elianto","#f73b6a7A","-1"," ","0","-10","[2050]","1","2","","","4133","91","7","4","lose","no-go","0"
"pit-trial","213","1626054","0.0-96.0","battery-v0.2","","""event"",""trial"",""time""
""fullscreenenter"",""1"",""40976""
","
","
","""event"",""trial"",""time""
""fullscreenenter"",""1"",""40976""
","
","","","1104.199999988079","","","10","4133","147","c","elianto","#3366ff99"," "," ","1","+10","[1955.5999999940395]","1","2","","","4133","92","4","1","win","go","0"
"pit-trial","214","1629852","0.0-97.0","battery-v0.2","","""event"",""trial"",""time""
""fullscreenenter"",""1"",""40976""
","
","
","""event"",""trial"",""time""
""fullscreenenter"",""1"",""40976""
","
","","","936.8000000119209","","","10","4133","147","h","elianto","#f73b6a7A"," "," ","1","0","[1789.300000011921]","1","2","","","4133","93","6","3","lose","go","0"
"pit-trial","215","1633187","0.0-98.0","battery-v0.2","","""event"",""trial"",""time""
""fullscreenenter"",""1"",""40976""
","
","
","""event"",""trial"",""time""
""fullscreenenter"",""1"",""40976""
","
","","","471.59999999403954","","","10","4133","147","r","elianto","#3366ff99"," "," ","1","+10","[1324.0999999940395]","1","2","","","4133","94","8","1","win","go","0"
"pit-trial","216","1636582","0.0-99.0","battery-v0.2","","""event"",""trial"",""time""
""fullscreenenter"",""1"",""40976""
","
","
","""event"",""trial"",""time""
""fullscreenenter"",""1"",""40976""
","
","","","537.0999999940395","","","10","4133","147","z","elianto","#3366ff99","-1"," ","0","0","[1389.699999988079]","1","2","","","4133","95","5","2","win","no-go","0"
"pit-trial","217","1639943","0.0-100.0","battery-v0.2","","""event"",""trial"",""time""
""fullscreenenter"",""1"",""40976""
","
","
","""event"",""trial"",""time""
""fullscreenenter"",""1"",""40976""
","
","","","500.40000000596046","","","10","4133","147","y","elianto","#f73b6a7A","-1"," ","0","-10","[1352.199999988079]","1","2","","","4133","96","7","4","lose","no-go","0"
"pit-trial","218","1643942","0.0-101.0","battery-v0.2","","""event"",""trial"",""time""
""fullscreenenter"",""1"",""40976""
","
","
","""event"",""trial"",""time""
""fullscreenenter"",""1"",""40976""
","
","","","1140.3999999761581","","","10","4133","147","r","elianto","#3366ff99"," "," ","1","+10","[1990.5999999940395]","1","2","","","4133","97","8","1","win","go","0"
"pit-trial","219","1647371","0.0-102.0","battery-v0.2","","""event"",""trial"",""time""
""fullscreenenter"",""1"",""40976""
","
","
","""event"",""trial"",""time""
""fullscreenenter"",""1"",""40976""
","
","","","571.2999999821186","","","10","4133","147","h","elianto","#f73b6a7A"," "," ","1","0","[1421.2000000178814]","1","2","","","4133","98","6","3","lose","go","0"
"pit-trial","220","1652230","0.0-103.0","battery-v0.2","","""event"",""trial"",""time""
""fullscreenenter"",""1"",""40976""
","
","
","""event"",""trial"",""time""
""fullscreenenter"",""1"",""40976""
","
","","","-1","","","10","4133","147","y","elianto","#f73b6a7A","-1","-1","1","0","[]","0","2","","","4133","99","7","4","lose","no-go","0"
"pit-trial","221","1655759","0.0-104.0","battery-v0.2","","""event"",""trial"",""time""
""fullscreenenter"",""1"",""40976""
","
","
","""event"",""trial"",""time""
""fullscreenenter"",""1"",""40976""
","
","","","669.6999999880791","","","10","4133","147","z","elianto","#3366ff99","-1"," ","0","+10","[1520.5999999940395,3299]","2","2","","","4133","100","5","2","win","no-go","1"
"pit-trial","222","1659316","0.0-105.0","battery-v0.2","","""event"",""trial"",""time""
""fullscreenenter"",""1"",""40976""
","
","
","""event"",""trial"",""time""
""fullscreenenter"",""1"",""40976""
","
","","","698","","","10","4133","147","r","elianto","#3366ff99"," "," ","1","+10","[1547.9000000059605]","1","2","","","4133","101","8","1","win","go","0"
"pit-trial","223","1662795","0.0-106.0","battery-v0.2","","""event"",""trial"",""time""
""fullscreenenter"",""1"",""40976""
","
","
","""event"",""trial"",""time""
""fullscreenenter"",""1"",""40976""
","
","","","618.2999999821186","","","10","4133","147","m","elianto","#3366ff99"," "," ","1","+10","[1470.199999988079]","1","2","","","4133","102","9","1","win","go","0"
"pit-trial","224","1667658","0.0-107.0","battery-v0.2","","""event"",""trial"",""time""
""fullscreenenter"",""1"",""40976""
","
","
","""event"",""trial"",""time""
""fullscreenenter"",""1"",""40976""
","
","","","-1","","","10","4133","147","y","elianto","#f73b6a7A","-1","-1","1","0","[]","0","2","","","4133","103","7","4","lose","no-go","0"
"pit-trial","225","1671118","0.0-108.0","battery-v0.2","","""event"",""trial"",""time""
""fullscreenenter"",""1"",""40976""
","
","
","""event"",""trial"",""time""
""fullscreenenter"",""1"",""40976""
","
","","","599.6999999880791","","","10","4133","147","z","elianto","#3366ff99","-1"," ","0","0","[1450]","1","2","","","4133","104","5","2","win","no-go","0"
"pit-trial","226","1674578","0.0-109.0","battery-v0.2","","""event"",""trial"",""time""
""fullscreenenter"",""1"",""40976""
","
","
","""event"",""trial"",""time""
""fullscreenenter"",""1"",""40976""
","
","","","600.5","","","10","4133","147","c","elianto","#3366ff99"," "," ","1","+10","[1451.0999999940395]","1","2","","","4133","105","4","1","win","go","0"
"pit-trial","227","1677951","0.0-110.0","battery-v0.2","","""event"",""trial"",""time""
""fullscreenenter"",""1"",""40976""
","
","
","""event"",""trial"",""time""
""fullscreenenter"",""1"",""40976""
","
","","","516","","","10","4133","147","r","elianto","#3366ff99"," "," ","1","+10","[1366.5,2435.199999988079,2920.699999988079]","3","2","","","4133","106","8","1","win","go","0"
"pit-trial","228","1681378","0.0-111.0","battery-v0.2","","""event"",""trial"",""time""
""fullscreenenter"",""1"",""40976""
","
","
","""event"",""trial"",""time""
""fullscreenenter"",""1"",""40976""
","
","","","566.3000000119209","","","10","4133","147","m","elianto","#3366ff99"," "," ","1","+10","[1417.4000000059605]","1","2","","","4133","107","9","1","win","go","0"
"pit-trial","229","1684511","0.0-112.0","battery-v0.2","","""event"",""trial"",""time""
""fullscreenenter"",""1"",""40976""
","
","
","""event"",""trial"",""time""
""fullscreenenter"",""1"",""40976""
","
","","","275.2000000178814","","","10","4133","147","h","elianto","#f73b6a7A"," "," ","1","0","[1125.4000000059605]","1","2","","","4133","108","6","3","lose","go","0"
"pit-trial","230","1687834","0.0-113.0","battery-v0.2","","""event"",""trial"",""time""
""fullscreenenter"",""1"",""40976""
","
","
","""event"",""trial"",""time""
""fullscreenenter"",""1"",""40976""
","
","","","464.2999999821186","","","10","4133","147","z","elianto","#3366ff99","-1"," ","0","0","[1315.0999999940395]","1","2","","","4133","109","5","2","win","no-go","0"
"pit-trial","231","1690728","0.0-114.0","battery-v0.2","","""event"",""trial"",""time""
""fullscreenenter"",""1"",""40976""
","
","
","""event"",""trial"",""time""
""fullscreenenter"",""1"",""40976""
","
","","","37.69999998807907","","","10","4133","147","m","elianto","#3366ff99"," "," ","1","0","[889.5,964,1456.6000000238419,2271.100000023842,2615.9000000059605]","5","2","","","4133","110","9","1","win","go","1"
"pit-trial","232","1695187","0.0-115.0","battery-v0.2","","""event"",""trial"",""time""
""fullscreenenter"",""1"",""40976""
","
","
","""event"",""trial"",""time""
""fullscreenenter"",""1"",""40976""
","
","","","1600.2999999821186","","","10","4133","147","h","elianto","#f73b6a7A"," "," ","1","0","[2450.300000011921]","1","2","","","4133","111","6","3","lose","go","0"
"pit-trial","233","1698602","0.0-116.0","battery-v0.2","","""event"",""trial"",""time""
""fullscreenenter"",""1"",""40976""
","
","
","""event"",""trial"",""time""
""fullscreenenter"",""1"",""40976""
","
","","","555.4000000059605","","","10","4133","147","r","elianto","#3366ff99"," "," ","1","+10","[1406.800000011921]","1","2","","","4133","112","8","1","win","go","0"
"pit-trial","234","1701832","0.0-117.0","battery-v0.2","","""event"",""trial"",""time""
""fullscreenenter"",""1"",""40976""
","
","
","""event"",""trial"",""time""
""fullscreenenter"",""1"",""40976""
","
","","","371.7999999821186","","","10","4133","147","z","elianto","#3366ff99","-1"," ","0","0","[1224.5]","1","2","","","4133","113","5","2","win","no-go","0"
"pit-trial","235","1706029","0.0-118.0","battery-v0.2","","""event"",""trial"",""time""
""fullscreenenter"",""1"",""40976""
","
","
","""event"",""trial"",""time""
""fullscreenenter"",""1"",""40976""
","
","","","1338.7999999821186","","","10","4133","147","h","elianto","#f73b6a7A"," "," ","1","0","[2190.7999999821186]","1","2","","","4133","114","6","3","lose","go","0"
"pit-trial","236","1709437","0.0-119.0","battery-v0.2","","""event"",""trial"",""time""
""fullscreenenter"",""1"",""40976""
","
","
","""event"",""trial"",""time""
""fullscreenenter"",""1"",""40976""
","
","","","551.4000000059605","","","10","4133","147","r","elianto","#3366ff99"," "," ","1","+10","[1402.9000000059605]","1","2","","","4133","115","8","1","win","go","0"
"pit-trial","237","1713234","0.0-120.0","battery-v0.2","","""event"",""trial"",""time""
""fullscreenenter"",""1"",""40976""
","
","
","""event"",""trial"",""time""
""fullscreenenter"",""1"",""40976""
","
","","","936.7999999821186","","","10","4133","147","m","elianto","#3366ff99"," "," ","1","0","[1789.199999988079]","1","2","","","4133","116","9","1","win","go","1"
"pit-trial","238","1716647","0.0-121.0","battery-v0.2","","""event"",""trial"",""time""
""fullscreenenter"",""1"",""40976""
","
","
","""event"",""trial"",""time""
""fullscreenenter"",""1"",""40976""
","
","","","556.8000000119209","","","10","4133","147","m","elianto","#3366ff99"," "," ","1","0","[1408.800000011921]","1","2","","","4133","117","9","1","win","go","1"
"pit-trial","239","1721506","0.0-122.0","battery-v0.2","","""event"",""trial"",""time""
""fullscreenenter"",""1"",""40976""
","
","
","""event"",""trial"",""time""
""fullscreenenter"",""1"",""40976""
","
","","","-1","","","10","4133","147","h","elianto","#f73b6a7A"," ","-1","0","-10","[3394.9000000059605]","1","2","","","4133","118","6","3","lose","go","0"
"pit-trial","240","1724694","0.0-123.0","battery-v0.2","","""event"",""trial"",""time""
""fullscreenenter"",""1"",""40976""
","
","
","""event"",""trial"",""time""
""fullscreenenter"",""1"",""40976""
","
","","","333.59999999403954","","","10","4133","147","z","elianto","#3366ff99","-1"," ","0","0","[1184.4000000059605]","1","2","","","4133","119","5","2","win","no-go","0"
"pit-trial","241","1728194","0.0-124.0","battery-v0.2","","""event"",""trial"",""time""
""fullscreenenter"",""1"",""40976""
","
","
","""event"",""trial"",""time""
""fullscreenenter"",""1"",""40976""
","
","","","646.0999999940395","","","10","4133","147","r","elianto","#3366ff99"," "," ","1","+10","[1496.199999988079]","1","2","","","4133","120","8","1","win","go","0"
"pit-trial","242","1732108","0.0-125.0","battery-v0.2","","""event"",""trial"",""time""
""fullscreenenter"",""1"",""40976""
","
","
","""event"",""trial"",""time""
""fullscreenenter"",""1"",""40976""
","
","","","1054.1000000238419","","","10","4133","147","h","elianto","#f73b6a7A"," "," ","1","0","[1904.6000000238419]","1","2","","","4133","121","6","3","lose","go","0"
"pit-trial","243","1735718","0.0-126.0","battery-v0.2","","""event"",""trial"",""time""
""fullscreenenter"",""1"",""40976""
","
","
","""event"",""trial"",""time""
""fullscreenenter"",""1"",""40976""
","
","","","753.0999999940395","","","10","4133","147","r","elianto","#3366ff99"," "," ","1","+10","[1603.7000000178814]","1","2","","","4133","122","8","1","win","go","0"
"pit-trial","244","1739537","0.0-127.0","battery-v0.2","","""event"",""trial"",""time""
""fullscreenenter"",""1"",""40976""
","
","
","""event"",""trial"",""time""
""fullscreenenter"",""1"",""40976""
","
","","","957","","","10","4133","147","m","elianto","#3366ff99"," "," ","1","+10","[1810]","1","2","","","4133","123","9","1","win","go","0"
"pit-trial","245","1744401","0.0-128.0","battery-v0.2","","""event"",""trial"",""time""
""fullscreenenter"",""1"",""40976""
","
","
","""event"",""trial"",""time""
""fullscreenenter"",""1"",""40976""
","
","","","-1","","","10","4133","147","y","elianto","#f73b6a7A","-1","-1","1","0","[]","0","2","","","4133","124","7","4","lose","no-go","0"
"pit-trial","246","1748561","0.0-129.0","battery-v0.2","","""event"",""trial"",""time""
""fullscreenenter"",""1"",""40976""
","
","
","""event"",""trial"",""time""
""fullscreenenter"",""1"",""40976""
","
","","","1299.9000000059605","","","10","4133","147","h","elianto","#f73b6a7A"," "," ","1","0","[2151.199999988079]","1","2","","","4133","125","6","3","lose","go","0"
"pit-trial","247","1751963","0.0-130.0","battery-v0.2","","""event"",""trial"",""time""
""fullscreenenter"",""1"",""40976""
","
","
","""event"",""trial"",""time""
""fullscreenenter"",""1"",""40976""
","
","","","545.6999999880791","","","10","4133","147","m","elianto","#3366ff99"," "," ","1","+10","[1396.199999988079,1911.800000011921]","2","2","","","4133","126","9","1","win","go","0"
"pit-trial","248","1755213","0.0-131.0","battery-v0.2","","""event"",""trial"",""time""
""fullscreenenter"",""1"",""40976""
","
","
","""event"",""trial"",""time""
""fullscreenenter"",""1"",""40976""
","
","","","389.80000001192093","","","10","4133","147","r","elianto","#3366ff99"," "," ","1","+10","[1240.300000011921]","1","2","","","4133","127","8","1","win","go","0"
"pit-trial","249","1760075","0.0-132.0","battery-v0.2","","""event"",""trial"",""time""
""fullscreenenter"",""1"",""40976""
","
","
","""event"",""trial"",""time""
""fullscreenenter"",""1"",""40976""
","
","","","-1","","","10","4133","147","y","elianto","#f73b6a7A","-1","-1","1","0","[]","0","2","","","4133","128","7","4","lose","no-go","0"
"pit-trial","250","1763493","0.0-133.0","battery-v0.2","","""event"",""trial"",""time""
""fullscreenenter"",""1"",""40976""
","
","
","""event"",""trial"",""time""
""fullscreenenter"",""1"",""40976""
","
","","","562.0999999940395","","","10","4133","147","h","elianto","#f73b6a7A"," "," ","1","0","[1412.0999999940395]","1","2","","","4133","129","6","3","lose","go","0"
"pit-trial","251","1768357","0.0-134.0","battery-v0.2","","""event"",""trial"",""time""
""fullscreenenter"",""1"",""40976""
","
","
","""event"",""trial"",""time""
""fullscreenenter"",""1"",""40976""
","
","","","-1","","","10","4133","147","y","elianto","#f73b6a7A","-1","-1","1","0","[]","0","2","","","4133","130","7","4","lose","no-go","0"
"pit-trial","252","1772057","0.0-135.0","battery-v0.2","","""event"",""trial"",""time""
""fullscreenenter"",""1"",""40976""
","
","
","""event"",""trial"",""time""
""fullscreenenter"",""1"",""40976""
","
","","","840.5999999940395","","","10","4133","147","r","elianto","#3366ff99"," "," ","1","0","[1691.0999999940395]","1","2","","","4133","131","8","1","win","go","1"
"pit-trial","253","1775470","0.0-136.0","battery-v0.2","","""event"",""trial"",""time""
""fullscreenenter"",""1"",""40976""
","
","
","""event"",""trial"",""time""
""fullscreenenter"",""1"",""40976""
","
","","","555","","","10","4133","147","m","elianto","#3366ff99"," "," ","1","0","[1405]","1","2","","","4133","132","9","1","win","go","1"
"pit-trial","254","1779369","0.0-137.0","battery-v0.2","","""event"",""trial"",""time""
""fullscreenenter"",""1"",""40976""
","
","
","""event"",""trial"",""time""
""fullscreenenter"",""1"",""40976""
","
","","","1039.4000000059605","","","10","4133","147","h","elianto","#f73b6a7A"," "," ","1","0","[1891.7999999821186]","1","2","","","4133","133","6","3","lose","go","0"
"pit-trial","255","1782766","0.0-138.0","battery-v0.2","","""event"",""trial"",""time""
""fullscreenenter"",""1"",""40976""
","
","
","""event"",""trial"",""time""
""fullscreenenter"",""1"",""40976""
","
","","","538.4000000059605","","","10","4133","147","y","elianto","#f73b6a7A","-1"," ","0","-10","[1391.0999999940395]","1","2","","","4133","134","7","4","lose","no-go","0"
"pit-trial","256","1786078","0.0-139.0","battery-v0.2","","""event"",""trial"",""time""
""fullscreenenter"",""1"",""40976""
","
","
","""event"",""trial"",""time""
""fullscreenenter"",""1"",""40976""
","
","","","456.80000001192093","","","10","4133","147","m","elianto","#3366ff99"," "," ","1","+10","[1307.4000000059605]","1","2","","","4133","135","9","1","win","go","0"
"pit-trial","257","1789552","0.0-140.0","battery-v0.2","","""event"",""trial"",""time""
""fullscreenenter"",""1"",""40976""
","
","
","""event"",""trial"",""time""
""fullscreenenter"",""1"",""40976""
","
","","","616.6999999880791","","","10","4133","147","r","elianto","#3366ff99"," "," ","1","+10","[1467.699999988079]","1","2","","","4133","136","8","1","win","go","0"
"pit-trial","258","1793086","0.0-141.0","battery-v0.2","","""event"",""trial"",""time""
""fullscreenenter"",""1"",""40976""
","
","
","""event"",""trial"",""time""
""fullscreenenter"",""1"",""40976""
","
","","","672.6000000238419","","","10","4133","147","r","elianto","#3366ff99"," "," ","1","+10","[1525.1000000238419]","1","2","","","4133","137","8","1","win","go","0"
"pit-trial","259","1797087","0.0-142.0","battery-v0.2","","""event"",""trial"",""time""
""fullscreenenter"",""1"",""40976""
","
","
","""event"",""trial"",""time""
""fullscreenenter"",""1"",""40976""
","
","","","1142.7000000178814","","","10","4133","147","h","elianto","#f73b6a7A"," "," ","1","0","[1995.5999999940395]","1","2","","","4133","138","6","3","lose","go","0"
"pit-trial","260","1800498","0.0-143.0","battery-v0.2","","""event"",""trial"",""time""
""fullscreenenter"",""1"",""40976""
","
","
","""event"",""trial"",""time""
""fullscreenenter"",""1"",""40976""
","
","","","551.0999999940395","","","10","4133","147","m","elianto","#3366ff99"," "," ","1","+10","[1403.300000011921]","1","2","","","4133","139","9","1","win","go","0"
"pit-trial","261","1805357","0.0-144.0","battery-v0.2","","""event"",""trial"",""time""
""fullscreenenter"",""1"",""40976""
","
","
","""event"",""trial"",""time""
""fullscreenenter"",""1"",""40976""
","
