"trial_type","trial_index","time_elapsed","internal_node_id","task_version","subject_id","interactions","blur_events","focus_events","fullscreenenter_events","fullscreenexit_events","success","view_history","rt","responses","num_errors","age","subject","participantId","rune","rune_set","hex","correct","choice","accuracy","outcome","keys","total_keys","block","practice","value","sub","trial","stimulus","robot","valence","action","sham"
"pavlovia","0","21","0.0-0.0","battery-v0.2","","""event"",""trial"",""time""
""fullscreenenter"",""1"",""4737""
","
","
","""event"",""trial"",""time""
""fullscreenenter"",""1"",""4737""
","
","","","","","","","","","","","","","","","","","","","","","","","","","","",""
"fullscreen","1","5723","0.0-1.0","battery-v0.2","","""event"",""trial"",""time""
""fullscreenenter"",""1"",""4737""
","
","
","""event"",""trial"",""time""
""fullscreenenter"",""1"",""4737""
","
","true","","","","","","","","","","","","","","","","","","","","","","","","","",""
"pit-instructions","2","12869","0.0-2.0-0.0","battery-v0.2","","""event"",""trial"",""time""
""fullscreenenter"",""1"",""4737""
","
","
","""event"",""trial"",""time""
""fullscreenenter"",""1"",""4737""
","
","","[{""page_index"":0,""viewing_time"":7135.199999988079}]","7136.800000011921","","","","","","","","","","","","","","","","","","","","","","","",""
"pit-comprehension","3","18163","0.0-2.0-1.0-0.0","battery-v0.2","","""event"",""trial"",""time""
""fullscreenenter"",""1"",""4737""
","
","
","""event"",""trial"",""time""
""fullscreenenter"",""1"",""4737""
","
","","","5282.199999988079","[""shark""]","0","10","5129","3273","","","","","","","","","","","","","","","","","","",""
"pit-instructions","4","20817","0.0-2.0-1.0-1.0","battery-v0.2","","""event"",""trial"",""time""
""fullscreenenter"",""1"",""4737""
","
","
","""event"",""trial"",""time""
""fullscreenenter"",""1"",""4737""
","
","","[{""page_index"":0,""viewing_time"":2641.5999999940395}]","2642.899999976158","","","","","","","","","","","","","","","","","","","","","","","",""
"pit-comprehension","5","25029","0.0-2.0-2.0-0.0","battery-v0.2","","""event"",""trial"",""time""
""fullscreenenter"",""1"",""4737""
","
","
","""event"",""trial"",""time""
""fullscreenenter"",""1"",""4737""
","
","","","4201.899999976158","[""tiger""]","0","10","5129","3273","","","","","","","","","","","","","","","","","","",""
"pit-instructions","6","26429","0.0-2.0-2.0-1.0","battery-v0.2","","""event"",""trial"",""time""
""fullscreenenter"",""1"",""4737""
","
","
","""event"",""trial"",""time""
""fullscreenenter"",""1"",""4737""
","
","","[{""page_index"":0,""viewing_time"":1390}]","1391.3999999761581","","","","","","","","","","","","","","","","","","","","","","","",""
"pit-instructions","7","132412","0.0-2.0-3.0","battery-v0.2","","""event"",""trial"",""time""
""fullscreenenter"",""1"",""4737""
","
","
","""event"",""trial"",""time""
""fullscreenenter"",""1"",""4737""
","
","","[{""page_index"":0,""viewing_time"":13603.799999982119},{""page_index"":1,""viewing_time"":6720.5},{""page_index"":2,""viewing_time"":6456.300000011921},{""page_index"":3,""viewing_time"":6056.799999982119},{""page_index"":4,""viewing_time"":5883.100000023842},{""page_index"":5,""viewing_time"":7052.299999982119},{""page_index"":6,""viewing_time"":6918.200000017881},{""page_index"":7,""viewing_time"":9011.09999999404},{""page_index"":8,""viewing_time"":6860.4000000059605},{""page_index"":9,""viewing_time"":8045.699999988079},{""page_index"":10,""viewing_time"":7088},{""page_index"":11,""viewing_time"":8388.09999999404},{""page_index"":12,""viewing_time"":8590.700000017881},{""page_index"":13,""viewing_time"":5295.199999988079}]","105971.89999997616","","","","","","","","","","","","","","","","","","","","","","","",""
"pit-trial","8","136253","0.0-2.0-4.0-0.0","battery-v0.2","","""event"",""trial"",""time""
""fullscreenenter"",""1"",""4737""
","
","
","""event"",""trial"",""time""
""fullscreenenter"",""1"",""4737""
","
","","","975.9000000059605","","","10","5129","3273","&#9784;","elianto","#FFFFF080"," "," ","1","&#10004","[1830.8999999761581]","1","0","0","","","","","","","",""
"pit-trial","9","139962","0.0-2.0-4.1-0.1","battery-v0.2","","""event"",""trial"",""time""
""fullscreenenter"",""1"",""4737""
","
","
","""event"",""trial"",""time""
""fullscreenenter"",""1"",""4737""
","
","","","848.9000000059605","","","10","5129","3273","&#9784;","elianto","#FFFFF080"," "," ","1","&#10004","[1698.9000000059605]","1","0","0","","","","","","","",""
"pit-trial","10","143542","0.0-2.0-4.2-0.2","battery-v0.2","","""event"",""trial"",""time""
""fullscreenenter"",""1"",""4737""
","
","
","""event"",""trial"",""time""
""fullscreenenter"",""1"",""4737""
","
","","","720.6999999880791","","","10","5129","3273","&#9784;","elianto","#FFFFF080"," "," ","1","&#10004","[1571.300000011921]","1","0","0","","","","","","","",""
"pit-trial","11","147181","0.0-2.0-4.3-0.3","battery-v0.2","","""event"",""trial"",""time""
""fullscreenenter"",""1"",""4737""
","
","
","""event"",""trial"",""time""
""fullscreenenter"",""1"",""4737""
","
","","","779.3999999761581","","","10","5129","3273","&#9784;","elianto","#FFFFF080"," "," ","1","&#10004","[1629.7000000178814]","1","0","0","","","","","","","",""
"pit-trial","12","150520","0.0-2.0-4.4-0.4","battery-v0.2","","""event"",""trial"",""time""
""fullscreenenter"",""1"",""4737""
","
","
","""event"",""trial"",""time""
""fullscreenenter"",""1"",""4737""
","
","","","478.89999997615814","","","10","5129","3273","&#9784;","elianto","#FFFFF080"," "," ","1","&#10004","[1329.0999999940395]","1","0","0","","","","","","","",""
"pit-instructions","13","178248","0.0-2.0-5.0","battery-v0.2","","""event"",""trial"",""time""
""fullscreenenter"",""1"",""4737""
","
","
","""event"",""trial"",""time""
""fullscreenenter"",""1"",""4737""
","
","","[{""page_index"":0,""viewing_time"":10290},{""page_index"":1,""viewing_time"":5485.9000000059605},{""page_index"":2,""viewing_time"":6865.9000000059605},{""page_index"":3,""viewing_time"":5076.9000000059605}]","27720","","","","","","","","","","","","","","","","","","","","","","","",""
"pit-trial","14","183106","0.0-2.0-6.0-0.0","battery-v0.2","","""event"",""trial"",""time""
""fullscreenenter"",""1"",""4737""
","
","
","""event"",""trial"",""time""
""fullscreenenter"",""1"",""4737""
","
","","","-1","","","10","5129","3273","&#9854;","elianto","#FFFFF080","-1","-1","1","&#10004","[]","0","0","1","","","","","","","",""
"pit-trial","15","187963","0.0-2.0-6.1-0.1","battery-v0.2","","""event"",""trial"",""time""
""fullscreenenter"",""1"",""4737""
","
","
","""event"",""trial"",""time""
""fullscreenenter"",""1"",""4737""
","
","","","-1","","","10","5129","3273","&#9854;","elianto","#FFFFF080","-1","-1","1","&#10004","[]","0","0","1","","","","","","","",""
"pit-trial","16","192820","0.0-2.0-6.2-0.2","battery-v0.2","","""event"",""trial"",""time""
""fullscreenenter"",""1"",""4737""
","
","
","""event"",""trial"",""time""
""fullscreenenter"",""1"",""4737""
","
","","","-1","","","10","5129","3273","&#9854;","elianto","#FFFFF080","-1","-1","1","&#10004","[]","0","0","1","","","","","","","",""
"pit-trial","17","197676","0.0-2.0-6.3-0.3","battery-v0.2","","""event"",""trial"",""time""
""fullscreenenter"",""1"",""4737""
","
","
","""event"",""trial"",""time""
""fullscreenenter"",""1"",""4737""
","
","","","-1","","","10","5129","3273","&#9854;","elianto","#FFFFF080","-1","-1","1","&#10004","[]","0","0","1","","","","","","","",""
"pit-trial","18","202532","0.0-2.0-6.4-0.4","battery-v0.2","","""event"",""trial"",""time""
""fullscreenenter"",""1"",""4737""
","
","
","""event"",""trial"",""time""
""fullscreenenter"",""1"",""4737""
","
","","","-1","","","10","5129","3273","&#9854;","elianto","#FFFFF080","-1","-1","1","&#10004","[]","0","0","1","","","","","","","",""
"pit-instructions","19","340444","0.0-2.0-7.0","battery-v0.2","","""event"",""trial"",""time""
""fullscreenenter"",""1"",""4737""
","
","
","""event"",""trial"",""time""
""fullscreenenter"",""1"",""4737""
","
","","[{""page_index"":0,""viewing_time"":6231.300000011921},{""page_index"":1,""viewing_time"":7121.199999988079},{""page_index"":2,""viewing_time"":7722.199999988079},{""page_index"":3,""viewing_time"":8723.90000000596},{""page_index"":4,""viewing_time"":8112},{""page_index"":5,""viewing_time"":6466.5999999940395},{""page_index"":6,""viewing_time"":7112.200000017881},{""page_index"":7,""viewing_time"":9024},{""page_index"":8,""viewing_time"":7054.199999988079},{""page_index"":9,""viewing_time"":5496.9000000059605},{""page_index"":10,""viewing_time"":6102.699999988079},{""page_index"":11,""viewing_time"":4037.7000000178814},{""page_index"":12,""viewing_time"":8206.59999999404},{""page_index"":13,""viewing_time"":9729.09999999404},{""page_index"":14,""viewing_time"":9894.40000000596},{""page_index"":15,""viewing_time"":10766.199999988079},{""page_index"":16,""viewing_time"":7056.600000023842},{""page_index"":17,""viewing_time"":9046.799999982119}]","137905.80000001192","","","","","","","","","","","","","","","","","","","","","","","",""
"pit-trial","20","343913","0.0-2.0-8.0-0.0","battery-v0.2","","""event"",""trial"",""time""
""fullscreenenter"",""1"",""4737""
","
","
","""event"",""trial"",""time""
""fullscreenenter"",""1"",""4737""
","
","","","606.6999999880791","","","10","5129","3273","&#9776;","elianto","#3366ff99"," "," ","1","+10","[1462.1000000238419]","1","0","1","","","","","","","",""
"pit-trial","21","346859","0.0-2.0-8.0-1.0","battery-v0.2","","""event"",""trial"",""time""
""fullscreenenter"",""1"",""4737""
","
","
","""event"",""trial"",""time""
""fullscreenenter"",""1"",""4737""
","
","","","88.5","","","10","5129","3273","&#9776;","elianto","#3366ff99"," "," ","1","+10","[939.7000000178814]","1","0","1","","","","","","","",""
"pit-trial","22","350313","0.0-2.0-8.0-2.0","battery-v0.2","","""event"",""trial"",""time""
""fullscreenenter"",""1"",""4737""
","
","
","""event"",""trial"",""time""
""fullscreenenter"",""1"",""4737""
","
","","","598.6999999880791","","","10","5129","3273","&#9776;","elianto","#3366ff99"," "," ","1","+10","[1449.199999988079]","1","0","1","","","","","","","",""
"pit-trial","23","353727","0.0-2.0-8.0-3.0","battery-v0.2","","""event"",""trial"",""time""
""fullscreenenter"",""1"",""4737""
","
","
","""event"",""trial"",""time""
""fullscreenenter"",""1"",""4737""
","
","","","552.8999999761581","","","10","5129","3273","&#9776;","elianto","#3366ff99"," "," ","1","0","[1406.0999999940395]","1","0","1","","","","","","","",""
"pit-trial","24","357218","0.0-2.0-8.0-4.0","battery-v0.2","","""event"",""trial"",""time""
""fullscreenenter"",""1"",""4737""
","
","
","""event"",""trial"",""time""
""fullscreenenter"",""1"",""4737""
","
","","","631.6999999880791","","","10","5129","3273","&#9776;","elianto","#3366ff99"," "," ","1","+10","[1482.2999999821186]","1","0","1","","","","","","","",""
"pit-trial","25","360696","0.0-2.0-8.1-0.1","battery-v0.2","","""event"",""trial"",""time""
""fullscreenenter"",""1"",""4737""
","
","
","""event"",""trial"",""time""
""fullscreenenter"",""1"",""4737""
","
","","","619.4000000059605","","","10","5129","3273","&#9776;","elianto","#3366ff99"," "," ","1","+10","[1469.6000000238419]","1","0","1","","","","","","","",""
"pit-trial","26","365151","0.0-2.0-8.1-1.1","battery-v0.2","","""event"",""trial"",""time""
""fullscreenenter"",""1"",""4737""
","
","
","""event"",""trial"",""time""
""fullscreenenter"",""1"",""4737""
","
","","","1597.800000011921","","","10","5129","3273","&#9776;","elianto","#3366ff99"," "," ","1","+10","[2447.9000000059605]","1","0","1","","","","","","","",""
"pit-trial","27","368392","0.0-2.0-8.1-2.1","battery-v0.2","","""event"",""trial"",""time""
""fullscreenenter"",""1"",""4737""
","
","
","""event"",""trial"",""time""
""fullscreenenter"",""1"",""4737""
","
","","","383.7000000178814","","","10","5129","3273","&#9776;","elianto","#3366ff99"," "," ","1","+10","[1233.800000011921]","1","0","1","","","","","","","",""
"pit-trial","28","371701","0.0-2.0-8.1-3.1","battery-v0.2","","""event"",""trial"",""time""
""fullscreenenter"",""1"",""4737""
","
","
","""event"",""trial"",""time""
""fullscreenenter"",""1"",""4737""
","
","","","450.19999998807907","","","10","5129","3273","&#9776;","elianto","#3366ff99"," "," ","1","0","[1300.300000011921]","1","0","1","","","","","","","",""
"pit-trial","29","374930","0.0-2.0-8.1-4.1","battery-v0.2","","""event"",""trial"",""time""
""fullscreenenter"",""1"",""4737""
","
","
","""event"",""trial"",""time""
""fullscreenenter"",""1"",""4737""
","
","","","369.90000000596046","","","10","5129","3273","&#9776;","elianto","#3366ff99"," "," ","1","+10","[1220]","1","0","1","","","","","","","",""
"pit-trial","30","378285","0.0-2.0-8.2-0.2","battery-v0.2","","""event"",""trial"",""time""
""fullscreenenter"",""1"",""4737""
","
","
","""event"",""trial"",""time""
""fullscreenenter"",""1"",""4737""
","
","","","495.2000000178814","","","10","5129","3273","&#9776;","elianto","#3366ff99"," "," ","1","+10","[1345.0999999940395]","1","0","1","","","","","","","",""
"pit-trial","31","381637","0.0-2.0-8.2-1.2","battery-v0.2","","""event"",""trial"",""time""
""fullscreenenter"",""1"",""4737""
","
","
","""event"",""trial"",""time""
""fullscreenenter"",""1"",""4737""
","
","","","495.39999997615814","","","10","5129","3273","&#9776;","elianto","#3366ff99"," "," ","1","+10","[1345.5999999940395]","1","0","1","","","","","","","",""
"pit-trial","32","384734","0.0-2.0-8.2-2.2","battery-v0.2","","""event"",""trial"",""time""
""fullscreenenter"",""1"",""4737""
","
","
","""event"",""trial"",""time""
""fullscreenenter"",""1"",""4737""
","
","","","239.30000001192093","","","10","5129","3273","&#9776;","elianto","#3366ff99"," "," ","1","+10","[1089.699999988079]","1","0","1","","","","","","","",""
"pit-trial","33","387619","0.0-2.0-8.2-3.2","battery-v0.2","","""event"",""trial"",""time""
""fullscreenenter"",""1"",""4737""
","
","
","""event"",""trial"",""time""
""fullscreenenter"",""1"",""4737""
","
","","","25.900000005960464","","","10","5129","3273","&#9776;","elianto","#3366ff99"," "," ","1","0","[877.4000000059605]","1","0","1","","","","","","","",""
"pit-trial","34","390507","0.0-2.0-8.2-4.2","battery-v0.2","","""event"",""trial"",""time""
""fullscreenenter"",""1"",""4737""
","
","
","""event"",""trial"",""time""
""fullscreenenter"",""1"",""4737""
","
","","","30.80000001192093","","","10","5129","3273","&#9776;","elianto","#3366ff99"," "," ","1","+10","[881.3999999761581]","1","0","1","","","","","","","",""
"call-function","35","390511","0.0-2.0-9.0","battery-v0.2","","""event"",""trial"",""time""
""fullscreenenter"",""1"",""4737""
","
","
","""event"",""trial"",""time""
""fullscreenenter"",""1"",""4737""
","
","","","","","","","","","","","","","","","","","","","","","","","","","","",""
"pit-instructions","36","441212","0.0-2.0-10.0","battery-v0.2","","""event"",""trial"",""time""
""fullscreenenter"",""1"",""4737""
","
","
","""event"",""trial"",""time""
""fullscreenenter"",""1"",""4737""
","
","","[{""page_index"":0,""viewing_time"":10560.800000011921},{""page_index"":1,""viewing_time"":7156.199999988079},{""page_index"":2,""viewing_time"":10902.59999999404},{""page_index"":3,""viewing_time"":13101.700000017881},{""page_index"":4,""viewing_time"":8976.59999999404}]","50699.90000000596","","","","","","","","","","","","","","","","","","","","","","","",""
"pit-trial","37","444666","0.0-2.0-11.0-0.0","battery-v0.2","","""event"",""trial"",""time""
""fullscreenenter"",""1"",""4737""
","
","
","""event"",""trial"",""time""
""fullscreenenter"",""1"",""4737""
","
","","","598.2000000178814","","","10","5129","3273","&#9761;","elianto","#3366ff99","-1"," ","0","0","[1448.2999999821186]","1","0","2","","","","","","","",""
"pit-trial","38","449524","0.0-2.0-11.0-1.0","battery-v0.2","","""event"",""trial"",""time""
""fullscreenenter"",""1"",""4737""
","
","
","""event"",""trial"",""time""
""fullscreenenter"",""1"",""4737""
","
","","","-1","","","10","5129","3273","&#9761;","elianto","#3366ff99","-1","-1","1","+10","[]","0","0","2","","","","","","","",""
"pit-trial","39","454381","0.0-2.0-11.0-2.0","battery-v0.2","","""event"",""trial"",""time""
""fullscreenenter"",""1"",""4737""
","
","
","""event"",""trial"",""time""
""fullscreenenter"",""1"",""4737""
","
","","","-1","","","10","5129","3273","&#9761;","elianto","#3366ff99","-1","-1","1","+10","[]","0","0","2","","","","","","","",""
"pit-trial","40","459238","0.0-2.0-11.0-3.0","battery-v0.2","","""event"",""trial"",""time""
""fullscreenenter"",""1"",""4737""
","
","
","""event"",""trial"",""time""
""fullscreenenter"",""1"",""4737""
","
","","","-1","","","10","5129","3273","&#9761;","elianto","#3366ff99","-1","-1","1","0","[]","0","0","2","","","","","","","",""
"pit-trial","41","464094","0.0-2.0-11.0-4.0","battery-v0.2","","""event"",""trial"",""time""
""fullscreenenter"",""1"",""4737""
","
","
","""event"",""trial"",""time""
""fullscreenenter"",""1"",""4737""
","
","","","-1","","","10","5129","3273","&#9761;","elianto","#3366ff99","-1","-1","1","+10","[]","0","0","2","","","","","","","",""
"pit-trial","42","468951","0.0-2.0-11.1-0.1","battery-v0.2","","""event"",""trial"",""time""
""fullscreenenter"",""1"",""4737""
","
","
","""event"",""trial"",""time""
""fullscreenenter"",""1"",""4737""
","
","","","-1","","","10","5129","3273","&#9761;","elianto","#3366ff99","-1","-1","1","+10","[]","0","0","2","","","","","","","",""
"pit-trial","43","473807","0.0-2.0-11.1-1.1","battery-v0.2","","""event"",""trial"",""time""
""fullscreenenter"",""1"",""4737""
","
","
","""event"",""trial"",""time""
""fullscreenenter"",""1"",""4737""
","
","","","-1","","","10","5129","3273","&#9761;","elianto","#3366ff99","-1","-1","1","+10","[]","0","0","2","","","","","","","",""
"pit-trial","44","478666","0.0-2.0-11.1-2.1","battery-v0.2","","""event"",""trial"",""time""
""fullscreenenter"",""1"",""4737""
","
","
","""event"",""trial"",""time""
""fullscreenenter"",""1"",""4737""
","
","","","-1","","","10","5129","3273","&#9761;","elianto","#3366ff99","-1","-1","1","+10","[]","0","0","2","","","","","","","",""
"pit-trial","45","483526","0.0-2.0-11.1-3.1","battery-v0.2","","""event"",""trial"",""time""
""fullscreenenter"",""1"",""4737""
","
","
","""event"",""trial"",""time""
""fullscreenenter"",""1"",""4737""
","
","","","-1","","","10","5129","3273","&#9761;","elianto","#3366ff99","-1","-1","1","0","[]","0","0","2","","","","","","","",""
"pit-trial","46","488389","0.0-2.0-11.1-4.1","battery-v0.2","","""event"",""trial"",""time""
""fullscreenenter"",""1"",""4737""
","
","
","""event"",""trial"",""time""
""fullscreenenter"",""1"",""4737""
","
","","","-1","","","10","5129","3273","&#9761;","elianto","#3366ff99","-1","-1","1","+10","[]","0","0","2","","","","","","","",""
"pit-trial","47","493251","0.0-2.0-11.2-0.2","battery-v0.2","","""event"",""trial"",""time""
""fullscreenenter"",""1"",""4737""
","
","
","""event"",""trial"",""time""
""fullscreenenter"",""1"",""4737""
","
","","","-1","","","10","5129","3273","&#9761;","elianto","#3366ff99","-1","-1","1","+10","[]","0","0","2","","","","","","","",""
"pit-trial","48","498111","0.0-2.0-11.2-1.2","battery-v0.2","","""event"",""trial"",""time""
""fullscreenenter"",""1"",""4737""
","
","
","""event"",""trial"",""time""
""fullscreenenter"",""1"",""4737""
","
","","","-1","","","10","5129","3273","&#9761;","elianto","#3366ff99","-1","-1","1","+10","[]","0","0","2","","","","","","","",""
"pit-trial","49","502971","0.0-2.0-11.2-2.2","battery-v0.2","","""event"",""trial"",""time""
""fullscreenenter"",""1"",""4737""
","
","
","""event"",""trial"",""time""
""fullscreenenter"",""1"",""4737""
","
","","","-1","","","10","5129","3273","&#9761;","elianto","#3366ff99","-1","-1","1","+10","[]","0","0","2","","","","","","","",""
"pit-trial","50","507830","0.0-2.0-11.2-3.2","battery-v0.2","","""event"",""trial"",""time""
""fullscreenenter"",""1"",""4737""
","
","
","""event"",""trial"",""time""
""fullscreenenter"",""1"",""4737""
","
","","","-1","","","10","5129","3273","&#9761;","elianto","#3366ff99","-1","-1","1","0","[]","0","0","2","","","","","","","",""
"pit-trial","51","512686","0.0-2.0-11.2-4.2","battery-v0.2","","""event"",""trial"",""time""
""fullscreenenter"",""1"",""4737""
","
","
","""event"",""trial"",""time""
""fullscreenenter"",""1"",""4737""
","
","","","-1","","","10","5129","3273","&#9761;","elianto","#3366ff99","-1","-1","1","+10","[]","0","0","2","","","","","","","",""
"pit-trial","52","517542","0.0-2.0-11.3-0.3","battery-v0.2","","""event"",""trial"",""time""
""fullscreenenter"",""1"",""4737""
","
","
","""event"",""trial"",""time""
""fullscreenenter"",""1"",""4737""
","
","","","-1","","","10","5129","3273","&#9761;","elianto","#3366ff99","-1","-1","1","+10","[]","0","0","2","","","","","","","",""
"pit-trial","53","522400","0.0-2.0-11.3-1.3","battery-v0.2","","""event"",""trial"",""time""
""fullscreenenter"",""1"",""4737""
","
","
","""event"",""trial"",""time""
""fullscreenenter"",""1"",""4737""
","
","","","-1","","","10","5129","3273","&#9761;","elianto","#3366ff99","-1","-1","1","+10","[]","0","0","2","","","","","","","",""
"pit-trial","54","527257","0.0-2.0-11.3-2.3","battery-v0.2","","""event"",""trial"",""time""
""fullscreenenter"",""1"",""4737""
","
","
","""event"",""trial"",""time""
""fullscreenenter"",""1"",""4737""
","
","","","-1","","","10","5129","3273","&#9761;","elianto","#3366ff99","-1","-1","1","+10","[]","0","0","2","","","","","","","",""
"pit-trial","55","532113","0.0-2.0-11.3-3.3","battery-v0.2","","""event"",""trial"",""time""
""fullscreenenter"",""1"",""4737""
","
","
","""event"",""trial"",""time""
""fullscreenenter"",""1"",""4737""
","
","","","-1","","","10","5129","3273","&#9761;","elianto","#3366ff99","-1","-1","1","0","[]","0","0","2","","","","","","","",""
"pit-trial","56","536970","0.0-2.0-11.3-4.3","battery-v0.2","","""event"",""trial"",""time""
""fullscreenenter"",""1"",""4737""
","
","
","""event"",""trial"",""time""
""fullscreenenter"",""1"",""4737""
","
","","","-1","","","10","5129","3273","&#9761;","elianto","#3366ff99","-1","-1","1","+10","[]","0","0","2","","","","","","","",""
"call-function","57","536976","0.0-2.0-12.0","battery-v0.2","","""event"",""trial"",""time""
""fullscreenenter"",""1"",""4737""
","
","
","""event"",""trial"",""time""
""fullscreenenter"",""1"",""4737""
","
","","","","","","","","","","","","","","","","","","","","","","","","","","",""
"pit-instructions","58","584733","0.0-2.0-13.0","battery-v0.2","","""event"",""trial"",""time""
""fullscreenenter"",""1"",""4737""
","
","
","""event"",""trial"",""time""
""fullscreenenter"",""1"",""4737""
","
","","[{""page_index"":0,""viewing_time"":9977.59999999404},{""page_index"":1,""viewing_time"":10628.300000011921},{""page_index"":2,""viewing_time"":7518.5},{""page_index"":3,""viewing_time"":14374.09999999404},{""page_index"":4,""viewing_time"":5254.9000000059605}]","47755.30000001192","","","","","","","","","","","","","","","","","","","","","","","",""
"pit-trial","59","588316","0.0-2.0-14.0-0.0","battery-v0.2","","""event"",""trial"",""time""
""fullscreenenter"",""1"",""4737""
","
","
","""event"",""trial"",""time""
""fullscreenenter"",""1"",""4737""
","
","","","723.5","","","10","5129","3273","&#9826;","elianto","#f73b6a7A","-1"," ","0","-10","[1575.0999999940395]","1","0","3","","","","","","","",""
"pit-trial","60","593172","0.0-2.0-14.0-1.0","battery-v0.2","","""event"",""trial"",""time""
""fullscreenenter"",""1"",""4737""
","
","
","""event"",""trial"",""time""
""fullscreenenter"",""1"",""4737""
","
","","","-1","","","10","5129","3273","&#9826;","elianto","#f73b6a7A","-1","-1","1","0","[]","0","0","3","","","","","","","",""
"pit-trial","61","598028","0.0-2.0-14.0-2.0","battery-v0.2","","""event"",""trial"",""time""
""fullscreenenter"",""1"",""4737""
","
","
","""event"",""trial"",""time""
""fullscreenenter"",""1"",""4737""
","
","","","-1","","","10","5129","3273","&#9826;","elianto","#f73b6a7A","-1","-1","1","0","[]","0","0","3","","","","","","","",""
"pit-trial","62","602884","0.0-2.0-14.0-3.0","battery-v0.2","","""event"",""trial"",""time""
""fullscreenenter"",""1"",""4737""
","
","
","""event"",""trial"",""time""
""fullscreenenter"",""1"",""4737""
","
","","","-1","","","10","5129","3273","&#9826;","elianto","#f73b6a7A","-1","-1","1","-10","[]","0","0","3","","","","","","","",""
"pit-trial","63","607739","0.0-2.0-14.0-4.0","battery-v0.2","","""event"",""trial"",""time""
""fullscreenenter"",""1"",""4737""
","
","
","""event"",""trial"",""time""
""fullscreenenter"",""1"",""4737""
","
","","","-1","","","10","5129","3273","&#9826;","elianto","#f73b6a7A","-1","-1","1","0","[]","0","0","3","","","","","","","",""
"pit-trial","64","612596","0.0-2.0-14.1-0.1","battery-v0.2","","""event"",""trial"",""time""
""fullscreenenter"",""1"",""4737""
","
","
","""event"",""trial"",""time""
""fullscreenenter"",""1"",""4737""
","
","","","-1","","","10","5129","3273","&#9826;","elianto","#f73b6a7A","-1","-1","1","0","[]","0","0","3","","","","","","","",""
"pit-trial","65","617456","0.0-2.0-14.1-1.1","battery-v0.2","","""event"",""trial"",""time""
""fullscreenenter"",""1"",""4737""
","
","
","""event"",""trial"",""time""
""fullscreenenter"",""1"",""4737""
","
","","","-1","","","10","5129","3273","&#9826;","elianto","#f73b6a7A","-1","-1","1","0","[]","0","0","3","","","","","","","",""
"pit-trial","66","622315","0.0-2.0-14.1-2.1","battery-v0.2","","""event"",""trial"",""time""
""fullscreenenter"",""1"",""4737""
","
","
","""event"",""trial"",""time""
""fullscreenenter"",""1"",""4737""
","
","","","-1","","","10","5129","3273","&#9826;","elianto","#f73b6a7A","-1","-1","1","0","[]","0","0","3","","","","","","","",""
"pit-trial","67","627174","0.0-2.0-14.1-3.1","battery-v0.2","","""event"",""trial"",""time""
""fullscreenenter"",""1"",""4737""
","
","
","""event"",""trial"",""time""
""fullscreenenter"",""1"",""4737""
","
","","","-1","","","10","5129","3273","&#9826;","elianto","#f73b6a7A","-1","-1","1","-10","[]","0","0","3","","","","","","","",""
"pit-trial","68","632032","0.0-2.0-14.1-4.1","battery-v0.2","","""event"",""trial"",""time""
""fullscreenenter"",""1"",""4737""
","
","
","""event"",""trial"",""time""
""fullscreenenter"",""1"",""4737""
","
","","","-1","","","10","5129","3273","&#9826;","elianto","#f73b6a7A","-1","-1","1","0","[]","0","0","3","","","","","","","",""
"pit-trial","69","636893","0.0-2.0-14.2-0.2","battery-v0.2","","""event"",""trial"",""time""
""fullscreenenter"",""1"",""4737""
","
","
","""event"",""trial"",""time""
""fullscreenenter"",""1"",""4737""
","
","","","-1","","","10","5129","3273","&#9826;","elianto","#f73b6a7A","-1","-1","1","0","[]","0","0","3","","","","","","","",""
"pit-trial","70","641753","0.0-2.0-14.2-1.2","battery-v0.2","","""event"",""trial"",""time""
""fullscreenenter"",""1"",""4737""
","
","
","""event"",""trial"",""time""
""fullscreenenter"",""1"",""4737""
","
","","","-1","","","10","5129","3273","&#9826;","elianto","#f73b6a7A","-1","-1","1","0","[]","0","0","3","","","","","","","",""
"pit-trial","71","646611","0.0-2.0-14.2-2.2","battery-v0.2","","""event"",""trial"",""time""
""fullscreenenter"",""1"",""4737""
","
","
","""event"",""trial"",""time""
""fullscreenenter"",""1"",""4737""
","
","","","-1","","","10","5129","3273","&#9826;","elianto","#f73b6a7A","-1","-1","1","0","[]","0","0","3","","","","","","","",""
"pit-trial","72","651470","0.0-2.0-14.2-3.2","battery-v0.2","","""event"",""trial"",""time""
""fullscreenenter"",""1"",""4737""
","
","
","""event"",""trial"",""time""
""fullscreenenter"",""1"",""4737""
","
","","","-1","","","10","5129","3273","&#9826;","elianto","#f73b6a7A","-1","-1","1","-10","[]","0","0","3","","","","","","","",""
"pit-trial","73","656327","0.0-2.0-14.2-4.2","battery-v0.2","","""event"",""trial"",""time""
""fullscreenenter"",""1"",""4737""
","
","
","""event"",""trial"",""time""
""fullscreenenter"",""1"",""4737""
","
","","","-1","","","10","5129","3273","&#9826;","elianto","#f73b6a7A","-1","-1","1","0","[]","0","0","3","","","","","","","",""
"pit-trial","74","661187","0.0-2.0-14.3-0.3","battery-v0.2","","""event"",""trial"",""time""
""fullscreenenter"",""1"",""4737""
","
","
","""event"",""trial"",""time""
""fullscreenenter"",""1"",""4737""
","
","","","-1","","","10","5129","3273","&#9826;","elianto","#f73b6a7A","-1","-1","1","0","[]","0","0","3","","","","","","","",""
"pit-trial","75","666045","0.0-2.0-14.3-1.3","battery-v0.2","","""event"",""trial"",""time""
""fullscreenenter"",""1"",""4737""
","
","
","""event"",""trial"",""time""
""fullscreenenter"",""1"",""4737""
","
","","","-1","","","10","5129","3273","&#9826;","elianto","#f73b6a7A","-1","-1","1","0","[]","0","0","3","","","","","","","",""
"pit-trial","76","670902","0.0-2.0-14.3-2.3","battery-v0.2","","""event"",""trial"",""time""
""fullscreenenter"",""1"",""4737""
","
","
","""event"",""trial"",""time""
""fullscreenenter"",""1"",""4737""
","
","","","-1","","","10","5129","3273","&#9826;","elianto","#f73b6a7A","-1","-1","1","0","[]","0","0","3","","","","","","","",""
"pit-trial","77","675760","0.0-2.0-14.3-3.3","battery-v0.2","","""event"",""trial"",""time""
""fullscreenenter"",""1"",""4737""
","
","
","""event"",""trial"",""time""
""fullscreenenter"",""1"",""4737""
","
","","","-1","","","10","5129","3273","&#9826;","elianto","#f73b6a7A","-1","-1","1","-10","[]","0","0","3","","","","","","","",""
"pit-trial","78","680619","0.0-2.0-14.3-4.3","battery-v0.2","","""event"",""trial"",""time""
""fullscreenenter"",""1"",""4737""
","
","
","""event"",""trial"",""time""
""fullscreenenter"",""1"",""4737""
","
","","","-1","","","10","5129","3273","&#9826;","elianto","#f73b6a7A","-1","-1","1","0","[]","0","0","3","","","","","","","",""
"call-function","79","680625","0.0-2.0-15.0","battery-v0.2","","""event"",""trial"",""time""
""fullscreenenter"",""1"",""4737""
","
","
","""event"",""trial"",""time""
""fullscreenenter"",""1"",""4737""
","
","","","","","","","","","","","","","","","","","","","","","","","","","","",""
"pit-instructions","80","711003","0.0-2.0-16.0","battery-v0.2","","""event"",""trial"",""time""
""fullscreenenter"",""1"",""4737""
","
","
","""event"",""trial"",""time""
""fullscreenenter"",""1"",""4737""
","
","","[{""page_index"":0,""viewing_time"":10720.300000011921},{""page_index"":1,""viewing_time"":10159.699999988079},{""page_index"":2,""viewing_time"":4411.4000000059605},{""page_index"":3,""viewing_time"":5083.800000011921}]","30376.40000000596","","","","","","","","","","","","","","","","","","","","","","","",""
"pit-trial","81","714158","0.0-2.0-17.0-0.0","battery-v0.2","","""event"",""trial"",""time""
""fullscreenenter"",""1"",""4737""
","
","
","""event"",""trial"",""time""
""fullscreenenter"",""1"",""4737""
","
","","","300","","","10","5129","3273","&#9789;","elianto","#f73b6a7A"," "," ","1","0","[1150.0999999940395]","1","0","4","","","","","","","",""
"pit-trial","82","717097","0.0-2.0-17.0-1.0","battery-v0.2","","""event"",""trial"",""time""
""fullscreenenter"",""1"",""4737""
","
","
","""event"",""trial"",""time""
""fullscreenenter"",""1"",""4737""
","
","","","83","","","10","5129","3273","&#9789;","elianto","#f73b6a7A"," "," ","1","0","[933.3000000119209]","1","0","4","","","","","","","",""
"pit-trial","83","720062","0.0-2.0-17.0-2.0","battery-v0.2","","""event"",""trial"",""time""
""fullscreenenter"",""1"",""4737""
","
","
","""event"",""trial"",""time""
""fullscreenenter"",""1"",""4737""
","
","","","107","","","10","5129","3273","&#9789;","elianto","#f73b6a7A"," "," ","1","0","[0.29999998211860657,959.2999999821186,1413.5,2033]","4","0","4","","","","","","","",""
"pit-trial","84","723031","0.0-2.0-17.0-3.0","battery-v0.2","","""event"",""trial"",""time""
""fullscreenenter"",""1"",""4737""
","
","
","""event"",""trial"",""time""
""fullscreenenter"",""1"",""4737""
","
","","","113","","","10","5129","3273","&#9789;","elianto","#f73b6a7A"," "," ","1","-10","[273.59999999403954,504.2999999821186,723.2999999821186,963.9000000059605,1257.4000000059605,1540.5,1836,2128.7999999821186,2433.199999988079,2705.5]","10","0","4","","","","","","","",""
"pit-trial","85","726151","0.0-2.0-17.0-4.0","battery-v0.2","","""event"",""trial"",""time""
""fullscreenenter"",""1"",""4737""
","
","
","""event"",""trial"",""time""
""fullscreenenter"",""1"",""4737""
","
","","","258.09999999403954","","","10","5129","3273","&#9789;","elianto","#f73b6a7A"," "," ","1","0","[0.4000000059604645,292.7000000178814,583.3000000119209,844.9000000059605,1112.6000000238419,1350.2000000178814,1609.2000000178814,1869.2000000178814,2120.4000000059605,2403.9000000059605,2993.4000000059605]","11","0","4","","","","","","","",""
"pit-trial","86","729264","0.0-2.0-17.1-0.1","battery-v0.2","","""event"",""trial"",""time""
""fullscreenenter"",""1"",""4737""
","
","
","""event"",""trial"",""time""
""fullscreenenter"",""1"",""4737""
","
","","","254.5","","","10","5129","3273","&#9789;","elianto","#f73b6a7A"," "," ","1","0","[1105.2000000178814,2309.7000000178814]","2","0","4","","","","","","","",""
"pit-trial","87","732712","0.0-2.0-17.1-1.1","battery-v0.2","","""event"",""trial"",""time""
""fullscreenenter"",""1"",""4737""
","
","
","""event"",""trial"",""time""
""fullscreenenter"",""1"",""4737""
","
","","","591.4000000059605","","","10","5129","3273","&#9789;","elianto","#f73b6a7A"," "," ","1","0","[278.40000000596046,1441.5999999940395,2478.0999999940395]","3","0","4","","","","","","","",""
"pit-trial","88","736267","0.0-2.0-17.1-2.1","battery-v0.2","","""event"",""trial"",""time""
""fullscreenenter"",""1"",""4737""
","
","
","""event"",""trial"",""time""
""fullscreenenter"",""1"",""4737""
","
","","","699.4000000059605","","","10","5129","3273","&#9789;","elianto","#f73b6a7A"," "," ","1","0","[290.5,1549.5,3398]","3","0","4","","","","","","","",""
"pit-trial","89","739287","0.0-2.0-17.1-3.1","battery-v0.2","","""event"",""trial"",""time""
""fullscreenenter"",""1"",""4737""
","
","
","""event"",""trial"",""time""
""fullscreenenter"",""1"",""4737""
","
","","","154.90000000596046","","","10","5129","3273","&#9789;","elianto","#f73b6a7A"," "," ","1","-10","[1010.9000000059605,2150.7999999821186]","2","0","4","","","","","","","",""
"pit-trial","90","742709","0.0-2.0-17.1-4.1","battery-v0.2","","""event"",""trial"",""time""
""fullscreenenter"",""1"",""4737""
","
","
","""event"",""trial"",""time""
""fullscreenenter"",""1"",""4737""
","
","","","556","","","10","5129","3273","&#9789;","elianto","#f73b6a7A"," "," ","1","0","[291.59999999403954,1412.3999999761581,2511.0999999940395]","3","0","4","","","","","","","",""
"pit-trial","91","745881","0.0-2.0-17.2-0.2","battery-v0.2","","""event"",""trial"",""time""
""fullscreenenter"",""1"",""4737""
","
","
","""event"",""trial"",""time""
""fullscreenenter"",""1"",""4737""
","
","","","311.2000000178814","","","10","5129","3273","&#9789;","elianto","#f73b6a7A"," "," ","1","0","[1161.3999999761581,1878]","2","0","4","","","","","","","",""
"pit-trial","92","749387","0.0-2.0-17.2-1.2","battery-v0.2","","""event"",""trial"",""time""
""fullscreenenter"",""1"",""4737""
","
","
","""event"",""trial"",""time""
""fullscreenenter"",""1"",""4737""
","
","","","647.1000000238419","","","10","5129","3273","&#9789;","elianto","#f73b6a7A"," "," ","1","0","[1497.199999988079]","1","0","4","","","","","","","",""
"pit-trial","93","752769","0.0-2.0-17.2-2.2","battery-v0.2","","""event"",""trial"",""time""
""fullscreenenter"",""1"",""4737""
","
","
","""event"",""trial"",""time""
""fullscreenenter"",""1"",""4737""
","
","","","527.1999999880791","","","10","5129","3273","&#9789;","elianto","#f73b6a7A"," "," ","1","0","[1377.4000000059605]","1","0","4","","","","","","","",""
"pit-trial","94","756383","0.0-2.0-17.2-3.2","battery-v0.2","","""event"",""trial"",""time""
""fullscreenenter"",""1"",""4737""
","
","
","""event"",""trial"",""time""
""fullscreenenter"",""1"",""4737""
","
","","","759.5999999940395","","","10","5129","3273","&#9789;","elianto","#f73b6a7A"," "," ","1","-10","[645.9000000059605,1609.7000000178814]","2","0","4","","","","","","","",""
"pit-trial","95","759682","0.0-2.0-17.2-4.2","battery-v0.2","","""event"",""trial"",""time""
""fullscreenenter"",""1"",""4737""
","
","
","""event"",""trial"",""time""
""fullscreenenter"",""1"",""4737""
","
","","","445.5","","","10","5129","3273","&#9789;","elianto","#f73b6a7A"," "," ","1","0","[1295.699999988079,1619.3999999761581,1973.199999988079,2908.899999976158]","4","0","4","","","","","","","",""
"pit-trial","96","763585","0.0-2.0-17.3-0.3","battery-v0.2","","""event"",""trial"",""time""
""fullscreenenter"",""1"",""4737""
","
","
","""event"",""trial"",""time""
""fullscreenenter"",""1"",""4737""
","
","","","1046.5999999940395","","","10","5129","3273","&#9789;","elianto","#f73b6a7A"," "," ","1","0","[1897.199999988079,2573,2783.699999988079,3293.0999999940395,3548.800000011921,3804.199999988079]","6","0","4","","","","","","","",""
"pit-trial","97","766469","0.0-2.0-17.3-1.3","battery-v0.2","","""event"",""trial"",""time""
""fullscreenenter"",""1"",""4737""
","
","
","""event"",""trial"",""time""
""fullscreenenter"",""1"",""4737""
","
","","","27.19999998807907","","","10","5129","3273","&#9789;","elianto","#f73b6a7A"," "," ","1","0","[61,877.2000000178814,1460.2000000178814,1742.800000011921,1922.9000000059605,2071.9000000059605,2334.100000023842,2494.4000000059605,2664.300000011921]","9","0","4","","","","","","","",""
"pit-trial","98","769397","0.0-2.0-17.3-2.3","battery-v0.2","","""event"",""trial"",""time""
""fullscreenenter"",""1"",""4737""
","
","
","""event"",""trial"",""time""
""fullscreenenter"",""1"",""4737""
","
","","","69.5","","","10","5129","3273","&#9789;","elianto","#f73b6a7A"," "," ","1","0","[77.5,362,640.1999999880791,920.4000000059605,1172.199999988079,1629.800000011921,1792.5999999940395,2087.4000000059605,2330,2586.199999988079,2862.5]","11","0","4","","","","","","","",""
"pit-trial","99","772432","0.0-2.0-17.3-3.3","battery-v0.2","","""event"",""trial"",""time""
""fullscreenenter"",""1"",""4737""
","
","
","""event"",""trial"",""time""
""fullscreenenter"",""1"",""4737""
","
","","","179.39999997615814","","","10","5129","3273","&#9789;","elianto","#f73b6a7A"," "," ","1","-10","[254.10000002384186,523.5,663.6000000238419,829.2000000178814,1029.1000000238419,1218.4000000059605,1349.800000011921,1476.800000011921,1732.9000000059605,2101.600000023842,2286,2427.9000000059605,2629.2000000178814,2911.4000000059605]","14","0","4","","","","","","","",""
"pit-trial","100","775306","0.0-2.0-17.3-4.3","battery-v0.2","","""event"",""trial"",""time""
""fullscreenenter"",""1"",""4737""
","
","
","""event"",""trial"",""time""
""fullscreenenter"",""1"",""4737""
","
","","","18.799999982118607","","","10","5129","3273","&#9789;","elianto","#f73b6a7A"," "," ","1","0","[869.4000000059605,1755.9000000059605,2456.100000023842]","3","0","4","","","","","","","",""
"call-function","101","775310","0.0-2.0-18.0","battery-v0.2","","""event"",""trial"",""time""
""fullscreenenter"",""1"",""4737""
","
","
","""event"",""trial"",""time""
""fullscreenenter"",""1"",""4737""
","
","","","","","","","","","","","","","","","","","","","","","","","","","","",""
"pit-instructions","102","860013","0.0-2.0-19.0","battery-v0.2","","""event"",""trial"",""time""
""fullscreenenter"",""1"",""4737""
","
","
","""event"",""trial"",""time""
""fullscreenenter"",""1"",""4737""
","
","","[{""page_index"":0,""viewing_time"":10045.200000017881},{""page_index"":1,""viewing_time"":10503.799999982119},{""page_index"":2,""viewing_time"":13929.5},{""page_index"":3,""viewing_time"":7812.9000000059605},{""page_index"":4,""viewing_time"":11068},{""page_index"":5,""viewing_time"":8123.699999988079},{""page_index"":6,""viewing_time"":9241.600000023842},{""page_index"":7,""viewing_time"":9274.399999976158},{""page_index"":8,""viewing_time"":4701.5}]","84702.09999999404","","","","","","","","","","","","","","","","","","","","","","","",""
"pit-comprehension","103","867290","0.0-2.0-20.0-0.0","battery-v0.2","","""event"",""trial"",""time""
""fullscreenenter"",""1"",""4737""
","
","
","""event"",""trial"",""time""
""fullscreenenter"",""1"",""4737""
","
","","","7266.4000000059605","[""SPACE""]","0","10","5129","3273","","","","","","","","","","","","","","","","","","",""
"pit-instructions","104","871502","0.0-2.0-20.0-1.0","battery-v0.2","","""event"",""trial"",""time""
""fullscreenenter"",""1"",""4737""
","
","
","""event"",""trial"",""time""
""fullscreenenter"",""1"",""4737""
","
","","[{""page_index"":0,""viewing_time"":4149}]","4151.4000000059605","","","","","","","","","","","","","","","","","","","","","","","",""
"pit-comprehension","105","879224","0.0-2.0-21.0-0.0","battery-v0.2","","""event"",""trial"",""time""
""fullscreenenter"",""1"",""4737""
","
","
","""event"",""trial"",""time""
""fullscreenenter"",""1"",""4737""
","
","","","7710.299999982119","[""10""]","0","10","5129","3273","","","","","","","","","","","","","","","","","","",""
"pit-instructions","106","881405","0.0-2.0-21.0-1.0","battery-v0.2","","""event"",""trial"",""time""
""fullscreenenter"",""1"",""4737""
","
","
","""event"",""trial"",""time""
""fullscreenenter"",""1"",""4737""
","
","","[{""page_index"":0,""viewing_time"":2108.2000000178814}]","2109.2000000178814","","","","","","","","","","","","","","","","","","","","","","","",""
"pit-comprehension","107","889986","0.0-2.0-22.0-0.0","battery-v0.2","","""event"",""trial"",""time""
""fullscreenenter"",""1"",""4737""
","
","
","""event"",""trial"",""time""
""fullscreenenter"",""1"",""4737""
","
","","","8570.600000023842","[""0""]","0","10","5129","3273","","","","","","","","","","","","","","","","","","",""
"pit-instructions","108","891512","0.0-2.0-22.0-1.0","battery-v0.2","","""event"",""trial"",""time""
""fullscreenenter"",""1"",""4737""
","
","
","""event"",""trial"",""time""
""fullscreenenter"",""1"",""4737""
","
","","[{""page_index"":0,""viewing_time"":1463.9000000059605}]","1465.5999999940395","","","","","","","","","","","","","","","","","","","","","","","",""
"pit-comprehension","109","912725","0.0-2.0-23.0-0.0","battery-v0.2","","""event"",""trial"",""time""
""fullscreenenter"",""1"",""4737""
","
","
","""event"",""trial"",""time""
""fullscreenenter"",""1"",""4737""
","
","","","21205.20000001788","[""False""]","1","10","5129","3273","","","","","","","","","","","","","","","","","","",""
"pit-instructions","110","916144","0.0-2.0-23.0-1.0","battery-v0.2","","""event"",""trial"",""time""
""fullscreenenter"",""1"",""4737""
","
","
","""event"",""trial"",""time""
""fullscreenenter"",""1"",""4737""
","
","","[{""page_index"":0,""viewing_time"":3351.5999999940395}]","3352.699999988079","","","","","","","","","","","","","","","","","","","","","","","",""
"pit-instructions","111","916567","0.0-2.0-23.0-2.0-0.0","battery-v0.2","","""event"",""trial"",""time""
""fullscreenenter"",""1"",""4737""
","
","
","""event"",""trial"",""time""
""fullscreenenter"",""1"",""4737""
","
","","[{""page_index"":0,""viewing_time"":417.5}]","419.09999999403954","","","","","","","","","","","","","","","","","","","","","","","",""
"pit-comprehension","112","925161","0.0-2.0-23.1-0.1","battery-v0.2","","""event"",""trial"",""time""
""fullscreenenter"",""1"",""4737""
","
","
","""event"",""trial"",""time""
""fullscreenenter"",""1"",""4737""
","
","","","8584.40000000596","[""True""]","0","10","5129","3273","","","","","","","","","","","","","","","","","","",""
"pit-instructions","113","929117","0.0-2.0-23.1-1.1","battery-v0.2","","""event"",""trial"",""time""
""fullscreenenter"",""1"",""4737""
","
","
","""event"",""trial"",""time""
""fullscreenenter"",""1"",""4737""
","
","","[{""page_index"":0,""viewing_time"":3883.600000023842}]","3885.5","","","","","","","","","","","","","","","","","","","","","","","",""
"pit-comprehension","114","938249","0.0-2.0-24.0-0.0","battery-v0.2","","""event"",""trial"",""time""
""fullscreenenter"",""1"",""4737""
","
","
","""event"",""trial"",""time""
""fullscreenenter"",""1"",""4737""
","
","","","9121.40000000596","[""True""]","0","10","5129","3273","","","","","","","","","","","","","","","","","","",""
"pit-instructions","115","939883","0.0-2.0-24.0-1.0","battery-v0.2","","""event"",""trial"",""time""
""fullscreenenter"",""1"",""4737""
","
","
","""event"",""trial"",""time""
""fullscreenenter"",""1"",""4737""
","
","","[{""page_index"":0,""viewing_time"":1570.7000000178814}]","1571.4000000059605","","","","","","","","","","","","","","","","","","","","","","","",""
"pit-comprehension","116","946197","0.0-2.0-25.0-0.0","battery-v0.2","","""event"",""trial"",""time""
""fullscreenenter"",""1"",""4737""
","
","
","""event"",""trial"",""time""
""fullscreenenter"",""1"",""4737""
","
","","","6306.299999982119","[""True""]","0","10","5129","3273","","","","","","","","","","","","","","","","","","",""
"pit-instructions","117","947979","0.0-2.0-25.0-1.0","battery-v0.2","","""event"",""trial"",""time""
""fullscreenenter"",""1"",""4737""
","
","
","""event"",""trial"",""time""
""fullscreenenter"",""1"",""4737""
","
","","[{""page_index"":0,""viewing_time"":1715.800000011921}]","1716.7000000178814","","","","","","","","","","","","","","","","","","","","","","","",""
"pit-comprehension","118","955521","0.0-2.0-26.0-0.0","battery-v0.2","","""event"",""trial"",""time""
""fullscreenenter"",""1"",""4737""
","
","
","""event"",""trial"",""time""
""fullscreenenter"",""1"",""4737""
","
","","","7532.9000000059605","[""False""]","0","10","5129","3273","","","","","","","","","","","","","","","","","","",""
"pit-instructions","119","957003","0.0-2.0-26.0-1.0","battery-v0.2","","""event"",""trial"",""time""
""fullscreenenter"",""1"",""4737""
","
","
","""event"",""trial"",""time""
""fullscreenenter"",""1"",""4737""
","
","","[{""page_index"":0,""viewing_time"":1414.5999999940395}]","1416.699999988079","","","","","","","","","","","","","","","","","","","","","","","",""
"pit-instructions","120","980777","0.0-3.0","battery-v0.2","","""event"",""trial"",""time""
""fullscreenenter"",""1"",""4737""
","
","
","""event"",""trial"",""time""
""fullscreenenter"",""1"",""4737""
","
","","[{""page_index"":0,""viewing_time"":6161.700000017881},{""page_index"":1,""viewing_time"":6336.399999976158},{""page_index"":2,""viewing_time"":11267.700000017881}]","23767.30000001192","","","","","","","","","","","","","","","","","","","","","","","",""
"pit-trial","121","985528","0.0-4.0","battery-v0.2","","""event"",""trial"",""time""
""fullscreenenter"",""1"",""4737""
","
","
","""event"",""trial"",""time""
""fullscreenenter"",""1"",""4737""
","
","","","1883.9000000059605","","","10","5129","3273","&#9733;","elianto","#3366ff99","-1"," ","0","0","[2736.5999999940395]","1","1","","","5129","1","2","2","win","no-go","0"
"pit-trial","122","989839","0.0-5.0","battery-v0.2","","""event"",""trial"",""time""
""fullscreenenter"",""1"",""4737""
","
","
","""event"",""trial"",""time""
""fullscreenenter"",""1"",""4737""
","
","","","1452.9000000059605","","","10","5129","3273","&#9752;","elianto","#f73b6a7A"," "," ","1","0","[2303.399999976158]","1","1","","","5129","2","3","3","lose","go","0"
"pit-trial","123","994696","0.0-6.0","battery-v0.2","","""event"",""trial"",""time""
""fullscreenenter"",""1"",""4737""
","
","
","""event"",""trial"",""time""
""fullscreenenter"",""1"",""4737""
","
","","","-1","","","10","5129","3273","&#9730;","elianto","#3366ff99"," ","-1","0","0","[]","0","1","","","5129","3","1","1","win","go","0"
"pit-trial","124","998391","0.0-7.0","battery-v0.2","","""event"",""trial"",""time""
""fullscreenenter"",""1"",""4737""
","
","
","""event"",""trial"",""time""
""fullscreenenter"",""1"",""4737""
","
","","","838.2999999821186","","","10","5129","3273","&#9728;","elianto","#f73b6a7A","-1"," ","0","-10","[1688.300000011921]","1","1","","","5129","4","0","4","lose","no-go","0"
"pit-trial","125","1003248","0.0-8.0","battery-v0.2","","""event"",""trial"",""time""
""fullscreenenter"",""1"",""4737""
","
","
","""event"",""trial"",""time""
""fullscreenenter"",""1"",""4737""
","
","","","-1","","","10","5129","3273","&#9733;","elianto","#3366ff99","-1","-1","1","+10","[]","0","1","","","5129","5","2","2","win","no-go","0"
"pit-trial","126","1008104","0.0-9.0","battery-v0.2","","""event"",""trial"",""time""
""fullscreenenter"",""1"",""4737""
","
","
","""event"",""trial"",""time""
""fullscreenenter"",""1"",""4737""
","
","","","-1","","","10","5129","3273","&#9728;","elianto","#f73b6a7A","-1","-1","1","-10","[3120.2999999821186]","1","1","","","5129","6","0","4","lose","no-go","1"
"pit-trial","127","1012962","0.0-10.0","battery-v0.2","","""event"",""trial"",""time""
""fullscreenenter"",""1"",""4737""
","
","
","""event"",""trial"",""time""
""fullscreenenter"",""1"",""4737""
","
","","","-1","","","10","5129","3273","&#9730;","elianto","#3366ff99"," ","-1","0","0","[]","0","1","","","5129","7","1","1","win","go","0"
"pit-trial","128","1017822","0.0-11.0","battery-v0.2","","""event"",""trial"",""time""
""fullscreenenter"",""1"",""4737""
","
","
","""event"",""trial"",""time""
""fullscreenenter"",""1"",""4737""
","
","","","-1","","","10","5129","3273","&#9752;","elianto","#f73b6a7A"," ","-1","0","-10","[2853.5]","1","1","","","5129","8","3","3","lose","go","0"
"pit-trial","129","1022680","0.0-12.0","battery-v0.2","","""event"",""trial"",""time""
""fullscreenenter"",""1"",""4737""
","
","
","""event"",""trial"",""time""
""fullscreenenter"",""1"",""4737""
","
","","","-1","","","10","5129","3273","&#9733;","elianto","#3366ff99","-1","-1","1","+10","[]","0","1","","","5129","9","2","2","win","no-go","0"
"pit-trial","130","1027525","0.0-13.0","battery-v0.2","","""event"",""trial"",""time""
""fullscreenenter"",""1"",""4737""
","
","
","""event"",""trial"",""time""
""fullscreenenter"",""1"",""4737""
","
","","","1986.2999999821186","","","10","5129","3273","&#9730;","elianto","#3366ff99"," "," ","1","+10","[2836.7000000178814,3049.7000000178814]","2","1","","","5129","10","1","1","win","go","0"
"pit-trial","131","1032383","0.0-14.0","battery-v0.2","","""event"",""trial"",""time""
""fullscreenenter"",""1"",""4737""
","
","
","""event"",""trial"",""time""
""fullscreenenter"",""1"",""4737""
","
","","","-1","","","10","5129","3273","&#9728;","elianto","#f73b6a7A","-1","-1","1","-10","[]","0","1","","","5129","11","0","4","lose","no-go","1"
"pit-trial","132","1036636","0.0-15.0","battery-v0.2","","""event"",""trial"",""time""
""fullscreenenter"",""1"",""4737""
","
","
","""event"",""trial"",""time""
""fullscreenenter"",""1"",""4737""
","
","","","1395.699999988079","","","10","5129","3273","&#9752;","elianto","#f73b6a7A"," "," ","1","-10","[2245.800000011921]","1","1","","","5129","12","3","3","lose","go","1"
"pit-trial","133","1040729","0.0-16.0","battery-v0.2","","""event"",""trial"",""time""
""fullscreenenter"",""1"",""4737""
","
","
","""event"",""trial"",""time""
""fullscreenenter"",""1"",""4737""
","
","","","1231.2000000178814","","","10","5129","3273","&#9728;","elianto","#f73b6a7A","-1"," ","0","0","[2082.199999988079]","1","1","","","5129","13","0","4","lose","no-go","1"
"pit-trial","134","1045589","0.0-17.0","battery-v0.2","","""event"",""trial"",""time""
""fullscreenenter"",""1"",""4737""
","
","
","""event"",""trial"",""time""
""fullscreenenter"",""1"",""4737""
","
","","","-1","","","10","5129","3273","&#9733;","elianto","#3366ff99","-1","-1","1","+10","[3540.199999988079]","1","1","","","5129","14","2","2","win","no-go","0"
"pit-trial","135","1050448","0.0-18.0","battery-v0.2","","""event"",""trial"",""time""
""fullscreenenter"",""1"",""4737""
","
","
","""event"",""trial"",""time""
""fullscreenenter"",""1"",""4737""
","
","","","-1","","","10","5129","3273","&#9752;","elianto","#f73b6a7A"," ","-1","0","-10","[2891.199999988079]","1","1","","","5129","15","3","3","lose","go","0"
"pit-trial","136","1055308","0.0-19.0","battery-v0.2","","""event"",""trial"",""time""
""fullscreenenter"",""1"",""4737""
","
","
","""event"",""trial"",""time""
""fullscreenenter"",""1"",""4737""
","
","","","-1","","","10","5129","3273","&#9730;","elianto","#3366ff99"," ","-1","0","0","[4102.799999982119]","1","1","","","5129","16","1","1","win","go","0"
"pit-trial","137","1059493","0.0-20.0","battery-v0.2","","""event"",""trial"",""time""
""fullscreenenter"",""1"",""4737""
","
","
","""event"",""trial"",""time""
""fullscreenenter"",""1"",""4737""
","
","","","1325.7999999821186","","","10","5129","3273","&#9752;","elianto","#f73b6a7A"," "," ","1","0","[2176.0999999940395]","1","1","","","5129","17","3","3","lose","go","0"
"pit-trial","138","1064355","0.0-21.0","battery-v0.2","","""event"",""trial"",""time""
""fullscreenenter"",""1"",""4737""
","
","
","""event"",""trial"",""time""
""fullscreenenter"",""1"",""4737""
","
","","","-1","","","10","5129","3273","&#9728;","elianto","#f73b6a7A","-1","-1","1","0","[2867.199999988079,3061.5999999940395]","2","1","","","5129","18","0","4","lose","no-go","0"
"pit-trial","139","1068178","0.0-22.0","battery-v0.2","","""event"",""trial"",""time""
""fullscreenenter"",""1"",""4737""
","
","
","""event"",""trial"",""time""
""fullscreenenter"",""1"",""4737""
","
","","","964.8000000119209","","","10","5129","3273","&#9730;","elianto","#3366ff99"," "," ","1","+10","[1814.7000000178814]","1","1","","","5129","19","1","1","win","go","0"
"pit-trial","140","1073036","0.0-23.0","battery-v0.2","","""event"",""trial"",""time""
""fullscreenenter"",""1"",""4737""
","
","
","""event"",""trial"",""time""
""fullscreenenter"",""1"",""4737""
","
","","","-1","","","10","5129","3273","&#9733;","elianto","#3366ff99","-1","-1","1","+10","[2895]","1","1","","","5129","20","2","2","win","no-go","0"
"pit-instructions","141","1107851","0.0-24.0","battery-v0.2","","""event"",""trial"",""time""
""fullscreenenter"",""1"",""4737""
","
","
","""event"",""trial"",""time""
""fullscreenenter"",""1"",""4737""
","
","","[{""page_index"":0,""viewing_time"":6003.800000011921},{""page_index"":1,""viewing_time"":28805.19999998808}]","34810.30000001192","","","","","","","","","","","","","","","","","","","","","","","",""
"pit-trial","142","1112139","0.0-25.0","battery-v0.2","","""event"",""trial"",""time""
""fullscreenenter"",""1"",""4737""
","
","
","""event"",""trial"",""time""
""fullscreenenter"",""1"",""4737""
","
","","","1428.699999988079","","","10","5129","3273","d","elianto","#3366ff99","-1"," ","0","0","[2278.9000000059605]","1","2","","","5129","21","1","2","win","no-go","0"
"pit-trial","143","1116996","0.0-26.0","battery-v0.2","","""event"",""trial"",""time""
""fullscreenenter"",""1"",""4737""
","
","
","""event"",""trial"",""time""
""fullscreenenter"",""1"",""4737""
","
","","","-1","","","10","5129","3273","w","elianto","#f73b6a7A","-1","-1","1","0","[]","0","2","","","5129","22","3","4","lose","no-go","0"
"pit-trial","144","1120936","0.0-27.0","battery-v0.2","","""event"",""trial"",""time""
""fullscreenenter"",""1"",""4737""
","
","
","""event"",""trial"",""time""
""fullscreenenter"",""1"",""4737""
","
","","","1083","","","10","5129","3273","e","elianto","#f73b6a7A"," "," ","1","0","[1933.0999999940395]","1","2","","","5129","23","2","3","lose","go","0"
"pit-trial","145","1124696","0.0-28.0","battery-v0.2","","""event"",""trial"",""time""
""fullscreenenter"",""1"",""4737""
","
","
","""event"",""trial"",""time""
""fullscreenenter"",""1"",""4737""
","
","","","901.6999999880791","","","10","5129","3273","j","elianto","#f73b6a7A"," "," ","1","0","[1751.9000000059605,2688.5]","2","2","","","5129","24","0","3","lose","go","0"
"pit-trial","146","1128178","0.0-29.0","battery-v0.2","","""event"",""trial"",""time""
""fullscreenenter"",""1"",""4737""
","
","
","""event"",""trial"",""time""
""fullscreenenter"",""1"",""4737""
","
","","","625","","","10","5129","3273","w","elianto","#f73b6a7A","-1"," ","0","-10","[1474.9000000059605]","1","2","","","5129","25","3","4","lose","no-go","0"
"pit-trial","147","1131848","0.0-30.0","battery-v0.2","","""event"",""trial"",""time""
""fullscreenenter"",""1"",""4737""
","
","
","""event"",""trial"",""time""
""fullscreenenter"",""1"",""4737""
","
","","","813.5999999940395","","","10","5129","3273","d","elianto","#3366ff99","-1"," ","0","0","[1663.9000000059605]","1","2","","","5129","26","1","2","win","no-go","0"
"pit-trial","148","1135798","0.0-31.0","battery-v0.2","","""event"",""trial"",""time""
""fullscreenenter"",""1"",""4737""
","
","
","""event"",""trial"",""time""
""fullscreenenter"",""1"",""4737""
","
","","","1091.5999999940395","","","10","5129","3273","e","elianto","#f73b6a7A"," "," ","1","0","[1941.7999999821186]","1","2","","","5129","27","2","3","lose","go","0"
"pit-trial","149","1139368","0.0-32.0","battery-v0.2","","""event"",""trial"",""time""
""fullscreenenter"",""1"",""4737""
","
","
","""event"",""trial"",""time""
""fullscreenenter"",""1"",""4737""
","
","","","711.9000000059605","","","10","5129","3273","j","elianto","#f73b6a7A"," "," ","1","-10","[1561.9000000059605]","1","2","","","5129","28","0","3","lose","go","1"
"pit-trial","150","1144224","0.0-33.0","battery-v0.2","","""event"",""trial"",""time""
""fullscreenenter"",""1"",""4737""
","
","
","""event"",""trial"",""time""
""fullscreenenter"",""1"",""4737""
","
","","","-1","","","10","5129","3273","d","elianto","#3366ff99","-1","-1","1","+10","[]","0","2","","","5129","29","1","2","win","no-go","0"
"pit-trial","151","1149083","0.0-34.0","battery-v0.2","","""event"",""trial"",""time""
""fullscreenenter"",""1"",""4737""
","
","
","""event"",""trial"",""time""
""fullscreenenter"",""1"",""4737""
","
","","","-1","","","10","5129","3273","j","elianto","#f73b6a7A"," ","-1","0","-10","[]","0","2","","","5129","30","0","3","lose","go","0"
"pit-trial","152","1153623","0.0-35.0","battery-v0.2","","""event"",""trial"",""time""
""fullscreenenter"",""1"",""4737""
","
","
","""event"",""trial"",""time""
""fullscreenenter"",""1"",""4737""
","
","","","1679.300000011921","","","10","5129","3273","e","elianto","#f73b6a7A"," "," ","1","0","[2529.7000000178814]","1","2","","","5129","31","2","3","lose","go","0"
"pit-trial","153","1158483","0.0-36.0","battery-v0.2","","""event"",""trial"",""time""
""fullscreenenter"",""1"",""4737""
","
","
","""event"",""trial"",""time""
""fullscreenenter"",""1"",""4737""
","
","","","-1","","","10","5129","3273","w","elianto","#f73b6a7A","-1","-1","1","0","[]","0","2","","","5129","32","3","4","lose","no-go","0"
"pit-trial","154","1163343","0.0-37.0","battery-v0.2","","""event"",""trial"",""time""
""fullscreenenter"",""1"",""4737""
","
","
","""event"",""trial"",""time""
""fullscreenenter"",""1"",""4737""
","
","","","-1","","","10","5129","3273","j","elianto","#f73b6a7A"," ","-1","0","0","[]","0","2","","","5129","33","0","3","lose","go","1"
"pit-trial","155","1168202","0.0-38.0","battery-v0.2","","""event"",""trial"",""time""
""fullscreenenter"",""1"",""4737""
","
","
","""event"",""trial"",""time""
""fullscreenenter"",""1"",""4737""
","
","","","-1","","","10","5129","3273","d","elianto","#3366ff99","-1","-1","1","0","[]","0","2","","","5129","34","1","2","win","no-go","1"
"pit-trial","156","1172290","0.0-39.0","battery-v0.2","","""event"",""trial"",""time""
""fullscreenenter"",""1"",""4737""
","
","
","""event"",""trial"",""time""
""fullscreenenter"",""1"",""4737""
","
","","","1228.5999999940395","","","10","5129","3273","e","elianto","#f73b6a7A"," "," ","1","0","[2078.7000000178814]","1","2","","","5129","35","2","3","lose","go","0"
"pit-trial","157","1176729","0.0-40.0","battery-v0.2","","""event"",""trial"",""time""
""fullscreenenter"",""1"",""4737""
","
","
","""event"",""trial"",""time""
""fullscreenenter"",""1"",""4737""
","
","","","1579.300000011921","","","10","5129","3273","w","elianto","#f73b6a7A","-1"," ","0","-10","[2429.5]","1","2","","","5129","36","3","4","lose","no-go","0"
"pit-trial","158","1181589","0.0-41.0","battery-v0.2","","""event"",""trial"",""time""
""fullscreenenter"",""1"",""4737""
","
","
","""event"",""trial"",""time""
""fullscreenenter"",""1"",""4737""
","
","","","-1","","","10","5129","3273","d","elianto","#3366ff99","-1","-1","1","+10","[]","0","2","","","5129","37","1","2","win","no-go","0"
"pit-trial","159","1186447","0.0-42.0","battery-v0.2","","""event"",""trial"",""time""
""fullscreenenter"",""1"",""4737""
","
","
","""event"",""trial"",""time""
""fullscreenenter"",""1"",""4737""
","
","","","-1","","","10","5129","3273","j","elianto","#f73b6a7A"," ","-1","0","-10","[]","0","2","","","5129","38","0","3","lose","go","0"
"pit-trial","160","1191308","0.0-43.0","battery-v0.2","","""event"",""trial"",""time""
""fullscreenenter"",""1"",""4737""
","
","
","""event"",""trial"",""time""
""fullscreenenter"",""1"",""4737""
","
","","","-1","","","10","5129","3273","e","elianto","#f73b6a7A"," ","-1","0","-10","[]","0","2","","","5129","39","2","3","lose","go","0"
"pit-trial","161","1195902","0.0-44.0","battery-v0.2","","""event"",""trial"",""time""
""fullscreenenter"",""1"",""4737""
","
","
","""event"",""trial"",""time""
""fullscreenenter"",""1"",""4737""
","
","","","1735.5","","","10","5129","3273","w","elianto","#f73b6a7A","-1"," ","0","-10","[2585.7999999821186]","1","2","","","5129","40","3","4","lose","no-go","0"
"pit-trial","162","1200199","0.0-45.0","battery-v0.2","","""event"",""trial"",""time""
""fullscreenenter"",""1"",""4737""
","
","
","""event"",""trial"",""time""
""fullscreenenter"",""1"",""4737""
","
","","","1435.4000000059605","","","10","5129","3273","d","elianto","#3366ff99","-1"," ","0","0","[2287.5999999940395]","1","2","","","5129","41","1","2","win","no-go","0"
"pit-trial","163","1204179","0.0-46.0","battery-v0.2","","""event"",""trial"",""time""
""fullscreenenter"",""1"",""4737""
","
","
","""event"",""trial"",""time""
""fullscreenenter"",""1"",""4737""
","
","","","1122.5999999940395","","","10","5129","3273","j","elianto","#f73b6a7A"," "," ","1","0","[1973]","1","2","","","5129","42","0","3","lose","go","0"
"pit-trial","164","1209037","0.0-47.0","battery-v0.2","","""event"",""trial"",""time""
""fullscreenenter"",""1"",""4737""
","
","
","""event"",""trial"",""time""
""fullscreenenter"",""1"",""4737""
","
","","","-1","","","10","5129","3273","w","elianto","#f73b6a7A","-1","-1","1","0","[]","0","2","","","5129","43","3","4","lose","no-go","0"
"pit-trial","165","1213895","0.0-48.0","battery-v0.2","","""event"",""trial"",""time""
""fullscreenenter"",""1"",""4737""
","
","
","""event"",""trial"",""time""
""fullscreenenter"",""1"",""4737""
","
","","","-1","","","10","5129","3273","e","elianto","#f73b6a7A"," ","-1","0","0","[]","0","2","","","5129","44","2","3","lose","go","1"
"pit-trial","166","1218753","0.0-49.0","battery-v0.2","","""event"",""trial"",""time""
""fullscreenenter"",""1"",""4737""
","
","
","""event"",""trial"",""time""
""fullscreenenter"",""1"",""4737""
","
","","","-1","","","10","5129","3273","j","elianto","#f73b6a7A"," ","-1","0","0","[]","0","2","","","5129","45","0","3","lose","go","1"
"pit-trial","167","1223024","0.0-50.0","battery-v0.2","","""event"",""trial"",""time""
""fullscreenenter"",""1"",""4737""
","
","
","""event"",""trial"",""time""
""fullscreenenter"",""1"",""4737""
","
","","","1413.300000011921","","","10","5129","3273","w","elianto","#f73b6a7A","-1"," ","0","0","[2263.4000000059605]","1","2","","","5129","46","3","4","lose","no-go","1"
"pit-trial","168","1227019","0.0-51.0","battery-v0.2","","""event"",""trial"",""time""
""fullscreenenter"",""1"",""4737""
","
","
","""event"",""trial"",""time""
""fullscreenenter"",""1"",""4737""
","
","","","1135.699999988079","","","10","5129","3273","e","elianto","#f73b6a7A"," "," ","1","0","[1986.7000000178814]","1","2","","","5129","47","2","3","lose","go","0"
"pit-trial","169","1229978","0.0-52.0","battery-v0.2","","""event"",""trial"",""time""
""fullscreenenter"",""1"",""4737""
","
","
","""event"",""trial"",""time""
""fullscreenenter"",""1"",""4737""
","
","","","96.2000000178814","","","10","5129","3273","d","elianto","#3366ff99","-1"," ","0","+10","[950.5999999940395]","1","2","","","5129","48","1","2","win","no-go","1"
"pit-trial","170","1233556","0.0-53.0","battery-v0.2","","""event"",""trial"",""time""
""fullscreenenter"",""1"",""4737""
","
","
","""event"",""trial"",""time""
""fullscreenenter"",""1"",""4737""
","
","","","720.3999999761581","","","10","5129","3273","e","elianto","#f73b6a7A"," "," ","1","0","[1570.5]","1","2","","","5129","49","2","3","lose","go","0"
"pit-trial","171","1237336","0.0-54.0","battery-v0.2","","""event"",""trial"",""time""
""fullscreenenter"",""1"",""4737""
","
","
","""event"",""trial"",""time""
""fullscreenenter"",""1"",""4737""
","
","","","918.9000000059605","","","10","5129","3273","d","elianto","#3366ff99","-1"," ","0","+10","[1773.7999999821186]","1","2","","","5129","50","1","2","win","no-go","1"
"pit-trial","172","1241004","0.0-55.0","battery-v0.2","","""event"",""trial"",""time""
""fullscreenenter"",""1"",""4737""
","
","
","""event"",""trial"",""time""
""fullscreenenter"",""1"",""4737""
","
","","","808.2000000178814","","","10","5129","3273","j","elianto","#f73b6a7A"," "," ","1","0","[1660.0999999940395]","1","2","","","5129","51","0","3","lose","go","0"
"pit-trial","173","1244734","0.0-56.0","battery-v0.2","","""event"",""trial"",""time""
""fullscreenenter"",""1"",""4737""
","
","
","""event"",""trial"",""time""
""fullscreenenter"",""1"",""4737""
","
","","","871.6999999880791","","","10","5129","3273","w","elianto","#f73b6a7A","-1"," ","0","-10","[295,1724.0999999940395]","2","2","","","5129","52","3","4","lose","no-go","0"
"pit-trial","174","1249590","0.0-57.0","battery-v0.2","","""event"",""trial"",""time""
""fullscreenenter"",""1"",""4737""
","
","
","""event"",""trial"",""time""
""fullscreenenter"",""1"",""4737""
","
","","","-1","","","10","5129","3273","w","elianto","#f73b6a7A","-1","-1","1","0","[]","0","2","","","5129","53","3","4","lose","no-go","0"
"pit-trial","175","1253123","0.0-58.0","battery-v0.2","","""event"",""trial"",""time""
""fullscreenenter"",""1"",""4737""
","
","
","""event"",""trial"",""time""
""fullscreenenter"",""1"",""4737""
","
","","","672.8000000119209","","","10","5129","3273","d","elianto","#3366ff99","-1"," ","0","+10","[1522.9000000059605]","1","2","","","5129","54","1","2","win","no-go","1"
"pit-trial","176","1257014","0.0-59.0","battery-v0.2","","""event"",""trial"",""time""
""fullscreenenter"",""1"",""4737""
","
","
","""event"",""trial"",""time""
""fullscreenenter"",""1"",""4737""
","
","","","1032.5999999940395","","","10","5129","3273","j","elianto","#f73b6a7A"," "," ","1","0","[1882.7000000178814]","1","2","","","5129","55","0","3","lose","go","0"
"pit-trial","177","1260375","0.0-60.0","battery-v0.2","","""event"",""trial"",""time""
""fullscreenenter"",""1"",""4737""
","
","
","""event"",""trial"",""time""
""fullscreenenter"",""1"",""4737""
","
","","","504.39999997615814","","","10","5129","3273","e","elianto","#f73b6a7A"," "," ","1","0","[1354.5999999940395]","1","2","","","5129","56","2","3","lose","go","0"
"pit-trial","178","1264322","0.0-61.0","battery-v0.2","","""event"",""trial"",""time""
""fullscreenenter"",""1"",""4737""
","
","
","""event"",""trial"",""time""
""fullscreenenter"",""1"",""4737""
","
","","","1090.0999999940395","","","10","5129","3273","s","elianto","#3366ff99"," "," ","1","0","[1940.2999999821186]","1","2","","","5129","57","4","1","win","go","1"
"pit-trial","179","1268573","0.0-62.0","battery-v0.2","","""event"",""trial"",""time""
""fullscreenenter"",""1"",""4737""
","
","
","""event"",""trial"",""time""
""fullscreenenter"",""1"",""4737""
","
","","","1393.5999999940395","","","10","5129","3273","j","elianto","#f73b6a7A"," "," ","1","0","[2244.4000000059605]","1","2","","","5129","58","0","3","lose","go","0"
"pit-trial","180","1273432","0.0-63.0","battery-v0.2","","""event"",""trial"",""time""
""fullscreenenter"",""1"",""4737""
","
","
","""event"",""trial"",""time""
""fullscreenenter"",""1"",""4737""
","
","","","-1","","","10","5129","3273","w","elianto","#f73b6a7A","-1","-1","1","0","[]","0","2","","","5129","59","3","4","lose","no-go","0"
"pit-trial","181","1277288","0.0-64.0","battery-v0.2","","""event"",""trial"",""time""
""fullscreenenter"",""1"",""4737""
","
","
","""event"",""trial"",""time""
""fullscreenenter"",""1"",""4737""
","
","","","990.3999999761581","","","10","5129","3273","e","elianto","#f73b6a7A"," "," ","1","0","[1845]","1","2","","","5129","60","2","3","lose","go","0"
"pit-trial","182","1282147","0.0-65.0","battery-v0.2","","""event"",""trial"",""time""
""fullscreenenter"",""1"",""4737""
","
","
","""event"",""trial"",""time""
""fullscreenenter"",""1"",""4737""
","
","","","-1","","","10","5129","3273","s","elianto","#3366ff99"," ","-1","0","0","[]","0","2","","","5129","61","4","1","win","go","0"
"pit-trial","183","1285869","0.0-66.0","battery-v0.2","","""event"",""trial"",""time""
""fullscreenenter"",""1"",""4737""
","
","
","""event"",""trial"",""time""
""fullscreenenter"",""1"",""4737""
","
","","","865.4000000059605","","","10","5129","3273","d","elianto","#3366ff99","-1"," ","0","0","[1715.5999999940395]","1","2","","","5129","62","1","2","win","no-go","0"
"pit-trial","184","1290730","0.0-67.0","battery-v0.2","","""event"",""trial"",""time""
""fullscreenenter"",""1"",""4737""
","
","
","""event"",""trial"",""time""
""fullscreenenter"",""1"",""4737""
","
","","","-1","","","10","5129","3273","e","elianto","#f73b6a7A"," ","-1","0","-10","[4121.5]","1","2","","","5129","63","2","3","lose","go","0"
"pit-trial","185","1295591","0.0-68.0","battery-v0.2","","""event"",""trial"",""time""
""fullscreenenter"",""1"",""4737""
","
","
","""event"",""trial"",""time""
""fullscreenenter"",""1"",""4737""
","
","","","-1","","","10","5129","3273","w","elianto","#f73b6a7A","-1","-1","1","0","[303.09999999403954]","1","2","","","5129","64","3","4","lose","no-go","0"
"pit-trial","186","1299161","0.0-69.0","battery-v0.2","","""event"",""trial"",""time""
""fullscreenenter"",""1"",""4737""
","
","
","""event"",""trial"",""time""
""fullscreenenter"",""1"",""4737""
","
","","","710.2000000178814","","","10","5129","3273","w","elianto","#f73b6a7A","-1"," ","0","-10","[1560.6000000238419]","1","2","","","5129","65","3","4","lose","no-go","0"
"pit-trial","187","1303293","0.0-70.0","battery-v0.2","","""event"",""trial"",""time""
""fullscreenenter"",""1"",""4737""
","
","
","""event"",""trial"",""time""
""fullscreenenter"",""1"",""4737""
","
","","","1273.199999988079","","","10","5129","3273","p","elianto","#3366ff99","-1"," ","0","+10","[2123.5]","1","2","","","5129","66","5","2","win","no-go","1"
"pit-trial","188","1307463","0.0-71.0","battery-v0.2","","""event"",""trial"",""time""
""fullscreenenter"",""1"",""4737""
","
","
","""event"",""trial"",""time""
""fullscreenenter"",""1"",""4737""
","
","","","1311.2999999821186","","","10","5129","3273","d","elianto","#3366ff99","-1"," ","0","0","[2161.5]","1","2","","","5129","67","1","2","win","no-go","0"
"pit-trial","189","1312321","0.0-72.0","battery-v0.2","","""event"",""trial"",""time""
""fullscreenenter"",""1"",""4737""
","
","
","""event"",""trial"",""time""
""fullscreenenter"",""1"",""4737""
","
","","","-1","","","10","5129","3273","s","elianto","#3366ff99"," ","-1","0","0","[3981.9000000059605]","1","2","","","5129","68","4","1","win","go","0"
"pit-trial","190","1315949","0.0-73.0","battery-v0.2","","""event"",""trial"",""time""
""fullscreenenter"",""1"",""4737""
","
","
","""event"",""trial"",""time""
""fullscreenenter"",""1"",""4737""
","
","","","773.4000000059605","","","10","5129","3273","s","elianto","#3366ff99"," "," ","1","+10","[1623.4000000059605]","1","2","","","5129","69","4","1","win","go","0"
"pit-trial","191","1319742","0.0-74.0","battery-v0.2","","""event"",""trial"",""time""
""fullscreenenter"",""1"",""4737""
","
","
","""event"",""trial"",""time""
""fullscreenenter"",""1"",""4737""
","
","","","932.5999999940395","","","10","5129","3273","p","elianto","#3366ff99","-1"," ","0","0","[1782.699999988079]","1","2","","","5129","70","5","2","win","no-go","0"
"pit-trial","192","1323902","0.0-75.0","battery-v0.2","","""event"",""trial"",""time""
""fullscreenenter"",""1"",""4737""
","
","
","""event"",""trial"",""time""
""fullscreenenter"",""1"",""4737""
","
","","","1300","","","10","5129","3273","e","elianto","#f73b6a7A"," "," ","1","0","[2150.4000000059605]","1","2","","","5129","71","2","3","lose","go","0"
"pit-trial","193","1327746","0.0-76.0","battery-v0.2","","""event"",""trial"",""time""
""fullscreenenter"",""1"",""4737""
","
","
","""event"",""trial"",""time""
""fullscreenenter"",""1"",""4737""
","
","","","986.0999999940395","","","10","5129","3273","d","elianto","#3366ff99","-1"," ","0","0","[1836.3999999761581]","1","2","","","5129","72","1","2","win","no-go","0"
"pit-trial","194","1332603","0.0-77.0","battery-v0.2","","""event"",""trial"",""time""
""fullscreenenter"",""1"",""4737""
","
","
","""event"",""trial"",""time""
""fullscreenenter"",""1"",""4737""
","
","","","-1","","","10","5129","3273","p","elianto","#3366ff99","-1","-1","1","+10","[]","0","2","","","5129","73","5","2","win","no-go","0"
"pit-trial","195","1337460","0.0-78.0","battery-v0.2","","""event"",""trial"",""time""
""fullscreenenter"",""1"",""4737""
","
","
","""event"",""trial"",""time""
""fullscreenenter"",""1"",""4737""
","
","","","-1","","","10","5129","3273","d","elianto","#3366ff99","-1","-1","1","+10","[]","0","2","","","5129","74","1","2","win","no-go","0"
"pit-trial","196","1342319","0.0-79.0","battery-v0.2","","""event"",""trial"",""time""
""fullscreenenter"",""1"",""4737""
","
","
","""event"",""trial"",""time""
""fullscreenenter"",""1"",""4737""
","
","","","-1","","","10","5129","3273","w","elianto","#f73b6a7A","-1","-1","1","0","[]","0","2","","","5129","75","3","4","lose","no-go","0"
"pit-trial","197","1347177","0.0-80.0","battery-v0.2","","""event"",""trial"",""time""
""fullscreenenter"",""1"",""4737""
","
","
","""event"",""trial"",""time""
""fullscreenenter"",""1"",""4737""
","
","","","-1","","","10","5129","3273","s","elianto","#3366ff99"," ","-1","0","0","[]","0","2","","","5129","76","4","1","win","go","0"
"pit-trial","198","1351251","0.0-81.0","battery-v0.2","","""event"",""trial"",""time""
""fullscreenenter"",""1"",""4737""
","
","
","""event"",""trial"",""time""
""fullscreenenter"",""1"",""4737""
","
","","","1213.800000011921","","","10","5129","3273","s","elianto","#3366ff99"," "," ","1","0","[2064.7999999821186]","1","2","","","5129","77","4","1","win","go","1"
"pit-trial","199","1356110","0.0-82.0","battery-v0.2","","""event"",""trial"",""time""
""fullscreenenter"",""1"",""4737""
","
","
","""event"",""trial"",""time""
""fullscreenenter"",""1"",""4737""
","
","","","-1","","","10","5129","3273","w","elianto","#f73b6a7A","-1","-1","1","-10","[]","0","2","","","5129","78","3","4","lose","no-go","1"
"pit-trial","200","1359356","0.0-83.0","battery-v0.2","","""event"",""trial"",""time""
""fullscreenenter"",""1"",""4737""
","
","
","""event"",""trial"",""time""
""fullscreenenter"",""1"",""4737""
","
","","","390.30000001192093","","","10","5129","3273","p","elianto","#3366ff99","-1"," ","0","0","[1240.4000000059605]","1","2","","","5129","79","5","2","win","no-go","0"
"pit-trial","201","1363197","0.0-84.0","battery-v0.2","","""event"",""trial"",""time""
""fullscreenenter"",""1"",""4737""
","
","
","""event"",""trial"",""time""
""fullscreenenter"",""1"",""4737""
","
","","","983.5999999940395","","","10","5129","3273","s","elianto","#3366ff99"," "," ","1","+10","[1833.699999988079]","1","2","","","5129","80","4","1","win","go","0"
"pit-trial","202","1368054","0.0-85.0","battery-v0.2","","""event"",""trial"",""time""
""fullscreenenter"",""1"",""4737""
","
","
","""event"",""trial"",""time""
""fullscreenenter"",""1"",""4737""
","
","","","-1","","","10","5129","3273","w","elianto","#f73b6a7A","-1","-1","1","0","[]","0","2","","","5129","81","3","4","lose","no-go","0"
"pit-trial","203","1372912","0.0-86.0","battery-v0.2","","""event"",""trial"",""time""
""fullscreenenter"",""1"",""4737""
","
","
","""event"",""trial"",""time""
""fullscreenenter"",""1"",""4737""
","
","","","-1","","","10","5129","3273","p","elianto","#3366ff99","-1","-1","1","0","[]","0","2","","","5129","82","5","2","win","no-go","1"
"pit-trial","204","1376933","0.0-87.0","battery-v0.2","","""event"",""trial"",""time""
""fullscreenenter"",""1"",""4737""
","
","
","""event"",""trial"",""time""
""fullscreenenter"",""1"",""4737""
","
","","","1155.0999999940395","","","10","5129","3273","a","elianto","#f73b6a7A","-1"," ","0","-10","[2011.5999999940395]","1","2","","","5129","83","7","4","lose","no-go","0"
"pit-trial","205","1381791","0.0-88.0","battery-v0.2","","""event"",""trial"",""time""
""fullscreenenter"",""1"",""4737""
","
","
","""event"",""trial"",""time""
""fullscreenenter"",""1"",""4737""
","
","","","-1","","","10","5129","3273","s","elianto","#3366ff99"," ","-1","0","0","[]","0","2","","","5129","84","4","1","win","go","0"
"pit-trial","206","1386386","0.0-89.0","battery-v0.2","","""event"",""trial"",""time""
""fullscreenenter"",""1"",""4737""
","
","
","""event"",""trial"",""time""
""fullscreenenter"",""1"",""4737""
","
","","","1733.199999988079","","","10","5129","3273","g","elianto","#f73b6a7A"," "," ","1","0","[2583.7999999821186]","1","2","","","5129","85","6","3","lose","go","0"
"pit-trial","207","1391245","0.0-90.0","battery-v0.2","","""event"",""trial"",""time""
""fullscreenenter"",""1"",""4737""
","
","
","""event"",""trial"",""time""
""fullscreenenter"",""1"",""4737""
","
","","","-1","","","10","5129","3273","a","elianto","#f73b6a7A","-1","-1","1","-10","[]","0","2","","","5129","86","7","4","lose","no-go","1"
"pit-trial","208","1395263","0.0-91.0","battery-v0.2","","""event"",""trial"",""time""
""fullscreenenter"",""1"",""4737""
","
","
","""event"",""trial"",""time""
""fullscreenenter"",""1"",""4737""
","
","","","1155.2000000178814","","","10","5129","3273","s","elianto","#3366ff99"," "," ","1","+10","[2008.5]","1","2","","","5129","87","4","1","win","go","0"
"pit-trial","209","1400123","0.0-92.0","battery-v0.2","","""event"",""trial"",""time""
""fullscreenenter"",""1"",""4737""
","
","
","""event"",""trial"",""time""
""fullscreenenter"",""1"",""4737""
","
","","","-1","","","10","5129","3273","p","elianto","#3366ff99","-1","-1","1","+10","[]","0","2","","","5129","88","5","2","win","no-go","0"
"pit-trial","210","1404982","0.0-93.0","battery-v0.2","","""event"",""trial"",""time""
""fullscreenenter"",""1"",""4737""
","
","
","""event"",""trial"",""time""
""fullscreenenter"",""1"",""4737""
","
","","","-1","","","10","5129","3273","g","elianto","#f73b6a7A"," ","-1","0","-10","[]","0","2","","","5129","89","6","3","lose","go","0"
"pit-trial","211","1409841","0.0-94.0","battery-v0.2","","""event"",""trial"",""time""
""fullscreenenter"",""1"",""4737""
","
","
","""event"",""trial"",""time""
""fullscreenenter"",""1"",""4737""
","
","","","-1","","","10","5129","3273","p","elianto","#3366ff99","-1","-1","1","+10","[]","0","2","","","5129","90","5","2","win","no-go","0"
"pit-trial","212","1414698","0.0-95.0","battery-v0.2","","""event"",""trial"",""time""
""fullscreenenter"",""1"",""4737""
","
","
","""event"",""trial"",""time""
""fullscreenenter"",""1"",""4737""
","
","","","-1","","","10","5129","3273","s","elianto","#3366ff99"," ","-1","0","0","[]","0","2","","","5129","91","4","1","win","go","0"
"pit-trial","213","1419043","0.0-96.0","battery-v0.2","","""event"",""trial"",""time""
""fullscreenenter"",""1"",""4737""
","
","
","""event"",""trial"",""time""
""fullscreenenter"",""1"",""4737""
","
","","","1485.2000000178814","","","10","5129","3273","a","elianto","#f73b6a7A","-1"," ","0","-10","[2335.0999999940395]","1","2","","","5129","92","7","4","lose","no-go","0"
"pit-trial","214","1423900","0.0-97.0","battery-v0.2","","""event"",""trial"",""time""
""fullscreenenter"",""1"",""4737""
","
","
","""event"",""trial"",""time""
""fullscreenenter"",""1"",""4737""
","
","","","-1","","","10","5129","3273","g","elianto","#f73b6a7A"," ","-1","0","0","[]","0","2","","","5129","93","6","3","lose","go","1"
"pit-trial","215","1428756","0.0-98.0","battery-v0.2","","""event"",""trial"",""time""
""fullscreenenter"",""1"",""4737""
","
","
","""event"",""trial"",""time""
""fullscreenenter"",""1"",""4737""
","
","","","-1","","","10","5129","3273","p","elianto","#3366ff99","-1","-1","1","+10","[]","0","2","","","5129","94","5","2","win","no-go","0"
"pit-trial","216","1433615","0.0-99.0","battery-v0.2","","""event"",""trial"",""time""
""fullscreenenter"",""1"",""4737""
","
","
","""event"",""trial"",""time""
""fullscreenenter"",""1"",""4737""
","
","","","-1","","","10","5129","3273","l","elianto","#3366ff99"," ","-1","0","0","[]","0","2","","","5129","95","8","1","win","go","0"
"pit-trial","217","1438473","0.0-100.0","battery-v0.2","","""event"",""trial"",""time""
""fullscreenenter"",""1"",""4737""
","
","
","""event"",""trial"",""time""
""fullscreenenter"",""1"",""4737""
","
","","","-1","","","10","5129","3273","a","elianto","#f73b6a7A","-1","-1","1","0","[]","0","2","","","5129","96","7","4","lose","no-go","0"
"pit-trial","218","1443331","0.0-101.0","battery-v0.2","","""event"",""trial"",""time""
""fullscreenenter"",""1"",""4737""
","
","
","""event"",""trial"",""time""
""fullscreenenter"",""1"",""4737""
","
","","","-1","","","10","5129","3273","g","elianto","#f73b6a7A"," ","-1","0","-10","[]","0","2","","","5129","97","6","3","lose","go","0"
"pit-trial","219","1447047","0.0-102.0","battery-v0.2","","""event"",""trial"",""time""
""fullscreenenter"",""1"",""4737""
","
","
","""event"",""trial"",""time""
""fullscreenenter"",""1"",""4737""
","
","","","856.9000000059605","","","10","5129","3273","p","elianto","#3366ff99","-1"," ","0","0","[1707.0999999940395]","1","2","","","5129","98","5","2","win","no-go","0"
"pit-trial","220","1450784","0.0-103.0","battery-v0.2","","""event"",""trial"",""time""
""fullscreenenter"",""1"",""4737""
","
","
","""event"",""trial"",""time""
""fullscreenenter"",""1"",""4737""
","
","","","876.1999999880791","","","10","5129","3273","a","elianto","#f73b6a7A","-1"," ","0","-10","[1726.9000000059605]","1","2","","","5129","99","7","4","lose","no-go","0"
"pit-trial","221","1455041","0.0-104.0","battery-v0.2","","""event"",""trial"",""time""
""fullscreenenter"",""1"",""4737""
","
","
","""event"",""trial"",""time""
""fullscreenenter"",""1"",""4737""
","
","","","1397.5999999940395","","","10","5129","3273","l","elianto","#3366ff99"," "," ","1","+10","[2247.9000000059605]","1","2","","","5129","100","8","1","win","go","0"
"pit-trial","222","1459487","0.0-105.0","battery-v0.2","","""event"",""trial"",""time""
""fullscreenenter"",""1"",""4737""
","
","
","""event"",""trial"",""time""
""fullscreenenter"",""1"",""4737""
","
","","","1581.800000011921","","","10","5129","3273","a","elianto","#f73b6a7A","-1"," ","0","-10","[2438.300000011921,3477.9000000059605]","2","2","","","5129","101","7","4","lose","no-go","0"
"pit-trial","223","1463347","0.0-106.0","battery-v0.2","","""event"",""trial"",""time""
""fullscreenenter"",""1"",""4737""
","
","
","""event"",""trial"",""time""
""fullscreenenter"",""1"",""4737""
","
","","","999.6999999880791","","","10","5129","3273","u","elianto","#3366ff99"," "," ","1","+10","[1850.199999988079]","1","2","","","5129","102","9","1","win","go","0"
"pit-trial","224","1466275","0.0-107.0","battery-v0.2","","""event"",""trial"",""time""
""fullscreenenter"",""1"",""4737""
","
","
","""event"",""trial"",""time""
""fullscreenenter"",""1"",""4737""
","
","","","68.90000000596046","","","10","5129","3273","l","elianto","#3366ff99"," "," ","1","+10","[456.7999999821186,668.6999999880791,919.1999999880791,1201.3999999761581,1500.3999999761581,1853,2180.199999988079,2617]","8","2","","","5129","103","8","1","win","go","0"
"pit-trial","225","1469306","0.0-108.0","battery-v0.2","","""event"",""trial"",""time""
""fullscreenenter"",""1"",""4737""
","
","
","""event"",""trial"",""time""
""fullscreenenter"",""1"",""4737""
","
","","","168.40000000596046","","","10","5129","3273","p","elianto","#3366ff99","-1"," ","0","0","[122.60000002384186,603.3000000119209,1021.7000000178814,1547.4000000059605,2198.800000011921,2747.5]","6","2","","","5129","104","5","2","win","no-go","0"
"pit-trial","226","1473059","0.0-109.0","battery-v0.2","","""event"",""trial"",""time""
""fullscreenenter"",""1"",""4737""
","
","
","""event"",""trial"",""time""
""fullscreenenter"",""1"",""4737""
","
","","","893.5999999940395","","","10","5129","3273","u","elianto","#3366ff99"," "," ","1","+10","[1743.800000011921]","1","2","","","5129","105","9","1","win","go","0"
"pit-trial","227","1476757","0.0-110.0","battery-v0.2","","""event"",""trial"",""time""
""fullscreenenter"",""1"",""4737""
","
","
","""event"",""trial"",""time""
""fullscreenenter"",""1"",""4737""
","
","","","834.7999999821186","","","10","5129","3273","s","elianto","#3366ff99"," "," ","1","+10","[1688.5]","1","2","","","5129","106","4","1","win","go","0"
"pit-trial","228","1481616","0.0-111.0","battery-v0.2","","""event"",""trial"",""time""
""fullscreenenter"",""1"",""4737""
","
","
","""event"",""trial"",""time""
""fullscreenenter"",""1"",""4737""
","
","","","-1","","","10","5129","3273","g","elianto","#f73b6a7A"," ","-1","0","0","[]","0","2","","","5129","107","6","3","lose","go","1"
"pit-trial","229","1486474","0.0-112.0","battery-v0.2","","""event"",""trial"",""time""
""fullscreenenter"",""1"",""4737""
","
","
","""event"",""trial"",""time""
""fullscreenenter"",""1"",""4737""
","
","","","-1","","","10","5129","3273","l","elianto","#3366ff99"," ","-1","0","0","[3127.7999999821186]","1","2","","","5129","108","8","1","win","go","0"
"pit-trial","230","1490584","0.0-113.0","battery-v0.2","","""event"",""trial"",""time""
""fullscreenenter"",""1"",""4737""
","
","
","""event"",""trial"",""time""
""fullscreenenter"",""1"",""4737""
","
","","","1247.800000011921","","","10","5129","3273","l","elianto","#3366ff99"," "," ","1","0","[2100.4000000059605]","1","2","","","5129","109","8","1","win","go","1"
"pit-trial","231","1494552","0.0-114.0","battery-v0.2","","""event"",""trial"",""time""
""fullscreenenter"",""1"",""4737""
","
","
","""event"",""trial"",""time""
""fullscreenenter"",""1"",""4737""
","
","","","1109.0999999940395","","","10","5129","3273","p","elianto","#3366ff99","-1"," ","0","0","[1959.199999988079]","1","2","","","5129","110","5","2","win","no-go","0"
"pit-trial","232","1498800","0.0-115.0","battery-v0.2","","""event"",""trial"",""time""
""fullscreenenter"",""1"",""4737""
","
","
","""event"",""trial"",""time""
""fullscreenenter"",""1"",""4737""
","
","","","1390.300000011921","","","10","5129","3273","u","elianto","#3366ff99"," "," ","1","+10","[2240.7000000178814]","1","2","","","5129","111","9","1","win","go","0"
"pit-trial","233","1503657","0.0-116.0","battery-v0.2","","""event"",""trial"",""time""
""fullscreenenter"",""1"",""4737""
","
","
","""event"",""trial"",""time""
""fullscreenenter"",""1"",""4737""
","
","","","-1","","","10","5129","3273","g","elianto","#f73b6a7A"," ","-1","0","-10","[]","0","2","","","5129","112","6","3","lose","go","0"
"pit-trial","234","1508513","0.0-117.0","battery-v0.2","","""event"",""trial"",""time""
""fullscreenenter"",""1"",""4737""
","
","
","""event"",""trial"",""time""
""fullscreenenter"",""1"",""4737""
","
","","","-1","","","10","5129","3273","l","elianto","#3366ff99"," ","-1","0","0","[]","0","2","","","5129","113","8","1","win","go","0"
"pit-trial","235","1513368","0.0-118.0","battery-v0.2","","""event"",""trial"",""time""
""fullscreenenter"",""1"",""4737""
","
","
","""event"",""trial"",""time""
""fullscreenenter"",""1"",""4737""
","
","","","-1","","","10","5129","3273","g","elianto","#f73b6a7A"," ","-1","0","-10","[]","0","2","","","5129","114","6","3","lose","go","0"
"pit-trial","236","1518230","0.0-119.0","battery-v0.2","","""event"",""trial"",""time""
""fullscreenenter"",""1"",""4737""
","
","
","""event"",""trial"",""time""
""fullscreenenter"",""1"",""4737""
","
","","","-1","","","10","5129","3273","p","elianto","#3366ff99","-1","-1","1","+10","[]","0","2","","","5129","115","5","2","win","no-go","0"
"pit-trial","237","1523088","0.0-120.0","battery-v0.2","","""event"",""trial"",""time""
""fullscreenenter"",""1"",""4737""
","
","
","""event"",""trial"",""time""
""fullscreenenter"",""1"",""4737""
","
","","","-1","","","10","5129","3273","u","elianto","#3366ff99"," ","-1","0","0","[]","0","2","","","5129","116","9","1","win","go","0"
"pit-trial","238","1526679","0.0-121.0","battery-v0.2","","""event"",""trial"",""time""
""fullscreenenter"",""1"",""4737""
","
","
","""event"",""trial"",""time""
""fullscreenenter"",""1"",""4737""
","
","","","731.3999999761581","","","10","5129","3273","p","elianto","#3366ff99","-1"," ","0","0","[1584.199999988079]","1","2","","","5129","117","5","2","win","no-go","0"
"pit-trial","239","1531537","0.0-122.0","battery-v0.2","","""event"",""trial"",""time""
""fullscreenenter"",""1"",""4737""
","
","
","""event"",""trial"",""time""
""fullscreenenter"",""1"",""4737""
","
","","","-1","","","10","5129","3273","u","elianto","#3366ff99"," ","-1","0","+10","[]","0","2","","","5129","118","9","1","win","go","1"
"pit-trial","240","1534950","0.0-123.0","battery-v0.2","","""event"",""trial"",""time""
""fullscreenenter"",""1"",""4737""
","
","
","""event"",""trial"",""time""
""fullscreenenter"",""1"",""4737""
","
","","","547.7999999821186","","","10","5129","3273","l","elianto","#3366ff99"," "," ","1","+10","[1404.2999999821186]","1","2","","","5129","119","8","1","win","go","0"
"pit-trial","241","1538255","0.0-124.0","battery-v0.2","","""event"",""trial"",""time""
""fullscreenenter"",""1"",""4737""
","
","
","""event"",""trial"",""time""
""fullscreenenter"",""1"",""4737""
","
","","","444","","","10","5129","3273","g","elianto","#f73b6a7A"," "," ","1","0","[1294.800000011921]","1","2","","","5129","120","6","3","lose","go","0"
"pit-trial","242","1543114","0.0-125.0","battery-v0.2","","""event"",""trial"",""time""
""fullscreenenter"",""1"",""4737""
","
","
","""event"",""trial"",""time""
""fullscreenenter"",""1"",""4737""
","
","","","-1","","","10","5129","3273","a","elianto","#f73b6a7A","-1","-1","1","0","[3070.5999999940395]","1","2","","","5129","121","7","4","lose","no-go","0"
"pit-trial","243","1547501","0.0-126.0","battery-v0.2","","""event"",""trial"",""time""
""fullscreenenter"",""1"",""4737""
","
","
","""event"",""trial"",""time""
""fullscreenenter"",""1"",""4737""
","
","","","1529.800000011921","","","10","5129","3273","g","elianto","#f73b6a7A"," "," ","1","0","[2380.300000011921]","1","2","","","5129","122","6","3","lose","go","0"
"pit-trial","244","1550838","0.0-127.0","battery-v0.2","","""event"",""trial"",""time""
""fullscreenenter"",""1"",""4737""
","
","
","""event"",""trial"",""time""
""fullscreenenter"",""1"",""4737""
","
","","","477.5","","","10","5129","3273","u","elianto","#3366ff99"," "," ","1","+10","[1327.300000011921]","1","2","","","5129","123","9","1","win","go","0"
"pit-trial","245","1553737","0.0-128.0","battery-v0.2","","""event"",""trial"",""time""
""fullscreenenter"",""1"",""4737""
","
","
","""event"",""trial"",""time""
""fullscreenenter"",""1"",""4737""
","
","","","37.80000001192093","","","10","5129","3273","l","elianto","#3366ff99"," "," ","1","+10","[891.8000000119209]","1","2","","","5129","124","8","1","win","go","0"
"pit-trial","246","1557054","0.0-129.0","battery-v0.2","","""event"",""trial"",""time""
""fullscreenenter"",""1"",""4737""
","
","
","""event"",""trial"",""time""
""fullscreenenter"",""1"",""4737""
","
","","","456.2999999821186","","","10","5129","3273","g","elianto","#f73b6a7A"," "," ","1","0","[1309]","1","2","","","5129","125","6","3","lose","go","0"
"pit-trial","247","1560561","0.0-130.0","battery-v0.2","","""event"",""trial"",""time""
""fullscreenenter"",""1"",""4737""
","
","
","""event"",""trial"",""time""
""fullscreenenter"",""1"",""4737""
","
","","","644.7000000178814","","","10","5129","3273","u","elianto","#3366ff99"," "," ","1","+10","[218.7999999821186,342.59999999403954,1497.3999999761581]","3","2","","","5129","126","9","1","win","go","0"
"pit-trial","248","1564141","0.0-131.0","battery-v0.2","","""event"",""trial"",""time""
""fullscreenenter"",""1"",""4737""
","
","
","""event"",""trial"",""time""
""fullscreenenter"",""1"",""4737""
","
","","","722.5999999940395","","","10","5129","3273","a","elianto","#f73b6a7A","-1"," ","0","0","[1572.7000000178814]","1","2","","","5129","127","7","4","lose","no-go","1"
"pit-trial","249","1567176","0.0-132.0","battery-v0.2","","""event"",""trial"",""time""
""fullscreenenter"",""1"",""4737""
","
","
","""event"",""trial"",""time""
""fullscreenenter"",""1"",""4737""
","
","","","177.59999999403954","","","10","5129","3273","l","elianto","#3366ff99"," "," ","1","+10","[417.80000001192093,1028.9000000059605]","2","2","","","5129","128","8","1","win","go","0"
"pit-trial","250","1572039","0.0-133.0","battery-v0.2","","""event"",""trial"",""time""
""fullscreenenter"",""1"",""4737""
","
","
","""event"",""trial"",""time""
""fullscreenenter"",""1"",""4737""
","
","","","-1","","","10","5129","3273","a","elianto","#f73b6a7A","-1","-1","1","-10","[301.5,2880.800000011921]","2","2","","","5129","129","7","4","lose","no-go","1"
"pit-trial","251","1575616","0.0-134.0","battery-v0.2","","""event"",""trial"",""time""
""fullscreenenter"",""1"",""4737""
","
","
","""event"",""trial"",""time""
""fullscreenenter"",""1"",""4737""
","
","","","716.8999999761581","","","10","5129","3273","g","elianto","#f73b6a7A"," "," ","1","-10","[1568.5]","1","2","","","5129","130","6","3","lose","go","1"
"pit-trial","252","1580473","0.0-135.0","battery-v0.2","","""event"",""trial"",""time""
""fullscreenenter"",""1"",""4737""
","
","
","""event"",""trial"",""time""
""fullscreenenter"",""1"",""4737""
","
","","","-1","","","10","5129","3273","l","elianto","#3366ff99"," ","-1","0","0","[3279.5]","1","2","","","5129","131","8","1","win","go","0"
"pit-trial","253","1585216","0.0-136.0","battery-v0.2","","""event"",""trial"",""time""
""fullscreenenter"",""1"",""4737""
","
","
","""event"",""trial"",""time""
""fullscreenenter"",""1"",""4737""
","
","","","1881.5","","","10","5129","3273","u","elianto","#3366ff99"," "," ","1","+10","[2733.7999999821186]","1","2","","","5129","132","9","1","win","go","0"
"pit-trial","254","1588452","0.0-137.0","battery-v0.2","","""event"",""trial"",""time""
""fullscreenenter"",""1"",""4737""
","
","
","""event"",""trial"",""time""
""fullscreenenter"",""1"",""4737""
","
","","","376.60000002384186","","","10","5129","3273","u","elianto","#3366ff99"," "," ","1","0","[1226.5999999940395]","1","2","","","5129","133","9","1","win","go","1"
"pit-trial","255","1592030","0.0-138.0","battery-v0.2","","""event"",""trial"",""time""
""fullscreenenter"",""1"",""4737""
","
","
","""event"",""trial"",""time""
""fullscreenenter"",""1"",""4737""
","
","","","712.8000000119209","","","10","5129","3273","l","elianto","#3366ff99"," "," ","1","0","[1568.2000000178814]","1","2","","","5129","134","8","1","win","go","1"
"pit-trial","256","1594909","0.0-139.0","battery-v0.2","","""event"",""trial"",""time""
""fullscreenenter"",""1"",""4737""
","
","
","""event"",""trial"",""time""
""fullscreenenter"",""1"",""4737""
","
","","","17.399999976158142","","","10","5129","3273","a","elianto","#f73b6a7A","-1"," ","0","0","[867.6999999880791]","1","2","","","5129","135","7","4","lose","no-go","1"
"pit-trial","257","1599466","0.0-140.0","battery-v0.2","","""event"",""trial"",""time""
""fullscreenenter"",""1"",""4737""
","
","
","""event"",""trial"",""time""
""fullscreenenter"",""1"",""4737""
","
","","","1696","","","10","5129","3273","g","elianto","#f73b6a7A"," "," ","1","0","[2546.2000000178814]","1","2","","","5129","136","6","3","lose","go","0"
"pit-trial","258","1602943","0.0-141.0","battery-v0.2","","""event"",""trial"",""time""
""fullscreenenter"",""1"",""4737""
","
","
","""event"",""trial"",""time""
""fullscreenenter"",""1"",""4737""
","
","","","613.1999999880791","","","10","5129","3273","l","elianto","#3366ff99"," "," ","1","+10","[1467.199999988079]","1","2","","","5129","137","8","1","win","go","0"
"pit-trial","259","1606347","0.0-142.0","battery-v0.2","","""event"",""trial"",""time""
""fullscreenenter"",""1"",""4737""
","
","
","""event"",""trial"",""time""
""fullscreenenter"",""1"",""4737""
","
","","","545.6999999880791","","","10","5129","3273","g","elianto","#f73b6a7A"," "," ","1","-10","[1395.9000000059605]","1","2","","","5129","138","6","3","lose","go","1"
"pit-trial","260","1609661","0.0-143.0","battery-v0.2","","""event"",""trial"",""time""
""fullscreenenter"",""1"",""4737""
","
","
","""event"",""trial"",""time""
""fullscreenenter"",""1"",""4737""
","
","","","455.40000000596046","","","10","5129","3273","u","elianto","#3366ff99"," "," ","1","0","[1306]","1","2","","","5129","139","9","1","win","go","1"
"pit-trial","261","1614519","0.0-144.0","battery-v0.2","","""event"",""trial"",""time""
""fullscreenenter"",""1"",""4737""
","
","
","""event"",""trial"",""time""
""fullscreenenter"",""1"",""4737""
","
","","","-1","","","10","5129","3273","a","elianto","#f73b6a7A","-1","-1","1","0","[]","0","2","","","5129","140","7","4","lose","no-go","0"
"pit-instructions","262","1650471","0.0-145.0","battery-v0.2","","""event"",""trial"",""time""
""fullscreenenter"",""1"",""4737""
","
","
","""event"",""trial"",""time""
""fullscreenenter"",""1"",""4737""
","
