"trial_type","trial_index","time_elapsed","internal_node_id","task_version","subject_id","interactions","blur_events","focus_events","fullscreenenter_events","fullscreenexit_events","success","view_history","rt","responses","num_errors","age","subject","participantId","rune","rune_set","hex","correct","choice","accuracy","outcome","keys","total_keys","block","practice","value","sub","trial","stimulus","robot","valence","action","sham"
"pavlovia","0","44","0.0-0.0","battery-v0.2","","""event"",""trial"",""time""
""fullscreenenter"",""1"",""2818""
","
","
","""event"",""trial"",""time""
""fullscreenenter"",""1"",""2818""
","
","","","","","","","","","","","","","","","","","","","","","","","","","","",""
"fullscreen","1","3802","0.0-1.0","battery-v0.2","","""event"",""trial"",""time""
""fullscreenenter"",""1"",""2818""
","
","
","""event"",""trial"",""time""
""fullscreenenter"",""1"",""2818""
","
","true","","","","","","","","","","","","","","","","","","","","","","","","","",""
"pit-instructions","2","9028","0.0-2.0-0.0","battery-v0.2","","""event"",""trial"",""time""
""fullscreenenter"",""1"",""2818""
","
","
","""event"",""trial"",""time""
""fullscreenenter"",""1"",""2818""
","
","","[{""page_index"":0,""viewing_time"":5202.5999999940395}]","5206.5","","","","","","","","","","","","","","","","","","","","","","","",""
"pit-comprehension","3","13494","0.0-2.0-1.0-0.0","battery-v0.2","","""event"",""trial"",""time""
""fullscreenenter"",""1"",""2818""
","
","
","""event"",""trial"",""time""
""fullscreenenter"",""1"",""2818""
","
","","","4446.5999999940395","[""shark""]","0","19","16540","6117","","","","","","","","","","","","","","","","","","",""
"pit-instructions","4","15357","0.0-2.0-1.0-1.0","battery-v0.2","","""event"",""trial"",""time""
""fullscreenenter"",""1"",""2818""
","
","
","""event"",""trial"",""time""
""fullscreenenter"",""1"",""2818""
","
","","[{""page_index"":0,""viewing_time"":1823.2000000029802}]","1826.5999999940395","","","","","","","","","","","","","","","","","","","","","","","",""
"pit-comprehension","5","18356","0.0-2.0-2.0-0.0","battery-v0.2","","""event"",""trial"",""time""
""fullscreenenter"",""1"",""2818""
","
","
","""event"",""trial"",""time""
""fullscreenenter"",""1"",""2818""
","
","","","2984.3999999910593","[""tiger""]","0","19","16540","6117","","","","","","","","","","","","","","","","","","",""
"pit-instructions","6","21757","0.0-2.0-2.0-1.0","battery-v0.2","","""event"",""trial"",""time""
""fullscreenenter"",""1"",""2818""
","
","
","""event"",""trial"",""time""
""fullscreenenter"",""1"",""2818""
","
","","[{""page_index"":0,""viewing_time"":3385.9000000059605}]","3387.5999999940395","","","","","","","","","","","","","","","","","","","","","","","",""
"pit-instructions","7","123007","0.0-2.0-3.0","battery-v0.2","","""event"",""trial"",""time""
""fullscreenenter"",""1"",""2818""
","
","
","""event"",""trial"",""time""
""fullscreenenter"",""1"",""2818""
","
","","[{""page_index"":0,""viewing_time"":7984.79999999702},{""page_index"":1,""viewing_time"":9290.5},{""page_index"":2,""viewing_time"":9147},{""page_index"":3,""viewing_time"":5500.100000008941},{""page_index"":4,""viewing_time"":5879.70000000298},{""page_index"":5,""viewing_time"":6544.5},{""page_index"":6,""viewing_time"":6851.399999991059},{""page_index"":7,""viewing_time"":6755.600000008941},{""page_index"":8,""viewing_time"":6358.199999988079},{""page_index"":9,""viewing_time"":8436.5},{""page_index"":10,""viewing_time"":8298.10000000894},{""page_index"":11,""viewing_time"":7948.20000000298},{""page_index"":12,""viewing_time"":6194.399999991059},{""page_index"":13,""viewing_time"":6041.4000000059605}]","101235.60000000894","","","","","","","","","","","","","","","","","","","","","","","",""
"pit-trial","8","126316","0.0-2.0-4.0-0.0","battery-v0.2","","""event"",""trial"",""time""
""fullscreenenter"",""1"",""2818""
","
","
","""event"",""trial"",""time""
""fullscreenenter"",""1"",""2818""
","
","","","443.59999999403954","","","19","16540","6117","&#9784;","elianto","#FFFFF080"," "," ","1","&#10004","[1293.7000000029802]","1","0","0","","","","","","","",""
"pit-trial","9","129737","0.0-2.0-4.1-0.1","battery-v0.2","","""event"",""trial"",""time""
""fullscreenenter"",""1"",""2818""
","
","
","""event"",""trial"",""time""
""fullscreenenter"",""1"",""2818""
","
","","","552.8000000119209","","","19","16540","6117","&#9784;","elianto","#FFFFF080"," "," ","1","&#10004","[1402.5]","1","0","0","","","","","","","",""
"pit-trial","10","133151","0.0-2.0-4.2-0.2","battery-v0.2","","""event"",""trial"",""time""
""fullscreenenter"",""1"",""2818""
","
","
","""event"",""trial"",""time""
""fullscreenenter"",""1"",""2818""
","
","","","544.4000000059605","","","19","16540","6117","&#9784;","elianto","#FFFFF080"," "," ","1","&#10004","[1397.4000000059605]","1","0","0","","","","","","","",""
"pit-trial","11","136526","0.0-2.0-4.3-0.3","battery-v0.2","","""event"",""trial"",""time""
""fullscreenenter"",""1"",""2818""
","
","
","""event"",""trial"",""time""
""fullscreenenter"",""1"",""2818""
","
","","","507.79999999701977","","","19","16540","6117","&#9784;","elianto","#FFFFF080"," "," ","1","&#10004","[1360.699999988079]","1","0","0","","","","","","","",""
"pit-trial","12","140012","0.0-2.0-4.4-0.4","battery-v0.2","","""event"",""trial"",""time""
""fullscreenenter"",""1"",""2818""
","
","
","""event"",""trial"",""time""
""fullscreenenter"",""1"",""2818""
","
","","","612.6999999880791","","","19","16540","6117","&#9784;","elianto","#FFFFF080"," "," ","1","&#10004","[1466.6000000089407]","1","0","0","","","","","","","",""
"pit-instructions","13","165927","0.0-2.0-5.0","battery-v0.2","","""event"",""trial"",""time""
""fullscreenenter"",""1"",""2818""
","
","
","""event"",""trial"",""time""
""fullscreenenter"",""1"",""2818""
","
","","[{""page_index"":0,""viewing_time"":6676.29999999702},{""page_index"":1,""viewing_time"":5550.20000000298},{""page_index"":2,""viewing_time"":7412.899999991059},{""page_index"":3,""viewing_time"":6250.70000000298}]","25892.89999999106","","","","","","","","","","","","","","","","","","","","","","","",""
"pit-trial","14","170793","0.0-2.0-6.0-0.0","battery-v0.2","","""event"",""trial"",""time""
""fullscreenenter"",""1"",""2818""
","
","
","""event"",""trial"",""time""
""fullscreenenter"",""1"",""2818""
","
","","","-1","","","19","16540","6117","&#9854;","elianto","#FFFFF080","-1","-1","1","&#10004","[]","0","0","1","","","","","","","",""
"pit-trial","15","175660","0.0-2.0-6.1-0.1","battery-v0.2","","""event"",""trial"",""time""
""fullscreenenter"",""1"",""2818""
","
","
","""event"",""trial"",""time""
""fullscreenenter"",""1"",""2818""
","
","","","-1","","","19","16540","6117","&#9854;","elianto","#FFFFF080","-1","-1","1","&#10004","[]","0","0","1","","","","","","","",""
"pit-trial","16","180525","0.0-2.0-6.2-0.2","battery-v0.2","","""event"",""trial"",""time""
""fullscreenenter"",""1"",""2818""
","
","
","""event"",""trial"",""time""
""fullscreenenter"",""1"",""2818""
","
","","","-1","","","19","16540","6117","&#9854;","elianto","#FFFFF080","-1","-1","1","&#10004","[]","0","0","1","","","","","","","",""
"pit-trial","17","185396","0.0-2.0-6.3-0.3","battery-v0.2","","""event"",""trial"",""time""
""fullscreenenter"",""1"",""2818""
","
","
","""event"",""trial"",""time""
""fullscreenenter"",""1"",""2818""
","
","","","-1","","","19","16540","6117","&#9854;","elianto","#FFFFF080","-1","-1","1","&#10004","[]","0","0","1","","","","","","","",""
"pit-trial","18","190261","0.0-2.0-6.4-0.4","battery-v0.2","","""event"",""trial"",""time""
""fullscreenenter"",""1"",""2818""
","
","
","""event"",""trial"",""time""
""fullscreenenter"",""1"",""2818""
","
","","","-1","","","19","16540","6117","&#9854;","elianto","#FFFFF080","-1","-1","1","&#10004","[]","0","0","1","","","","","","","",""
"pit-instructions","19","310198","0.0-2.0-7.0","battery-v0.2","","""event"",""trial"",""time""
""fullscreenenter"",""1"",""2818""
","
","
","""event"",""trial"",""time""
""fullscreenenter"",""1"",""2818""
","
","","[{""page_index"":0,""viewing_time"":6746.9000000059605},{""page_index"":1,""viewing_time"":7082.20000000298},{""page_index"":2,""viewing_time"":6410},{""page_index"":3,""viewing_time"":6691.20000000298},{""page_index"":4,""viewing_time"":6398.0999999940395},{""page_index"":5,""viewing_time"":5485.79999999702},{""page_index"":6,""viewing_time"":5145.5},{""page_index"":7,""viewing_time"":7783},{""page_index"":8,""viewing_time"":6405.5},{""page_index"":9,""viewing_time"":6041.79999999702},{""page_index"":10,""viewing_time"":6694.100000008941},{""page_index"":11,""viewing_time"":5020},{""page_index"":12,""viewing_time"":6981.0999999940395},{""page_index"":13,""viewing_time"":7091.100000008941},{""page_index"":14,""viewing_time"":7243.79999999702},{""page_index"":15,""viewing_time"":6673.70000000298},{""page_index"":16,""viewing_time"":7544.199999988079},{""page_index"":17,""viewing_time"":8479.5}]","119922.90000000596","","","","","","","","","","","","","","","","","","","","","","","",""
"pit-trial","20","313633","0.0-2.0-8.0-0.0","battery-v0.2","","""event"",""trial"",""time""
""fullscreenenter"",""1"",""2818""
","
","
","""event"",""trial"",""time""
""fullscreenenter"",""1"",""2818""
","
","","","573.7999999970198","","","19","16540","6117","&#9776;","elianto","#3366ff99"," "," ","1","+10","[1424.2000000029802]","1","0","1","","","","","","","",""
"pit-trial","21","317149","0.0-2.0-8.0-1.0","battery-v0.2","","""event"",""trial"",""time""
""fullscreenenter"",""1"",""2818""
","
","
","""event"",""trial"",""time""
""fullscreenenter"",""1"",""2818""
","
","","","651.2999999970198","","","19","16540","6117","&#9776;","elianto","#3366ff99"," "," ","1","+10","[1500.9000000059605]","1","0","1","","","","","","","",""
"pit-trial","22","320636","0.0-2.0-8.0-2.0","battery-v0.2","","""event"",""trial"",""time""
""fullscreenenter"",""1"",""2818""
","
","
","""event"",""trial"",""time""
""fullscreenenter"",""1"",""2818""
","
","","","624.7000000029802","","","19","16540","6117","&#9776;","elianto","#3366ff99"," "," ","1","+10","[1474.5999999940395]","1","0","1","","","","","","","",""
"pit-trial","23","324071","0.0-2.0-8.0-3.0","battery-v0.2","","""event"",""trial"",""time""
""fullscreenenter"",""1"",""2818""
","
","
","""event"",""trial"",""time""
""fullscreenenter"",""1"",""2818""
","
","","","569.2000000029802","","","19","16540","6117","&#9776;","elianto","#3366ff99"," "," ","1","0","[1420.6000000089407]","1","0","1","","","","","","","",""
"pit-trial","24","327523","0.0-2.0-8.0-4.0","battery-v0.2","","""event"",""trial"",""time""
""fullscreenenter"",""1"",""2818""
","
","
","""event"",""trial"",""time""
""fullscreenenter"",""1"",""2818""
","
","","","589.0999999940395","","","19","16540","6117","&#9776;","elianto","#3366ff99"," "," ","1","+10","[1439.199999988079]","1","0","1","","","","","","","",""
"pit-trial","25","330924","0.0-2.0-8.1-0.1","battery-v0.2","","""event"",""trial"",""time""
""fullscreenenter"",""1"",""2818""
","
","
","""event"",""trial"",""time""
""fullscreenenter"",""1"",""2818""
","
","","","530.9000000059605","","","19","16540","6117","&#9776;","elianto","#3366ff99"," "," ","1","+10","[1385.9000000059605]","1","0","1","","","","","","","",""
"pit-trial","26","334306","0.0-2.0-8.1-1.1","battery-v0.2","","""event"",""trial"",""time""
""fullscreenenter"",""1"",""2818""
","
","
","""event"",""trial"",""time""
""fullscreenenter"",""1"",""2818""
","
","","","516.8999999910593","","","19","16540","6117","&#9776;","elianto","#3366ff99"," "," ","1","+10","[1367.199999988079]","1","0","1","","","","","","","",""
"pit-trial","27","337660","0.0-2.0-8.1-2.1","battery-v0.2","","""event"",""trial"",""time""
""fullscreenenter"",""1"",""2818""
","
","
","""event"",""trial"",""time""
""fullscreenenter"",""1"",""2818""
","
","","","483.79999999701977","","","19","16540","6117","&#9776;","elianto","#3366ff99"," "," ","1","+10","[1333.7999999970198]","1","0","1","","","","","","","",""
"pit-trial","28","341001","0.0-2.0-8.1-3.1","battery-v0.2","","""event"",""trial"",""time""
""fullscreenenter"",""1"",""2818""
","
","
","""event"",""trial"",""time""
""fullscreenenter"",""1"",""2818""
","
","","","480.20000000298023","","","19","16540","6117","&#9776;","elianto","#3366ff99"," "," ","1","0","[1330.2000000029802]","1","0","1","","","","","","","",""
"pit-trial","29","344386","0.0-2.0-8.1-4.1","battery-v0.2","","""event"",""trial"",""time""
""fullscreenenter"",""1"",""2818""
","
","
","""event"",""trial"",""time""
""fullscreenenter"",""1"",""2818""
","
","","","520.2000000029802","","","19","16540","6117","&#9776;","elianto","#3366ff99"," "," ","1","+10","[1370.7000000029802]","1","0","1","","","","","","","",""
"pit-trial","30","347911","0.0-2.0-8.2-0.2","battery-v0.2","","""event"",""trial"",""time""
""fullscreenenter"",""1"",""2818""
","
","
","""event"",""trial"",""time""
""fullscreenenter"",""1"",""2818""
","
","","","658.2999999970198","","","19","16540","6117","&#9776;","elianto","#3366ff99"," "," ","1","+10","[1508.2999999970198]","1","0","1","","","","","","","",""
"pit-trial","31","351271","0.0-2.0-8.2-1.2","battery-v0.2","","""event"",""trial"",""time""
""fullscreenenter"",""1"",""2818""
","
","
","""event"",""trial"",""time""
""fullscreenenter"",""1"",""2818""
","
","","","496.5","","","19","16540","6117","&#9776;","elianto","#3366ff99"," "," ","1","+10","[1346.8999999910593]","1","0","1","","","","","","","",""
"pit-trial","32","354846","0.0-2.0-8.2-2.2","battery-v0.2","","""event"",""trial"",""time""
""fullscreenenter"",""1"",""2818""
","
","
","""event"",""trial"",""time""
""fullscreenenter"",""1"",""2818""
","
","","","705","","","19","16540","6117","&#9776;","elianto","#3366ff99"," "," ","1","+10","[1558.2000000029802]","1","0","1","","","","","","","",""
"pit-trial","33","358235","0.0-2.0-8.2-3.2","battery-v0.2","","""event"",""trial"",""time""
""fullscreenenter"",""1"",""2818""
","
","
","""event"",""trial"",""time""
""fullscreenenter"",""1"",""2818""
","
","","","523.5","","","19","16540","6117","&#9776;","elianto","#3366ff99"," "," ","1","0","[1373.5999999940395]","1","0","1","","","","","","","",""
"pit-trial","34","361687","0.0-2.0-8.2-4.2","battery-v0.2","","""event"",""trial"",""time""
""fullscreenenter"",""1"",""2818""
","
","
","""event"",""trial"",""time""
""fullscreenenter"",""1"",""2818""
","
","","","583.0999999940395","","","19","16540","6117","&#9776;","elianto","#3366ff99"," "," ","1","+10","[1433.2000000029802]","1","0","1","","","","","","","",""
"call-function","35","361696","0.0-2.0-9.0","battery-v0.2","","""event"",""trial"",""time""
""fullscreenenter"",""1"",""2818""
","
","
","""event"",""trial"",""time""
""fullscreenenter"",""1"",""2818""
","
","","","","","","","","","","","","","","","","","","","","","","","","","","",""
"pit-instructions","36","403289","0.0-2.0-10.0","battery-v0.2","","""event"",""trial"",""time""
""fullscreenenter"",""1"",""2818""
","
","
","""event"",""trial"",""time""
""fullscreenenter"",""1"",""2818""
","
","","[{""page_index"":0,""viewing_time"":7790.79999999702},{""page_index"":1,""viewing_time"":6778.29999999702},{""page_index"":2,""viewing_time"":9841.79999999702},{""page_index"":3,""viewing_time"":9121.5},{""page_index"":4,""viewing_time"":8054.20000000298}]","41590.09999999404","","","","","","","","","","","","","","","","","","","","","","","",""
"pit-trial","37","406715","0.0-2.0-11.0-0.0","battery-v0.2","","""event"",""trial"",""time""
""fullscreenenter"",""1"",""2818""
","
","
","""event"",""trial"",""time""
""fullscreenenter"",""1"",""2818""
","
","","","560.0999999940395","","","19","16540","6117","&#9761;","elianto","#3366ff99","-1"," ","0","0","[1409.9000000059605]","1","0","2","","","","","","","",""
"pit-trial","38","410078","0.0-2.0-11.0-1.0","battery-v0.2","","""event"",""trial"",""time""
""fullscreenenter"",""1"",""2818""
","
","
","""event"",""trial"",""time""
""fullscreenenter"",""1"",""2818""
","
","","","497.3999999910593","","","19","16540","6117","&#9761;","elianto","#3366ff99","-1"," ","0","0","[1349.5]","1","0","2","","","","","","","",""
"pit-trial","39","413514","0.0-2.0-11.0-2.0","battery-v0.2","","""event"",""trial"",""time""
""fullscreenenter"",""1"",""2818""
","
","
","""event"",""trial"",""time""
""fullscreenenter"",""1"",""2818""
","
","","","567.2999999970198","","","19","16540","6117","&#9761;","elianto","#3366ff99","-1"," ","0","0","[1423.2000000029802]","1","0","2","","","","","","","",""
"pit-trial","40","417097","0.0-2.0-11.0-3.0","battery-v0.2","","""event"",""trial"",""time""
""fullscreenenter"",""1"",""2818""
","
","
","""event"",""trial"",""time""
""fullscreenenter"",""1"",""2818""
","
","","","720.2000000029802","","","19","16540","6117","&#9761;","elianto","#3366ff99","-1"," ","0","+10","[1570.2999999970198]","1","0","2","","","","","","","",""
"pit-trial","41","420499","0.0-2.0-11.0-4.0","battery-v0.2","","""event"",""trial"",""time""
""fullscreenenter"",""1"",""2818""
","
","
","""event"",""trial"",""time""
""fullscreenenter"",""1"",""2818""
","
","","","541.5","","","19","16540","6117","&#9761;","elianto","#3366ff99","-1"," ","0","0","[1391.6000000089407]","1","0","2","","","","","","","",""
"pit-trial","42","423869","0.0-2.0-11.1-0.1","battery-v0.2","","""event"",""trial"",""time""
""fullscreenenter"",""1"",""2818""
","
","
","""event"",""trial"",""time""
""fullscreenenter"",""1"",""2818""
","
","","","498.5","","","19","16540","6117","&#9761;","elianto","#3366ff99","-1"," ","0","0","[1353.2999999970198]","1","0","2","","","","","","","",""
"pit-trial","43","427053","0.0-2.0-11.1-1.1","battery-v0.2","","""event"",""trial"",""time""
""fullscreenenter"",""1"",""2818""
","
","
","""event"",""trial"",""time""
""fullscreenenter"",""1"",""2818""
","
","","","319.09999999403954","","","19","16540","6117","&#9761;","elianto","#3366ff99","-1"," ","0","0","[1169.2999999970198]","1","0","2","","","","","","","",""
"pit-trial","44","430367","0.0-2.0-11.1-2.1","battery-v0.2","","""event"",""trial"",""time""
""fullscreenenter"",""1"",""2818""
","
","
","""event"",""trial"",""time""
""fullscreenenter"",""1"",""2818""
","
","","","453.5","","","19","16540","6117","&#9761;","elianto","#3366ff99","-1"," ","0","0","[1303.5999999940395]","1","0","2","","","","","","","",""
"pit-trial","45","434046","0.0-2.0-11.1-3.1","battery-v0.2","","""event"",""trial"",""time""
""fullscreenenter"",""1"",""2818""
","
","
","""event"",""trial"",""time""
""fullscreenenter"",""1"",""2818""
","
","","","816.2999999970198","","","19","16540","6117","&#9761;","elianto","#3366ff99","-1"," ","0","+10","[1666.2999999970198]","1","0","2","","","","","","","",""
"pit-trial","46","437485","0.0-2.0-11.1-4.1","battery-v0.2","","""event"",""trial"",""time""
""fullscreenenter"",""1"",""2818""
","
","
","""event"",""trial"",""time""
""fullscreenenter"",""1"",""2818""
","
","","","572.7999999970198","","","19","16540","6117","&#9761;","elianto","#3366ff99","-1"," ","0","0","[1424]","1","0","2","","","","","","","",""
"pit-trial","47","442349","0.0-2.0-11.2-0.2","battery-v0.2","","""event"",""trial"",""time""
""fullscreenenter"",""1"",""2818""
","
","
","""event"",""trial"",""time""
""fullscreenenter"",""1"",""2818""
","
","","","-1","","","19","16540","6117","&#9761;","elianto","#3366ff99","-1","-1","1","+10","[]","0","0","2","","","","","","","",""
"pit-trial","48","447216","0.0-2.0-11.2-1.2","battery-v0.2","","""event"",""trial"",""time""
""fullscreenenter"",""1"",""2818""
","
","
","""event"",""trial"",""time""
""fullscreenenter"",""1"",""2818""
","
","","","-1","","","19","16540","6117","&#9761;","elianto","#3366ff99","-1","-1","1","+10","[]","0","0","2","","","","","","","",""
"pit-trial","49","452079","0.0-2.0-11.2-2.2","battery-v0.2","","""event"",""trial"",""time""
""fullscreenenter"",""1"",""2818""
","
","
","""event"",""trial"",""time""
""fullscreenenter"",""1"",""2818""
","
","","","-1","","","19","16540","6117","&#9761;","elianto","#3366ff99","-1","-1","1","+10","[]","0","0","2","","","","","","","",""
"pit-trial","50","456940","0.0-2.0-11.2-3.2","battery-v0.2","","""event"",""trial"",""time""
""fullscreenenter"",""1"",""2818""
","
","
","""event"",""trial"",""time""
""fullscreenenter"",""1"",""2818""
","
","","","-1","","","19","16540","6117","&#9761;","elianto","#3366ff99","-1","-1","1","0","[]","0","0","2","","","","","","","",""
"pit-trial","51","461806","0.0-2.0-11.2-4.2","battery-v0.2","","""event"",""trial"",""time""
""fullscreenenter"",""1"",""2818""
","
","
","""event"",""trial"",""time""
""fullscreenenter"",""1"",""2818""
","
","","","-1","","","19","16540","6117","&#9761;","elianto","#3366ff99","-1","-1","1","+10","[]","0","0","2","","","","","","","",""
"pit-trial","52","466671","0.0-2.0-11.3-0.3","battery-v0.2","","""event"",""trial"",""time""
""fullscreenenter"",""1"",""2818""
","
","
","""event"",""trial"",""time""
""fullscreenenter"",""1"",""2818""
","
","","","-1","","","19","16540","6117","&#9761;","elianto","#3366ff99","-1","-1","1","+10","[]","0","0","2","","","","","","","",""
"pit-trial","53","471533","0.0-2.0-11.3-1.3","battery-v0.2","","""event"",""trial"",""time""
""fullscreenenter"",""1"",""2818""
","
","
","""event"",""trial"",""time""
""fullscreenenter"",""1"",""2818""
","
","","","-1","","","19","16540","6117","&#9761;","elianto","#3366ff99","-1","-1","1","+10","[]","0","0","2","","","","","","","",""
"pit-trial","54","476400","0.0-2.0-11.3-2.3","battery-v0.2","","""event"",""trial"",""time""
""fullscreenenter"",""1"",""2818""
","
","
","""event"",""trial"",""time""
""fullscreenenter"",""1"",""2818""
","
","","","-1","","","19","16540","6117","&#9761;","elianto","#3366ff99","-1","-1","1","+10","[]","0","0","2","","","","","","","",""
"pit-trial","55","481266","0.0-2.0-11.3-3.3","battery-v0.2","","""event"",""trial"",""time""
""fullscreenenter"",""1"",""2818""
","
","
","""event"",""trial"",""time""
""fullscreenenter"",""1"",""2818""
","
","","","-1","","","19","16540","6117","&#9761;","elianto","#3366ff99","-1","-1","1","0","[]","0","0","2","","","","","","","",""
"pit-trial","56","486134","0.0-2.0-11.3-4.3","battery-v0.2","","""event"",""trial"",""time""
""fullscreenenter"",""1"",""2818""
","
","
","""event"",""trial"",""time""
""fullscreenenter"",""1"",""2818""
","
","","","-1","","","19","16540","6117","&#9761;","elianto","#3366ff99","-1","-1","1","+10","[]","0","0","2","","","","","","","",""
"call-function","57","486144","0.0-2.0-12.0","battery-v0.2","","""event"",""trial"",""time""
""fullscreenenter"",""1"",""2818""
","
","
","""event"",""trial"",""time""
""fullscreenenter"",""1"",""2818""
","
","","","","","","","","","","","","","","","","","","","","","","","","","","",""
"pit-instructions","58","516505","0.0-2.0-13.0","battery-v0.2","","""event"",""trial"",""time""
""fullscreenenter"",""1"",""2818""
","
","
","""event"",""trial"",""time""
""fullscreenenter"",""1"",""2818""
","
","","[{""page_index"":0,""viewing_time"":4888.29999999702},{""page_index"":1,""viewing_time"":6203.4000000059605},{""page_index"":2,""viewing_time"":3137},{""page_index"":3,""viewing_time"":11296.70000000298},{""page_index"":4,""viewing_time"":4829}]","30358.29999999702","","","","","","","","","","","","","","","","","","","","","","","",""
"pit-trial","59","520201","0.0-2.0-14.0-0.0","battery-v0.2","","""event"",""trial"",""time""
""fullscreenenter"",""1"",""2818""
","
","
","""event"",""trial"",""time""
""fullscreenenter"",""1"",""2818""
","
","","","831.2000000029802","","","19","16540","6117","&#9826;","elianto","#f73b6a7A","-1"," ","0","-10","[1681.4000000059605]","1","0","3","","","","","","","",""
"pit-trial","60","523515","0.0-2.0-14.0-1.0","battery-v0.2","","""event"",""trial"",""time""
""fullscreenenter"",""1"",""2818""
","
","
","""event"",""trial"",""time""
""fullscreenenter"",""1"",""2818""
","
","","","452.90000000596046","","","19","16540","6117","&#9826;","elianto","#f73b6a7A","-1"," ","0","-10","[1302.8999999910593]","1","0","3","","","","","","","",""
"pit-trial","61","526744","0.0-2.0-14.0-2.0","battery-v0.2","","""event"",""trial"",""time""
""fullscreenenter"",""1"",""2818""
","
","
","""event"",""trial"",""time""
""fullscreenenter"",""1"",""2818""
","
","","","367.3999999910593","","","19","16540","6117","&#9826;","elianto","#f73b6a7A","-1"," ","0","-10","[1217.5]","1","0","3","","","","","","","",""
"pit-trial","62","531608","0.0-2.0-14.0-3.0","battery-v0.2","","""event"",""trial"",""time""
""fullscreenenter"",""1"",""2818""
","
","
","""event"",""trial"",""time""
""fullscreenenter"",""1"",""2818""
","
","","","-1","","","19","16540","6117","&#9826;","elianto","#f73b6a7A","-1","-1","1","-10","[]","0","0","3","","","","","","","",""
"pit-trial","63","536472","0.0-2.0-14.0-4.0","battery-v0.2","","""event"",""trial"",""time""
""fullscreenenter"",""1"",""2818""
","
","
","""event"",""trial"",""time""
""fullscreenenter"",""1"",""2818""
","
","","","-1","","","19","16540","6117","&#9826;","elianto","#f73b6a7A","-1","-1","1","0","[]","0","0","3","","","","","","","",""
"pit-trial","64","541336","0.0-2.0-14.1-0.1","battery-v0.2","","""event"",""trial"",""time""
""fullscreenenter"",""1"",""2818""
","
","
","""event"",""trial"",""time""
""fullscreenenter"",""1"",""2818""
","
","","","-1","","","19","16540","6117","&#9826;","elianto","#f73b6a7A","-1","-1","1","0","[]","0","0","3","","","","","","","",""
"pit-trial","65","546200","0.0-2.0-14.1-1.1","battery-v0.2","","""event"",""trial"",""time""
""fullscreenenter"",""1"",""2818""
","
","
","""event"",""trial"",""time""
""fullscreenenter"",""1"",""2818""
","
","","","-1","","","19","16540","6117","&#9826;","elianto","#f73b6a7A","-1","-1","1","0","[]","0","0","3","","","","","","","",""
"pit-trial","66","551064","0.0-2.0-14.1-2.1","battery-v0.2","","""event"",""trial"",""time""
""fullscreenenter"",""1"",""2818""
","
","
","""event"",""trial"",""time""
""fullscreenenter"",""1"",""2818""
","
","","","-1","","","19","16540","6117","&#9826;","elianto","#f73b6a7A","-1","-1","1","0","[]","0","0","3","","","","","","","",""
"pit-trial","67","555928","0.0-2.0-14.1-3.1","battery-v0.2","","""event"",""trial"",""time""
""fullscreenenter"",""1"",""2818""
","
","
","""event"",""trial"",""time""
""fullscreenenter"",""1"",""2818""
","
","","","-1","","","19","16540","6117","&#9826;","elianto","#f73b6a7A","-1","-1","1","-10","[]","0","0","3","","","","","","","",""
"pit-trial","68","560793","0.0-2.0-14.1-4.1","battery-v0.2","","""event"",""trial"",""time""
""fullscreenenter"",""1"",""2818""
","
","
","""event"",""trial"",""time""
""fullscreenenter"",""1"",""2818""
","
","","","-1","","","19","16540","6117","&#9826;","elianto","#f73b6a7A","-1","-1","1","0","[]","0","0","3","","","","","","","",""
"pit-trial","69","565661","0.0-2.0-14.2-0.2","battery-v0.2","","""event"",""trial"",""time""
""fullscreenenter"",""1"",""2818""
","
","
","""event"",""trial"",""time""
""fullscreenenter"",""1"",""2818""
","
","","","-1","","","19","16540","6117","&#9826;","elianto","#f73b6a7A","-1","-1","1","0","[]","0","0","3","","","","","","","",""
"pit-trial","70","570526","0.0-2.0-14.2-1.2","battery-v0.2","","""event"",""trial"",""time""
""fullscreenenter"",""1"",""2818""
","
","
","""event"",""trial"",""time""
""fullscreenenter"",""1"",""2818""
","
","","","-1","","","19","16540","6117","&#9826;","elianto","#f73b6a7A","-1","-1","1","0","[]","0","0","3","","","","","","","",""
"pit-trial","71","575389","0.0-2.0-14.2-2.2","battery-v0.2","","""event"",""trial"",""time""
""fullscreenenter"",""1"",""2818""
","
","
","""event"",""trial"",""time""
""fullscreenenter"",""1"",""2818""
","
","","","-1","","","19","16540","6117","&#9826;","elianto","#f73b6a7A","-1","-1","1","0","[]","0","0","3","","","","","","","",""
"pit-trial","72","580254","0.0-2.0-14.2-3.2","battery-v0.2","","""event"",""trial"",""time""
""fullscreenenter"",""1"",""2818""
","
","
","""event"",""trial"",""time""
""fullscreenenter"",""1"",""2818""
","
","","","-1","","","19","16540","6117","&#9826;","elianto","#f73b6a7A","-1","-1","1","-10","[]","0","0","3","","","","","","","",""
"pit-trial","73","585118","0.0-2.0-14.2-4.2","battery-v0.2","","""event"",""trial"",""time""
""fullscreenenter"",""1"",""2818""
","
","
","""event"",""trial"",""time""
""fullscreenenter"",""1"",""2818""
","
","","","-1","","","19","16540","6117","&#9826;","elianto","#f73b6a7A","-1","-1","1","0","[]","0","0","3","","","","","","","",""
"pit-trial","74","589982","0.0-2.0-14.3-0.3","battery-v0.2","","""event"",""trial"",""time""
""fullscreenenter"",""1"",""2818""
","
","
","""event"",""trial"",""time""
""fullscreenenter"",""1"",""2818""
","
","","","-1","","","19","16540","6117","&#9826;","elianto","#f73b6a7A","-1","-1","1","0","[]","0","0","3","","","","","","","",""
"pit-trial","75","594848","0.0-2.0-14.3-1.3","battery-v0.2","","""event"",""trial"",""time""
""fullscreenenter"",""1"",""2818""
","
","
","""event"",""trial"",""time""
""fullscreenenter"",""1"",""2818""
","
","","","-1","","","19","16540","6117","&#9826;","elianto","#f73b6a7A","-1","-1","1","0","[]","0","0","3","","","","","","","",""
"pit-trial","76","599714","0.0-2.0-14.3-2.3","battery-v0.2","","""event"",""trial"",""time""
""fullscreenenter"",""1"",""2818""
","
","
","""event"",""trial"",""time""
""fullscreenenter"",""1"",""2818""
","
","","","-1","","","19","16540","6117","&#9826;","elianto","#f73b6a7A","-1","-1","1","0","[]","0","0","3","","","","","","","",""
"pit-trial","77","604580","0.0-2.0-14.3-3.3","battery-v0.2","","""event"",""trial"",""time""
""fullscreenenter"",""1"",""2818""
","
","
","""event"",""trial"",""time""
""fullscreenenter"",""1"",""2818""
","
","","","-1","","","19","16540","6117","&#9826;","elianto","#f73b6a7A","-1","-1","1","-10","[]","0","0","3","","","","","","","",""
"pit-trial","78","609448","0.0-2.0-14.3-4.3","battery-v0.2","","""event"",""trial"",""time""
""fullscreenenter"",""1"",""2818""
","
","
","""event"",""trial"",""time""
""fullscreenenter"",""1"",""2818""
","
","","","-1","","","19","16540","6117","&#9826;","elianto","#f73b6a7A","-1","-1","1","0","[]","0","0","3","","","","","","","",""
"call-function","79","609454","0.0-2.0-15.0","battery-v0.2","","""event"",""trial"",""time""
""fullscreenenter"",""1"",""2818""
","
","
","""event"",""trial"",""time""
""fullscreenenter"",""1"",""2818""
","
","","","","","","","","","","","","","","","","","","","","","","","","","","",""
"pit-instructions","80","635700","0.0-2.0-16.0","battery-v0.2","","""event"",""trial"",""time""
""fullscreenenter"",""1"",""2818""
","
","
","""event"",""trial"",""time""
""fullscreenenter"",""1"",""2818""
","
","","[{""page_index"":0,""viewing_time"":7101.300000011921},{""page_index"":1,""viewing_time"":8999.5},{""page_index"":2,""viewing_time"":5166.5999999940395},{""page_index"":3,""viewing_time"":4973.0999999940395}]","26243.10000000894","","","","","","","","","","","","","","","","","","","","","","","",""
"pit-trial","81","639591","0.0-2.0-17.0-0.0","battery-v0.2","","""event"",""trial"",""time""
""fullscreenenter"",""1"",""2818""
","
","
","""event"",""trial"",""time""
""fullscreenenter"",""1"",""2818""
","
","","","1026.4000000059605","","","19","16540","6117","&#9789;","elianto","#f73b6a7A"," "," ","1","0","[1877.2000000029802]","1","0","4","","","","","","","",""
"pit-trial","82","643061","0.0-2.0-17.0-1.0","battery-v0.2","","""event"",""trial"",""time""
""fullscreenenter"",""1"",""2818""
","
","
","""event"",""trial"",""time""
""fullscreenenter"",""1"",""2818""
","
","","","604.5999999940395","","","19","16540","6117","&#9789;","elianto","#f73b6a7A"," "," ","1","0","[1459.4000000059605]","1","0","4","","","","","","","",""
"pit-trial","83","646368","0.0-2.0-17.0-2.0","battery-v0.2","","""event"",""trial"",""time""
""fullscreenenter"",""1"",""2818""
","
","
","""event"",""trial"",""time""
""fullscreenenter"",""1"",""2818""
","
","","","445","","","19","16540","6117","&#9789;","elianto","#f73b6a7A"," "," ","1","0","[1294.7999999970198]","1","0","4","","","","","","","",""
"pit-trial","84","649710","0.0-2.0-17.0-3.0","battery-v0.2","","""event"",""trial"",""time""
""fullscreenenter"",""1"",""2818""
","
","
","""event"",""trial"",""time""
""fullscreenenter"",""1"",""2818""
","
","","","475.59999999403954","","","19","16540","6117","&#9789;","elianto","#f73b6a7A"," "," ","1","-10","[1328.4000000059605]","1","0","4","","","","","","","",""
"pit-trial","85","653004","0.0-2.0-17.0-4.0","battery-v0.2","","""event"",""trial"",""time""
""fullscreenenter"",""1"",""2818""
","
","
","""event"",""trial"",""time""
""fullscreenenter"",""1"",""2818""
","
","","","425.5","","","19","16540","6117","&#9789;","elianto","#f73b6a7A"," "," ","1","0","[1282.7999999970198]","1","0","4","","","","","","","",""
"pit-trial","86","656567","0.0-2.0-17.1-0.1","battery-v0.2","","""event"",""trial"",""time""
""fullscreenenter"",""1"",""2818""
","
","
","""event"",""trial"",""time""
""fullscreenenter"",""1"",""2818""
","
","","","688.8000000119209","","","19","16540","6117","&#9789;","elianto","#f73b6a7A"," "," ","1","0","[1546.2000000029802]","1","0","4","","","","","","","",""
"pit-trial","87","660024","0.0-2.0-17.1-1.1","battery-v0.2","","""event"",""trial"",""time""
""fullscreenenter"",""1"",""2818""
","
","
","""event"",""trial"",""time""
""fullscreenenter"",""1"",""2818""
","
","","","593.2000000029802","","","19","16540","6117","&#9789;","elianto","#f73b6a7A"," "," ","1","0","[1443.1000000089407]","1","0","4","","","","","","","",""
"pit-trial","88","663344","0.0-2.0-17.1-2.1","battery-v0.2","","""event"",""trial"",""time""
""fullscreenenter"",""1"",""2818""
","
","
","""event"",""trial"",""time""
""fullscreenenter"",""1"",""2818""
","
","","","458","","","19","16540","6117","&#9789;","elianto","#f73b6a7A"," "," ","1","0","[1308.4000000059605]","1","0","4","","","","","","","",""
"pit-trial","89","666857","0.0-2.0-17.1-3.1","battery-v0.2","","""event"",""trial"",""time""
""fullscreenenter"",""1"",""2818""
","
","
","""event"",""trial"",""time""
""fullscreenenter"",""1"",""2818""
","
","","","650.2000000029802","","","19","16540","6117","&#9789;","elianto","#f73b6a7A"," "," ","1","-10","[1500.2999999970198]","1","0","4","","","","","","","",""
"pit-trial","90","670425","0.0-2.0-17.1-4.1","battery-v0.2","","""event"",""trial"",""time""
""fullscreenenter"",""1"",""2818""
","
","
","""event"",""trial"",""time""
""fullscreenenter"",""1"",""2818""
","
","","","707.2000000029802","","","19","16540","6117","&#9789;","elianto","#f73b6a7A"," "," ","1","0","[1557.2000000029802]","1","0","4","","","","","","","",""
"pit-trial","91","673879","0.0-2.0-17.2-0.2","battery-v0.2","","""event"",""trial"",""time""
""fullscreenenter"",""1"",""2818""
","
","
","""event"",""trial"",""time""
""fullscreenenter"",""1"",""2818""
","
","","","589.2999999970198","","","19","16540","6117","&#9789;","elianto","#f73b6a7A"," "," ","1","0","[1439.7999999970198]","1","0","4","","","","","","","",""
"pit-trial","92","677451","0.0-2.0-17.2-1.2","battery-v0.2","","""event"",""trial"",""time""
""fullscreenenter"",""1"",""2818""
","
","
","""event"",""trial"",""time""
""fullscreenenter"",""1"",""2818""
","
","","","706.4000000059605","","","19","16540","6117","&#9789;","elianto","#f73b6a7A"," "," ","1","0","[1556.3999999910593]","1","0","4","","","","","","","",""
"pit-trial","93","680812","0.0-2.0-17.2-2.2","battery-v0.2","","""event"",""trial"",""time""
""fullscreenenter"",""1"",""2818""
","
","
","""event"",""trial"",""time""
""fullscreenenter"",""1"",""2818""
","
","","","494.30000001192093","","","19","16540","6117","&#9789;","elianto","#f73b6a7A"," "," ","1","0","[1344.7000000029802]","1","0","4","","","","","","","",""
"pit-trial","94","684121","0.0-2.0-17.2-3.2","battery-v0.2","","""event"",""trial"",""time""
""fullscreenenter"",""1"",""2818""
","
","
","""event"",""trial"",""time""
""fullscreenenter"",""1"",""2818""
","
","","","445.79999999701977","","","19","16540","6117","&#9789;","elianto","#f73b6a7A"," "," ","1","-10","[1296.1000000089407]","1","0","4","","","","","","","",""
"pit-trial","95","687311","0.0-2.0-17.2-4.2","battery-v0.2","","""event"",""trial"",""time""
""fullscreenenter"",""1"",""2818""
","
","
","""event"",""trial"",""time""
""fullscreenenter"",""1"",""2818""
","
","","","325.09999999403954","","","19","16540","6117","&#9789;","elianto","#f73b6a7A"," "," ","1","0","[1174.8999999910593]","1","0","4","","","","","","","",""
"pit-trial","96","690631","0.0-2.0-17.3-0.3","battery-v0.2","","""event"",""trial"",""time""
""fullscreenenter"",""1"",""2818""
","
","
","""event"",""trial"",""time""
""fullscreenenter"",""1"",""2818""
","
","","","452.80000001192093","","","19","16540","6117","&#9789;","elianto","#f73b6a7A"," "," ","1","0","[1303.5]","1","0","4","","","","","","","",""
"pit-trial","97","693933","0.0-2.0-17.3-1.3","battery-v0.2","","""event"",""trial"",""time""
""fullscreenenter"",""1"",""2818""
","
","
","""event"",""trial"",""time""
""fullscreenenter"",""1"",""2818""
","
","","","435.40000000596046","","","19","16540","6117","&#9789;","elianto","#f73b6a7A"," "," ","1","0","[1284.6000000089407]","1","0","4","","","","","","","",""
"pit-trial","98","697230","0.0-2.0-17.3-2.3","battery-v0.2","","""event"",""trial"",""time""
""fullscreenenter"",""1"",""2818""
","
","
","""event"",""trial"",""time""
""fullscreenenter"",""1"",""2818""
","
","","","427.29999999701977","","","19","16540","6117","&#9789;","elianto","#f73b6a7A"," "," ","1","0","[1280]","1","0","4","","","","","","","",""
"pit-trial","99","700597","0.0-2.0-17.3-3.3","battery-v0.2","","""event"",""trial"",""time""
""fullscreenenter"",""1"",""2818""
","
","
","""event"",""trial"",""time""
""fullscreenenter"",""1"",""2818""
","
","","","498.5","","","19","16540","6117","&#9789;","elianto","#f73b6a7A"," "," ","1","-10","[1349.6000000089407]","1","0","4","","","","","","","",""
"pit-trial","100","703649","0.0-2.0-17.3-4.3","battery-v0.2","","""event"",""trial"",""time""
""fullscreenenter"",""1"",""2818""
","
","
","""event"",""trial"",""time""
""fullscreenenter"",""1"",""2818""
","
","","","184.20000000298023","","","19","16540","6117","&#9789;","elianto","#f73b6a7A"," "," ","1","0","[571.5,793.8000000119209,1034.6000000089407]","3","0","4","","","","","","","",""
"call-function","101","703659","0.0-2.0-18.0","battery-v0.2","","""event"",""trial"",""time""
""fullscreenenter"",""1"",""2818""
","
","
","""event"",""trial"",""time""
""fullscreenenter"",""1"",""2818""
","
","","","","","","","","","","","","","","","","","","","","","","","","","","",""
"pit-instructions","102","771742","0.0-2.0-19.0","battery-v0.2","","""event"",""trial"",""time""
""fullscreenenter"",""1"",""2818""
","
","
","""event"",""trial"",""time""
""fullscreenenter"",""1"",""2818""
","
","","[{""page_index"":0,""viewing_time"":6898.29999999702},{""page_index"":1,""viewing_time"":5762.79999999702},{""page_index"":2,""viewing_time"":13702.40000000596},{""page_index"":3,""viewing_time"":6702.0999999940395},{""page_index"":4,""viewing_time"":7756.800000011921},{""page_index"":5,""viewing_time"":8134.79999999702},{""page_index"":6,""viewing_time"":6361.79999999702},{""page_index"":7,""viewing_time"":6789.79999999702},{""page_index"":8,""viewing_time"":5968.5}]","68080.29999999702","","","","","","","","","","","","","","","","","","","","","","","",""
"pit-comprehension","103","777529","0.0-2.0-20.0-0.0","battery-v0.2","","""event"",""trial"",""time""
""fullscreenenter"",""1"",""2818""
","
","
","""event"",""trial"",""time""
""fullscreenenter"",""1"",""2818""
","
","","","5770.100000008941","[""SPACE""]","0","19","16540","6117","","","","","","","","","","","","","","","","","","",""
"pit-instructions","104","780237","0.0-2.0-20.0-1.0","battery-v0.2","","""event"",""trial"",""time""
""fullscreenenter"",""1"",""2818""
","
","
","""event"",""trial"",""time""
""fullscreenenter"",""1"",""2818""
","
","","[{""page_index"":0,""viewing_time"":2609.699999988079}]","2612.7999999970198","","","","","","","","","","","","","","","","","","","","","","","",""
"pit-comprehension","105","784740","0.0-2.0-21.0-0.0","battery-v0.2","","""event"",""trial"",""time""
""fullscreenenter"",""1"",""2818""
","
","
","""event"",""trial"",""time""
""fullscreenenter"",""1"",""2818""
","
","","","4487.4000000059605","[""10""]","0","19","16540","6117","","","","","","","","","","","","","","","","","","",""
"pit-instructions","106","786058","0.0-2.0-21.0-1.0","battery-v0.2","","""event"",""trial"",""time""
""fullscreenenter"",""1"",""2818""
","
","
","""event"",""trial"",""time""
""fullscreenenter"",""1"",""2818""
","
","","[{""page_index"":0,""viewing_time"":1207.7999999970198}]","1210.2999999970198","","","","","","","","","","","","","","","","","","","","","","","",""
"pit-comprehension","107","792751","0.0-2.0-22.0-0.0","battery-v0.2","","""event"",""trial"",""time""
""fullscreenenter"",""1"",""2818""
","
","
","""event"",""trial"",""time""
""fullscreenenter"",""1"",""2818""
","
","","","6678.0999999940395","[""-10""]","1","19","16540","6117","","","","","","","","","","","","","","","","","","",""
"pit-instructions","108","800345","0.0-2.0-22.0-1.0","battery-v0.2","","""event"",""trial"",""time""
""fullscreenenter"",""1"",""2818""
","
","
","""event"",""trial"",""time""
""fullscreenenter"",""1"",""2818""
","
","","[{""page_index"":0,""viewing_time"":7486.5999999940395}]","7489.5","","","","","","","","","","","","","","","","","","","","","","","",""
"pit-instructions","109","802050","0.0-2.0-22.0-2.0-0.0","battery-v0.2","","""event"",""trial"",""time""
""fullscreenenter"",""1"",""2818""
","
","
","""event"",""trial"",""time""
""fullscreenenter"",""1"",""2818""
","
","","[{""page_index"":0,""viewing_time"":1693.5999999940395}]","1695.0999999940395","","","","","","","","","","","","","","","","","","","","","","","",""
"pit-comprehension","110","808620","0.0-2.0-22.1-0.1","battery-v0.2","","""event"",""trial"",""time""
""fullscreenenter"",""1"",""2818""
","
","
","""event"",""trial"",""time""
""fullscreenenter"",""1"",""2818""
","
","","","6553.70000000298","[""0""]","0","19","16540","6117","","","","","","","","","","","","","","","","","","",""
"pit-instructions","111","810384","0.0-2.0-22.1-1.1","battery-v0.2","","""event"",""trial"",""time""
""fullscreenenter"",""1"",""2818""
","
","
","""event"",""trial"",""time""
""fullscreenenter"",""1"",""2818""
","
","","[{""page_index"":0,""viewing_time"":1652.7999999970198}]","1654.5999999940395","","","","","","","","","","","","","","","","","","","","","","","",""
"pit-comprehension","112","821476","0.0-2.0-23.0-0.0","battery-v0.2","","""event"",""trial"",""time""
""fullscreenenter"",""1"",""2818""
","
","
","""event"",""trial"",""time""
""fullscreenenter"",""1"",""2818""
","
","","","11076.60000000894","[""True""]","0","19","16540","6117","","","","","","","","","","","","","","","","","","",""
"pit-instructions","113","822942","0.0-2.0-23.0-1.0","battery-v0.2","","""event"",""trial"",""time""
""fullscreenenter"",""1"",""2818""
","
","
","""event"",""trial"",""time""
""fullscreenenter"",""1"",""2818""
","
","","[{""page_index"":0,""viewing_time"":1347.7999999970198}]","1349.7999999970198","","","","","","","","","","","","","","","","","","","","","","","",""
"pit-comprehension","114","830518","0.0-2.0-24.0-0.0","battery-v0.2","","""event"",""trial"",""time""
""fullscreenenter"",""1"",""2818""
","
","
","""event"",""trial"",""time""
""fullscreenenter"",""1"",""2818""
","
","","","7560.70000000298","[""True""]","0","19","16540","6117","","","","","","","","","","","","","","","","","","",""
"pit-instructions","115","831882","0.0-2.0-24.0-1.0","battery-v0.2","","""event"",""trial"",""time""
""fullscreenenter"",""1"",""2818""
","
","
","""event"",""trial"",""time""
""fullscreenenter"",""1"",""2818""
","
","","[{""page_index"":0,""viewing_time"":1238.0999999940395}]","1240.199999988079","","","","","","","","","","","","","","","","","","","","","","","",""
"pit-comprehension","116","839178","0.0-2.0-25.0-0.0","battery-v0.2","","""event"",""trial"",""time""
""fullscreenenter"",""1"",""2818""
","
","
","""event"",""trial"",""time""
""fullscreenenter"",""1"",""2818""
","
","","","7279.29999999702","[""True""]","0","19","16540","6117","","","","","","","","","","","","","","","","","","",""
"pit-instructions","117","840502","0.0-2.0-25.0-1.0","battery-v0.2","","""event"",""trial"",""time""
""fullscreenenter"",""1"",""2818""
","
","
","""event"",""trial"",""time""
""fullscreenenter"",""1"",""2818""
","
","","[{""page_index"":0,""viewing_time"":1219.5}]","1222.6000000089407","","","","","","","","","","","","","","","","","","","","","","","",""
"pit-comprehension","118","845136","0.0-2.0-26.0-0.0","battery-v0.2","","""event"",""trial"",""time""
""fullscreenenter"",""1"",""2818""
","
","
","""event"",""trial"",""time""
""fullscreenenter"",""1"",""2818""
","
","","","4620.4000000059605","[""False""]","0","19","16540","6117","","","","","","","","","","","","","","","","","","",""
"pit-instructions","119","846659","0.0-2.0-26.0-1.0","battery-v0.2","","""event"",""trial"",""time""
""fullscreenenter"",""1"",""2818""
","
","
","""event"",""trial"",""time""
""fullscreenenter"",""1"",""2818""
","
","","[{""page_index"":0,""viewing_time"":1406}]","1410","","","","","","","","","","","","","","","","","","","","","","","",""
"pit-instructions","120","863923","0.0-3.0","battery-v0.2","","""event"",""trial"",""time""
""fullscreenenter"",""1"",""2818""
","
","
","""event"",""trial"",""time""
""fullscreenenter"",""1"",""2818""
","
","","[{""page_index"":0,""viewing_time"":4201.20000000298},{""page_index"":1,""viewing_time"":5167.9000000059605},{""page_index"":2,""viewing_time"":7885.199999988079}]","17257.40000000596","","","","","","","","","","","","","","","","","","","","","","","",""
"pit-trial","121","867619","0.0-4.0","battery-v0.2","","""event"",""trial"",""time""
""fullscreenenter"",""1"",""2818""
","
","
","""event"",""trial"",""time""
""fullscreenenter"",""1"",""2818""
","
","","","826.2999999970198","","","19","16540","6117","&#9730;","elianto","#3366ff99"," "," ","1","+10","[1675.0999999940395]","1","1","","","16540","1","1","1","win","go","0"
"pit-trial","122","871190","0.0-5.0","battery-v0.2","","""event"",""trial"",""time""
""fullscreenenter"",""1"",""2818""
","
","
","""event"",""trial"",""time""
""fullscreenenter"",""1"",""2818""
","
","","","708.1000000089407","","","19","16540","6117","&#9733;","elianto","#3366ff99","-1"," ","0","0","[1558.1000000089407]","1","1","","","16540","2","2","2","win","no-go","0"
"pit-trial","123","875438","0.0-6.0","battery-v0.2","","""event"",""trial"",""time""
""fullscreenenter"",""1"",""2818""
","
","
","""event"",""trial"",""time""
""fullscreenenter"",""1"",""2818""
","
","","","1373.7999999970198","","","19","16540","6117","&#9728;","elianto","#f73b6a7A","-1"," ","0","-10","[2230.7000000029802]","1","1","","","16540","3","0","4","lose","no-go","0"
"pit-trial","124","879118","0.0-7.0","battery-v0.2","","""event"",""trial"",""time""
""fullscreenenter"",""1"",""2818""
","
","
","""event"",""trial"",""time""
""fullscreenenter"",""1"",""2818""
","
","","","809.5","","","19","16540","6117","&#9752;","elianto","#f73b6a7A"," "," ","1","0","[1661.800000011921]","1","1","","","16540","4","3","3","lose","go","0"
"pit-trial","125","882936","0.0-8.0","battery-v0.2","","""event"",""trial"",""time""
""fullscreenenter"",""1"",""2818""
","
","
","""event"",""trial"",""time""
""fullscreenenter"",""1"",""2818""
","
","","","957.2000000029802","","","19","16540","6117","&#9728;","elianto","#f73b6a7A","-1"," ","0","0","[1807.2999999970198]","1","1","","","16540","5","0","4","lose","no-go","1"
"pit-trial","126","886606","0.0-9.0","battery-v0.2","","""event"",""trial"",""time""
""fullscreenenter"",""1"",""2818""
","
","
","""event"",""trial"",""time""
""fullscreenenter"",""1"",""2818""
","
","","","806.2000000029802","","","19","16540","6117","&#9752;","elianto","#f73b6a7A"," "," ","1","-10","[1655.800000011921]","1","1","","","16540","6","3","3","lose","go","1"
"pit-trial","127","890094","0.0-10.0","battery-v0.2","","""event"",""trial"",""time""
""fullscreenenter"",""1"",""2818""
","
","
","""event"",""trial"",""time""
""fullscreenenter"",""1"",""2818""
","
","","","623.9000000059605","","","19","16540","6117","&#9730;","elianto","#3366ff99"," "," ","1","+10","[1473.9000000059605]","1","1","","","16540","7","1","1","win","go","0"
"pit-trial","128","893732","0.0-11.0","battery-v0.2","","""event"",""trial"",""time""
""fullscreenenter"",""1"",""2818""
","
","
","""event"",""trial"",""time""
""fullscreenenter"",""1"",""2818""
","
","","","778.2000000029802","","","19","16540","6117","&#9733;","elianto","#3366ff99","-1"," ","0","0","[1628.5]","1","1","","","16540","8","2","2","win","no-go","0"
"pit-trial","129","897299","0.0-12.0","battery-v0.2","","""event"",""trial"",""time""
""fullscreenenter"",""1"",""2818""
","
","
","""event"",""trial"",""time""
""fullscreenenter"",""1"",""2818""
","
","","","706.6999999880791","","","19","16540","6117","&#9730;","elianto","#3366ff99"," "," ","1","+10","[1556.7000000029802]","1","1","","","16540","9","1","1","win","go","0"
"pit-trial","130","900952","0.0-13.0","battery-v0.2","","""event"",""trial"",""time""
""fullscreenenter"",""1"",""2818""
","
","
","""event"",""trial"",""time""
""fullscreenenter"",""1"",""2818""
","
","","","790.5","","","19","16540","6117","&#9728;","elianto","#f73b6a7A","-1"," ","0","-10","[1640.5999999940395]","1","1","","","16540","10","0","4","lose","no-go","0"
"pit-trial","131","904538","0.0-14.0","battery-v0.2","","""event"",""trial"",""time""
""fullscreenenter"",""1"",""2818""
","
","
","""event"",""trial"",""time""
""fullscreenenter"",""1"",""2818""
","
","","","720.5999999940395","","","19","16540","6117","&#9733;","elianto","#3366ff99","-1"," ","0","0","[1570.199999988079]","1","1","","","16540","11","2","2","win","no-go","0"
"pit-trial","132","908693","0.0-15.0","battery-v0.2","","""event"",""trial"",""time""
""fullscreenenter"",""1"",""2818""
","
","
","""event"",""trial"",""time""
""fullscreenenter"",""1"",""2818""
","
","","","1292.7000000029802","","","19","16540","6117","&#9752;","elianto","#f73b6a7A"," "," ","1","0","[2142.6000000089407]","1","1","","","16540","12","3","3","lose","go","0"
"pit-trial","133","912276","0.0-16.0","battery-v0.2","","""event"",""trial"",""time""
""fullscreenenter"",""1"",""2818""
","
","
","""event"",""trial"",""time""
""fullscreenenter"",""1"",""2818""
","
","","","714.4000000059605","","","19","16540","6117","&#9730;","elianto","#3366ff99"," "," ","1","+10","[1566.5]","1","1","","","16540","13","1","1","win","go","0"
"pit-trial","134","916201","0.0-17.0","battery-v0.2","","""event"",""trial"",""time""
""fullscreenenter"",""1"",""2818""
","
","
","""event"",""trial"",""time""
""fullscreenenter"",""1"",""2818""
","
","","","1058.2999999970198","","","19","16540","6117","&#9752;","elianto","#f73b6a7A"," "," ","1","0","[1908.4000000059605]","1","1","","","16540","14","3","3","lose","go","0"
"pit-trial","135","920185","0.0-18.0","battery-v0.2","","""event"",""trial"",""time""
""fullscreenenter"",""1"",""2818""
","
","
","""event"",""trial"",""time""
""fullscreenenter"",""1"",""2818""
","
","","","1117.800000011921","","","19","16540","6117","&#9733;","elianto","#3366ff99","-1"," ","0","0","[1969.3999999910593]","1","1","","","16540","15","2","2","win","no-go","0"
"pit-trial","136","925051","0.0-19.0","battery-v0.2","","""event"",""trial"",""time""
""fullscreenenter"",""1"",""2818""
","
","
","""event"",""trial"",""time""
""fullscreenenter"",""1"",""2818""
","
","","","-1","","","19","16540","6117","&#9728;","elianto","#f73b6a7A","-1","-1","1","0","[]","0","1","","","16540","16","0","4","lose","no-go","0"
"pit-trial","137","928667","0.0-20.0","battery-v0.2","","""event"",""trial"",""time""
""fullscreenenter"",""1"",""2818""
","
","
","""event"",""trial"",""time""
""fullscreenenter"",""1"",""2818""
","
","","","751.6000000089407","","","19","16540","6117","&#9730;","elianto","#3366ff99"," "," ","1","+10","[1601.7999999970198]","1","1","","","16540","17","1","1","win","go","0"
"pit-trial","138","932621","0.0-21.0","battery-v0.2","","""event"",""trial"",""time""
""fullscreenenter"",""1"",""2818""
","
","
","""event"",""trial"",""time""
""fullscreenenter"",""1"",""2818""
","
","","","1081.9000000059605","","","19","16540","6117","&#9752;","elianto","#f73b6a7A"," "," ","1","0","[1937.4000000059605]","1","1","","","16540","18","3","3","lose","go","0"
"pit-trial","139","937486","0.0-22.0","battery-v0.2","","""event"",""trial"",""time""
""fullscreenenter"",""1"",""2818""
","
","
","""event"",""trial"",""time""
""fullscreenenter"",""1"",""2818""
","
","","","-1","","","19","16540","6117","&#9733;","elianto","#3366ff99","-1","-1","1","0","[]","0","1","","","16540","19","2","2","win","no-go","1"
"pit-trial","140","942353","0.0-23.0","battery-v0.2","","""event"",""trial"",""time""
""fullscreenenter"",""1"",""2818""
","
","
","""event"",""trial"",""time""
""fullscreenenter"",""1"",""2818""
","
","","","-1","","","19","16540","6117","&#9728;","elianto","#f73b6a7A","-1","-1","1","0","[]","0","1","","","16540","20","0","4","lose","no-go","0"
"pit-instructions","141","955531","0.0-24.0","battery-v0.2","","""event"",""trial"",""time""
""fullscreenenter"",""1"",""2818""
","
","
","""event"",""trial"",""time""
""fullscreenenter"",""1"",""2818""
","
","","[{""page_index"":0,""viewing_time"":6153.600000008941},{""page_index"":1,""viewing_time"":7011.899999991059}]","13170","","","","","","","","","","","","","","","","","","","","","","","",""
"pit-trial","142","959273","0.0-25.0","battery-v0.2","","""event"",""trial"",""time""
""fullscreenenter"",""1"",""2818""
","
","
","""event"",""trial"",""time""
""fullscreenenter"",""1"",""2818""
","
","","","872.7000000029802","","","19","16540","6117","g","elianto","#f73b6a7A","-1"," ","0","0","[1722.7000000029802]","1","2","","","16540","21","3","4","lose","no-go","1"
"pit-trial","143","962808","0.0-26.0","battery-v0.2","","""event"",""trial"",""time""
""fullscreenenter"",""1"",""2818""
","
","
","""event"",""trial"",""time""
""fullscreenenter"",""1"",""2818""
","
","","","669","","","19","16540","6117","u","elianto","#f73b6a7A"," "," ","1","0","[1519.5]","1","2","","","16540","22","0","3","lose","go","0"
"pit-trial","144","966351","0.0-27.0","battery-v0.2","","""event"",""trial"",""time""
""fullscreenenter"",""1"",""2818""
","
","
","""event"",""trial"",""time""
""fullscreenenter"",""1"",""2818""
","
","","","675.0999999940395","","","19","16540","6117","a","elianto","#f73b6a7A"," "," ","1","-10","[1524.9000000059605]","1","2","","","16540","23","2","3","lose","go","1"
"pit-trial","145","969963","0.0-28.0","battery-v0.2","","""event"",""trial"",""time""
""fullscreenenter"",""1"",""2818""
","
","
","""event"",""trial"",""time""
""fullscreenenter"",""1"",""2818""
","
","","","745.3999999910593","","","19","16540","6117","l","elianto","#3366ff99","-1"," ","0","0","[1597.7999999970198]","1","2","","","16540","24","1","2","win","no-go","0"
"pit-trial","146","973910","0.0-29.0","battery-v0.2","","""event"",""trial"",""time""
""fullscreenenter"",""1"",""2818""
","
","
","""event"",""trial"",""time""
""fullscreenenter"",""1"",""2818""
","
","","","1078.8999999910593","","","19","16540","6117","g","elianto","#f73b6a7A","-1"," ","0","-10","[1929.7000000029802]","1","2","","","16540","25","3","4","lose","no-go","0"
"pit-trial","147","977440","0.0-30.0","battery-v0.2","","""event"",""trial"",""time""
""fullscreenenter"",""1"",""2818""
","
","
","""event"",""trial"",""time""
""fullscreenenter"",""1"",""2818""
","
","","","663.5","","","19","16540","6117","u","elianto","#f73b6a7A"," "," ","1","0","[1515.2999999970198]","1","2","","","16540","26","0","3","lose","go","0"
"pit-trial","148","981459","0.0-31.0","battery-v0.2","","""event"",""trial"",""time""
""fullscreenenter"",""1"",""2818""
","
","
","""event"",""trial"",""time""
""fullscreenenter"",""1"",""2818""
","
","","","1151.5999999940395","","","19","16540","6117","l","elianto","#3366ff99","-1"," ","0","0","[2006.0999999940395]","1","2","","","16540","27","1","2","win","no-go","0"
"pit-trial","149","986323","0.0-32.0","battery-v0.2","","""event"",""trial"",""time""
""fullscreenenter"",""1"",""2818""
","
","
","""event"",""trial"",""time""
""fullscreenenter"",""1"",""2818""
","
","","","-1","","","19","16540","6117","a","elianto","#f73b6a7A"," ","-1","0","-10","[]","0","2","","","16540","28","2","3","lose","go","0"
"pit-trial","150","991187","0.0-33.0","battery-v0.2","","""event"",""trial"",""time""
""fullscreenenter"",""1"",""2818""
","
","
","""event"",""trial"",""time""
""fullscreenenter"",""1"",""2818""
","
","","","-1","","","19","16540","6117","a","elianto","#f73b6a7A"," ","-1","0","0","[]","0","2","","","16540","29","2","3","lose","go","1"
"pit-trial","151","996050","0.0-34.0","battery-v0.2","","""event"",""trial"",""time""
""fullscreenenter"",""1"",""2818""
","
","
","""event"",""trial"",""time""
""fullscreenenter"",""1"",""2818""
","
","","","-1","","","19","16540","6117","l","elianto","#3366ff99","-1","-1","1","+10","[]","0","2","","","16540","30","1","2","win","no-go","0"
"pit-trial","152","1000104","0.0-35.0","battery-v0.2","","""event"",""trial"",""time""
""fullscreenenter"",""1"",""2818""
","
","
","""event"",""trial"",""time""
""fullscreenenter"",""1"",""2818""
","
","","","1189","","","19","16540","6117","g","elianto","#f73b6a7A","-1"," ","0","-10","[2039]","1","2","","","16540","31","3","4","lose","no-go","0"
"pit-trial","153","1004010","0.0-36.0","battery-v0.2","","""event"",""trial"",""time""
""fullscreenenter"",""1"",""2818""
","
","
","""event"",""trial"",""time""
""fullscreenenter"",""1"",""2818""
","
","","","1039.1000000089407","","","19","16540","6117","u","elianto","#f73b6a7A"," "," ","1","0","[1889.5]","1","2","","","16540","32","0","3","lose","go","0"
"pit-trial","154","1008876","0.0-37.0","battery-v0.2","","""event"",""trial"",""time""
""fullscreenenter"",""1"",""2818""
","
","
","""event"",""trial"",""time""
""fullscreenenter"",""1"",""2818""
","
","","","-1","","","19","16540","6117","l","elianto","#3366ff99","-1","-1","1","0","[]","0","2","","","16540","33","1","2","win","no-go","1"
"pit-trial","155","1012967","0.0-38.0","battery-v0.2","","""event"",""trial"",""time""
""fullscreenenter"",""1"",""2818""
","
","
","""event"",""trial"",""time""
""fullscreenenter"",""1"",""2818""
","
","","","1224.5","","","19","16540","6117","u","elianto","#f73b6a7A"," "," ","1","0","[2076]","1","2","","","16540","34","0","3","lose","go","0"
"pit-trial","156","1017833","0.0-39.0","battery-v0.2","","""event"",""trial"",""time""
""fullscreenenter"",""1"",""2818""
","
","
","""event"",""trial"",""time""
""fullscreenenter"",""1"",""2818""
","
","","","-1","","","19","16540","6117","g","elianto","#f73b6a7A","-1","-1","1","0","[]","0","2","","","16540","35","3","4","lose","no-go","0"
"pit-trial","157","1022698","0.0-40.0","battery-v0.2","","""event"",""trial"",""time""
""fullscreenenter"",""1"",""2818""
","
","
","""event"",""trial"",""time""
""fullscreenenter"",""1"",""2818""
","
","","","-1","","","19","16540","6117","a","elianto","#f73b6a7A"," ","-1","0","-10","[]","0","2","","","16540","36","2","3","lose","go","0"
"pit-trial","158","1027565","0.0-41.0","battery-v0.2","","""event"",""trial"",""time""
""fullscreenenter"",""1"",""2818""
","
","
","""event"",""trial"",""time""
""fullscreenenter"",""1"",""2818""
","
","","","-1","","","19","16540","6117","u","elianto","#f73b6a7A"," ","-1","0","0","[]","0","2","","","16540","37","0","3","lose","go","1"
"pit-trial","159","1032430","0.0-42.0","battery-v0.2","","""event"",""trial"",""time""
""fullscreenenter"",""1"",""2818""
","
","
","""event"",""trial"",""time""
""fullscreenenter"",""1"",""2818""
","
","","","-1","","","19","16540","6117","l","elianto","#3366ff99","-1","-1","1","+10","[]","0","2","","","16540","38","1","2","win","no-go","0"
"pit-trial","160","1036610","0.0-43.0","battery-v0.2","","""event"",""trial"",""time""
""fullscreenenter"",""1"",""2818""
","
","
","""event"",""trial"",""time""
""fullscreenenter"",""1"",""2818""
","
","","","1312.0999999940395","","","19","16540","6117","g","elianto","#f73b6a7A","-1"," ","0","-10","[2162.0999999940395]","1","2","","","16540","39","3","4","lose","no-go","0"
"pit-trial","161","1041477","0.0-44.0","battery-v0.2","","""event"",""trial"",""time""
""fullscreenenter"",""1"",""2818""
","
","
","""event"",""trial"",""time""
""fullscreenenter"",""1"",""2818""
","
","","","-1","","","19","16540","6117","a","elianto","#f73b6a7A"," ","-1","0","-10","[]","0","2","","","16540","40","2","3","lose","go","0"
"pit-trial","162","1046345","0.0-45.0","battery-v0.2","","""event"",""trial"",""time""
""fullscreenenter"",""1"",""2818""
","
","
","""event"",""trial"",""time""
""fullscreenenter"",""1"",""2818""
","
","","","-1","","","19","16540","6117","a","elianto","#f73b6a7A"," ","-1","0","-10","[]","0","2","","","16540","41","2","3","lose","go","0"
"pit-trial","163","1050317","0.0-46.0","battery-v0.2","","""event"",""trial"",""time""
""fullscreenenter"",""1"",""2818""
","
","
","""event"",""trial"",""time""
""fullscreenenter"",""1"",""2818""
","
","","","1108.2999999970198","","","19","16540","6117","u","elianto","#f73b6a7A"," "," ","1","0","[1958.2999999970198]","1","2","","","16540","42","0","3","lose","go","0"
"pit-trial","164","1055108","0.0-47.0","battery-v0.2","","""event"",""trial"",""time""
""fullscreenenter"",""1"",""2818""
","
","
","""event"",""trial"",""time""
""fullscreenenter"",""1"",""2818""
","
","","","1919.300000011921","","","19","16540","6117","l","elianto","#3366ff99","-1"," ","0","0","[2773.2999999970198]","1","2","","","16540","43","1","2","win","no-go","0"
"pit-trial","165","1059978","0.0-48.0","battery-v0.2","","""event"",""trial"",""time""
""fullscreenenter"",""1"",""2818""
","
","
","""event"",""trial"",""time""
""fullscreenenter"",""1"",""2818""
","
","","","-1","","","19","16540","6117","g","elianto","#f73b6a7A","-1","-1","1","0","[]","0","2","","","16540","44","3","4","lose","no-go","0"
"pit-trial","166","1064842","0.0-49.0","battery-v0.2","","""event"",""trial"",""time""
""fullscreenenter"",""1"",""2818""
","
","
","""event"",""trial"",""time""
""fullscreenenter"",""1"",""2818""
","
","","","-1","","","19","16540","6117","g","elianto","#f73b6a7A","-1","-1","1","0","[]","0","2","","","16540","45","3","4","lose","no-go","0"
"pit-trial","167","1068464","0.0-50.0","battery-v0.2","","""event"",""trial"",""time""
""fullscreenenter"",""1"",""2818""
","
","
","""event"",""trial"",""time""
""fullscreenenter"",""1"",""2818""
","
","","","756.9000000059605","","","19","16540","6117","u","elianto","#f73b6a7A"," "," ","1","0","[1606.9000000059605]","1","2","","","16540","46","0","3","lose","go","0"
"pit-trial","168","1073330","0.0-51.0","battery-v0.2","","""event"",""trial"",""time""
""fullscreenenter"",""1"",""2818""
","
","
","""event"",""trial"",""time""
""fullscreenenter"",""1"",""2818""
","
","","","-1","","","19","16540","6117","a","elianto","#f73b6a7A"," ","-1","0","-10","[]","0","2","","","16540","47","2","3","lose","go","0"
"pit-trial","169","1078195","0.0-52.0","battery-v0.2","","""event"",""trial"",""time""
""fullscreenenter"",""1"",""2818""
","
","
","""event"",""trial"",""time""
""fullscreenenter"",""1"",""2818""
","
","","","-1","","","19","16540","6117","l","elianto","#3366ff99","-1","-1","1","+10","[]","0","2","","","16540","48","1","2","win","no-go","0"
"pit-trial","170","1083057","0.0-53.0","battery-v0.2","","""event"",""trial"",""time""
""fullscreenenter"",""1"",""2818""
","
","
","""event"",""trial"",""time""
""fullscreenenter"",""1"",""2818""
","
","","","-1","","","19","16540","6117","l","elianto","#3366ff99","-1","-1","1","+10","[]","0","2","","","16540","49","1","2","win","no-go","0"
"pit-trial","171","1087923","0.0-54.0","battery-v0.2","","""event"",""trial"",""time""
""fullscreenenter"",""1"",""2818""
","
","
","""event"",""trial"",""time""
""fullscreenenter"",""1"",""2818""
","
","","","-1","","","19","16540","6117","g","elianto","#f73b6a7A","-1","-1","1","-10","[]","0","2","","","16540","50","3","4","lose","no-go","1"
"pit-trial","172","1092788","0.0-55.0","battery-v0.2","","""event"",""trial"",""time""
""fullscreenenter"",""1"",""2818""
","
","
","""event"",""trial"",""time""
""fullscreenenter"",""1"",""2818""
","
","","","-1","","","19","16540","6117","a","elianto","#f73b6a7A"," ","-1","0","0","[]","0","2","","","16540","51","2","3","lose","go","1"
"pit-trial","173","1096407","0.0-56.0","battery-v0.2","","""event"",""trial"",""time""
""fullscreenenter"",""1"",""2818""
","
","
","""event"",""trial"",""time""
""fullscreenenter"",""1"",""2818""
","
","","","753.6000000089407","","","19","16540","6117","u","elianto","#f73b6a7A"," "," ","1","0","[1603.800000011921]","1","2","","","16540","52","0","3","lose","go","0"
"pit-trial","174","1101272","0.0-57.0","battery-v0.2","","""event"",""trial"",""time""
""fullscreenenter"",""1"",""2818""
","
","
","""event"",""trial"",""time""
""fullscreenenter"",""1"",""2818""
","
","","","-1","","","19","16540","6117","l","elianto","#3366ff99","-1","-1","1","+10","[]","0","2","","","16540","53","1","2","win","no-go","0"
"pit-trial","175","1106140","0.0-58.0","battery-v0.2","","""event"",""trial"",""time""
""fullscreenenter"",""1"",""2818""
","
","
","""event"",""trial"",""time""
""fullscreenenter"",""1"",""2818""
","
","","","-1","","","19","16540","6117","a","elianto","#f73b6a7A"," ","-1","0","-10","[]","0","2","","","16540","54","2","3","lose","go","0"
"pit-trial","176","1109706","0.0-59.0","battery-v0.2","","""event"",""trial"",""time""
""fullscreenenter"",""1"",""2818""
","
","
","""event"",""trial"",""time""
""fullscreenenter"",""1"",""2818""
","
","","","700.6999999880791","","","19","16540","6117","u","elianto","#f73b6a7A"," "," ","1","0","[1550.7000000029802]","1","2","","","16540","55","0","3","lose","go","0"
"pit-trial","177","1114571","0.0-60.0","battery-v0.2","","""event"",""trial"",""time""
""fullscreenenter"",""1"",""2818""
","
","
","""event"",""trial"",""time""
""fullscreenenter"",""1"",""2818""
","
","","","-1","","","19","16540","6117","g","elianto","#f73b6a7A","-1","-1","1","0","[]","0","2","","","16540","56","3","4","lose","no-go","0"
"pit-trial","178","1119437","0.0-61.0","battery-v0.2","","""event"",""trial"",""time""
""fullscreenenter"",""1"",""2818""
","
","
","""event"",""trial"",""time""
""fullscreenenter"",""1"",""2818""
","
","","","-1","","","19","16540","6117","a","elianto","#f73b6a7A"," ","-1","0","-10","[]","0","2","","","16540","57","2","3","lose","go","0"
"pit-trial","179","1123626","0.0-62.0","battery-v0.2","","""event"",""trial"",""time""
""fullscreenenter"",""1"",""2818""
","
","
","""event"",""trial"",""time""
""fullscreenenter"",""1"",""2818""
","
","","","1325.5","","","19","16540","6117","p","elianto","#3366ff99"," "," ","1","0","[2176.4000000059605]","1","2","","","16540","58","4","1","win","go","1"
"pit-trial","180","1127265","0.0-63.0","battery-v0.2","","""event"",""trial"",""time""
""fullscreenenter"",""1"",""2818""
","
","
","""event"",""trial"",""time""
""fullscreenenter"",""1"",""2818""
","
","","","774.5","","","19","16540","6117","u","elianto","#f73b6a7A"," "," ","1","0","[1624.5999999940395]","1","2","","","16540","59","0","3","lose","go","0"
"pit-trial","181","1132131","0.0-64.0","battery-v0.2","","""event"",""trial"",""time""
""fullscreenenter"",""1"",""2818""
","
","
","""event"",""trial"",""time""
""fullscreenenter"",""1"",""2818""
","
","","","-1","","","19","16540","6117","g","elianto","#f73b6a7A","-1","-1","1","0","[]","0","2","","","16540","60","3","4","lose","no-go","0"
"pit-trial","182","1136997","0.0-65.0","battery-v0.2","","""event"",""trial"",""time""
""fullscreenenter"",""1"",""2818""
","
","
","""event"",""trial"",""time""
""fullscreenenter"",""1"",""2818""
","
","","","-1","","","19","16540","6117","p","elianto","#3366ff99"," ","-1","0","0","[]","0","2","","","16540","61","4","1","win","go","0"
"pit-trial","183","1141866","0.0-66.0","battery-v0.2","","""event"",""trial"",""time""
""fullscreenenter"",""1"",""2818""
","
","
","""event"",""trial"",""time""
""fullscreenenter"",""1"",""2818""
","
","","","-1","","","19","16540","6117","l","elianto","#3366ff99","-1","-1","1","+10","[]","0","2","","","16540","62","1","2","win","no-go","0"
"pit-trial","184","1145905","0.0-67.0","battery-v0.2","","""event"",""trial"",""time""
""fullscreenenter"",""1"",""2818""
","
","
","""event"",""trial"",""time""
""fullscreenenter"",""1"",""2818""
","
","","","1175.9000000059605","","","19","16540","6117","a","elianto","#f73b6a7A"," "," ","1","-10","[2026.3999999910593]","1","2","","","16540","63","2","3","lose","go","1"
"pit-trial","185","1150773","0.0-68.0","battery-v0.2","","""event"",""trial"",""time""
""fullscreenenter"",""1"",""2818""
","
","
","""event"",""trial"",""time""
""fullscreenenter"",""1"",""2818""
","
","","","-1","","","19","16540","6117","g","elianto","#f73b6a7A","-1","-1","1","0","[]","0","2","","","16540","64","3","4","lose","no-go","0"
"pit-trial","186","1155074","0.0-69.0","battery-v0.2","","""event"",""trial"",""time""
""fullscreenenter"",""1"",""2818""
","
","
","""event"",""trial"",""time""
""fullscreenenter"",""1"",""2818""
","
","","","1435.8999999910593","","","19","16540","6117","p","elianto","#3366ff99"," "," ","1","+10","[2286.4000000059605]","1","2","","","16540","65","4","1","win","go","0"
"pit-trial","187","1159940","0.0-70.0","battery-v0.2","","""event"",""trial"",""time""
""fullscreenenter"",""1"",""2818""
","
","
","""event"",""trial"",""time""
""fullscreenenter"",""1"",""2818""
","
","","","-1","","","19","16540","6117","l","elianto","#3366ff99","-1","-1","1","+10","[]","0","2","","","16540","66","1","2","win","no-go","0"
"pit-trial","188","1163736","0.0-71.0","battery-v0.2","","""event"",""trial"",""time""
""fullscreenenter"",""1"",""2818""
","
","
","""event"",""trial"",""time""
""fullscreenenter"",""1"",""2818""
","
","","","922.7999999970198","","","19","16540","6117","s","elianto","#3366ff99","-1"," ","0","0","[1780.199999988079]","1","2","","","16540","67","5","2","win","no-go","0"
"pit-trial","189","1168603","0.0-72.0","battery-v0.2","","""event"",""trial"",""time""
""fullscreenenter"",""1"",""2818""
","
","
","""event"",""trial"",""time""
""fullscreenenter"",""1"",""2818""
","
","","","-1","","","19","16540","6117","g","elianto","#f73b6a7A","-1","-1","1","0","[]","0","2","","","16540","68","3","4","lose","no-go","0"
"pit-trial","190","1173469","0.0-73.0","battery-v0.2","","""event"",""trial"",""time""
""fullscreenenter"",""1"",""2818""
","
","
","""event"",""trial"",""time""
""fullscreenenter"",""1"",""2818""
","
","","","-1","","","19","16540","6117","a","elianto","#f73b6a7A"," ","-1","0","-10","[]","0","2","","","16540","69","2","3","lose","go","0"
"pit-trial","191","1178335","0.0-74.0","battery-v0.2","","""event"",""trial"",""time""
""fullscreenenter"",""1"",""2818""
","
","
","""event"",""trial"",""time""
""fullscreenenter"",""1"",""2818""
","
","","","-1","","","19","16540","6117","l","elianto","#3366ff99","-1","-1","1","+10","[]","0","2","","","16540","70","1","2","win","no-go","0"
"pit-trial","192","1181969","0.0-75.0","battery-v0.2","","""event"",""trial"",""time""
""fullscreenenter"",""1"",""2818""
","
","
","""event"",""trial"",""time""
""fullscreenenter"",""1"",""2818""
","
","","","768.2000000029802","","","19","16540","6117","p","elianto","#3366ff99"," "," ","1","+10","[1618.2999999970198]","1","2","","","16540","71","4","1","win","go","0"
"pit-trial","193","1185631","0.0-76.0","battery-v0.2","","""event"",""trial"",""time""
""fullscreenenter"",""1"",""2818""
","
","
","""event"",""trial"",""time""
""fullscreenenter"",""1"",""2818""
","
","","","796.5","","","19","16540","6117","s","elianto","#3366ff99","-1"," ","0","+10","[1646.6000000089407]","1","2","","","16540","72","5","2","win","no-go","1"
"pit-trial","194","1190494","0.0-77.0","battery-v0.2","","""event"",""trial"",""time""
""fullscreenenter"",""1"",""2818""
","
","
","""event"",""trial"",""time""
""fullscreenenter"",""1"",""2818""
","
","","","-1","","","19","16540","6117","g","elianto","#f73b6a7A","-1","-1","1","0","[]","0","2","","","16540","73","3","4","lose","no-go","0"
"pit-trial","195","1194465","0.0-78.0","battery-v0.2","","""event"",""trial"",""time""
""fullscreenenter"",""1"",""2818""
","
","
","""event"",""trial"",""time""
""fullscreenenter"",""1"",""2818""
","
","","","1107.3999999910593","","","19","16540","6117","s","elianto","#3366ff99","-1"," ","0","0","[1957.300000011921]","1","2","","","16540","74","5","2","win","no-go","0"
"pit-trial","196","1199332","0.0-79.0","battery-v0.2","","""event"",""trial"",""time""
""fullscreenenter"",""1"",""2818""
","
","
","""event"",""trial"",""time""
""fullscreenenter"",""1"",""2818""
","
","","","-1","","","19","16540","6117","l","elianto","#3366ff99","-1","-1","1","+10","[]","0","2","","","16540","75","1","2","win","no-go","0"
"pit-trial","197","1202818","0.0-80.0","battery-v0.2","","""event"",""trial"",""time""
""fullscreenenter"",""1"",""2818""
","
","
","""event"",""trial"",""time""
""fullscreenenter"",""1"",""2818""
","
","","","623.2000000029802","","","19","16540","6117","p","elianto","#3366ff99"," "," ","1","+10","[1473.2999999970198]","1","2","","","16540","76","4","1","win","go","0"
"pit-trial","198","1206605","0.0-81.0","battery-v0.2","","""event"",""trial"",""time""
""fullscreenenter"",""1"",""2818""
","
","
","""event"",""trial"",""time""
""fullscreenenter"",""1"",""2818""
","
","","","918.2999999970198","","","19","16540","6117","s","elianto","#3366ff99","-1"," ","0","0","[1772]","1","2","","","16540","77","5","2","win","no-go","0"
"pit-trial","199","1210311","0.0-82.0","battery-v0.2","","""event"",""trial"",""time""
""fullscreenenter"",""1"",""2818""
","
","
","""event"",""trial"",""time""
""fullscreenenter"",""1"",""2818""
","
","","","841.2999999970198","","","19","16540","6117","p","elianto","#3366ff99"," "," ","1","0","[1691.5]","1","2","","","16540","78","4","1","win","go","1"
"pit-trial","200","1214007","0.0-83.0","battery-v0.2","","""event"",""trial"",""time""
""fullscreenenter"",""1"",""2818""
","
","
","""event"",""trial"",""time""
""fullscreenenter"",""1"",""2818""
","
","","","825.1999999880791","","","19","16540","6117","p","elianto","#3366ff99"," "," ","1","+10","[1682.5999999940395]","1","2","","","16540","79","4","1","win","go","0"
"pit-trial","201","1218876","0.0-84.0","battery-v0.2","","""event"",""trial"",""time""
""fullscreenenter"",""1"",""2818""
","
","
","""event"",""trial"",""time""
""fullscreenenter"",""1"",""2818""
","
","","","-1","","","19","16540","6117","g","elianto","#f73b6a7A","-1","-1","1","0","[]","0","2","","","16540","80","3","4","lose","no-go","0"
"pit-trial","202","1223744","0.0-85.0","battery-v0.2","","""event"",""trial"",""time""
""fullscreenenter"",""1"",""2818""
","
","
","""event"",""trial"",""time""
""fullscreenenter"",""1"",""2818""
","
","","","-1","","","19","16540","6117","s","elianto","#3366ff99","-1","-1","1","+10","[]","0","2","","","16540","81","5","2","win","no-go","0"
"pit-trial","203","1227389","0.0-86.0","battery-v0.2","","""event"",""trial"",""time""
""fullscreenenter"",""1"",""2818""
","
","
","""event"",""trial"",""time""
""fullscreenenter"",""1"",""2818""
","
","","","785.4000000059605","","","19","16540","6117","p","elianto","#3366ff99"," "," ","1","+10","[1635.3999999910593]","1","2","","","16540","82","4","1","win","go","0"
"pit-trial","204","1232251","0.0-87.0","battery-v0.2","","""event"",""trial"",""time""
""fullscreenenter"",""1"",""2818""
","
","
","""event"",""trial"",""time""
""fullscreenenter"",""1"",""2818""
","
","","","-1","","","19","16540","6117","g","elianto","#f73b6a7A","-1","-1","1","0","[]","0","2","","","16540","83","3","4","lose","no-go","0"
"pit-trial","205","1236546","0.0-88.0","battery-v0.2","","""event"",""trial"",""time""
""fullscreenenter"",""1"",""2818""
","
","
","""event"",""trial"",""time""
""fullscreenenter"",""1"",""2818""
","
","","","1427.5","","","19","16540","6117","e","elianto","#f73b6a7A","-1"," ","0","-10","[2277.5999999940395]","1","2","","","16540","84","7","4","lose","no-go","0"
"pit-trial","206","1240041","0.0-89.0","battery-v0.2","","""event"",""trial"",""time""
""fullscreenenter"",""1"",""2818""
","
","
","""event"",""trial"",""time""
""fullscreenenter"",""1"",""2818""
","
","","","623.7999999970198","","","19","16540","6117","p","elianto","#3366ff99"," "," ","1","+10","[1473.7000000029802]","1","2","","","16540","85","4","1","win","go","0"
"pit-trial","207","1244014","0.0-90.0","battery-v0.2","","""event"",""trial"",""time""
""fullscreenenter"",""1"",""2818""
","
","
","""event"",""trial"",""time""
""fullscreenenter"",""1"",""2818""
","
","","","1107.699999988079","","","19","16540","6117","w","elianto","#f73b6a7A"," "," ","1","-10","[1957.7000000029802]","1","2","","","16540","86","6","3","lose","go","1"
"pit-trial","208","1248878","0.0-91.0","battery-v0.2","","""event"",""trial"",""time""
""fullscreenenter"",""1"",""2818""
","
","
","""event"",""trial"",""time""
""fullscreenenter"",""1"",""2818""
","
","","","-1","","","19","16540","6117","s","elianto","#3366ff99","-1","-1","1","+10","[]","0","2","","","16540","87","5","2","win","no-go","0"
"pit-trial","209","1252922","0.0-92.0","battery-v0.2","","""event"",""trial"",""time""
""fullscreenenter"",""1"",""2818""
","
","
","""event"",""trial"",""time""
""fullscreenenter"",""1"",""2818""
","
","","","1182.8999999910593","","","19","16540","6117","e","elianto","#f73b6a7A","-1"," ","0","0","[2032.2999999970198]","1","2","","","16540","88","7","4","lose","no-go","1"
"pit-trial","210","1257576","0.0-93.0","battery-v0.2","","""event"",""trial"",""time""
""fullscreenenter"",""1"",""2818""
","
","
","""event"",""trial"",""time""
""fullscreenenter"",""1"",""2818""
","
","","","1785.9000000059605","","","19","16540","6117","e","elianto","#f73b6a7A","-1"," ","0","0","[2636.2999999970198]","1","2","","","16540","89","7","4","lose","no-go","1"
"pit-trial","211","1261512","0.0-94.0","battery-v0.2","","""event"",""trial"",""time""
""fullscreenenter"",""1"",""2818""
","
","
","""event"",""trial"",""time""
""fullscreenenter"",""1"",""2818""
","
","","","1074.2000000029802","","","19","16540","6117","w","elianto","#f73b6a7A"," "," ","1","0","[1924.2000000029802]","1","2","","","16540","90","6","3","lose","go","0"
"pit-trial","212","1265197","0.0-95.0","battery-v0.2","","""event"",""trial"",""time""
""fullscreenenter"",""1"",""2818""
","
","
","""event"",""trial"",""time""
""fullscreenenter"",""1"",""2818""
","
","","","816.5","","","19","16540","6117","s","elianto","#3366ff99","-1"," ","0","0","[1672]","1","2","","","16540","91","5","2","win","no-go","0"
"pit-trial","213","1268700","0.0-96.0","battery-v0.2","","""event"",""trial"",""time""
""fullscreenenter"",""1"",""2818""
","
","
","""event"",""trial"",""time""
""fullscreenenter"",""1"",""2818""
","
","","","635.2999999970198","","","19","16540","6117","p","elianto","#3366ff99"," "," ","1","+10","[1485.5]","1","2","","","16540","92","4","1","win","go","0"
"pit-trial","214","1272655","0.0-97.0","battery-v0.2","","""event"",""trial"",""time""
""fullscreenenter"",""1"",""2818""
","
","
","""event"",""trial"",""time""
""fullscreenenter"",""1"",""2818""
","
","","","1089","","","19","16540","6117","d","elianto","#3366ff99"," "," ","1","+10","[1939.1000000089407]","1","2","","","16540","93","8","1","win","go","0"
"pit-trial","215","1277072","0.0-98.0","battery-v0.2","","""event"",""trial"",""time""
""fullscreenenter"",""1"",""2818""
","
","
","""event"",""trial"",""time""
""fullscreenenter"",""1"",""2818""
","
","","","1550.7999999970198","","","19","16540","6117","e","elianto","#f73b6a7A","-1"," ","0","-10","[2400.8999999910593]","1","2","","","16540","94","7","4","lose","no-go","0"
"pit-trial","216","1281938","0.0-99.0","battery-v0.2","","""event"",""trial"",""time""
""fullscreenenter"",""1"",""2818""
","
","
","""event"",""trial"",""time""
""fullscreenenter"",""1"",""2818""
","
","","","-1","","","19","16540","6117","s","elianto","#3366ff99","-1","-1","1","0","[]","0","2","","","16540","95","5","2","win","no-go","1"
"pit-trial","217","1286466","0.0-100.0","battery-v0.2","","""event"",""trial"",""time""
""fullscreenenter"",""1"",""2818""
","
","
","""event"",""trial"",""time""
""fullscreenenter"",""1"",""2818""
","
","","","1661.7000000029802","","","19","16540","6117","w","elianto","#f73b6a7A"," "," ","1","0","[2511.5]","1","2","","","16540","96","6","3","lose","go","0"
"pit-trial","218","1290081","0.0-101.0","battery-v0.2","","""event"",""trial"",""time""
""fullscreenenter"",""1"",""2818""
","
","
","""event"",""trial"",""time""
""fullscreenenter"",""1"",""2818""
","
","","","753.5","","","19","16540","6117","w","elianto","#f73b6a7A"," "," ","1","0","[1603.5]","1","2","","","16540","97","6","3","lose","go","0"
"pit-trial","219","1294712","0.0-102.0","battery-v0.2","","""event"",""trial"",""time""
""fullscreenenter"",""1"",""2818""
","
","
","""event"",""trial"",""time""
""fullscreenenter"",""1"",""2818""
","
","","","1763.2000000029802","","","19","16540","6117","e","elianto","#f73b6a7A","-1"," ","0","-10","[2616]","1","2","","","16540","98","7","4","lose","no-go","0"
"pit-trial","220","1298604","0.0-103.0","battery-v0.2","","""event"",""trial"",""time""
""fullscreenenter"",""1"",""2818""
","
","
","""event"",""trial"",""time""
""fullscreenenter"",""1"",""2818""
","
","","","1022.1999999880791","","","19","16540","6117","d","elianto","#3366ff99"," "," ","1","+10","[1872.7999999970198]","1","2","","","16540","99","8","1","win","go","0"
"pit-trial","221","1303471","0.0-104.0","battery-v0.2","","""event"",""trial"",""time""
""fullscreenenter"",""1"",""2818""
","
","
","""event"",""trial"",""time""
""fullscreenenter"",""1"",""2818""
","
","","","-1","","","19","16540","6117","s","elianto","#3366ff99","-1","-1","1","+10","[]","0","2","","","16540","100","5","2","win","no-go","0"
"pit-trial","222","1307556","0.0-105.0","battery-v0.2","","""event"",""trial"",""time""
""fullscreenenter"",""1"",""2818""
","
","
","""event"",""trial"",""time""
""fullscreenenter"",""1"",""2818""
","
","","","1216.7000000029802","","","19","16540","6117","e","elianto","#f73b6a7A","-1"," ","0","-10","[2069.7000000029802]","1","2","","","16540","101","7","4","lose","no-go","0"
"pit-trial","223","1311309","0.0-106.0","battery-v0.2","","""event"",""trial"",""time""
""fullscreenenter"",""1"",""2818""
","
","
","""event"",""trial"",""time""
""fullscreenenter"",""1"",""2818""
","
","","","888.6999999880791","","","19","16540","6117","j","elianto","#3366ff99"," "," ","1","+10","[1738.800000011921]","1","2","","","16540","102","9","1","win","go","0"
"pit-trial","224","1316172","0.0-107.0","battery-v0.2","","""event"",""trial"",""time""
""fullscreenenter"",""1"",""2818""
","
","
","""event"",""trial"",""time""
""fullscreenenter"",""1"",""2818""
","
","","","-1","","","19","16540","6117","s","elianto","#3366ff99","-1","-1","1","+10","[]","0","2","","","16540","103","5","2","win","no-go","0"
"pit-trial","225","1321037","0.0-108.0","battery-v0.2","","""event"",""trial"",""time""
""fullscreenenter"",""1"",""2818""
","
","
","""event"",""trial"",""time""
""fullscreenenter"",""1"",""2818""
","
","","","-1","","","19","16540","6117","d","elianto","#3366ff99"," ","-1","0","0","[2892.5999999940395]","1","2","","","16540","104","8","1","win","go","0"
"pit-trial","226","1324905","0.0-109.0","battery-v0.2","","""event"",""trial"",""time""
""fullscreenenter"",""1"",""2818""
","
","
","""event"",""trial"",""time""
""fullscreenenter"",""1"",""2818""
","
","","","1000.1000000089407","","","19","16540","6117","j","elianto","#3366ff99"," "," ","1","+10","[1851]","1","2","","","16540","105","9","1","win","go","0"
"pit-trial","227","1329770","0.0-110.0","battery-v0.2","","""event"",""trial"",""time""
""fullscreenenter"",""1"",""2818""
","
","
","""event"",""trial"",""time""
""fullscreenenter"",""1"",""2818""
","
","","","-1","","","19","16540","6117","d","elianto","#3366ff99"," ","-1","0","0","[]","0","2","","","16540","106","8","1","win","go","0"
"pit-trial","228","1333467","0.0-111.0","battery-v0.2","","""event"",""trial"",""time""
""fullscreenenter"",""1"",""2818""
","
","
","""event"",""trial"",""time""
""fullscreenenter"",""1"",""2818""
","
","","","832.8999999910593","","","19","16540","6117","p","elianto","#3366ff99"," "," ","1","0","[1682.9000000059605]","1","2","","","16540","107","4","1","win","go","1"
"pit-trial","229","1337736","0.0-112.0","battery-v0.2","","""event"",""trial"",""time""
""fullscreenenter"",""1"",""2818""
","
","
","""event"",""trial"",""time""
""fullscreenenter"",""1"",""2818""
","
","","","1402.2000000029802","","","19","16540","6117","w","elianto","#f73b6a7A"," "," ","1","-10","[2252.2999999970198]","1","2","","","16540","108","6","3","lose","go","1"
"pit-trial","230","1342600","0.0-113.0","battery-v0.2","","""event"",""trial"",""time""
""fullscreenenter"",""1"",""2818""
","
","
","""event"",""trial"",""time""
""fullscreenenter"",""1"",""2818""
","
","","","-1","","","19","16540","6117","d","elianto","#3366ff99"," ","-1","0","0","[]","0","2","","","16540","109","8","1","win","go","0"
"pit-trial","231","1346348","0.0-114.0","battery-v0.2","","""event"",""trial"",""time""
""fullscreenenter"",""1"",""2818""
","
","
","""event"",""trial"",""time""
""fullscreenenter"",""1"",""2818""
","
","","","882.8999999910593","","","19","16540","6117","j","elianto","#3366ff99"," "," ","1","+10","[1732.8999999910593]","1","2","","","16540","110","9","1","win","go","0"
"pit-trial","232","1351216","0.0-115.0","battery-v0.2","","""event"",""trial"",""time""
""fullscreenenter"",""1"",""2818""
","
","
","""event"",""trial"",""time""
""fullscreenenter"",""1"",""2818""
","
","","","-1","","","19","16540","6117","s","elianto","#3366ff99","-1","-1","1","+10","[]","0","2","","","16540","111","5","2","win","no-go","0"
"pit-trial","233","1354987","0.0-116.0","battery-v0.2","","""event"",""trial"",""time""
""fullscreenenter"",""1"",""2818""
","
","
","""event"",""trial"",""time""
""fullscreenenter"",""1"",""2818""
","
","","","906.0999999940395","","","19","16540","6117","w","elianto","#f73b6a7A"," "," ","1","0","[1756.1000000089407]","1","2","","","16540","112","6","3","lose","go","0"
"pit-trial","234","1358604","0.0-117.0","battery-v0.2","","""event"",""trial"",""time""
""fullscreenenter"",""1"",""2818""
","
","
","""event"",""trial"",""time""
""fullscreenenter"",""1"",""2818""
","
","","","751.1000000089407","","","19","16540","6117","j","elianto","#3366ff99"," "," ","1","+10","[1605.8999999910593]","1","2","","","16540","113","9","1","win","go","0"
"pit-trial","235","1363466","0.0-118.0","battery-v0.2","","""event"",""trial"",""time""
""fullscreenenter"",""1"",""2818""
","
","
","""event"",""trial"",""time""
""fullscreenenter"",""1"",""2818""
","
","","","-1","","","19","16540","6117","s","elianto","#3366ff99","-1","-1","1","+10","[]","0","2","","","16540","114","5","2","win","no-go","0"
"pit-trial","236","1368331","0.0-119.0","battery-v0.2","","""event"",""trial"",""time""
""fullscreenenter"",""1"",""2818""
","
","
","""event"",""trial"",""time""
""fullscreenenter"",""1"",""2818""
","
","","","-1","","","19","16540","6117","w","elianto","#f73b6a7A"," ","-1","0","-10","[]","0","2","","","16540","115","6","3","lose","go","0"
"pit-trial","237","1373197","0.0-120.0","battery-v0.2","","""event"",""trial"",""time""
""fullscreenenter"",""1"",""2818""
","
","
","""event"",""trial"",""time""
""fullscreenenter"",""1"",""2818""
","
","","","-1","","","19","16540","6117","d","elianto","#3366ff99"," ","-1","0","0","[]","0","2","","","16540","116","8","1","win","go","0"
"pit-trial","238","1378071","0.0-121.0","battery-v0.2","","""event"",""trial"",""time""
""fullscreenenter"",""1"",""2818""
","
","
","""event"",""trial"",""time""
""fullscreenenter"",""1"",""2818""
","
","","","-1","","","19","16540","6117","s","elianto","#3366ff99","-1","-1","1","+10","[]","0","2","","","16540","117","5","2","win","no-go","0"
"pit-trial","239","1382434","0.0-122.0","battery-v0.2","","""event"",""trial"",""time""
""fullscreenenter"",""1"",""2818""
","
","
","""event"",""trial"",""time""
""fullscreenenter"",""1"",""2818""
","
","","","1500.5","","","19","16540","6117","w","elianto","#f73b6a7A"," "," ","1","0","[2351.0999999940395]","1","2","","","16540","118","6","3","lose","go","0"
"pit-trial","240","1386007","0.0-123.0","battery-v0.2","","""event"",""trial"",""time""
""fullscreenenter"",""1"",""2818""
","
","
","""event"",""trial"",""time""
""fullscreenenter"",""1"",""2818""
","
","","","708","","","19","16540","6117","j","elianto","#3366ff99"," "," ","1","+10","[1558.0999999940395]","1","2","","","16540","119","9","1","win","go","0"
"pit-trial","241","1389788","0.0-124.0","battery-v0.2","","""event"",""trial"",""time""
""fullscreenenter"",""1"",""2818""
","
","
","""event"",""trial"",""time""
""fullscreenenter"",""1"",""2818""
","
","","","913.8000000119209","","","19","16540","6117","d","elianto","#3366ff99"," "," ","1","+10","[1764]","1","2","","","16540","120","8","1","win","go","0"
"pit-trial","242","1394656","0.0-125.0","battery-v0.2","","""event"",""trial"",""time""
""fullscreenenter"",""1"",""2818""
","
","
","""event"",""trial"",""time""
""fullscreenenter"",""1"",""2818""
","
","","","-1","","","19","16540","6117","e","elianto","#f73b6a7A","-1","-1","1","-10","[]","0","2","","","16540","121","7","4","lose","no-go","1"
"pit-trial","243","1398211","0.0-126.0","battery-v0.2","","""event"",""trial"",""time""
""fullscreenenter"",""1"",""2818""
","
","
","""event"",""trial"",""time""
""fullscreenenter"",""1"",""2818""
","
","","","688.6000000089407","","","19","16540","6117","j","elianto","#3366ff99"," "," ","1","+10","[1538.7000000029802]","1","2","","","16540","122","9","1","win","go","0"
"pit-trial","244","1403078","0.0-127.0","battery-v0.2","","""event"",""trial"",""time""
""fullscreenenter"",""1"",""2818""
","
","
","""event"",""trial"",""time""
""fullscreenenter"",""1"",""2818""
","
","","","-1","","","19","16540","6117","d","elianto","#3366ff99"," ","-1","0","0","[]","0","2","","","16540","123","8","1","win","go","0"
"pit-trial","245","1407186","0.0-128.0","battery-v0.2","","""event"",""trial"",""time""
""fullscreenenter"",""1"",""2818""
","
","
","""event"",""trial"",""time""
""fullscreenenter"",""1"",""2818""
","
","","","1241.199999988079","","","19","16540","6117","w","elianto","#f73b6a7A"," "," ","1","0","[2090.9000000059605]","1","2","","","16540","124","6","3","lose","go","0"
"pit-trial","246","1410734","0.0-129.0","battery-v0.2","","""event"",""trial"",""time""
""fullscreenenter"",""1"",""2818""
","
","
","""event"",""trial"",""time""
""fullscreenenter"",""1"",""2818""
","
","","","679.7999999970198","","","19","16540","6117","j","elianto","#3366ff99"," "," ","1","+10","[1532]","1","2","","","16540","125","9","1","win","go","0"
"pit-trial","247","1414414","0.0-130.0","battery-v0.2","","""event"",""trial"",""time""
""fullscreenenter"",""1"",""2818""
","
","
","""event"",""trial"",""time""
""fullscreenenter"",""1"",""2818""
","
","","","814.0999999940395","","","19","16540","6117","w","elianto","#f73b6a7A"," "," ","1","-10","[1664.2000000029802]","1","2","","","16540","126","6","3","lose","go","1"
"pit-trial","248","1419279","0.0-131.0","battery-v0.2","","""event"",""trial"",""time""
""fullscreenenter"",""1"",""2818""
","
","
","""event"",""trial"",""time""
""fullscreenenter"",""1"",""2818""
","
","","","-1","","","19","16540","6117","d","elianto","#3366ff99"," ","-1","0","0","[]","0","2","","","16540","127","8","1","win","go","0"
"pit-trial","249","1423634","0.0-132.0","battery-v0.2","","""event"",""trial"",""time""
""fullscreenenter"",""1"",""2818""
","
","
","""event"",""trial"",""time""
""fullscreenenter"",""1"",""2818""
","
","","","1488.9000000059605","","","19","16540","6117","e","elianto","#f73b6a7A","-1"," ","0","-10","[168.5,2338.7999999970198]","2","2","","","16540","128","7","4","lose","no-go","0"
"pit-trial","250","1427189","0.0-133.0","battery-v0.2","","""event"",""trial"",""time""
""fullscreenenter"",""1"",""2818""
","
","
","""event"",""trial"",""time""
""fullscreenenter"",""1"",""2818""
","
","","","692.8999999910593","","","19","16540","6117","w","elianto","#f73b6a7A"," "," ","1","0","[1542.7999999970198]","1","2","","","16540","129","6","3","lose","go","0"
"pit-trial","251","1430727","0.0-134.0","battery-v0.2","","""event"",""trial"",""time""
""fullscreenenter"",""1"",""2818""
","
","
","""event"",""trial"",""time""
""fullscreenenter"",""1"",""2818""
","
","","","674.6000000089407","","","19","16540","6117","j","elianto","#3366ff99"," "," ","1","0","[1524.5999999940395]","1","2","","","16540","130","9","1","win","go","1"
"pit-trial","252","1435591","0.0-135.0","battery-v0.2","","""event"",""trial"",""time""
""fullscreenenter"",""1"",""2818""
","
","
","""event"",""trial"",""time""
""fullscreenenter"",""1"",""2818""
","
","","","-1","","","19","16540","6117","e","elianto","#f73b6a7A","-1","-1","1","0","[]","0","2","","","16540","131","7","4","lose","no-go","0"
"pit-trial","253","1439061","0.0-136.0","battery-v0.2","","""event"",""trial"",""time""
""fullscreenenter"",""1"",""2818""
","
","
","""event"",""trial"",""time""
""fullscreenenter"",""1"",""2818""
","
","","","603.1000000089407","","","19","16540","6117","d","elianto","#3366ff99"," "," ","1","+10","[1456.0999999940395]","1","2","","","16540","132","8","1","win","go","0"
"pit-trial","254","1442556","0.0-137.0","battery-v0.2","","""event"",""trial"",""time""
""fullscreenenter"",""1"",""2818""
","
","
","""event"",""trial"",""time""
""fullscreenenter"",""1"",""2818""
","
","","","633.6000000089407","","","19","16540","6117","d","elianto","#3366ff99"," "," ","1","+10","[1484]","1","2","","","16540","133","8","1","win","go","0"
"pit-trial","255","1446179","0.0-138.0","battery-v0.2","","""event"",""trial"",""time""
""fullscreenenter"",""1"",""2818""
","
","
","""event"",""trial"",""time""
""fullscreenenter"",""1"",""2818""
","
","","","754.4000000059605","","","19","16540","6117","w","elianto","#f73b6a7A"," "," ","1","0","[1604.5]","1","2","","","16540","134","6","3","lose","go","0"
"pit-trial","256","1451042","0.0-139.0","battery-v0.2","","""event"",""trial"",""time""
""fullscreenenter"",""1"",""2818""
","
","
","""event"",""trial"",""time""
""fullscreenenter"",""1"",""2818""
","
","","","-1","","","19","16540","6117","e","elianto","#f73b6a7A","-1","-1","1","0","[]","0","2","","","16540","135","7","4","lose","no-go","0"
"pit-trial","257","1454565","0.0-140.0","battery-v0.2","","""event"",""trial"",""time""
""fullscreenenter"",""1"",""2818""
","
","
","""event"",""trial"",""time""
""fullscreenenter"",""1"",""2818""
","
","","","654.9000000059605","","","19","16540","6117","j","elianto","#3366ff99"," "," ","1","+10","[1507.800000011921]","1","2","","","16540","136","9","1","win","go","0"
"pit-trial","258","1459431","0.0-141.0","battery-v0.2","","""event"",""trial"",""time""
""fullscreenenter"",""1"",""2818""
","
","
","""event"",""trial"",""time""
""fullscreenenter"",""1"",""2818""
","
","","","-1","","","19","16540","6117","e","elianto","#f73b6a7A","-1","-1","1","0","[]","0","2","","","16540","137","7","4","lose","no-go","0"
"pit-trial","259","1462975","0.0-142.0","battery-v0.2","","""event"",""trial"",""time""
""fullscreenenter"",""1"",""2818""
","
","
","""event"",""trial"",""time""
""fullscreenenter"",""1"",""2818""
","
","","","680.4000000059605","","","19","16540","6117","j","elianto","#3366ff99"," "," ","1","+10","[1530.800000011921]","1","2","","","16540","138","9","1","win","go","0"
"pit-trial","260","1466649","0.0-143.0","battery-v0.2","","""event"",""trial"",""time""
""fullscreenenter"",""1"",""2818""
","
","
","""event"",""trial"",""time""
""fullscreenenter"",""1"",""2818""
","
","","","810.2000000029802","","","19","16540","6117","w","elianto","#f73b6a7A"," "," ","1","-10","[1660.4000000059605]","1","2","","","16540","139","6","3","lose","go","1"
"pit-trial","261","1470105","0.0-144.0","battery-v0.2","","""event"",""trial"",""time""
""fullscreenenter"",""1"",""2818""
","
","
","""event"",""trial"",""time""
""fullscreenenter"",""1"",""2818""
","
","","","590.1000000089407","","","19","16540","6117","d","elianto","#3366ff99"," "," ","1","0","[1440.3999999910593]","1","2","","","16540","140","8","1","win","go","1"
"pit-instructions","262","1655907","0.0-145.0","battery-v0.2","","""event"",""trial"",""time""
""fullscreenenter"",""1"",""2818""
","
","
","""event"",""trial"",""time""
""fullscreenenter"",""1"",""2818""
","
","","[{""page_index"":0,""viewing_time"":45720},{""page_index"":1,""viewing_time"":140067.29999999702}]","185790.5","","","","","","","","","","","","","","","","","","","","","","","",""
"pit-trial","263","1659514","0.0-146.0","battery-v0.2","","""event"",""trial"",""time""
""fullscreenenter"",""1"",""2818""
","
","
","""event"",""trial"",""time""
""fullscreenenter"",""1"",""2818""
","
","","","728.9000000059605","","","19","16540","6117","y","elianto","#f73b6a7A","-1"," ","0","-10","[1579]","1","3","","","16540","141","2","4","lose","no-go","0"
"pit-trial","264","1662940","0.0-147.0","battery-v0.2","","""event"",""trial"",""time""
""fullscreenenter"",""1"",""2818""
","
","
","""event"",""trial"",""time""
""fullscreenenter"",""1"",""2818""
","
","","","562.1000000089407","","","19","16540","6117","h","elianto","#f73b6a7A"," "," ","1","0","[1412]","1","3","","","16540","142","3","3","lose","go","0"
"pit-trial","265","1666471","0.0-148.0","battery-v0.2","","""event"",""trial"",""time""
""fullscreenenter"",""1"",""2818""
","
","
","""event"",""trial"",""time""
""fullscreenenter"",""1"",""2818""
","
