"trial_type","trial_index","time_elapsed","internal_node_id","task_version","subject_id","interactions","blur_events","focus_events","fullscreenenter_events","fullscreenexit_events","success","view_history","rt","responses","num_errors","age","subject","participantId","rune","rune_set","hex","correct","choice","accuracy","outcome","keys","total_keys","block","practice","value","sub","trial","stimulus","robot","valence","action","sham"
"pavlovia","0","15","0.0-0.0","battery-v0.2","","""event"",""trial"",""time""
""focus"",""0"",""1""
""fullscreenenter"",""1"",""2164""
","
","""event"",""trial"",""time""
""focus"",""0"",""1""
","""event"",""trial"",""time""
""fullscreenenter"",""1"",""2164""
","
","","","","","","","","","","","","","","","","","","","","","","","","","","",""
"fullscreen","1","3163","0.0-1.0","battery-v0.2","","""event"",""trial"",""time""
""focus"",""0"",""1""
""fullscreenenter"",""1"",""2164""
","
","""event"",""trial"",""time""
""focus"",""0"",""1""
","""event"",""trial"",""time""
""fullscreenenter"",""1"",""2164""
","
","true","","","","","","","","","","","","","","","","","","","","","","","","","",""
"pit-instructions","2","8992","0.0-2.0-0.0","battery-v0.2","","""event"",""trial"",""time""
""focus"",""0"",""1""
""fullscreenenter"",""1"",""2164""
","
","""event"",""trial"",""time""
""focus"",""0"",""1""
","""event"",""trial"",""time""
""fullscreenenter"",""1"",""2164""
","
","","[{""page_index"":0,""viewing_time"":5824}]","5824","","","","","","","","","","","","","","","","","","","","","","","",""
"pit-comprehension","3","12022","0.0-2.0-1.0-0.0","battery-v0.2","","""event"",""trial"",""time""
""focus"",""0"",""1""
""fullscreenenter"",""1"",""2164""
","
","""event"",""trial"",""time""
""focus"",""0"",""1""
","""event"",""trial"",""time""
""fullscreenenter"",""1"",""2164""
","
","","","3028","[""shark""]","0","23","10168","4870","","","","","","","","","","","","","","","","","","",""
"pit-instructions","4","13457","0.0-2.0-1.0-1.0","battery-v0.2","","""event"",""trial"",""time""
""focus"",""0"",""1""
""fullscreenenter"",""1"",""2164""
","
","""event"",""trial"",""time""
""focus"",""0"",""1""
","""event"",""trial"",""time""
""fullscreenenter"",""1"",""2164""
","
","","[{""page_index"":0,""viewing_time"":1431}]","1431","","","","","","","","","","","","","","","","","","","","","","","",""
"pit-comprehension","5","16225","0.0-2.0-2.0-0.0","battery-v0.2","","""event"",""trial"",""time""
""focus"",""0"",""1""
""fullscreenenter"",""1"",""2164""
","
","""event"",""trial"",""time""
""focus"",""0"",""1""
","""event"",""trial"",""time""
""fullscreenenter"",""1"",""2164""
","
","","","2765","[""tiger""]","0","23","10168","4870","","","","","","","","","","","","","","","","","","",""
"pit-instructions","6","17040","0.0-2.0-2.0-1.0","battery-v0.2","","""event"",""trial"",""time""
""focus"",""0"",""1""
""fullscreenenter"",""1"",""2164""
","
","""event"",""trial"",""time""
""focus"",""0"",""1""
","""event"",""trial"",""time""
""fullscreenenter"",""1"",""2164""
","
","","[{""page_index"":0,""viewing_time"":813}]","813","","","","","","","","","","","","","","","","","","","","","","","",""
"pit-instructions","7","133019","0.0-2.0-3.0","battery-v0.2","","""event"",""trial"",""time""
""focus"",""0"",""1""
""fullscreenenter"",""1"",""2164""
","
","""event"",""trial"",""time""
""focus"",""0"",""1""
","""event"",""trial"",""time""
""fullscreenenter"",""1"",""2164""
","
","","[{""page_index"":0,""viewing_time"":19663},{""page_index"":1,""viewing_time"":6632},{""page_index"":2,""viewing_time"":7034},{""page_index"":3,""viewing_time"":6117},{""page_index"":4,""viewing_time"":10749},{""page_index"":5,""viewing_time"":5669},{""page_index"":6,""viewing_time"":7515},{""page_index"":7,""viewing_time"":7749},{""page_index"":8,""viewing_time"":7769},{""page_index"":9,""viewing_time"":9264},{""page_index"":10,""viewing_time"":8066},{""page_index"":11,""viewing_time"":8001},{""page_index"":12,""viewing_time"":7466},{""page_index"":13,""viewing_time"":4284}]","115978","","","","","","","","","","","","","","","","","","","","","","","",""
"pit-trial","8","135915","0.0-2.0-4.0-0.0","battery-v0.2","","""event"",""trial"",""time""
""focus"",""0"",""1""
""fullscreenenter"",""1"",""2164""
","
","""event"",""trial"",""time""
""focus"",""0"",""1""
","""event"",""trial"",""time""
""fullscreenenter"",""1"",""2164""
","
","","","38","","","23","10168","4870","&#9784;","elianto","#FFFFF080"," "," ","1","&#10004","[891]","1","0","0","","","","","","","",""
"pit-trial","9","139121","0.0-2.0-4.1-0.1","battery-v0.2","","""event"",""trial"",""time""
""focus"",""0"",""1""
""fullscreenenter"",""1"",""2164""
","
","""event"",""trial"",""time""
""focus"",""0"",""1""
","""event"",""trial"",""time""
""fullscreenenter"",""1"",""2164""
","
","","","353","","","23","10168","4870","&#9784;","elianto","#FFFFF080"," "," ","1","&#10004","[1203]","1","0","0","","","","","","","",""
"pit-trial","10","142155","0.0-2.0-4.2-0.2","battery-v0.2","","""event"",""trial"",""time""
""focus"",""0"",""1""
""fullscreenenter"",""1"",""2164""
","
","""event"",""trial"",""time""
""focus"",""0"",""1""
","""event"",""trial"",""time""
""fullscreenenter"",""1"",""2164""
","
","","","175","","","23","10168","4870","&#9784;","elianto","#FFFFF080"," "," ","1","&#10004","[1029]","1","0","0","","","","","","","",""
"pit-trial","11","145386","0.0-2.0-4.3-0.3","battery-v0.2","","""event"",""trial"",""time""
""focus"",""0"",""1""
""fullscreenenter"",""1"",""2164""
","
","""event"",""trial"",""time""
""focus"",""0"",""1""
","""event"",""trial"",""time""
""fullscreenenter"",""1"",""2164""
","
","","","360","","","23","10168","4870","&#9784;","elianto","#FFFFF080"," "," ","1","&#10004","[1227]","1","0","0","","","","","","","",""
"pit-trial","12","148332","0.0-2.0-4.4-0.4","battery-v0.2","","""event"",""trial"",""time""
""focus"",""0"",""1""
""fullscreenenter"",""1"",""2164""
","
","""event"",""trial"",""time""
""focus"",""0"",""1""
","""event"",""trial"",""time""
""fullscreenenter"",""1"",""2164""
","
","","","89","","","23","10168","4870","&#9784;","elianto","#FFFFF080"," "," ","1","&#10004","[941]","1","0","0","","","","","","","",""
"pit-instructions","13","175519","0.0-2.0-5.0","battery-v0.2","","""event"",""trial"",""time""
""focus"",""0"",""1""
""fullscreenenter"",""1"",""2164""
","
","""event"",""trial"",""time""
""focus"",""0"",""1""
","""event"",""trial"",""time""
""fullscreenenter"",""1"",""2164""
","
","","[{""page_index"":0,""viewing_time"":6782},{""page_index"":1,""viewing_time"":6817},{""page_index"":2,""viewing_time"":6799},{""page_index"":3,""viewing_time"":6784}]","27182","","","","","","","","","","","","","","","","","","","","","","","",""
"pit-trial","14","180377","0.0-2.0-6.0-0.0","battery-v0.2","","""event"",""trial"",""time""
""focus"",""0"",""1""
""fullscreenenter"",""1"",""2164""
","
","""event"",""trial"",""time""
""focus"",""0"",""1""
","""event"",""trial"",""time""
""fullscreenenter"",""1"",""2164""
","
","","","-1","","","23","10168","4870","&#9854;","elianto","#FFFFF080","-1","-1","1","&#10004","[]","0","0","1","","","","","","","",""
"pit-trial","15","185260","0.0-2.0-6.1-0.1","battery-v0.2","","""event"",""trial"",""time""
""focus"",""0"",""1""
""fullscreenenter"",""1"",""2164""
","
","""event"",""trial"",""time""
""focus"",""0"",""1""
","""event"",""trial"",""time""
""fullscreenenter"",""1"",""2164""
","
","","","-1","","","23","10168","4870","&#9854;","elianto","#FFFFF080","-1","-1","1","&#10004","[]","0","0","1","","","","","","","",""
"pit-trial","16","190120","0.0-2.0-6.2-0.2","battery-v0.2","","""event"",""trial"",""time""
""focus"",""0"",""1""
""fullscreenenter"",""1"",""2164""
","
","""event"",""trial"",""time""
""focus"",""0"",""1""
","""event"",""trial"",""time""
""fullscreenenter"",""1"",""2164""
","
","","","-1","","","23","10168","4870","&#9854;","elianto","#FFFFF080","-1","-1","1","&#10004","[]","0","0","1","","","","","","","",""
"pit-trial","17","194976","0.0-2.0-6.3-0.3","battery-v0.2","","""event"",""trial"",""time""
""focus"",""0"",""1""
""fullscreenenter"",""1"",""2164""
","
","""event"",""trial"",""time""
""focus"",""0"",""1""
","""event"",""trial"",""time""
""fullscreenenter"",""1"",""2164""
","
","","","-1","","","23","10168","4870","&#9854;","elianto","#FFFFF080","-1","-1","1","&#10004","[]","0","0","1","","","","","","","",""
"pit-trial","18","199835","0.0-2.0-6.4-0.4","battery-v0.2","","""event"",""trial"",""time""
""focus"",""0"",""1""
""fullscreenenter"",""1"",""2164""
","
","""event"",""trial"",""time""
""focus"",""0"",""1""
","""event"",""trial"",""time""
""fullscreenenter"",""1"",""2164""
","
","","","-1","","","23","10168","4870","&#9854;","elianto","#FFFFF080","-1","-1","1","&#10004","[]","0","0","1","","","","","","","",""
"pit-instructions","19","342545","0.0-2.0-7.0","battery-v0.2","","""event"",""trial"",""time""
""focus"",""0"",""1""
""fullscreenenter"",""1"",""2164""
","
","""event"",""trial"",""time""
""focus"",""0"",""1""
","""event"",""trial"",""time""
""fullscreenenter"",""1"",""2164""
","
","","[{""page_index"":0,""viewing_time"":7777},{""page_index"":1,""viewing_time"":7400},{""page_index"":2,""viewing_time"":7199},{""page_index"":3,""viewing_time"":8900},{""page_index"":4,""viewing_time"":6036},{""page_index"":5,""viewing_time"":6084},{""page_index"":6,""viewing_time"":5066},{""page_index"":7,""viewing_time"":11065},{""page_index"":8,""viewing_time"":7948},{""page_index"":9,""viewing_time"":8735},{""page_index"":10,""viewing_time"":8582},{""page_index"":11,""viewing_time"":5383},{""page_index"":12,""viewing_time"":7617},{""page_index"":13,""viewing_time"":8033},{""page_index"":14,""viewing_time"":7836},{""page_index"":15,""viewing_time"":7147},{""page_index"":16,""viewing_time"":9753},{""page_index"":17,""viewing_time"":12146}]","142707","","","","","","","","","","","","","","","","","","","","","","","",""
"pit-trial","20","345680","0.0-2.0-8.0-0.0","battery-v0.2","","""event"",""trial"",""time""
""focus"",""0"",""1""
""fullscreenenter"",""1"",""2164""
","
","""event"",""trial"",""time""
""focus"",""0"",""1""
","""event"",""trial"",""time""
""fullscreenenter"",""1"",""2164""
","
","","","192","","","23","10168","4870","&#9776;","elianto","#3366ff99"," "," ","1","+10","[1046]","1","0","1","","","","","","","",""
"pit-trial","21","348687","0.0-2.0-8.0-1.0","battery-v0.2","","""event"",""trial"",""time""
""focus"",""0"",""1""
""fullscreenenter"",""1"",""2164""
","
","""event"",""trial"",""time""
""focus"",""0"",""1""
","""event"",""trial"",""time""
""fullscreenenter"",""1"",""2164""
","
","","","151","","","23","10168","4870","&#9776;","elianto","#3366ff99"," "," ","1","+10","[1004]","1","0","1","","","","","","","",""
"pit-trial","22","351648","0.0-2.0-8.0-2.0","battery-v0.2","","""event"",""trial"",""time""
""focus"",""0"",""1""
""fullscreenenter"",""1"",""2164""
","
","""event"",""trial"",""time""
""focus"",""0"",""1""
","""event"",""trial"",""time""
""fullscreenenter"",""1"",""2164""
","
","","","104","","","23","10168","4870","&#9776;","elianto","#3366ff99"," "," ","1","+10","[958]","1","0","1","","","","","","","",""
"pit-trial","23","354631","0.0-2.0-8.0-3.0","battery-v0.2","","""event"",""trial"",""time""
""focus"",""0"",""1""
""fullscreenenter"",""1"",""2164""
","
","""event"",""trial"",""time""
""focus"",""0"",""1""
","""event"",""trial"",""time""
""fullscreenenter"",""1"",""2164""
","
","","","122","","","23","10168","4870","&#9776;","elianto","#3366ff99"," "," ","1","0","[977]","1","0","1","","","","","","","",""
"pit-trial","24","357555","0.0-2.0-8.0-4.0","battery-v0.2","","""event"",""trial"",""time""
""focus"",""0"",""1""
""fullscreenenter"",""1"",""2164""
","
","""event"",""trial"",""time""
""focus"",""0"",""1""
","""event"",""trial"",""time""
""fullscreenenter"",""1"",""2164""
","
","","","62","","","23","10168","4870","&#9776;","elianto","#3366ff99"," "," ","1","+10","[917]","1","0","1","","","","","","","",""
"pit-trial","25","360493","0.0-2.0-8.1-0.1","battery-v0.2","","""event"",""trial"",""time""
""focus"",""0"",""1""
""fullscreenenter"",""1"",""2164""
","
","""event"",""trial"",""time""
""focus"",""0"",""1""
","""event"",""trial"",""time""
""fullscreenenter"",""1"",""2164""
","
","","","80","","","23","10168","4870","&#9776;","elianto","#3366ff99"," "," ","1","+10","[931]","1","0","1","","","","","","","",""
"pit-trial","26","363395","0.0-2.0-8.1-1.1","battery-v0.2","","""event"",""trial"",""time""
""focus"",""0"",""1""
""fullscreenenter"",""1"",""2164""
","
","""event"",""trial"",""time""
""focus"",""0"",""1""
","""event"",""trial"",""time""
""fullscreenenter"",""1"",""2164""
","
","","","44","","","23","10168","4870","&#9776;","elianto","#3366ff99"," "," ","1","+10","[898]","1","0","1","","","","","","","",""
"pit-trial","27","366260","0.0-2.0-8.1-2.1","battery-v0.2","","""event"",""trial"",""time""
""focus"",""0"",""1""
""fullscreenenter"",""1"",""2164""
","
","""event"",""trial"",""time""
""focus"",""0"",""1""
","""event"",""trial"",""time""
""fullscreenenter"",""1"",""2164""
","
","","","8","","","23","10168","4870","&#9776;","elianto","#3366ff99"," "," ","1","+10","[863]","1","0","1","","","","","","","",""
"pit-trial","28","369218","0.0-2.0-8.1-3.1","battery-v0.2","","""event"",""trial"",""time""
""focus"",""0"",""1""
""fullscreenenter"",""1"",""2164""
","
","""event"",""trial"",""time""
""focus"",""0"",""1""
","""event"",""trial"",""time""
""fullscreenenter"",""1"",""2164""
","
","","","100","","","23","10168","4870","&#9776;","elianto","#3366ff99"," "," ","1","0","[952]","1","0","1","","","","","","","",""
"pit-trial","29","372234","0.0-2.0-8.1-4.1","battery-v0.2","","""event"",""trial"",""time""
""focus"",""0"",""1""
""fullscreenenter"",""1"",""2164""
","
","""event"",""trial"",""time""
""focus"",""0"",""1""
","""event"",""trial"",""time""
""fullscreenenter"",""1"",""2164""
","
","","","158","","","23","10168","4870","&#9776;","elianto","#3366ff99"," "," ","1","+10","[1012]","1","0","1","","","","","","","",""
"pit-trial","30","375170","0.0-2.0-8.2-0.2","battery-v0.2","","""event"",""trial"",""time""
""focus"",""0"",""1""
""fullscreenenter"",""1"",""2164""
","
","""event"",""trial"",""time""
""focus"",""0"",""1""
","""event"",""trial"",""time""
""fullscreenenter"",""1"",""2164""
","
","","","80","","","23","10168","4870","&#9776;","elianto","#3366ff99"," "," ","1","+10","[931]","1","0","1","","","","","","","",""
"pit-trial","31","378163","0.0-2.0-8.2-1.2","battery-v0.2","","""event"",""trial"",""time""
""focus"",""0"",""1""
""fullscreenenter"",""1"",""2164""
","
","""event"",""trial"",""time""
""focus"",""0"",""1""
","""event"",""trial"",""time""
""fullscreenenter"",""1"",""2164""
","
","","","136","","","23","10168","4870","&#9776;","elianto","#3366ff99"," "," ","1","+10","[989]","1","0","1","","","","","","","",""
"pit-trial","32","381111","0.0-2.0-8.2-2.2","battery-v0.2","","""event"",""trial"",""time""
""focus"",""0"",""1""
""fullscreenenter"",""1"",""2164""
","
","""event"",""trial"",""time""
""focus"",""0"",""1""
","""event"",""trial"",""time""
""fullscreenenter"",""1"",""2164""
","
","","","91","","","23","10168","4870","&#9776;","elianto","#3366ff99"," "," ","1","+10","[944]","1","0","1","","","","","","","",""
"pit-trial","33","384043","0.0-2.0-8.2-3.2","battery-v0.2","","""event"",""trial"",""time""
""focus"",""0"",""1""
""fullscreenenter"",""1"",""2164""
","
","""event"",""trial"",""time""
""focus"",""0"",""1""
","""event"",""trial"",""time""
""fullscreenenter"",""1"",""2164""
","
","","","74","","","23","10168","4870","&#9776;","elianto","#3366ff99"," "," ","1","0","[928]","1","0","1","","","","","","","",""
"pit-trial","34","387015","0.0-2.0-8.2-4.2","battery-v0.2","","""event"",""trial"",""time""
""focus"",""0"",""1""
""fullscreenenter"",""1"",""2164""
","
","""event"",""trial"",""time""
""focus"",""0"",""1""
","""event"",""trial"",""time""
""fullscreenenter"",""1"",""2164""
","
","","","116","","","23","10168","4870","&#9776;","elianto","#3366ff99"," "," ","1","+10","[970]","1","0","1","","","","","","","",""
"call-function","35","387016","0.0-2.0-9.0","battery-v0.2","","""event"",""trial"",""time""
""focus"",""0"",""1""
""fullscreenenter"",""1"",""2164""
","
","""event"",""trial"",""time""
""focus"",""0"",""1""
","""event"",""trial"",""time""
""fullscreenenter"",""1"",""2164""
","
","","","","","","","","","","","","","","","","","","","","","","","","","","",""
"pit-instructions","36","438058","0.0-2.0-10.0","battery-v0.2","","""event"",""trial"",""time""
""focus"",""0"",""1""
""fullscreenenter"",""1"",""2164""
","
","""event"",""trial"",""time""
""focus"",""0"",""1""
","""event"",""trial"",""time""
""fullscreenenter"",""1"",""2164""
","
","","[{""page_index"":0,""viewing_time"":8775},{""page_index"":1,""viewing_time"":9284},{""page_index"":2,""viewing_time"":12099},{""page_index"":3,""viewing_time"":11616},{""page_index"":4,""viewing_time"":9267}]","51042","","","","","","","","","","","","","","","","","","","","","","","",""
"pit-trial","37","442920","0.0-2.0-11.0-0.0","battery-v0.2","","""event"",""trial"",""time""
""focus"",""0"",""1""
""fullscreenenter"",""1"",""2164""
","
","""event"",""trial"",""time""
""focus"",""0"",""1""
","""event"",""trial"",""time""
""fullscreenenter"",""1"",""2164""
","
","","","-1","","","23","10168","4870","&#9761;","elianto","#3366ff99","-1","-1","1","+10","[]","0","0","2","","","","","","","",""
"pit-trial","38","447773","0.0-2.0-11.0-1.0","battery-v0.2","","""event"",""trial"",""time""
""focus"",""0"",""1""
""fullscreenenter"",""1"",""2164""
","
","""event"",""trial"",""time""
""focus"",""0"",""1""
","""event"",""trial"",""time""
""fullscreenenter"",""1"",""2164""
","
","","","-1","","","23","10168","4870","&#9761;","elianto","#3366ff99","-1","-1","1","+10","[]","0","0","2","","","","","","","",""
"pit-trial","39","452633","0.0-2.0-11.0-2.0","battery-v0.2","","""event"",""trial"",""time""
""focus"",""0"",""1""
""fullscreenenter"",""1"",""2164""
","
","""event"",""trial"",""time""
""focus"",""0"",""1""
","""event"",""trial"",""time""
""fullscreenenter"",""1"",""2164""
","
","","","-1","","","23","10168","4870","&#9761;","elianto","#3366ff99","-1","-1","1","+10","[]","0","0","2","","","","","","","",""
"pit-trial","40","457491","0.0-2.0-11.0-3.0","battery-v0.2","","""event"",""trial"",""time""
""focus"",""0"",""1""
""fullscreenenter"",""1"",""2164""
","
","""event"",""trial"",""time""
""focus"",""0"",""1""
","""event"",""trial"",""time""
""fullscreenenter"",""1"",""2164""
","
","","","-1","","","23","10168","4870","&#9761;","elianto","#3366ff99","-1","-1","1","0","[]","0","0","2","","","","","","","",""
"pit-trial","41","462350","0.0-2.0-11.0-4.0","battery-v0.2","","""event"",""trial"",""time""
""focus"",""0"",""1""
""fullscreenenter"",""1"",""2164""
","
","""event"",""trial"",""time""
""focus"",""0"",""1""
","""event"",""trial"",""time""
""fullscreenenter"",""1"",""2164""
","
","","","-1","","","23","10168","4870","&#9761;","elianto","#3366ff99","-1","-1","1","+10","[]","0","0","2","","","","","","","",""
"pit-trial","42","467335","0.0-2.0-11.1-0.1","battery-v0.2","","""event"",""trial"",""time""
""focus"",""0"",""1""
""fullscreenenter"",""1"",""2164""
","
","""event"",""trial"",""time""
""focus"",""0"",""1""
","""event"",""trial"",""time""
""fullscreenenter"",""1"",""2164""
","
","","","-1","","","23","10168","4870","&#9761;","elianto","#3366ff99","-1","-1","1","+10","[]","0","0","2","","","","","","","",""
"pit-trial","43","472354","0.0-2.0-11.1-1.1","battery-v0.2","","""event"",""trial"",""time""
""focus"",""0"",""1""
""fullscreenenter"",""1"",""2164""
","
","""event"",""trial"",""time""
""focus"",""0"",""1""
","""event"",""trial"",""time""
""fullscreenenter"",""1"",""2164""
","
","","","-1","","","23","10168","4870","&#9761;","elianto","#3366ff99","-1","-1","1","+10","[]","0","0","2","","","","","","","",""
"pit-trial","44","477207","0.0-2.0-11.1-2.1","battery-v0.2","","""event"",""trial"",""time""
""focus"",""0"",""1""
""fullscreenenter"",""1"",""2164""
","
","""event"",""trial"",""time""
""focus"",""0"",""1""
","""event"",""trial"",""time""
""fullscreenenter"",""1"",""2164""
","
","","","-1","","","23","10168","4870","&#9761;","elianto","#3366ff99","-1","-1","1","+10","[]","0","0","2","","","","","","","",""
"pit-trial","45","482061","0.0-2.0-11.1-3.1","battery-v0.2","","""event"",""trial"",""time""
""focus"",""0"",""1""
""fullscreenenter"",""1"",""2164""
","
","""event"",""trial"",""time""
""focus"",""0"",""1""
","""event"",""trial"",""time""
""fullscreenenter"",""1"",""2164""
","
","","","-1","","","23","10168","4870","&#9761;","elianto","#3366ff99","-1","-1","1","0","[]","0","0","2","","","","","","","",""
"pit-trial","46","486918","0.0-2.0-11.1-4.1","battery-v0.2","","""event"",""trial"",""time""
""focus"",""0"",""1""
""fullscreenenter"",""1"",""2164""
","
","""event"",""trial"",""time""
""focus"",""0"",""1""
","""event"",""trial"",""time""
""fullscreenenter"",""1"",""2164""
","
","","","-1","","","23","10168","4870","&#9761;","elianto","#3366ff99","-1","-1","1","+10","[]","0","0","2","","","","","","","",""
"pit-trial","47","491774","0.0-2.0-11.2-0.2","battery-v0.2","","""event"",""trial"",""time""
""focus"",""0"",""1""
""fullscreenenter"",""1"",""2164""
","
","""event"",""trial"",""time""
""focus"",""0"",""1""
","""event"",""trial"",""time""
""fullscreenenter"",""1"",""2164""
","
","","","-1","","","23","10168","4870","&#9761;","elianto","#3366ff99","-1","-1","1","+10","[]","0","0","2","","","","","","","",""
"pit-trial","48","496632","0.0-2.0-11.2-1.2","battery-v0.2","","""event"",""trial"",""time""
""focus"",""0"",""1""
""fullscreenenter"",""1"",""2164""
","
","""event"",""trial"",""time""
""focus"",""0"",""1""
","""event"",""trial"",""time""
""fullscreenenter"",""1"",""2164""
","
","","","-1","","","23","10168","4870","&#9761;","elianto","#3366ff99","-1","-1","1","+10","[]","0","0","2","","","","","","","",""
"pit-trial","49","501490","0.0-2.0-11.2-2.2","battery-v0.2","","""event"",""trial"",""time""
""focus"",""0"",""1""
""fullscreenenter"",""1"",""2164""
","
","""event"",""trial"",""time""
""focus"",""0"",""1""
","""event"",""trial"",""time""
""fullscreenenter"",""1"",""2164""
","
","","","-1","","","23","10168","4870","&#9761;","elianto","#3366ff99","-1","-1","1","+10","[]","0","0","2","","","","","","","",""
"pit-trial","50","506343","0.0-2.0-11.2-3.2","battery-v0.2","","""event"",""trial"",""time""
""focus"",""0"",""1""
""fullscreenenter"",""1"",""2164""
","
","""event"",""trial"",""time""
""focus"",""0"",""1""
","""event"",""trial"",""time""
""fullscreenenter"",""1"",""2164""
","
","","","-1","","","23","10168","4870","&#9761;","elianto","#3366ff99","-1","-1","1","0","[]","0","0","2","","","","","","","",""
"pit-trial","51","511198","0.0-2.0-11.2-4.2","battery-v0.2","","""event"",""trial"",""time""
""focus"",""0"",""1""
""fullscreenenter"",""1"",""2164""
","
","""event"",""trial"",""time""
""focus"",""0"",""1""
","""event"",""trial"",""time""
""fullscreenenter"",""1"",""2164""
","
","","","-1","","","23","10168","4870","&#9761;","elianto","#3366ff99","-1","-1","1","+10","[]","0","0","2","","","","","","","",""
"pit-trial","52","516053","0.0-2.0-11.3-0.3","battery-v0.2","","""event"",""trial"",""time""
""focus"",""0"",""1""
""fullscreenenter"",""1"",""2164""
","
","""event"",""trial"",""time""
""focus"",""0"",""1""
","""event"",""trial"",""time""
""fullscreenenter"",""1"",""2164""
","
","","","-1","","","23","10168","4870","&#9761;","elianto","#3366ff99","-1","-1","1","+10","[]","0","0","2","","","","","","","",""
"pit-trial","53","520908","0.0-2.0-11.3-1.3","battery-v0.2","","""event"",""trial"",""time""
""focus"",""0"",""1""
""fullscreenenter"",""1"",""2164""
","
","""event"",""trial"",""time""
""focus"",""0"",""1""
","""event"",""trial"",""time""
""fullscreenenter"",""1"",""2164""
","
","","","-1","","","23","10168","4870","&#9761;","elianto","#3366ff99","-1","-1","1","+10","[]","0","0","2","","","","","","","",""
"pit-trial","54","525764","0.0-2.0-11.3-2.3","battery-v0.2","","""event"",""trial"",""time""
""focus"",""0"",""1""
""fullscreenenter"",""1"",""2164""
","
","""event"",""trial"",""time""
""focus"",""0"",""1""
","""event"",""trial"",""time""
""fullscreenenter"",""1"",""2164""
","
","","","-1","","","23","10168","4870","&#9761;","elianto","#3366ff99","-1","-1","1","+10","[]","0","0","2","","","","","","","",""
"pit-trial","55","530618","0.0-2.0-11.3-3.3","battery-v0.2","","""event"",""trial"",""time""
""focus"",""0"",""1""
""fullscreenenter"",""1"",""2164""
","
","""event"",""trial"",""time""
""focus"",""0"",""1""
","""event"",""trial"",""time""
""fullscreenenter"",""1"",""2164""
","
","","","-1","","","23","10168","4870","&#9761;","elianto","#3366ff99","-1","-1","1","0","[]","0","0","2","","","","","","","",""
"pit-trial","56","535479","0.0-2.0-11.3-4.3","battery-v0.2","","""event"",""trial"",""time""
""focus"",""0"",""1""
""fullscreenenter"",""1"",""2164""
","
","""event"",""trial"",""time""
""focus"",""0"",""1""
","""event"",""trial"",""time""
""fullscreenenter"",""1"",""2164""
","
","","","-1","","","23","10168","4870","&#9761;","elianto","#3366ff99","-1","-1","1","+10","[]","0","0","2","","","","","","","",""
"call-function","57","535480","0.0-2.0-12.0","battery-v0.2","","""event"",""trial"",""time""
""focus"",""0"",""1""
""fullscreenenter"",""1"",""2164""
","
","""event"",""trial"",""time""
""focus"",""0"",""1""
","""event"",""trial"",""time""
""fullscreenenter"",""1"",""2164""
","
","","","","","","","","","","","","","","","","","","","","","","","","","","",""
"pit-instructions","58","577721","0.0-2.0-13.0","battery-v0.2","","""event"",""trial"",""time""
""focus"",""0"",""1""
""fullscreenenter"",""1"",""2164""
","
","""event"",""trial"",""time""
""focus"",""0"",""1""
","""event"",""trial"",""time""
""fullscreenenter"",""1"",""2164""
","
","","[{""page_index"":0,""viewing_time"":6243},{""page_index"":1,""viewing_time"":9663},{""page_index"":2,""viewing_time"":4702},{""page_index"":3,""viewing_time"":15513},{""page_index"":4,""viewing_time"":6068}]","42189","","","","","","","","","","","","","","","","","","","","","","","",""
"pit-trial","59","581968","0.0-2.0-14.0-0.0","battery-v0.2","","""event"",""trial"",""time""
""focus"",""0"",""1""
""fullscreenenter"",""1"",""2164""
","
","""event"",""trial"",""time""
""focus"",""0"",""1""
","""event"",""trial"",""time""
""fullscreenenter"",""1"",""2164""
","
","","","1388","","","23","10168","4870","&#9826;","elianto","#f73b6a7A","-1"," ","0","-10","[2242]","1","0","3","","","","","","","",""
"pit-trial","60","586827","0.0-2.0-14.0-1.0","battery-v0.2","","""event"",""trial"",""time""
""focus"",""0"",""1""
""fullscreenenter"",""1"",""2164""
","
","""event"",""trial"",""time""
""focus"",""0"",""1""
","""event"",""trial"",""time""
""fullscreenenter"",""1"",""2164""
","
","","","-1","","","23","10168","4870","&#9826;","elianto","#f73b6a7A","-1","-1","1","0","[]","0","0","3","","","","","","","",""
"pit-trial","61","591687","0.0-2.0-14.0-2.0","battery-v0.2","","""event"",""trial"",""time""
""focus"",""0"",""1""
""fullscreenenter"",""1"",""2164""
","
","""event"",""trial"",""time""
""focus"",""0"",""1""
","""event"",""trial"",""time""
""fullscreenenter"",""1"",""2164""
","
","","","-1","","","23","10168","4870","&#9826;","elianto","#f73b6a7A","-1","-1","1","0","[]","0","0","3","","","","","","","",""
"pit-trial","62","596544","0.0-2.0-14.0-3.0","battery-v0.2","","""event"",""trial"",""time""
""focus"",""0"",""1""
""fullscreenenter"",""1"",""2164""
","
","""event"",""trial"",""time""
""focus"",""0"",""1""
","""event"",""trial"",""time""
""fullscreenenter"",""1"",""2164""
","
","","","-1","","","23","10168","4870","&#9826;","elianto","#f73b6a7A","-1","-1","1","-10","[]","0","0","3","","","","","","","",""
"pit-trial","63","601401","0.0-2.0-14.0-4.0","battery-v0.2","","""event"",""trial"",""time""
""focus"",""0"",""1""
""fullscreenenter"",""1"",""2164""
","
","""event"",""trial"",""time""
""focus"",""0"",""1""
","""event"",""trial"",""time""
""fullscreenenter"",""1"",""2164""
","
","","","-1","","","23","10168","4870","&#9826;","elianto","#f73b6a7A","-1","-1","1","0","[]","0","0","3","","","","","","","",""
"pit-trial","64","606261","0.0-2.0-14.1-0.1","battery-v0.2","","""event"",""trial"",""time""
""focus"",""0"",""1""
""fullscreenenter"",""1"",""2164""
","
","""event"",""trial"",""time""
""focus"",""0"",""1""
","""event"",""trial"",""time""
""fullscreenenter"",""1"",""2164""
","
","","","-1","","","23","10168","4870","&#9826;","elianto","#f73b6a7A","-1","-1","1","0","[]","0","0","3","","","","","","","",""
"pit-trial","65","611120","0.0-2.0-14.1-1.1","battery-v0.2","","""event"",""trial"",""time""
""focus"",""0"",""1""
""fullscreenenter"",""1"",""2164""
","
","""event"",""trial"",""time""
""focus"",""0"",""1""
","""event"",""trial"",""time""
""fullscreenenter"",""1"",""2164""
","
","","","-1","","","23","10168","4870","&#9826;","elianto","#f73b6a7A","-1","-1","1","0","[]","0","0","3","","","","","","","",""
"pit-trial","66","615978","0.0-2.0-14.1-2.1","battery-v0.2","","""event"",""trial"",""time""
""focus"",""0"",""1""
""fullscreenenter"",""1"",""2164""
","
","""event"",""trial"",""time""
""focus"",""0"",""1""
","""event"",""trial"",""time""
""fullscreenenter"",""1"",""2164""
","
","","","-1","","","23","10168","4870","&#9826;","elianto","#f73b6a7A","-1","-1","1","0","[]","0","0","3","","","","","","","",""
"pit-trial","67","620838","0.0-2.0-14.1-3.1","battery-v0.2","","""event"",""trial"",""time""
""focus"",""0"",""1""
""fullscreenenter"",""1"",""2164""
","
","""event"",""trial"",""time""
""focus"",""0"",""1""
","""event"",""trial"",""time""
""fullscreenenter"",""1"",""2164""
","
","","","-1","","","23","10168","4870","&#9826;","elianto","#f73b6a7A","-1","-1","1","-10","[]","0","0","3","","","","","","","",""
"pit-trial","68","625696","0.0-2.0-14.1-4.1","battery-v0.2","","""event"",""trial"",""time""
""focus"",""0"",""1""
""fullscreenenter"",""1"",""2164""
","
","""event"",""trial"",""time""
""focus"",""0"",""1""
","""event"",""trial"",""time""
""fullscreenenter"",""1"",""2164""
","
","","","-1","","","23","10168","4870","&#9826;","elianto","#f73b6a7A","-1","-1","1","0","[]","0","0","3","","","","","","","",""
"pit-trial","69","630553","0.0-2.0-14.2-0.2","battery-v0.2","","""event"",""trial"",""time""
""focus"",""0"",""1""
""fullscreenenter"",""1"",""2164""
","
","""event"",""trial"",""time""
""focus"",""0"",""1""
","""event"",""trial"",""time""
""fullscreenenter"",""1"",""2164""
","
","","","-1","","","23","10168","4870","&#9826;","elianto","#f73b6a7A","-1","-1","1","0","[]","0","0","3","","","","","","","",""
"pit-trial","70","635411","0.0-2.0-14.2-1.2","battery-v0.2","","""event"",""trial"",""time""
""focus"",""0"",""1""
""fullscreenenter"",""1"",""2164""
","
","""event"",""trial"",""time""
""focus"",""0"",""1""
","""event"",""trial"",""time""
""fullscreenenter"",""1"",""2164""
","
","","","-1","","","23","10168","4870","&#9826;","elianto","#f73b6a7A","-1","-1","1","0","[]","0","0","3","","","","","","","",""
"pit-trial","71","640267","0.0-2.0-14.2-2.2","battery-v0.2","","""event"",""trial"",""time""
""focus"",""0"",""1""
""fullscreenenter"",""1"",""2164""
","
","""event"",""trial"",""time""
""focus"",""0"",""1""
","""event"",""trial"",""time""
""fullscreenenter"",""1"",""2164""
","
","","","-1","","","23","10168","4870","&#9826;","elianto","#f73b6a7A","-1","-1","1","0","[]","0","0","3","","","","","","","",""
"pit-trial","72","645122","0.0-2.0-14.2-3.2","battery-v0.2","","""event"",""trial"",""time""
""focus"",""0"",""1""
""fullscreenenter"",""1"",""2164""
","
","""event"",""trial"",""time""
""focus"",""0"",""1""
","""event"",""trial"",""time""
""fullscreenenter"",""1"",""2164""
","
","","","-1","","","23","10168","4870","&#9826;","elianto","#f73b6a7A","-1","-1","1","-10","[]","0","0","3","","","","","","","",""
"pit-trial","73","649979","0.0-2.0-14.2-4.2","battery-v0.2","","""event"",""trial"",""time""
""focus"",""0"",""1""
""fullscreenenter"",""1"",""2164""
","
","""event"",""trial"",""time""
""focus"",""0"",""1""
","""event"",""trial"",""time""
""fullscreenenter"",""1"",""2164""
","
","","","-1","","","23","10168","4870","&#9826;","elianto","#f73b6a7A","-1","-1","1","0","[]","0","0","3","","","","","","","",""
"pit-trial","74","654839","0.0-2.0-14.3-0.3","battery-v0.2","","""event"",""trial"",""time""
""focus"",""0"",""1""
""fullscreenenter"",""1"",""2164""
","
","""event"",""trial"",""time""
""focus"",""0"",""1""
","""event"",""trial"",""time""
""fullscreenenter"",""1"",""2164""
","
","","","-1","","","23","10168","4870","&#9826;","elianto","#f73b6a7A","-1","-1","1","0","[]","0","0","3","","","","","","","",""
"pit-trial","75","659697","0.0-2.0-14.3-1.3","battery-v0.2","","""event"",""trial"",""time""
""focus"",""0"",""1""
""fullscreenenter"",""1"",""2164""
","
","""event"",""trial"",""time""
""focus"",""0"",""1""
","""event"",""trial"",""time""
""fullscreenenter"",""1"",""2164""
","
","","","-1","","","23","10168","4870","&#9826;","elianto","#f73b6a7A","-1","-1","1","0","[]","0","0","3","","","","","","","",""
"pit-trial","76","664552","0.0-2.0-14.3-2.3","battery-v0.2","","""event"",""trial"",""time""
""focus"",""0"",""1""
""fullscreenenter"",""1"",""2164""
","
","""event"",""trial"",""time""
""focus"",""0"",""1""
","""event"",""trial"",""time""
""fullscreenenter"",""1"",""2164""
","
","","","-1","","","23","10168","4870","&#9826;","elianto","#f73b6a7A","-1","-1","1","0","[]","0","0","3","","","","","","","",""
"pit-trial","77","669407","0.0-2.0-14.3-3.3","battery-v0.2","","""event"",""trial"",""time""
""focus"",""0"",""1""
""fullscreenenter"",""1"",""2164""
","
","""event"",""trial"",""time""
""focus"",""0"",""1""
","""event"",""trial"",""time""
""fullscreenenter"",""1"",""2164""
","
","","","-1","","","23","10168","4870","&#9826;","elianto","#f73b6a7A","-1","-1","1","-10","[]","0","0","3","","","","","","","",""
"pit-trial","78","674267","0.0-2.0-14.3-4.3","battery-v0.2","","""event"",""trial"",""time""
""focus"",""0"",""1""
""fullscreenenter"",""1"",""2164""
","
","""event"",""trial"",""time""
""focus"",""0"",""1""
","""event"",""trial"",""time""
""fullscreenenter"",""1"",""2164""
","
","","","-1","","","23","10168","4870","&#9826;","elianto","#f73b6a7A","-1","-1","1","0","[]","0","0","3","","","","","","","",""
"call-function","79","674268","0.0-2.0-15.0","battery-v0.2","","""event"",""trial"",""time""
""focus"",""0"",""1""
""fullscreenenter"",""1"",""2164""
","
","""event"",""trial"",""time""
""focus"",""0"",""1""
","""event"",""trial"",""time""
""fullscreenenter"",""1"",""2164""
","
","","","","","","","","","","","","","","","","","","","","","","","","","","",""
"pit-instructions","80","708603","0.0-2.0-16.0","battery-v0.2","","""event"",""trial"",""time""
""focus"",""0"",""1""
""fullscreenenter"",""1"",""2164""
","
","""event"",""trial"",""time""
""focus"",""0"",""1""
","""event"",""trial"",""time""
""fullscreenenter"",""1"",""2164""
","
","","[{""page_index"":0,""viewing_time"":12633},{""page_index"":1,""viewing_time"":10951},{""page_index"":2,""viewing_time"":5785},{""page_index"":3,""viewing_time"":4967}]","34336","","","","","","","","","","","","","","","","","","","","","","","",""
"pit-trial","81","711613","0.0-2.0-17.0-0.0","battery-v0.2","","""event"",""trial"",""time""
""focus"",""0"",""1""
""fullscreenenter"",""1"",""2164""
","
","""event"",""trial"",""time""
""focus"",""0"",""1""
","""event"",""trial"",""time""
""fullscreenenter"",""1"",""2164""
","
","","","151","","","23","10168","4870","&#9789;","elianto","#f73b6a7A"," "," ","1","0","[1006]","1","0","4","","","","","","","",""
"pit-trial","82","714688","0.0-2.0-17.0-1.0","battery-v0.2","","""event"",""trial"",""time""
""focus"",""0"",""1""
""fullscreenenter"",""1"",""2164""
","
","""event"",""trial"",""time""
""focus"",""0"",""1""
","""event"",""trial"",""time""
""fullscreenenter"",""1"",""2164""
","
","","","91","","","23","10168","4870","&#9789;","elianto","#f73b6a7A"," "," ","1","0","[943]","1","0","4","","","","","","","",""
"pit-trial","83","717872","0.0-2.0-17.0-2.0","battery-v0.2","","""event"",""trial"",""time""
""focus"",""0"",""1""
""fullscreenenter"",""1"",""2164""
","
","""event"",""trial"",""time""
""focus"",""0"",""1""
","""event"",""trial"",""time""
""fullscreenenter"",""1"",""2164""
","
","","","149","","","23","10168","4870","&#9789;","elianto","#f73b6a7A"," "," ","1","0","[1004]","1","0","4","","","","","","","",""
"pit-trial","84","720974","0.0-2.0-17.0-3.0","battery-v0.2","","""event"",""trial"",""time""
""focus"",""0"",""1""
""fullscreenenter"",""1"",""2164""
","
","""event"",""trial"",""time""
""focus"",""0"",""1""
","""event"",""trial"",""time""
""fullscreenenter"",""1"",""2164""
","
","","","107","","","23","10168","4870","&#9789;","elianto","#f73b6a7A"," "," ","1","-10","[962]","1","0","4","","","","","","","",""
"pit-trial","85","723972","0.0-2.0-17.0-4.0","battery-v0.2","","""event"",""trial"",""time""
""focus"",""0"",""1""
""fullscreenenter"",""1"",""2164""
","
","""event"",""trial"",""time""
""focus"",""0"",""1""
","""event"",""trial"",""time""
""fullscreenenter"",""1"",""2164""
","
","","","140","","","23","10168","4870","&#9789;","elianto","#f73b6a7A"," "," ","1","0","[994]","1","0","4","","","","","","","",""
"pit-trial","86","727027","0.0-2.0-17.1-0.1","battery-v0.2","","""event"",""trial"",""time""
""focus"",""0"",""1""
""fullscreenenter"",""1"",""2164""
","
","""event"",""trial"",""time""
""focus"",""0"",""1""
","""event"",""trial"",""time""
""fullscreenenter"",""1"",""2164""
","
","","","199","","","23","10168","4870","&#9789;","elianto","#f73b6a7A"," "," ","1","0","[1053]","1","0","4","","","","","","","",""
"pit-trial","87","729986","0.0-2.0-17.1-1.1","battery-v0.2","","""event"",""trial"",""time""
""focus"",""0"",""1""
""fullscreenenter"",""1"",""2164""
","
","""event"",""trial"",""time""
""focus"",""0"",""1""
","""event"",""trial"",""time""
""fullscreenenter"",""1"",""2164""
","
","","","104","","","23","10168","4870","&#9789;","elianto","#f73b6a7A"," "," ","1","0","[954]","1","0","4","","","","","","","",""
"pit-trial","88","733085","0.0-2.0-17.1-2.1","battery-v0.2","","""event"",""trial"",""time""
""focus"",""0"",""1""
""fullscreenenter"",""1"",""2164""
","
","""event"",""trial"",""time""
""focus"",""0"",""1""
","""event"",""trial"",""time""
""fullscreenenter"",""1"",""2164""
","
","","","127","","","23","10168","4870","&#9789;","elianto","#f73b6a7A"," "," ","1","0","[979]","1","0","4","","","","","","","",""
"pit-trial","89","736037","0.0-2.0-17.1-3.1","battery-v0.2","","""event"",""trial"",""time""
""focus"",""0"",""1""
""fullscreenenter"",""1"",""2164""
","
","""event"",""trial"",""time""
""focus"",""0"",""1""
","""event"",""trial"",""time""
""fullscreenenter"",""1"",""2164""
","
","","","93","","","23","10168","4870","&#9789;","elianto","#f73b6a7A"," "," ","1","-10","[945]","1","0","4","","","","","","","",""
"pit-trial","90","739018","0.0-2.0-17.1-4.1","battery-v0.2","","""event"",""trial"",""time""
""focus"",""0"",""1""
""fullscreenenter"",""1"",""2164""
","
","""event"",""trial"",""time""
""focus"",""0"",""1""
","""event"",""trial"",""time""
""fullscreenenter"",""1"",""2164""
","
","","","124","","","23","10168","4870","&#9789;","elianto","#f73b6a7A"," "," ","1","0","[979]","1","0","4","","","","","","","",""
"pit-trial","91","742003","0.0-2.0-17.2-0.2","battery-v0.2","","""event"",""trial"",""time""
""focus"",""0"",""1""
""fullscreenenter"",""1"",""2164""
","
","""event"",""trial"",""time""
""focus"",""0"",""1""
","""event"",""trial"",""time""
""fullscreenenter"",""1"",""2164""
","
","","","129","","","23","10168","4870","&#9789;","elianto","#f73b6a7A"," "," ","1","0","[980]","1","0","4","","","","","","","",""
"pit-trial","92","744939","0.0-2.0-17.2-1.2","battery-v0.2","","""event"",""trial"",""time""
""focus"",""0"",""1""
""fullscreenenter"",""1"",""2164""
","
","""event"",""trial"",""time""
""focus"",""0"",""1""
","""event"",""trial"",""time""
""fullscreenenter"",""1"",""2164""
","
","","","78","","","23","10168","4870","&#9789;","elianto","#f73b6a7A"," "," ","1","0","[932]","1","0","4","","","","","","","",""
"pit-trial","93","747938","0.0-2.0-17.2-2.2","battery-v0.2","","""event"",""trial"",""time""
""focus"",""0"",""1""
""fullscreenenter"",""1"",""2164""
","
","""event"",""trial"",""time""
""focus"",""0"",""1""
","""event"",""trial"",""time""
""fullscreenenter"",""1"",""2164""
","
","","","139","","","23","10168","4870","&#9789;","elianto","#f73b6a7A"," "," ","1","0","[993]","1","0","4","","","","","","","",""
"pit-trial","94","751404","0.0-2.0-17.2-3.2","battery-v0.2","","""event"",""trial"",""time""
""focus"",""0"",""1""
""fullscreenenter"",""1"",""2164""
","
","""event"",""trial"",""time""
""focus"",""0"",""1""
","""event"",""trial"",""time""
""fullscreenenter"",""1"",""2164""
","
","","","502","","","23","10168","4870","&#9789;","elianto","#f73b6a7A"," "," ","1","-10","[842,1356,2671]","3","0","4","","","","","","","",""
"pit-trial","95","754488","0.0-2.0-17.2-4.2","battery-v0.2","","""event"",""trial"",""time""
""focus"",""0"",""1""
""fullscreenenter"",""1"",""2164""
","
","""event"",""trial"",""time""
""focus"",""0"",""1""
","""event"",""trial"",""time""
""fullscreenenter"",""1"",""2164""
","
","","","229","","","23","10168","4870","&#9789;","elianto","#f73b6a7A"," "," ","1","0","[1080]","1","0","4","","","","","","","",""
"pit-trial","96","757414","0.0-2.0-17.3-0.3","battery-v0.2","","""event"",""trial"",""time""
""focus"",""0"",""1""
""fullscreenenter"",""1"",""2164""
","
","""event"",""trial"",""time""
""focus"",""0"",""1""
","""event"",""trial"",""time""
""fullscreenenter"",""1"",""2164""
","
","","","66","","","23","10168","4870","&#9789;","elianto","#f73b6a7A"," "," ","1","0","[918]","1","0","4","","","","","","","",""
"pit-trial","97","760383","0.0-2.0-17.3-1.3","battery-v0.2","","""event"",""trial"",""time""
""focus"",""0"",""1""
""fullscreenenter"",""1"",""2164""
","
","""event"",""trial"",""time""
""focus"",""0"",""1""
","""event"",""trial"",""time""
""fullscreenenter"",""1"",""2164""
","
","","","114","","","23","10168","4870","&#9789;","elianto","#f73b6a7A"," "," ","1","0","[966]","1","0","4","","","","","","","",""
"pit-trial","98","763243","0.0-2.0-17.3-2.3","battery-v0.2","","""event"",""trial"",""time""
""focus"",""0"",""1""
""fullscreenenter"",""1"",""2164""
","
","""event"",""trial"",""time""
""focus"",""0"",""1""
","""event"",""trial"",""time""
""fullscreenenter"",""1"",""2164""
","
","","","6","","","23","10168","4870","&#9789;","elianto","#f73b6a7A"," "," ","1","0","[859]","1","0","4","","","","","","","",""
"pit-trial","99","766270","0.0-2.0-17.3-3.3","battery-v0.2","","""event"",""trial"",""time""
""focus"",""0"",""1""
""fullscreenenter"",""1"",""2164""
","
","""event"",""trial"",""time""
""focus"",""0"",""1""
","""event"",""trial"",""time""
""fullscreenenter"",""1"",""2164""
","
","","","165","","","23","10168","4870","&#9789;","elianto","#f73b6a7A"," "," ","1","-10","[1020]","1","0","4","","","","","","","",""
"pit-trial","100","769160","0.0-2.0-17.3-4.3","battery-v0.2","","""event"",""trial"",""time""
""focus"",""0"",""1""
""fullscreenenter"",""1"",""2164""
","
","""event"",""trial"",""time""
""focus"",""0"",""1""
","""event"",""trial"",""time""
""fullscreenenter"",""1"",""2164""
","
","","","28","","","23","10168","4870","&#9789;","elianto","#f73b6a7A"," "," ","1","0","[884,1329]","2","0","4","","","","","","","",""
"call-function","101","769161","0.0-2.0-18.0","battery-v0.2","","""event"",""trial"",""time""
""focus"",""0"",""1""
""fullscreenenter"",""1"",""2164""
","
","""event"",""trial"",""time""
""focus"",""0"",""1""
","""event"",""trial"",""time""
""fullscreenenter"",""1"",""2164""
","
","","","","","","","","","","","","","","","","","","","","","","","","","","",""
"pit-instructions","102","844796","0.0-2.0-19.0","battery-v0.2","","""event"",""trial"",""time""
""focus"",""0"",""1""
""fullscreenenter"",""1"",""2164""
","
","""event"",""trial"",""time""
""focus"",""0"",""1""
","""event"",""trial"",""time""
""fullscreenenter"",""1"",""2164""
","
","","[{""page_index"":0,""viewing_time"":6956},{""page_index"":1,""viewing_time"":7196},{""page_index"":2,""viewing_time"":10751},{""page_index"":3,""viewing_time"":8532},{""page_index"":4,""viewing_time"":10185},{""page_index"":5,""viewing_time"":8166},{""page_index"":6,""viewing_time"":10835},{""page_index"":7,""viewing_time"":9364},{""page_index"":8,""viewing_time"":3650}]","75635","","","","","","","","","","","","","","","","","","","","","","","",""
"pit-comprehension","103","849580","0.0-2.0-20.0-0.0","battery-v0.2","","""event"",""trial"",""time""
""focus"",""0"",""1""
""fullscreenenter"",""1"",""2164""
","
","""event"",""trial"",""time""
""focus"",""0"",""1""
","""event"",""trial"",""time""
""fullscreenenter"",""1"",""2164""
","
","","","4781","[""SPACE""]","0","23","10168","4870","","","","","","","","","","","","","","","","","","",""
"pit-instructions","104","852796","0.0-2.0-20.0-1.0","battery-v0.2","","""event"",""trial"",""time""
""focus"",""0"",""1""
""fullscreenenter"",""1"",""2164""
","
","""event"",""trial"",""time""
""focus"",""0"",""1""
","""event"",""trial"",""time""
""fullscreenenter"",""1"",""2164""
","
","","[{""page_index"":0,""viewing_time"":3181}]","3181","","","","","","","","","","","","","","","","","","","","","","","",""
"pit-comprehension","105","857513","0.0-2.0-21.0-0.0","battery-v0.2","","""event"",""trial"",""time""
""focus"",""0"",""1""
""fullscreenenter"",""1"",""2164""
","
","""event"",""trial"",""time""
""focus"",""0"",""1""
","""event"",""trial"",""time""
""fullscreenenter"",""1"",""2164""
","
","","","4714","[""10""]","0","23","10168","4870","","","","","","","","","","","","","","","","","","",""
"pit-instructions","106","859496","0.0-2.0-21.0-1.0","battery-v0.2","","""event"",""trial"",""time""
""focus"",""0"",""1""
""fullscreenenter"",""1"",""2164""
","
","""event"",""trial"",""time""
""focus"",""0"",""1""
","""event"",""trial"",""time""
""fullscreenenter"",""1"",""2164""
","
","","[{""page_index"":0,""viewing_time"":1947}]","1948","","","","","","","","","","","","","","","","","","","","","","","",""
"pit-comprehension","107","867267","0.0-2.0-22.0-0.0","battery-v0.2","","""event"",""trial"",""time""
""focus"",""0"",""1""
""fullscreenenter"",""1"",""2164""
","
","""event"",""trial"",""time""
""focus"",""0"",""1""
","""event"",""trial"",""time""
""fullscreenenter"",""1"",""2164""
","
","","","7768","[""0""]","0","23","10168","4870","","","","","","","","","","","","","","","","","","",""
"pit-instructions","108","869445","0.0-2.0-22.0-1.0","battery-v0.2","","""event"",""trial"",""time""
""focus"",""0"",""1""
""fullscreenenter"",""1"",""2164""
","
","""event"",""trial"",""time""
""focus"",""0"",""1""
","""event"",""trial"",""time""
""fullscreenenter"",""1"",""2164""
","
","","[{""page_index"":0,""viewing_time"":2143}]","2144","","","","","","","","","","","","","","","","","","","","","","","",""
"pit-comprehension","109","878245","0.0-2.0-23.0-0.0","battery-v0.2","","""event"",""trial"",""time""
""focus"",""0"",""1""
""fullscreenenter"",""1"",""2164""
","
","""event"",""trial"",""time""
""focus"",""0"",""1""
","""event"",""trial"",""time""
""fullscreenenter"",""1"",""2164""
","
","","","8797","[""True""]","0","23","10168","4870","","","","","","","","","","","","","","","","","","",""
"pit-instructions","110","881781","0.0-2.0-23.0-1.0","battery-v0.2","","""event"",""trial"",""time""
""focus"",""0"",""1""
""fullscreenenter"",""1"",""2164""
","
","""event"",""trial"",""time""
""focus"",""0"",""1""
","""event"",""trial"",""time""
""fullscreenenter"",""1"",""2164""
","
","","[{""page_index"":0,""viewing_time"":3500}]","3501","","","","","","","","","","","","","","","","","","","","","","","",""
"pit-comprehension","111","889378","0.0-2.0-24.0-0.0","battery-v0.2","","""event"",""trial"",""time""
""focus"",""0"",""1""
""fullscreenenter"",""1"",""2164""
","
","""event"",""trial"",""time""
""focus"",""0"",""1""
","""event"",""trial"",""time""
""fullscreenenter"",""1"",""2164""
","
","","","7594","[""True""]","0","23","10168","4870","","","","","","","","","","","","","","","","","","",""
"pit-instructions","112","890994","0.0-2.0-24.0-1.0","battery-v0.2","","""event"",""trial"",""time""
""focus"",""0"",""1""
""fullscreenenter"",""1"",""2164""
","
","""event"",""trial"",""time""
""focus"",""0"",""1""
","""event"",""trial"",""time""
""fullscreenenter"",""1"",""2164""
","
","","[{""page_index"":0,""viewing_time"":1579}]","1579","","","","","","","","","","","","","","","","","","","","","","","",""
"pit-comprehension","113","897912","0.0-2.0-25.0-0.0","battery-v0.2","","""event"",""trial"",""time""
""focus"",""0"",""1""
""fullscreenenter"",""1"",""2164""
","
","""event"",""trial"",""time""
""focus"",""0"",""1""
","""event"",""trial"",""time""
""fullscreenenter"",""1"",""2164""
","
","","","6914","[""True""]","0","23","10168","4870","","","","","","","","","","","","","","","","","","",""
"pit-instructions","114","899545","0.0-2.0-25.0-1.0","battery-v0.2","","""event"",""trial"",""time""
""focus"",""0"",""1""
""fullscreenenter"",""1"",""2164""
","
","""event"",""trial"",""time""
""focus"",""0"",""1""
","""event"",""trial"",""time""
""fullscreenenter"",""1"",""2164""
","
","","[{""page_index"":0,""viewing_time"":1596}]","1596","","","","","","","","","","","","","","","","","","","","","","","",""
"pit-comprehension","115","906095","0.0-2.0-26.0-0.0","battery-v0.2","","""event"",""trial"",""time""
""focus"",""0"",""1""
""fullscreenenter"",""1"",""2164""
","
","""event"",""trial"",""time""
""focus"",""0"",""1""
","""event"",""trial"",""time""
""fullscreenenter"",""1"",""2164""
","
","","","6546","[""False""]","0","23","10168","4870","","","","","","","","","","","","","","","","","","",""
"pit-instructions","116","908944","0.0-2.0-26.0-1.0","battery-v0.2","","""event"",""trial"",""time""
""focus"",""0"",""1""
""fullscreenenter"",""1"",""2164""
","
","""event"",""trial"",""time""
""focus"",""0"",""1""
","""event"",""trial"",""time""
""fullscreenenter"",""1"",""2164""
","
","","[{""page_index"":0,""viewing_time"":2813}]","2813","","","","","","","","","","","","","","","","","","","","","","","",""
"pit-instructions","117","933080","0.0-3.0","battery-v0.2","","""event"",""trial"",""time""
""focus"",""0"",""1""
""fullscreenenter"",""1"",""2164""
","
","""event"",""trial"",""time""
""focus"",""0"",""1""
","""event"",""trial"",""time""
""fullscreenenter"",""1"",""2164""
","
","","[{""page_index"":0,""viewing_time"":4349},{""page_index"":1,""viewing_time"":7016},{""page_index"":2,""viewing_time"":12769}]","24134","","","","","","","","","","","","","","","","","","","","","","","",""
"pit-trial","118","936333","0.0-4.0","battery-v0.2","","""event"",""trial"",""time""
""focus"",""0"",""1""
""fullscreenenter"",""1"",""2164""
","
","""event"",""trial"",""time""
""focus"",""0"",""1""
","""event"",""trial"",""time""
""fullscreenenter"",""1"",""2164""
","
","","","393","","","23","10168","4870","&#9752;","elianto","#f73b6a7A"," "," ","1","0","[1248]","1","1","","","10168","1","3","3","lose","go","0"
"pit-trial","119","939607","0.0-5.0","battery-v0.2","","""event"",""trial"",""time""
""focus"",""0"",""1""
""fullscreenenter"",""1"",""2164""
","
","""event"",""trial"",""time""
""focus"",""0"",""1""
","""event"",""trial"",""time""
""fullscreenenter"",""1"",""2164""
","
","","","417","","","23","10168","4870","&#9733;","elianto","#3366ff99","-1"," ","0","0","[1271]","1","1","","","10168","2","2","2","win","no-go","0"
"pit-trial","120","943088","0.0-6.0","battery-v0.2","","""event"",""trial"",""time""
""focus"",""0"",""1""
""fullscreenenter"",""1"",""2164""
","
","""event"",""trial"",""time""
""focus"",""0"",""1""
","""event"",""trial"",""time""
""fullscreenenter"",""1"",""2164""
","
","","","511","","","23","10168","4870","&#9728;","elianto","#f73b6a7A","-1"," ","0","-10","[1363]","1","1","","","10168","3","0","4","lose","no-go","0"
"pit-trial","121","946880","0.0-7.0","battery-v0.2","","""event"",""trial"",""time""
""focus"",""0"",""1""
""fullscreenenter"",""1"",""2164""
","
","""event"",""trial"",""time""
""focus"",""0"",""1""
","""event"",""trial"",""time""
""fullscreenenter"",""1"",""2164""
","
","","","934","","","23","10168","4870","&#9730;","elianto","#3366ff99"," "," ","1","+10","[1786]","1","1","","","10168","4","1","1","win","go","0"
"pit-trial","122","950323","0.0-8.0","battery-v0.2","","""event"",""trial"",""time""
""focus"",""0"",""1""
""fullscreenenter"",""1"",""2164""
","
","""event"",""trial"",""time""
""focus"",""0"",""1""
","""event"",""trial"",""time""
""fullscreenenter"",""1"",""2164""
","
","","","586","","","23","10168","4870","&#9752;","elianto","#f73b6a7A"," "," ","1","0","[1440]","1","1","","","10168","5","3","3","lose","go","0"
"pit-trial","123","955179","0.0-9.0","battery-v0.2","","""event"",""trial"",""time""
""focus"",""0"",""1""
""fullscreenenter"",""1"",""2164""
","
","""event"",""trial"",""time""
""focus"",""0"",""1""
","""event"",""trial"",""time""
""fullscreenenter"",""1"",""2164""
","
","","","-1","","","23","10168","4870","&#9733;","elianto","#3366ff99","-1","-1","1","0","[]","0","1","","","10168","6","2","2","win","no-go","1"
"pit-trial","124","960096","0.0-10.0","battery-v0.2","","""event"",""trial"",""time""
""focus"",""0"",""1""
""fullscreenenter"",""1"",""2164""
","
","""event"",""trial"",""time""
""focus"",""0"",""1""
","""event"",""trial"",""time""
""fullscreenenter"",""1"",""2164""
","
","","","-1","","","23","10168","4870","&#9728;","elianto","#f73b6a7A","-1","-1","1","0","[]","0","1","","","10168","7","0","4","lose","no-go","0"
"pit-trial","125","963359","0.0-11.0","battery-v0.2","","""event"",""trial"",""time""
""focus"",""0"",""1""
""fullscreenenter"",""1"",""2164""
","
","""event"",""trial"",""time""
""focus"",""0"",""1""
","""event"",""trial"",""time""
""fullscreenenter"",""1"",""2164""
","
","","","410","","","23","10168","4870","&#9730;","elianto","#3366ff99"," "," ","1","0","[1260]","1","1","","","10168","8","1","1","win","go","1"
"pit-trial","126","968364","0.0-12.0","battery-v0.2","","""event"",""trial"",""time""
""focus"",""0"",""1""
""fullscreenenter"",""1"",""2164""
","
","""event"",""trial"",""time""
""focus"",""0"",""1""
","""event"",""trial"",""time""
""fullscreenenter"",""1"",""2164""
","
","","","-1","","","23","10168","4870","&#9730;","elianto","#3366ff99"," ","-1","0","+10","[]","0","1","","","10168","9","1","1","win","go","1"
"pit-trial","127","971973","0.0-13.0","battery-v0.2","","""event"",""trial"",""time""
""focus"",""0"",""1""
""fullscreenenter"",""1"",""2164""
","
","""event"",""trial"",""time""
""focus"",""0"",""1""
","""event"",""trial"",""time""
""fullscreenenter"",""1"",""2164""
","
","","","755","","","23","10168","4870","&#9733;","elianto","#3366ff99","-1"," ","0","0","[1607]","1","1","","","10168","10","2","2","win","no-go","0"
"pit-trial","128","975449","0.0-14.0","battery-v0.2","","""event"",""trial"",""time""
""focus"",""0"",""1""
""fullscreenenter"",""1"",""2164""
","
","""event"",""trial"",""time""
""focus"",""0"",""1""
","""event"",""trial"",""time""
""fullscreenenter"",""1"",""2164""
","
","","","620","","","23","10168","4870","&#9752;","elianto","#f73b6a7A"," "," ","1","0","[1471]","1","1","","","10168","11","3","3","lose","go","0"
"pit-trial","129","980304","0.0-15.0","battery-v0.2","","""event"",""trial"",""time""
""focus"",""0"",""1""
""fullscreenenter"",""1"",""2164""
","
","""event"",""trial"",""time""
""focus"",""0"",""1""
","""event"",""trial"",""time""
""fullscreenenter"",""1"",""2164""
","
","","","-1","","","23","10168","4870","&#9728;","elianto","#f73b6a7A","-1","-1","1","0","[]","0","1","","","10168","12","0","4","lose","no-go","0"
"pit-trial","130","985160","0.0-16.0","battery-v0.2","","""event"",""trial"",""time""
""focus"",""0"",""1""
""fullscreenenter"",""1"",""2164""
","
","""event"",""trial"",""time""
""focus"",""0"",""1""
","""event"",""trial"",""time""
""fullscreenenter"",""1"",""2164""
","
","","","-1","","","23","10168","4870","&#9728;","elianto","#f73b6a7A","-1","-1","1","0","[]","0","1","","","10168","13","0","4","lose","no-go","0"
"pit-trial","131","988736","0.0-17.0","battery-v0.2","","""event"",""trial"",""time""
""focus"",""0"",""1""
""fullscreenenter"",""1"",""2164""
","
","""event"",""trial"",""time""
""focus"",""0"",""1""
","""event"",""trial"",""time""
""fullscreenenter"",""1"",""2164""
","
","","","720","","","23","10168","4870","&#9752;","elianto","#f73b6a7A"," "," ","1","0","[1570]","1","1","","","10168","14","3","3","lose","go","0"
"pit-trial","132","993740","0.0-18.0","battery-v0.2","","""event"",""trial"",""time""
""focus"",""0"",""1""
""fullscreenenter"",""1"",""2164""
","
","""event"",""trial"",""time""
""focus"",""0"",""1""
","""event"",""trial"",""time""
""fullscreenenter"",""1"",""2164""
","
","","","-1","","","23","10168","4870","&#9730;","elianto","#3366ff99"," ","-1","0","+10","[]","0","1","","","10168","15","1","1","win","go","1"
"pit-trial","133","998745","0.0-19.0","battery-v0.2","","""event"",""trial"",""time""
""focus"",""0"",""1""
""fullscreenenter"",""1"",""2164""
","
","""event"",""trial"",""time""
""focus"",""0"",""1""
","""event"",""trial"",""time""
""fullscreenenter"",""1"",""2164""
","
","","","-1","","","23","10168","4870","&#9733;","elianto","#3366ff99","-1","-1","1","+10","[]","0","1","","","10168","16","2","2","win","no-go","0"
"pit-trial","134","1002153","0.0-20.0","battery-v0.2","","""event"",""trial"",""time""
""focus"",""0"",""1""
""fullscreenenter"",""1"",""2164""
","
","""event"",""trial"",""time""
""focus"",""0"",""1""
","""event"",""trial"",""time""
""fullscreenenter"",""1"",""2164""
","
","","","552","","","23","10168","4870","&#9752;","elianto","#f73b6a7A"," "," ","1","0","[1405]","1","1","","","10168","17","3","3","lose","go","0"
"pit-trial","135","1007160","0.0-21.0","battery-v0.2","","""event"",""trial"",""time""
""focus"",""0"",""1""
""fullscreenenter"",""1"",""2164""
","
","""event"",""trial"",""time""
""focus"",""0"",""1""
","""event"",""trial"",""time""
""fullscreenenter"",""1"",""2164""
","
","","","-1","","","23","10168","4870","&#9728;","elianto","#f73b6a7A","-1","-1","1","0","[]","0","1","","","10168","18","0","4","lose","no-go","0"
"pit-trial","136","1012164","0.0-22.0","battery-v0.2","","""event"",""trial"",""time""
""focus"",""0"",""1""
""fullscreenenter"",""1"",""2164""
","
","""event"",""trial"",""time""
""focus"",""0"",""1""
","""event"",""trial"",""time""
""fullscreenenter"",""1"",""2164""
","
","","","-1","","","23","10168","4870","&#9733;","elianto","#3366ff99","-1","-1","1","+10","[]","0","1","","","10168","19","2","2","win","no-go","0"
"pit-trial","137","1017024","0.0-23.0","battery-v0.2","","""event"",""trial"",""time""
""focus"",""0"",""1""
""fullscreenenter"",""1"",""2164""
","
","""event"",""trial"",""time""
""focus"",""0"",""1""
","""event"",""trial"",""time""
""fullscreenenter"",""1"",""2164""
","
","","","-1","","","23","10168","4870","&#9730;","elianto","#3366ff99"," ","-1","0","0","[]","0","1","","","10168","20","1","1","win","go","0"
"pit-instructions","138","1033740","0.0-24.0","battery-v0.2","","""event"",""trial"",""time""
""focus"",""0"",""1""
""fullscreenenter"",""1"",""2164""
","
","""event"",""trial"",""time""
""focus"",""0"",""1""
","""event"",""trial"",""time""
""fullscreenenter"",""1"",""2164""
","
","","[{""page_index"":0,""viewing_time"":7699},{""page_index"":1,""viewing_time"":9016}]","16716","","","","","","","","","","","","","","","","","","","","","","","",""
"pit-trial","139","1037028","0.0-25.0","battery-v0.2","","""event"",""trial"",""time""
""focus"",""0"",""1""
""fullscreenenter"",""1"",""2164""
","
","""event"",""trial"",""time""
""focus"",""0"",""1""
","""event"",""trial"",""time""
""fullscreenenter"",""1"",""2164""
","
","","","430","","","23","10168","4870","l","elianto","#3366ff99","-1"," ","0","0","[1281]","1","2","","","10168","21","1","2","win","no-go","0"
"pit-trial","140","1040411","0.0-26.0","battery-v0.2","","""event"",""trial"",""time""
""focus"",""0"",""1""
""fullscreenenter"",""1"",""2164""
","
","""event"",""trial"",""time""
""focus"",""0"",""1""
","""event"",""trial"",""time""
""fullscreenenter"",""1"",""2164""
","
","","","523","","","23","10168","4870","a","elianto","#f73b6a7A"," "," ","1","0","[1378]","1","2","","","10168","22","2","3","lose","go","0"
"pit-trial","141","1043805","0.0-27.0","battery-v0.2","","""event"",""trial"",""time""
""focus"",""0"",""1""
""fullscreenenter"",""1"",""2164""
","
","""event"",""trial"",""time""
""focus"",""0"",""1""
","""event"",""trial"",""time""
""fullscreenenter"",""1"",""2164""
","
","","","537","","","23","10168","4870","u","elianto","#f73b6a7A"," "," ","1","0","[1391]","1","2","","","10168","23","0","3","lose","go","0"
"pit-trial","142","1047209","0.0-28.0","battery-v0.2","","""event"",""trial"",""time""
""focus"",""0"",""1""
""fullscreenenter"",""1"",""2164""
","
","""event"",""trial"",""time""
""focus"",""0"",""1""
","""event"",""trial"",""time""
""fullscreenenter"",""1"",""2164""
","
","","","546","","","23","10168","4870","g","elianto","#f73b6a7A","-1"," ","0","-10","[1401]","1","2","","","10168","24","3","4","lose","no-go","0"
"pit-trial","143","1052068","0.0-29.0","battery-v0.2","","""event"",""trial"",""time""
""focus"",""0"",""1""
""fullscreenenter"",""1"",""2164""
","
","""event"",""trial"",""time""
""focus"",""0"",""1""
","""event"",""trial"",""time""
""fullscreenenter"",""1"",""2164""
","
","","","-1","","","23","10168","4870","u","elianto","#f73b6a7A"," ","-1","0","-10","[3047]","1","2","","","10168","25","0","3","lose","go","0"
"pit-trial","144","1055561","0.0-30.0","battery-v0.2","","""event"",""trial"",""time""
""focus"",""0"",""1""
""fullscreenenter"",""1"",""2164""
","
","""event"",""trial"",""time""
""focus"",""0"",""1""
","""event"",""trial"",""time""
""fullscreenenter"",""1"",""2164""
","
","","","636","","","23","10168","4870","a","elianto","#f73b6a7A"," "," ","1","-10","[1489]","1","2","","","10168","26","2","3","lose","go","1"
"pit-trial","145","1059212","0.0-31.0","battery-v0.2","","""event"",""trial"",""time""
""focus"",""0"",""1""
""fullscreenenter"",""1"",""2164""
","
","""event"",""trial"",""time""
""focus"",""0"",""1""
","""event"",""trial"",""time""
""fullscreenenter"",""1"",""2164""
","
","","","792","","","23","10168","4870","l","elianto","#3366ff99","-1"," ","0","0","[1644]","1","2","","","10168","27","1","2","win","no-go","0"
"pit-trial","146","1064071","0.0-32.0","battery-v0.2","","""event"",""trial"",""time""
""focus"",""0"",""1""
""fullscreenenter"",""1"",""2164""
","
","""event"",""trial"",""time""
""focus"",""0"",""1""
","""event"",""trial"",""time""
""fullscreenenter"",""1"",""2164""
","
","","","-1","","","23","10168","4870","g","elianto","#f73b6a7A","-1","-1","1","-10","[]","0","2","","","10168","28","3","4","lose","no-go","1"
"pit-trial","147","1067584","0.0-33.0","battery-v0.2","","""event"",""trial"",""time""
""focus"",""0"",""1""
""fullscreenenter"",""1"",""2164""
","
","""event"",""trial"",""time""
""focus"",""0"",""1""
","""event"",""trial"",""time""
""fullscreenenter"",""1"",""2164""
","
","","","660","","","23","10168","4870","u","elianto","#f73b6a7A"," "," ","1","0","[1512]","1","2","","","10168","29","0","3","lose","go","0"
"pit-trial","148","1071070","0.0-34.0","battery-v0.2","","""event"",""trial"",""time""
""focus"",""0"",""1""
""fullscreenenter"",""1"",""2164""
","
","""event"",""trial"",""time""
""focus"",""0"",""1""
","""event"",""trial"",""time""
""fullscreenenter"",""1"",""2164""
","
","","","633","","","23","10168","4870","g","elianto","#f73b6a7A","-1"," ","0","-10","[1484]","1","2","","","10168","30","3","4","lose","no-go","0"
"pit-trial","149","1074400","0.0-35.0","battery-v0.2","","""event"",""trial"",""time""
""focus"",""0"",""1""
""fullscreenenter"",""1"",""2164""
","
","""event"",""trial"",""time""
""focus"",""0"",""1""
","""event"",""trial"",""time""
""fullscreenenter"",""1"",""2164""
","
","","","475","","","23","10168","4870","l","elianto","#3366ff99","-1"," ","0","0","[1325]","1","2","","","10168","31","1","2","win","no-go","0"
"pit-trial","150","1077778","0.0-36.0","battery-v0.2","","""event"",""trial"",""time""
""focus"",""0"",""1""
""fullscreenenter"",""1"",""2164""
","
","""event"",""trial"",""time""
""focus"",""0"",""1""
","""event"",""trial"",""time""
""fullscreenenter"",""1"",""2164""
","
","","","522","","","23","10168","4870","a","elianto","#f73b6a7A"," "," ","1","0","[1373]","1","2","","","10168","32","2","3","lose","go","0"
"pit-trial","151","1082638","0.0-37.0","battery-v0.2","","""event"",""trial"",""time""
""focus"",""0"",""1""
""fullscreenenter"",""1"",""2164""
","
","""event"",""trial"",""time""
""focus"",""0"",""1""
","""event"",""trial"",""time""
""fullscreenenter"",""1"",""2164""
","
","","","-1","","","23","10168","4870","l","elianto","#3366ff99","-1","-1","1","+10","[]","0","2","","","10168","33","1","2","win","no-go","0"
"pit-trial","152","1086186","0.0-38.0","battery-v0.2","","""event"",""trial"",""time""
""focus"",""0"",""1""
""fullscreenenter"",""1"",""2164""
","
","""event"",""trial"",""time""
""focus"",""0"",""1""
","""event"",""trial"",""time""
""fullscreenenter"",""1"",""2164""
","
","","","691","","","23","10168","4870","u","elianto","#f73b6a7A"," "," ","1","0","[1543]","1","2","","","10168","34","0","3","lose","go","0"
"pit-trial","153","1089668","0.0-39.0","battery-v0.2","","""event"",""trial"",""time""
""focus"",""0"",""1""
""fullscreenenter"",""1"",""2164""
","
","""event"",""trial"",""time""
""focus"",""0"",""1""
","""event"",""trial"",""time""
""fullscreenenter"",""1"",""2164""
","
","","","625","","","23","10168","4870","a","elianto","#f73b6a7A"," "," ","1","0","[1475]","1","2","","","10168","35","2","3","lose","go","0"
"pit-trial","154","1093002","0.0-40.0","battery-v0.2","","""event"",""trial"",""time""
""focus"",""0"",""1""
""fullscreenenter"",""1"",""2164""
","
","""event"",""trial"",""time""
""focus"",""0"",""1""
","""event"",""trial"",""time""
""fullscreenenter"",""1"",""2164""
","
","","","477","","","23","10168","4870","g","elianto","#f73b6a7A","-1"," ","0","0","[1328]","1","2","","","10168","36","3","4","lose","no-go","1"
"pit-trial","155","1096454","0.0-41.0","battery-v0.2","","""event"",""trial"",""time""
""focus"",""0"",""1""
""fullscreenenter"",""1"",""2164""
","
","""event"",""trial"",""time""
""focus"",""0"",""1""
","""event"",""trial"",""time""
""fullscreenenter"",""1"",""2164""
","
","","","594","","","23","10168","4870","g","elianto","#f73b6a7A","-1"," ","0","0","[1447]","1","2","","","10168","37","3","4","lose","no-go","1"
"pit-trial","156","1099815","0.0-42.0","battery-v0.2","","""event"",""trial"",""time""
""focus"",""0"",""1""
""fullscreenenter"",""1"",""2164""
","
","""event"",""trial"",""time""
""focus"",""0"",""1""
","""event"",""trial"",""time""
""fullscreenenter"",""1"",""2164""
","
","","","504","","","23","10168","4870","a","elianto","#f73b6a7A"," "," ","1","0","[1354]","1","2","","","10168","38","2","3","lose","go","0"
"pit-trial","157","1104669","0.0-43.0","battery-v0.2","","""event"",""trial"",""time""
""focus"",""0"",""1""
""fullscreenenter"",""1"",""2164""
","
","""event"",""trial"",""time""
""focus"",""0"",""1""
","""event"",""trial"",""time""
""fullscreenenter"",""1"",""2164""
","
","","","-1","","","23","10168","4870","l","elianto","#3366ff99","-1","-1","1","+10","[]","0","2","","","10168","39","1","2","win","no-go","0"
"pit-trial","158","1108108","0.0-44.0","battery-v0.2","","""event"",""trial"",""time""
""focus"",""0"",""1""
""fullscreenenter"",""1"",""2164""
","
","""event"",""trial"",""time""
""focus"",""0"",""1""
","""event"",""trial"",""time""
""fullscreenenter"",""1"",""2164""
","
","","","585","","","23","10168","4870","u","elianto","#f73b6a7A"," "," ","1","-10","[1435]","1","2","","","10168","40","0","3","lose","go","1"
"pit-trial","159","1111538","0.0-45.0","battery-v0.2","","""event"",""trial"",""time""
""focus"",""0"",""1""
""fullscreenenter"",""1"",""2164""
","
","""event"",""trial"",""time""
""focus"",""0"",""1""
","""event"",""trial"",""time""
""fullscreenenter"",""1"",""2164""
","
","","","570","","","23","10168","4870","u","elianto","#f73b6a7A"," "," ","1","-10","[1425]","1","2","","","10168","41","0","3","lose","go","1"
"pit-trial","160","1114973","0.0-46.0","battery-v0.2","","""event"",""trial"",""time""
""focus"",""0"",""1""
""fullscreenenter"",""1"",""2164""
","
","""event"",""trial"",""time""
""focus"",""0"",""1""
","""event"",""trial"",""time""
""fullscreenenter"",""1"",""2164""
","
","","","575","","","23","10168","4870","a","elianto","#f73b6a7A"," "," ","1","0","[1430]","1","2","","","10168","42","2","3","lose","go","0"
"pit-trial","161","1119830","0.0-47.0","battery-v0.2","","""event"",""trial"",""time""
""focus"",""0"",""1""
""fullscreenenter"",""1"",""2164""
","
","""event"",""trial"",""time""
""focus"",""0"",""1""
","""event"",""trial"",""time""
""fullscreenenter"",""1"",""2164""
","
","","","-1","","","23","10168","4870","l","elianto","#3366ff99","-1","-1","1","+10","[]","0","2","","","10168","43","1","2","win","no-go","0"
"pit-trial","162","1123274","0.0-48.0","battery-v0.2","","""event"",""trial"",""time""
""focus"",""0"",""1""
""fullscreenenter"",""1"",""2164""
","
","""event"",""trial"",""time""
""focus"",""0"",""1""
","""event"",""trial"",""time""
""fullscreenenter"",""1"",""2164""
","
","","","586","","","23","10168","4870","g","elianto","#f73b6a7A","-1"," ","0","-10","[1438]","1","2","","","10168","44","3","4","lose","no-go","0"
"pit-trial","163","1126621","0.0-49.0","battery-v0.2","","""event"",""trial"",""time""
""focus"",""0"",""1""
""fullscreenenter"",""1"",""2164""
","
","""event"",""trial"",""time""
""focus"",""0"",""1""
","""event"",""trial"",""time""
""fullscreenenter"",""1"",""2164""
","
","","","491","","","23","10168","4870","a","elianto","#f73b6a7A"," "," ","1","-10","[1343]","1","2","","","10168","45","2","3","lose","go","1"
"pit-trial","164","1130014","0.0-50.0","battery-v0.2","","""event"",""trial"",""time""
""focus"",""0"",""1""
""fullscreenenter"",""1"",""2164""
","
","""event"",""trial"",""time""
""focus"",""0"",""1""
","""event"",""trial"",""time""
""fullscreenenter"",""1"",""2164""
","
","","","533","","","23","10168","4870","u","elianto","#f73b6a7A"," "," ","1","0","[1387]","1","2","","","10168","46","0","3","lose","go","0"
"pit-trial","165","1133375","0.0-51.0","battery-v0.2","","""event"",""trial"",""time""
""focus"",""0"",""1""
""fullscreenenter"",""1"",""2164""
","
","""event"",""trial"",""time""
""focus"",""0"",""1""
","""event"",""trial"",""time""
""fullscreenenter"",""1"",""2164""
","
","","","503","","","23","10168","4870","g","elianto","#f73b6a7A","-1"," ","0","-10","[1355]","1","2","","","10168","47","3","4","lose","no-go","0"
"pit-trial","166","1138232","0.0-52.0","battery-v0.2","","""event"",""trial"",""time""
""focus"",""0"",""1""
""fullscreenenter"",""1"",""2164""
","
","""event"",""trial"",""time""
""focus"",""0"",""1""
","""event"",""trial"",""time""
""fullscreenenter"",""1"",""2164""
","
","","","-1","","","23","10168","4870","l","elianto","#3366ff99","-1","-1","1","+10","[]","0","2","","","10168","48","1","2","win","no-go","0"
"pit-trial","167","1141466","0.0-53.0","battery-v0.2","","""event"",""trial"",""time""
""focus"",""0"",""1""
""fullscreenenter"",""1"",""2164""
","
","""event"",""trial"",""time""
""focus"",""0"",""1""
","""event"",""trial"",""time""
""fullscreenenter"",""1"",""2164""
","
","","","379","","","23","10168","4870","a","elianto","#f73b6a7A"," "," ","1","-10","[1229]","1","2","","","10168","49","2","3","lose","go","1"
"pit-trial","168","1146570","0.0-54.0","battery-v0.2","","""event"",""trial"",""time""
""focus"",""0"",""1""
""fullscreenenter"",""1"",""2164""
","
","""event"",""trial"",""time""
""focus"",""0"",""1""
","""event"",""trial"",""time""
""fullscreenenter"",""1"",""2164""
","
","","","-1","","","23","10168","4870","l","elianto","#3366ff99","-1","-1","1","+10","[]","0","2","","","10168","50","1","2","win","no-go","0"
"pit-trial","169","1149907","0.0-55.0","battery-v0.2","","""event"",""trial"",""time""
""focus"",""0"",""1""
""fullscreenenter"",""1"",""2164""
","
","""event"",""trial"",""time""
""focus"",""0"",""1""
","""event"",""trial"",""time""
""fullscreenenter"",""1"",""2164""
","
","","","480","","","23","10168","4870","u","elianto","#f73b6a7A"," "," ","1","0","[1333]","1","2","","","10168","51","0","3","lose","go","0"
"pit-trial","170","1153239","0.0-56.0","battery-v0.2","","""event"",""trial"",""time""
""focus"",""0"",""1""
""fullscreenenter"",""1"",""2164""
","
","""event"",""trial"",""time""
""focus"",""0"",""1""
","""event"",""trial"",""time""
""fullscreenenter"",""1"",""2164""
","
","","","478","","","23","10168","4870","g","elianto","#f73b6a7A","-1"," ","0","0","[1329]","1","2","","","10168","52","3","4","lose","no-go","1"
"pit-trial","171","1158094","0.0-57.0","battery-v0.2","","""event"",""trial"",""time""
""focus"",""0"",""1""
""fullscreenenter"",""1"",""2164""
","
","""event"",""trial"",""time""
""focus"",""0"",""1""
","""event"",""trial"",""time""
""fullscreenenter"",""1"",""2164""
","
","","","-1","","","23","10168","4870","l","elianto","#3366ff99","-1","-1","1","+10","[]","0","2","","","10168","53","1","2","win","no-go","0"
"pit-trial","172","1161470","0.0-58.0","battery-v0.2","","""event"",""trial"",""time""
""focus"",""0"",""1""
""fullscreenenter"",""1"",""2164""
","
","""event"",""trial"",""time""
""focus"",""0"",""1""
","""event"",""trial"",""time""
""fullscreenenter"",""1"",""2164""
","
","","","523","","","23","10168","4870","u","elianto","#f73b6a7A"," "," ","1","0","[1374]","1","2","","","10168","54","0","3","lose","go","0"
"pit-trial","173","1164976","0.0-59.0","battery-v0.2","","""event"",""trial"",""time""
""focus"",""0"",""1""
""fullscreenenter"",""1"",""2164""
","
","""event"",""trial"",""time""
""focus"",""0"",""1""
","""event"",""trial"",""time""
""fullscreenenter"",""1"",""2164""
","
","","","527","","","23","10168","4870","g","elianto","#f73b6a7A","-1"," ","0","-10","[1376]","1","2","","","10168","55","3","4","lose","no-go","0"
"pit-trial","174","1168355","0.0-60.0","battery-v0.2","","""event"",""trial"",""time""
""focus"",""0"",""1""
""fullscreenenter"",""1"",""2164""
","
","""event"",""trial"",""time""
""focus"",""0"",""1""
","""event"",""trial"",""time""
""fullscreenenter"",""1"",""2164""
","
","","","521","","","23","10168","4870","a","elianto","#f73b6a7A"," "," ","1","0","[1376]","1","2","","","10168","56","2","3","lose","go","0"
"pit-trial","175","1171699","0.0-61.0","battery-v0.2","","""event"",""trial"",""time""
""focus"",""0"",""1""
""fullscreenenter"",""1"",""2164""
","
","""event"",""trial"",""time""
""focus"",""0"",""1""
","""event"",""trial"",""time""
""fullscreenenter"",""1"",""2164""
","
","","","488","","","23","10168","4870","a","elianto","#f73b6a7A"," "," ","1","0","[1338]","1","2","","","10168","57","2","3","lose","go","0"
"pit-trial","176","1176801","0.0-62.0","battery-v0.2","","""event"",""trial"",""time""
""focus"",""0"",""1""
""fullscreenenter"",""1"",""2164""
","
","""event"",""trial"",""time""
""focus"",""0"",""1""
","""event"",""trial"",""time""
""fullscreenenter"",""1"",""2164""
","
","","","-1","","","23","10168","4870","g","elianto","#f73b6a7A","-1","-1","1","0","[]","0","2","","","10168","58","3","4","lose","no-go","0"
"pit-trial","177","1180712","0.0-63.0","battery-v0.2","","""event"",""trial"",""time""
""focus"",""0"",""1""
""fullscreenenter"",""1"",""2164""
","
","""event"",""trial"",""time""
""focus"",""0"",""1""
","""event"",""trial"",""time""
""fullscreenenter"",""1"",""2164""
","
","","","1052","","","23","10168","4870","p","elianto","#3366ff99"," "," ","1","0","[1905]","1","2","","","10168","59","4","1","win","go","1"
"pit-trial","178","1184278","0.0-64.0","battery-v0.2","","""event"",""trial"",""time""
""focus"",""0"",""1""
""fullscreenenter"",""1"",""2164""
","
","""event"",""trial"",""time""
""focus"",""0"",""1""
","""event"",""trial"",""time""
""fullscreenenter"",""1"",""2164""
","
","","","706","","","23","10168","4870","u","elianto","#f73b6a7A"," "," ","1","0","[1559]","1","2","","","10168","60","0","3","lose","go","0"
"pit-trial","179","1187642","0.0-65.0","battery-v0.2","","""event"",""trial"",""time""
""focus"",""0"",""1""
""fullscreenenter"",""1"",""2164""
","
","""event"",""trial"",""time""
""focus"",""0"",""1""
","""event"",""trial"",""time""
""fullscreenenter"",""1"",""2164""
","
","","","510","","","23","10168","4870","a","elianto","#f73b6a7A"," "," ","1","0","[1361]","1","2","","","10168","61","2","3","lose","go","0"
"pit-trial","180","1192498","0.0-66.0","battery-v0.2","","""event"",""trial"",""time""
""focus"",""0"",""1""
""fullscreenenter"",""1"",""2164""
","
","""event"",""trial"",""time""
""focus"",""0"",""1""
","""event"",""trial"",""time""
""fullscreenenter"",""1"",""2164""
","
","","","-1","","","23","10168","4870","l","elianto","#3366ff99","-1","-1","1","+10","[]","0","2","","","10168","62","1","2","win","no-go","0"
"pit-trial","181","1197356","0.0-67.0","battery-v0.2","","""event"",""trial"",""time""
""focus"",""0"",""1""
""fullscreenenter"",""1"",""2164""
","
","""event"",""trial"",""time""
""focus"",""0"",""1""
","""event"",""trial"",""time""
""fullscreenenter"",""1"",""2164""
","
","","","-1","","","23","10168","4870","p","elianto","#3366ff99"," ","-1","0","0","[]","0","2","","","10168","63","4","1","win","go","0"
"pit-trial","182","1202212","0.0-68.0","battery-v0.2","","""event"",""trial"",""time""
""focus"",""0"",""1""
""fullscreenenter"",""1"",""2164""
","
","""event"",""trial"",""time""
""focus"",""0"",""1""
","""event"",""trial"",""time""
""fullscreenenter"",""1"",""2164""
","
","","","-1","","","23","10168","4870","g","elianto","#f73b6a7A","-1","-1","1","0","[]","0","2","","","10168","64","3","4","lose","no-go","0"
"pit-trial","183","1205941","0.0-69.0","battery-v0.2","","""event"",""trial"",""time""
""focus"",""0"",""1""
""fullscreenenter"",""1"",""2164""
","
","""event"",""trial"",""time""
""focus"",""0"",""1""
","""event"",""trial"",""time""
""fullscreenenter"",""1"",""2164""
","
","","","872","","","23","10168","4870","s","elianto","#3366ff99","-1"," ","0","0","[1724]","1","2","","","10168","65","5","2","win","no-go","0"
"pit-trial","184","1209912","0.0-70.0","battery-v0.2","","""event"",""trial"",""time""
""focus"",""0"",""1""
""fullscreenenter"",""1"",""2164""
","
","""event"",""trial"",""time""
""focus"",""0"",""1""
","""event"",""trial"",""time""
""fullscreenenter"",""1"",""2164""
","
","","","1034","","","23","10168","4870","p","elianto","#3366ff99"," "," ","1","+10","[1886]","1","2","","","10168","66","4","1","win","go","0"
"pit-trial","185","1214769","0.0-71.0","battery-v0.2","","""event"",""trial"",""time""
""focus"",""0"",""1""
""fullscreenenter"",""1"",""2164""
","
","""event"",""trial"",""time""
""focus"",""0"",""1""
","""event"",""trial"",""time""
""fullscreenenter"",""1"",""2164""
","
","","","-1","","","23","10168","4870","l","elianto","#3366ff99","-1","-1","1","+10","[]","0","2","","","10168","67","1","2","win","no-go","0"
"pit-trial","186","1219628","0.0-72.0","battery-v0.2","","""event"",""trial"",""time""
""focus"",""0"",""1""
""fullscreenenter"",""1"",""2164""
","
","""event"",""trial"",""time""
""focus"",""0"",""1""
","""event"",""trial"",""time""
""fullscreenenter"",""1"",""2164""
","
","","","-1","","","23","10168","4870","g","elianto","#f73b6a7A","-1","-1","1","0","[]","0","2","","","10168","68","3","4","lose","no-go","0"
"pit-trial","187","1224487","0.0-73.0","battery-v0.2","","""event"",""trial"",""time""
""focus"",""0"",""1""
""fullscreenenter"",""1"",""2164""
","
","""event"",""trial"",""time""
""focus"",""0"",""1""
","""event"",""trial"",""time""
""fullscreenenter"",""1"",""2164""
","
","","","-1","","","23","10168","4870","l","elianto","#3366ff99","-1","-1","1","+10","[]","0","2","","","10168","69","1","2","win","no-go","0"
"pit-trial","188","1228058","0.0-74.0","battery-v0.2","","""event"",""trial"",""time""
""focus"",""0"",""1""
""fullscreenenter"",""1"",""2164""
","
","""event"",""trial"",""time""
""focus"",""0"",""1""
","""event"",""trial"",""time""
""fullscreenenter"",""1"",""2164""
","
","","","714","","","23","10168","4870","a","elianto","#f73b6a7A"," "," ","1","-10","[1565]","1","2","","","10168","70","2","3","lose","go","1"
"pit-trial","189","1232533","0.0-75.0","battery-v0.2","","""event"",""trial"",""time""
""focus"",""0"",""1""
""fullscreenenter"",""1"",""2164""
","
","""event"",""trial"",""time""
""focus"",""0"",""1""
","""event"",""trial"",""time""
""fullscreenenter"",""1"",""2164""
","
","","","1618","","","23","10168","4870","s","elianto","#3366ff99","-1"," ","0","0","[2470]","1","2","","","10168","71","5","2","win","no-go","0"
"pit-trial","190","1236708","0.0-76.0","battery-v0.2","","""event"",""trial"",""time""
""focus"",""0"",""1""
""fullscreenenter"",""1"",""2164""
","
","""event"",""trial"",""time""
""focus"",""0"",""1""
","""event"",""trial"",""time""
""fullscreenenter"",""1"",""2164""
","
","","","1318","","","23","10168","4870","p","elianto","#3366ff99"," "," ","1","+10","[2169]","1","2","","","10168","72","4","1","win","go","0"
"pit-trial","191","1241565","0.0-77.0","battery-v0.2","","""event"",""trial"",""time""
""focus"",""0"",""1""
""fullscreenenter"",""1"",""2164""
","
","""event"",""trial"",""time""
""focus"",""0"",""1""
","""event"",""trial"",""time""
""fullscreenenter"",""1"",""2164""
","
","","","-1","","","23","10168","4870","g","elianto","#f73b6a7A","-1","-1","1","0","[]","0","2","","","10168","73","3","4","lose","no-go","0"
"pit-trial","192","1245606","0.0-78.0","battery-v0.2","","""event"",""trial"",""time""
""focus"",""0"",""1""
""fullscreenenter"",""1"",""2164""
","
","""event"",""trial"",""time""
""focus"",""0"",""1""
","""event"",""trial"",""time""
""fullscreenenter"",""1"",""2164""
","
","","","1188","","","23","10168","4870","p","elianto","#3366ff99"," "," ","1","0","[2038]","1","2","","","10168","74","4","1","win","go","1"
"pit-trial","193","1250609","0.0-79.0","battery-v0.2","","""event"",""trial"",""time""
""focus"",""0"",""1""
""fullscreenenter"",""1"",""2164""
","
","""event"",""trial"",""time""
""focus"",""0"",""1""
","""event"",""trial"",""time""
""fullscreenenter"",""1"",""2164""
","
","","","-1","","","23","10168","4870","l","elianto","#3366ff99","-1","-1","1","+10","[]","0","2","","","10168","75","1","2","win","no-go","0"
"pit-trial","194","1255619","0.0-80.0","battery-v0.2","","""event"",""trial"",""time""
""focus"",""0"",""1""
""fullscreenenter"",""1"",""2164""
","
","""event"",""trial"",""time""
""focus"",""0"",""1""
","""event"",""trial"",""time""
""fullscreenenter"",""1"",""2164""
","
","","","-1","","","23","10168","4870","s","elianto","#3366ff99","-1","-1","1","+10","[]","0","2","","","10168","76","5","2","win","no-go","0"
"pit-trial","195","1260479","0.0-81.0","battery-v0.2","","""event"",""trial"",""time""
""focus"",""0"",""1""
""fullscreenenter"",""1"",""2164""
","
","""event"",""trial"",""time""
""focus"",""0"",""1""
","""event"",""trial"",""time""
""fullscreenenter"",""1"",""2164""
","
","","","-1","","","23","10168","4870","s","elianto","#3366ff99","-1","-1","1","+10","[]","0","2","","","10168","77","5","2","win","no-go","0"
"pit-trial","196","1265338","0.0-82.0","battery-v0.2","","""event"",""trial"",""time""
""focus"",""0"",""1""
""fullscreenenter"",""1"",""2164""
","
","""event"",""trial"",""time""
""focus"",""0"",""1""
","""event"",""trial"",""time""
""fullscreenenter"",""1"",""2164""
","
","","","-1","","","23","10168","4870","g","elianto","#f73b6a7A","-1","-1","1","0","[]","0","2","","","10168","78","3","4","lose","no-go","0"
"pit-trial","197","1269336","0.0-83.0","battery-v0.2","","""event"",""trial"",""time""
""focus"",""0"",""1""
""fullscreenenter"",""1"",""2164""
","
","""event"",""trial"",""time""
""focus"",""0"",""1""
","""event"",""trial"",""time""
""fullscreenenter"",""1"",""2164""
","
","","","1143","","","23","10168","4870","p","elianto","#3366ff99"," "," ","1","+10","[1993]","1","2","","","10168","79","4","1","win","go","0"
"pit-trial","198","1272895","0.0-84.0","battery-v0.2","","""event"",""trial"",""time""
""focus"",""0"",""1""
""fullscreenenter"",""1"",""2164""
","
","""event"",""trial"",""time""
""focus"",""0"",""1""
","""event"",""trial"",""time""
""fullscreenenter"",""1"",""2164""
","
","","","704","","","23","10168","4870","p","elianto","#3366ff99"," "," ","1","+10","[1553]","1","2","","","10168","80","4","1","win","go","0"
"pit-trial","199","1276296","0.0-85.0","battery-v0.2","","""event"",""trial"",""time""
""focus"",""0"",""1""
""fullscreenenter"",""1"",""2164""
","
","""event"",""trial"",""time""
""focus"",""0"",""1""
","""event"",""trial"",""time""
""fullscreenenter"",""1"",""2164""
","
","","","547","","","23","10168","4870","p","elianto","#3366ff99"," "," ","1","+10","[1400]","1","2","","","10168","81","4","1","win","go","0"
"pit-trial","200","1281155","0.0-86.0","battery-v0.2","","""event"",""trial"",""time""
""focus"",""0"",""1""
""fullscreenenter"",""1"",""2164""
","
","""event"",""trial"",""time""
""focus"",""0"",""1""
","""event"",""trial"",""time""
""fullscreenenter"",""1"",""2164""
","
","","","-1","","","23","10168","4870","s","elianto","#3366ff99","-1","-1","1","+10","[]","0","2","","","10168","82","5","2","win","no-go","0"
"pit-trial","201","1286012","0.0-87.0","battery-v0.2","","""event"",""trial"",""time""
""focus"",""0"",""1""
""fullscreenenter"",""1"",""2164""
","
","""event"",""trial"",""time""
""focus"",""0"",""1""
","""event"",""trial"",""time""
""fullscreenenter"",""1"",""2164""
","
","","","-1","","","23","10168","4870","g","elianto","#f73b6a7A","-1","-1","1","0","[]","0","2","","","10168","83","3","4","lose","no-go","0"
"pit-trial","202","1290186","0.0-88.0","battery-v0.2","","""event"",""trial"",""time""
""focus"",""0"",""1""
""fullscreenenter"",""1"",""2164""
","
","""event"",""trial"",""time""
""focus"",""0"",""1""
","""event"",""trial"",""time""
""fullscreenenter"",""1"",""2164""
","
","","","1314","","","23","10168","4870","e","elianto","#f73b6a7A","-1"," ","0","-10","[2168]","1","2","","","10168","84","7","4","lose","no-go","0"
"pit-trial","203","1293828","0.0-89.0","battery-v0.2","","""event"",""trial"",""time""
""focus"",""0"",""1""
""fullscreenenter"",""1"",""2164""
","
","""event"",""trial"",""time""
""focus"",""0"",""1""
","""event"",""trial"",""time""
""fullscreenenter"",""1"",""2164""
","
","","","786","","","23","10168","4870","p","elianto","#3366ff99"," "," ","1","+10","[1638]","1","2","","","10168","85","4","1","win","go","0"
"pit-trial","204","1297933","0.0-90.0","battery-v0.2","","""event"",""trial"",""time""
""focus"",""0"",""1""
""fullscreenenter"",""1"",""2164""
","
","""event"",""trial"",""time""
""focus"",""0"",""1""
","""event"",""trial"",""time""
""fullscreenenter"",""1"",""2164""
","
","","","1251","","","23","10168","4870","w","elianto","#f73b6a7A"," "," ","1","0","[2102]","1","2","","","10168","86","6","3","lose","go","0"
"pit-trial","205","1302788","0.0-91.0","battery-v0.2","","""event"",""trial"",""time""
""focus"",""0"",""1""
""fullscreenenter"",""1"",""2164""
","
","""event"",""trial"",""time""
""focus"",""0"",""1""
","""event"",""trial"",""time""
""fullscreenenter"",""1"",""2164""
","
","","","-1","","","23","10168","4870","s","elianto","#3366ff99","-1","-1","1","+10","[]","0","2","","","10168","87","5","2","win","no-go","0"
"pit-trial","206","1307644","0.0-92.0","battery-v0.2","","""event"",""trial"",""time""
""focus"",""0"",""1""
""fullscreenenter"",""1"",""2164""
","
","""event"",""trial"",""time""
""focus"",""0"",""1""
","""event"",""trial"",""time""
""fullscreenenter"",""1"",""2164""
","
","","","-1","","","23","10168","4870","e","elianto","#f73b6a7A","-1","-1","1","0","[]","0","2","","","10168","88","7","4","lose","no-go","0"
"pit-trial","207","1312501","0.0-93.0","battery-v0.2","","""event"",""trial"",""time""
""focus"",""0"",""1""
""fullscreenenter"",""1"",""2164""
","
","""event"",""trial"",""time""
""focus"",""0"",""1""
","""event"",""trial"",""time""
""fullscreenenter"",""1"",""2164""
","
","","","-1","","","23","10168","4870","e","elianto","#f73b6a7A","-1","-1","1","0","[]","0","2","","","10168","89","7","4","lose","no-go","0"
"pit-trial","208","1316183","0.0-94.0","battery-v0.2","","""event"",""trial"",""time""
""focus"",""0"",""1""
""fullscreenenter"",""1"",""2164""
","
","""event"",""trial"",""time""
""focus"",""0"",""1""
","""event"",""trial"",""time""
""fullscreenenter"",""1"",""2164""
","
","","","721","","","23","10168","4870","w","elianto","#f73b6a7A"," "," ","1","0","[1572]","1","2","","","10168","90","6","3","lose","go","0"
"pit-trial","209","1321078","0.0-95.0","battery-v0.2","","""event"",""trial"",""time""
""focus"",""0"",""1""
""fullscreenenter"",""1"",""2164""
","
","""event"",""trial"",""time""
""focus"",""0"",""1""
","""event"",""trial"",""time""
""fullscreenenter"",""1"",""2164""
","
","","","-1","","","23","10168","4870","s","elianto","#3366ff99","-1","-1","1","+10","[]","0","2","","","10168","91","5","2","win","no-go","0"
"pit-trial","210","1324696","0.0-96.0","battery-v0.2","","""event"",""trial"",""time""
""focus"",""0"",""1""
""fullscreenenter"",""1"",""2164""
","
","""event"",""trial"",""time""
""focus"",""0"",""1""
","""event"",""trial"",""time""
""fullscreenenter"",""1"",""2164""
","
","","","762","","","23","10168","4870","p","elianto","#3366ff99"," "," ","1","+10","[1615]","1","2","","","10168","92","4","1","win","go","0"
"pit-trial","211","1328260","0.0-97.0","battery-v0.2","","""event"",""trial"",""time""
""focus"",""0"",""1""
""fullscreenenter"",""1"",""2164""
","
","""event"",""trial"",""time""
""focus"",""0"",""1""
","""event"",""trial"",""time""
""fullscreenenter"",""1"",""2164""
","
","","","712","","","23","10168","4870","w","elianto","#f73b6a7A"," "," ","1","-10","[1562]","1","2","","","10168","93","6","3","lose","go","1"
"pit-trial","212","1333119","0.0-98.0","battery-v0.2","","""event"",""trial"",""time""
""focus"",""0"",""1""
""fullscreenenter"",""1"",""2164""
","
","""event"",""trial"",""time""
""focus"",""0"",""1""
","""event"",""trial"",""time""
""fullscreenenter"",""1"",""2164""
","
","","","-1","","","23","10168","4870","s","elianto","#3366ff99","-1","-1","1","0","[]","0","2","","","10168","94","5","2","win","no-go","1"
"pit-trial","213","1337300","0.0-99.0","battery-v0.2","","""event"",""trial"",""time""
""focus"",""0"",""1""
""fullscreenenter"",""1"",""2164""
","
","""event"",""trial"",""time""
""focus"",""0"",""1""
","""event"",""trial"",""time""
""fullscreenenter"",""1"",""2164""
","
","","","1325","","","23","10168","4870","d","elianto","#3366ff99"," "," ","1","+10","[2175]","1","2","","","10168","95","8","1","win","go","0"
"pit-trial","214","1342304","0.0-100.0","battery-v0.2","","""event"",""trial"",""time""
""focus"",""0"",""1""
""fullscreenenter"",""1"",""2164""
","
","""event"",""trial"",""time""
""focus"",""0"",""1""
","""event"",""trial"",""time""
""fullscreenenter"",""1"",""2164""
","
","","","-1","","","23","10168","4870","e","elianto","#f73b6a7A","-1","-1","1","0","[]","0","2","","","10168","96","7","4","lose","no-go","0"
"pit-trial","215","1346177","0.0-101.0","battery-v0.2","","""event"",""trial"",""time""
""focus"",""0"",""1""
""fullscreenenter"",""1"",""2164""
","
","""event"",""trial"",""time""
""focus"",""0"",""1""
","""event"",""trial"",""time""
""fullscreenenter"",""1"",""2164""
","
","","","1017","","","23","10168","4870","d","elianto","#3366ff99"," "," ","1","+10","[1870]","1","2","","","10168","97","8","1","win","go","0"
"pit-trial","216","1351033","0.0-102.0","battery-v0.2","","""event"",""trial"",""time""
""focus"",""0"",""1""
""fullscreenenter"",""1"",""2164""
","
","""event"",""trial"",""time""
""focus"",""0"",""1""
","""event"",""trial"",""time""
""fullscreenenter"",""1"",""2164""
","
","","","-1","","","23","10168","4870","e","elianto","#f73b6a7A","-1","-1","1","-10","[]","0","2","","","10168","98","7","4","lose","no-go","1"
"pit-trial","217","1355890","0.0-103.0","battery-v0.2","","""event"",""trial"",""time""
""focus"",""0"",""1""
""fullscreenenter"",""1"",""2164""
","
","""event"",""trial"",""time""
""focus"",""0"",""1""
","""event"",""trial"",""time""
""fullscreenenter"",""1"",""2164""
","
","","","-1","","","23","10168","4870","s","elianto","#3366ff99","-1","-1","1","+10","[]","0","2","","","10168","99","5","2","win","no-go","0"
"pit-trial","218","1359449","0.0-104.0","battery-v0.2","","""event"",""trial"",""time""
""focus"",""0"",""1""
""fullscreenenter"",""1"",""2164""
","
","""event"",""trial"",""time""
""focus"",""0"",""1""
","""event"",""trial"",""time""
""fullscreenenter"",""1"",""2164""
","
","","","704","","","23","10168","4870","w","elianto","#f73b6a7A"," "," ","1","0","[1556]","1","2","","","10168","100","6","3","lose","go","0"
"pit-trial","219","1364454","0.0-105.0","battery-v0.2","","""event"",""trial"",""time""
""focus"",""0"",""1""
""fullscreenenter"",""1"",""2164""
","
","""event"",""trial"",""time""
""focus"",""0"",""1""
","""event"",""trial"",""time""
""fullscreenenter"",""1"",""2164""
","
","","","-1","","","23","10168","4870","e","elianto","#f73b6a7A","-1","-1","1","0","[]","0","2","","","10168","101","7","4","lose","no-go","0"
"pit-trial","220","1368489","0.0-106.0","battery-v0.2","","""event"",""trial"",""time""
""focus"",""0"",""1""
""fullscreenenter"",""1"",""2164""
","
","""event"",""trial"",""time""
""focus"",""0"",""1""
","""event"",""trial"",""time""
""fullscreenenter"",""1"",""2164""
","
","","","1054","","","23","10168","4870","j","elianto","#3366ff99"," "," ","1","+10","[1905]","1","2","","","10168","102","9","1","win","go","0"
"pit-trial","221","1372087","0.0-107.0","battery-v0.2","","""event"",""trial"",""time""
""focus"",""0"",""1""
""fullscreenenter"",""1"",""2164""
","
","""event"",""trial"",""time""
""focus"",""0"",""1""
","""event"",""trial"",""time""
""fullscreenenter"",""1"",""2164""
","
","","","739","","","23","10168","4870","d","elianto","#3366ff99"," "," ","1","+10","[1593]","1","2","","","10168","103","8","1","win","go","0"
"pit-trial","222","1376942","0.0-108.0","battery-v0.2","","""event"",""trial"",""time""
""focus"",""0"",""1""
""fullscreenenter"",""1"",""2164""
","
","""event"",""trial"",""time""
""focus"",""0"",""1""
","""event"",""trial"",""time""
""fullscreenenter"",""1"",""2164""
","
","","","-1","","","23","10168","4870","s","elianto","#3366ff99","-1","-1","1","+10","[]","0","2","","","10168","104","5","2","win","no-go","0"
"pit-trial","223","1380633","0.0-109.0","battery-v0.2","","""event"",""trial"",""time""
""focus"",""0"",""1""
""fullscreenenter"",""1"",""2164""
","
","""event"",""trial"",""time""
""focus"",""0"",""1""
","""event"",""trial"",""time""
""fullscreenenter"",""1"",""2164""
","
","","","837","","","23","10168","4870","j","elianto","#3366ff99"," "," ","1","+10","[1689]","1","2","","","10168","105","9","1","win","go","0"
"pit-trial","224","1385026","0.0-110.0","battery-v0.2","","""event"",""trial"",""time""
""focus"",""0"",""1""
""fullscreenenter"",""1"",""2164""
","
","""event"",""trial"",""time""
""focus"",""0"",""1""
","""event"",""trial"",""time""
""fullscreenenter"",""1"",""2164""
","
","","","1499","","","23","10168","4870","p","elianto","#3366ff99"," "," ","1","+10","[2349]","1","2","","","10168","106","4","1","win","go","0"
"pit-trial","225","1388844","0.0-111.0","battery-v0.2","","""event"",""trial"",""time""
""focus"",""0"",""1""
""fullscreenenter"",""1"",""2164""
","
","""event"",""trial"",""time""
""focus"",""0"",""1""
","""event"",""trial"",""time""
""fullscreenenter"",""1"",""2164""
","
","","","967","","","23","10168","4870","w","elianto","#f73b6a7A"," "," ","1","0","[1818]","1","2","","","10168","107","6","3","lose","go","0"
"pit-trial","226","1392441","0.0-112.0","battery-v0.2","","""event"",""trial"",""time""
""focus"",""0"",""1""
""fullscreenenter"",""1"",""2164""
","
","""event"",""trial"",""time""
""focus"",""0"",""1""
","""event"",""trial"",""time""
""fullscreenenter"",""1"",""2164""
","
","","","739","","","23","10168","4870","d","elianto","#3366ff99"," "," ","1","+10","[1593]","1","2","","","10168","108","8","1","win","go","0"
"pit-trial","227","1396026","0.0-113.0","battery-v0.2","","""event"",""trial"",""time""
""focus"",""0"",""1""
""fullscreenenter"",""1"",""2164""
","
","""event"",""trial"",""time""
""focus"",""0"",""1""
","""event"",""trial"",""time""
""fullscreenenter"",""1"",""2164""
","
","","","732","","","23","10168","4870","j","elianto","#3366ff99"," "," ","1","0","[1584]","1","2","","","10168","109","9","1","win","go","1"
"pit-trial","228","1399579","0.0-114.0","battery-v0.2","","""event"",""trial"",""time""
""focus"",""0"",""1""
""fullscreenenter"",""1"",""2164""
","
","""event"",""trial"",""time""
""focus"",""0"",""1""
","""event"",""trial"",""time""
""fullscreenenter"",""1"",""2164""
","
","","","698","","","23","10168","4870","w","elianto","#f73b6a7A"," "," ","1","0","[1550]","1","2","","","10168","110","6","3","lose","go","0"
"pit-trial","229","1403066","0.0-115.0","battery-v0.2","","""event"",""trial"",""time""
""focus"",""0"",""1""
""fullscreenenter"",""1"",""2164""
","
","""event"",""trial"",""time""
""focus"",""0"",""1""
","""event"",""trial"",""time""
""fullscreenenter"",""1"",""2164""
","
","","","632","","","23","10168","4870","d","elianto","#3366ff99"," "," ","1","+10","[1484]","1","2","","","10168","111","8","1","win","go","0"
"pit-trial","230","1407920","0.0-116.0","battery-v0.2","","""event"",""trial"",""time""
""focus"",""0"",""1""
""fullscreenenter"",""1"",""2164""
","
