"trial_type","trial_index","time_elapsed","internal_node_id","task_version","subject_id","interactions","blur_events","focus_events","fullscreenenter_events","fullscreenexit_events","success","view_history","rt","responses","num_errors","age","subject","participantId","rune","rune_set","hex","correct","choice","accuracy","outcome","keys","total_keys","block","practice","value","sub","trial","stimulus","robot","valence","action","sham"
"pavlovia","0","19","0.0-0.0","battery-v0.2","","""event"",""trial"",""time""
""fullscreenenter"",""1"",""1648""
""blur"",""1"",""2219""
","""event"",""trial"",""time""
""blur"",""1"",""2219""
","
","""event"",""trial"",""time""
""fullscreenenter"",""1"",""1648""
","
","","","","","","","","","","","","","","","","","","","","","","","","","","",""
"fullscreen","1","2631","0.0-1.0","battery-v0.2","","""event"",""trial"",""time""
""fullscreenenter"",""1"",""1648""
""blur"",""1"",""2219""
""focus"",""2"",""7482""
","""event"",""trial"",""time""
""blur"",""1"",""2219""
","""event"",""trial"",""time""
""focus"",""2"",""7482""
","""event"",""trial"",""time""
""fullscreenenter"",""1"",""1648""
","
","true","","","","","","","","","","","","","","","","","","","","","","","","","",""
"pit-instructions","2","8028","0.0-2.0-0.0","battery-v0.2","","""event"",""trial"",""time""
""fullscreenenter"",""1"",""1648""
""blur"",""1"",""2219""
""focus"",""2"",""7482""
","""event"",""trial"",""time""
""blur"",""1"",""2219""
","""event"",""trial"",""time""
""focus"",""2"",""7482""
","""event"",""trial"",""time""
""fullscreenenter"",""1"",""1648""
","
","","[{""page_index"":0,""viewing_time"":5391.700000001118}]","5392.300000000745","","","","","","","","","","","","","","","","","","","","","","","",""
"pit-comprehension","3","10283","0.0-2.0-1.0-0.0","battery-v0.2","","""event"",""trial"",""time""
""fullscreenenter"",""1"",""1648""
""blur"",""1"",""2219""
""focus"",""2"",""7482""
","""event"",""trial"",""time""
""blur"",""1"",""2219""
","""event"",""trial"",""time""
""focus"",""2"",""7482""
","""event"",""trial"",""time""
""fullscreenenter"",""1"",""1648""
","
","","","2248.2000000011176","[""shark""]","0","23","13458","5928","","","","","","","","","","","","","","","","","","",""
"pit-instructions","4","11633","0.0-2.0-1.0-1.0","battery-v0.2","","""event"",""trial"",""time""
""fullscreenenter"",""1"",""1648""
""blur"",""1"",""2219""
""focus"",""2"",""7482""
","""event"",""trial"",""time""
""blur"",""1"",""2219""
","""event"",""trial"",""time""
""focus"",""2"",""7482""
","""event"",""trial"",""time""
""fullscreenenter"",""1"",""1648""
","
","","[{""page_index"":0,""viewing_time"":1339.5999999996275}]","1340.0999999996275","","","","","","","","","","","","","","","","","","","","","","","",""
"pit-comprehension","5","13639","0.0-2.0-2.0-0.0","battery-v0.2","","""event"",""trial"",""time""
""fullscreenenter"",""1"",""1648""
""blur"",""1"",""2219""
""focus"",""2"",""7482""
","""event"",""trial"",""time""
""blur"",""1"",""2219""
","""event"",""trial"",""time""
""focus"",""2"",""7482""
","""event"",""trial"",""time""
""fullscreenenter"",""1"",""1648""
","
","","","2000","[""tiger""]","0","23","13458","5928","","","","","","","","","","","","","","","","","","",""
"pit-instructions","6","14886","0.0-2.0-2.0-1.0","battery-v0.2","","""event"",""trial"",""time""
""fullscreenenter"",""1"",""1648""
""blur"",""1"",""2219""
""focus"",""2"",""7482""
""blur"",""7"",""51035""
""focus"",""7"",""54971""
","""event"",""trial"",""time""
""blur"",""1"",""2219""
""blur"",""7"",""51035""
","""event"",""trial"",""time""
""focus"",""2"",""7482""
""focus"",""7"",""54971""
","""event"",""trial"",""time""
""fullscreenenter"",""1"",""1648""
","
","","[{""page_index"":0,""viewing_time"":1242.5}]","1243","","","","","","","","","","","","","","","","","","","","","","","",""
"pit-instructions","7","116029","0.0-2.0-3.0","battery-v0.2","","""event"",""trial"",""time""
""fullscreenenter"",""1"",""1648""
""blur"",""1"",""2219""
""focus"",""2"",""7482""
""blur"",""7"",""51035""
""focus"",""7"",""54971""
","""event"",""trial"",""time""
""blur"",""1"",""2219""
""blur"",""7"",""51035""
","""event"",""trial"",""time""
""focus"",""2"",""7482""
""focus"",""7"",""54971""
","""event"",""trial"",""time""
""fullscreenenter"",""1"",""1648""
","
","","[{""page_index"":0,""viewing_time"":7770.5},{""page_index"":1,""viewing_time"":6636.4000000003725},{""page_index"":2,""viewing_time"":6402.699999999255},{""page_index"":3,""viewing_time"":5537.9000000003725},{""page_index"":4,""viewing_time"":7244.700000001118},{""page_index"":5,""viewing_time"":7420.5999999996275},{""page_index"":6,""viewing_time"":9361.699999999255},{""page_index"":7,""viewing_time"":8686.800000000745},{""page_index"":8,""viewing_time"":7152.799999998882},{""page_index"":9,""viewing_time"":8051.60000000149},{""page_index"":10,""viewing_time"":7814.89999999851},{""page_index"":11,""viewing_time"":8018.700000001118},{""page_index"":12,""viewing_time"":6425.799999998882},{""page_index"":13,""viewing_time"":4611.700000001118}]","101137.40000000037","","","","","","","","","","","","","","","","","","","","","","","",""
"pit-trial","8","119847","0.0-2.0-4.0-0.0","battery-v0.2","","""event"",""trial"",""time""
""fullscreenenter"",""1"",""1648""
""blur"",""1"",""2219""
""focus"",""2"",""7482""
""blur"",""7"",""51035""
""focus"",""7"",""54971""
","""event"",""trial"",""time""
""blur"",""1"",""2219""
""blur"",""7"",""51035""
","""event"",""trial"",""time""
""focus"",""2"",""7482""
""focus"",""7"",""54971""
","""event"",""trial"",""time""
""fullscreenenter"",""1"",""1648""
","
","","","961.6000000014901","","","23","13458","5928","&#9784;","elianto","#FFFFF080"," "," ","1","&#10004","[1813.0999999996275]","1","0","0","","","","","","","",""
"pit-trial","9","123608","0.0-2.0-4.1-0.1","battery-v0.2","","""event"",""trial"",""time""
""fullscreenenter"",""1"",""1648""
""blur"",""1"",""2219""
""focus"",""2"",""7482""
""blur"",""7"",""51035""
""focus"",""7"",""54971""
","""event"",""trial"",""time""
""blur"",""1"",""2219""
""blur"",""7"",""51035""
","""event"",""trial"",""time""
""focus"",""2"",""7482""
""focus"",""7"",""54971""
","""event"",""trial"",""time""
""fullscreenenter"",""1"",""1648""
","
","","","903.8000000007451","","","23","13458","5928","&#9784;","elianto","#FFFFF080"," "," ","1","&#10004","[1754.4000000003725]","1","0","0","","","","","","","",""
"pit-trial","10","127053","0.0-2.0-4.2-0.2","battery-v0.2","","""event"",""trial"",""time""
""fullscreenenter"",""1"",""1648""
""blur"",""1"",""2219""
""focus"",""2"",""7482""
""blur"",""7"",""51035""
""focus"",""7"",""54971""
","""event"",""trial"",""time""
""blur"",""1"",""2219""
""blur"",""7"",""51035""
","""event"",""trial"",""time""
""focus"",""2"",""7482""
""focus"",""7"",""54971""
","""event"",""trial"",""time""
""fullscreenenter"",""1"",""1648""
","
","","","588.5","","","23","13458","5928","&#9784;","elianto","#FFFFF080"," "," ","1","&#10004","[1439.9000000003725]","1","0","0","","","","","","","",""
"pit-trial","11","130492","0.0-2.0-4.3-0.3","battery-v0.2","","""event"",""trial"",""time""
""fullscreenenter"",""1"",""1648""
""blur"",""1"",""2219""
""focus"",""2"",""7482""
""blur"",""7"",""51035""
""focus"",""7"",""54971""
","""event"",""trial"",""time""
""blur"",""1"",""2219""
""blur"",""7"",""51035""
","""event"",""trial"",""time""
""focus"",""2"",""7482""
""focus"",""7"",""54971""
","""event"",""trial"",""time""
""fullscreenenter"",""1"",""1648""
","
","","","584","","","23","13458","5928","&#9784;","elianto","#FFFFF080"," "," ","1","&#10004","[1434.5999999996275]","1","0","0","","","","","","","",""
"pit-trial","12","133863","0.0-2.0-4.4-0.4","battery-v0.2","","""event"",""trial"",""time""
""fullscreenenter"",""1"",""1648""
""blur"",""1"",""2219""
""focus"",""2"",""7482""
""blur"",""7"",""51035""
""focus"",""7"",""54971""
","""event"",""trial"",""time""
""blur"",""1"",""2219""
""blur"",""7"",""51035""
","""event"",""trial"",""time""
""focus"",""2"",""7482""
""focus"",""7"",""54971""
","""event"",""trial"",""time""
""fullscreenenter"",""1"",""1648""
","
","","","515.2999999988824","","","23","13458","5928","&#9784;","elianto","#FFFFF080"," "," ","1","&#10004","[1366.199999999255]","1","0","0","","","","","","","",""
"pit-instructions","13","158999","0.0-2.0-5.0","battery-v0.2","","""event"",""trial"",""time""
""fullscreenenter"",""1"",""1648""
""blur"",""1"",""2219""
""focus"",""2"",""7482""
""blur"",""7"",""51035""
""focus"",""7"",""54971""
","""event"",""trial"",""time""
""blur"",""1"",""2219""
""blur"",""7"",""51035""
","""event"",""trial"",""time""
""focus"",""2"",""7482""
""focus"",""7"",""54971""
","""event"",""trial"",""time""
""fullscreenenter"",""1"",""1648""
","
","","[{""page_index"":0,""viewing_time"":4784.699999999255},{""page_index"":1,""viewing_time"":6764},{""page_index"":2,""viewing_time"":6094.200000001118},{""page_index"":3,""viewing_time"":7487.799999998882}]","25131.199999999255","","","","","","","","","","","","","","","","","","","","","","","",""
"pit-trial","14","163854","0.0-2.0-6.0-0.0","battery-v0.2","","""event"",""trial"",""time""
""fullscreenenter"",""1"",""1648""
""blur"",""1"",""2219""
""focus"",""2"",""7482""
""blur"",""7"",""51035""
""focus"",""7"",""54971""
","""event"",""trial"",""time""
""blur"",""1"",""2219""
""blur"",""7"",""51035""
","""event"",""trial"",""time""
""focus"",""2"",""7482""
""focus"",""7"",""54971""
","""event"",""trial"",""time""
""fullscreenenter"",""1"",""1648""
","
","","","-1","","","23","13458","5928","&#9854;","elianto","#FFFFF080","-1","-1","1","&#10004","[]","0","0","1","","","","","","","",""
"pit-trial","15","168711","0.0-2.0-6.1-0.1","battery-v0.2","","""event"",""trial"",""time""
""fullscreenenter"",""1"",""1648""
""blur"",""1"",""2219""
""focus"",""2"",""7482""
""blur"",""7"",""51035""
""focus"",""7"",""54971""
","""event"",""trial"",""time""
""blur"",""1"",""2219""
""blur"",""7"",""51035""
","""event"",""trial"",""time""
""focus"",""2"",""7482""
""focus"",""7"",""54971""
","""event"",""trial"",""time""
""fullscreenenter"",""1"",""1648""
","
","","","-1","","","23","13458","5928","&#9854;","elianto","#FFFFF080","-1","-1","1","&#10004","[]","0","0","1","","","","","","","",""
"pit-trial","16","173567","0.0-2.0-6.2-0.2","battery-v0.2","","""event"",""trial"",""time""
""fullscreenenter"",""1"",""1648""
""blur"",""1"",""2219""
""focus"",""2"",""7482""
""blur"",""7"",""51035""
""focus"",""7"",""54971""
","""event"",""trial"",""time""
""blur"",""1"",""2219""
""blur"",""7"",""51035""
","""event"",""trial"",""time""
""focus"",""2"",""7482""
""focus"",""7"",""54971""
","""event"",""trial"",""time""
""fullscreenenter"",""1"",""1648""
","
","","","-1","","","23","13458","5928","&#9854;","elianto","#FFFFF080","-1","-1","1","&#10004","[]","0","0","1","","","","","","","",""
"pit-trial","17","178423","0.0-2.0-6.3-0.3","battery-v0.2","","""event"",""trial"",""time""
""fullscreenenter"",""1"",""1648""
""blur"",""1"",""2219""
""focus"",""2"",""7482""
""blur"",""7"",""51035""
""focus"",""7"",""54971""
","""event"",""trial"",""time""
""blur"",""1"",""2219""
""blur"",""7"",""51035""
","""event"",""trial"",""time""
""focus"",""2"",""7482""
""focus"",""7"",""54971""
","""event"",""trial"",""time""
""fullscreenenter"",""1"",""1648""
","
","","","-1","","","23","13458","5928","&#9854;","elianto","#FFFFF080","-1","-1","1","&#10004","[]","0","0","1","","","","","","","",""
"pit-trial","18","183279","0.0-2.0-6.4-0.4","battery-v0.2","","""event"",""trial"",""time""
""fullscreenenter"",""1"",""1648""
""blur"",""1"",""2219""
""focus"",""2"",""7482""
""blur"",""7"",""51035""
""focus"",""7"",""54971""
","""event"",""trial"",""time""
""blur"",""1"",""2219""
""blur"",""7"",""51035""
","""event"",""trial"",""time""
""focus"",""2"",""7482""
""focus"",""7"",""54971""
","""event"",""trial"",""time""
""fullscreenenter"",""1"",""1648""
","
","","","-1","","","23","13458","5928","&#9854;","elianto","#FFFFF080","-1","-1","1","&#10004","[]","0","0","1","","","","","","","",""
"pit-instructions","19","336029","0.0-2.0-7.0","battery-v0.2","","""event"",""trial"",""time""
""fullscreenenter"",""1"",""1648""
""blur"",""1"",""2219""
""focus"",""2"",""7482""
""blur"",""7"",""51035""
""focus"",""7"",""54971""
","""event"",""trial"",""time""
""blur"",""1"",""2219""
""blur"",""7"",""51035""
","""event"",""trial"",""time""
""focus"",""2"",""7482""
""focus"",""7"",""54971""
","""event"",""trial"",""time""
""fullscreenenter"",""1"",""1648""
","
","","[{""page_index"":0,""viewing_time"":8897.799999998882},{""page_index"":1,""viewing_time"":6931.700000001118},{""page_index"":2,""viewing_time"":6989.799999998882},{""page_index"":3,""viewing_time"":9076.800000000745},{""page_index"":4,""viewing_time"":6477.4000000003725},{""page_index"":5,""viewing_time"":7870.5},{""page_index"":6,""viewing_time"":5252.299999998882},{""page_index"":7,""viewing_time"":9144.900000000373},{""page_index"":8,""viewing_time"":8712.800000000745},{""page_index"":9,""viewing_time"":8140},{""page_index"":10,""viewing_time"":7178.799999998882},{""page_index"":11,""viewing_time"":4834.9000000003725},{""page_index"":12,""viewing_time"":7331.300000000745},{""page_index"":13,""viewing_time"":7495.299999998882},{""page_index"":14,""viewing_time"":7722.9000000003725},{""page_index"":15,""viewing_time"":24524.400000000373},{""page_index"":16,""viewing_time"":8044.300000000745},{""page_index"":17,""viewing_time"":8117.0999999996275}]","152743.59999999963","","","","","","","","","","","","","","","","","","","","","","","",""
"pit-trial","20","340549","0.0-2.0-8.0-0.0","battery-v0.2","","""event"",""trial"",""time""
""fullscreenenter"",""1"",""1648""
""blur"",""1"",""2219""
""focus"",""2"",""7482""
""blur"",""7"",""51035""
""focus"",""7"",""54971""
","""event"",""trial"",""time""
""blur"",""1"",""2219""
""blur"",""7"",""51035""
","""event"",""trial"",""time""
""focus"",""2"",""7482""
""focus"",""7"",""54971""
","""event"",""trial"",""time""
""fullscreenenter"",""1"",""1648""
","
","","","1665.7000000011176","","","23","13458","5928","&#9776;","elianto","#3366ff99"," "," ","1","+10","[2515.5999999996275]","1","0","1","","","","","","","",""
"pit-trial","21","344486","0.0-2.0-8.0-1.0","battery-v0.2","","""event"",""trial"",""time""
""fullscreenenter"",""1"",""1648""
""blur"",""1"",""2219""
""focus"",""2"",""7482""
""blur"",""7"",""51035""
""focus"",""7"",""54971""
","""event"",""trial"",""time""
""blur"",""1"",""2219""
""blur"",""7"",""51035""
","""event"",""trial"",""time""
""focus"",""2"",""7482""
""focus"",""7"",""54971""
","""event"",""trial"",""time""
""fullscreenenter"",""1"",""1648""
","
","","","1082.4000000003725","","","23","13458","5928","&#9776;","elianto","#3366ff99"," "," ","1","+10","[1932.800000000745]","1","0","1","","","","","","","",""
"pit-trial","22","347869","0.0-2.0-8.0-2.0","battery-v0.2","","""event"",""trial"",""time""
""fullscreenenter"",""1"",""1648""
""blur"",""1"",""2219""
""focus"",""2"",""7482""
""blur"",""7"",""51035""
""focus"",""7"",""54971""
","""event"",""trial"",""time""
""blur"",""1"",""2219""
""blur"",""7"",""51035""
","""event"",""trial"",""time""
""focus"",""2"",""7482""
""focus"",""7"",""54971""
","""event"",""trial"",""time""
""fullscreenenter"",""1"",""1648""
","
","","","527.8000000007451","","","23","13458","5928","&#9776;","elianto","#3366ff99"," "," ","1","+10","[1378.9000000003725]","1","0","1","","","","","","","",""
"pit-trial","23","351146","0.0-2.0-8.0-3.0","battery-v0.2","","""event"",""trial"",""time""
""fullscreenenter"",""1"",""1648""
""blur"",""1"",""2219""
""focus"",""2"",""7482""
""blur"",""7"",""51035""
""focus"",""7"",""54971""
","""event"",""trial"",""time""
""blur"",""1"",""2219""
""blur"",""7"",""51035""
","""event"",""trial"",""time""
""focus"",""2"",""7482""
""focus"",""7"",""54971""
","""event"",""trial"",""time""
""fullscreenenter"",""1"",""1648""
","
","","","421.90000000037253","","","23","13458","5928","&#9776;","elianto","#3366ff99"," "," ","1","0","[1272.4000000003725]","1","0","1","","","","","","","",""
"pit-trial","24","354832","0.0-2.0-8.0-4.0","battery-v0.2","","""event"",""trial"",""time""
""fullscreenenter"",""1"",""1648""
""blur"",""1"",""2219""
""focus"",""2"",""7482""
""blur"",""7"",""51035""
""focus"",""7"",""54971""
","""event"",""trial"",""time""
""blur"",""1"",""2219""
""blur"",""7"",""51035""
","""event"",""trial"",""time""
""focus"",""2"",""7482""
""focus"",""7"",""54971""
","""event"",""trial"",""time""
""fullscreenenter"",""1"",""1648""
","
","","","830.9000000003725","","","23","13458","5928","&#9776;","elianto","#3366ff99"," "," ","1","+10","[1682.3999999985099]","1","0","1","","","","","","","",""
"pit-trial","25","358145","0.0-2.0-8.1-0.1","battery-v0.2","","""event"",""trial"",""time""
""fullscreenenter"",""1"",""1648""
""blur"",""1"",""2219""
""focus"",""2"",""7482""
""blur"",""7"",""51035""
""focus"",""7"",""54971""
","""event"",""trial"",""time""
""blur"",""1"",""2219""
""blur"",""7"",""51035""
","""event"",""trial"",""time""
""focus"",""2"",""7482""
""focus"",""7"",""54971""
","""event"",""trial"",""time""
""fullscreenenter"",""1"",""1648""
","
","","","457.19999999925494","","","23","13458","5928","&#9776;","elianto","#3366ff99"," "," ","1","+10","[1307.5999999996275]","1","0","1","","","","","","","",""
"pit-trial","26","361374","0.0-2.0-8.1-1.1","battery-v0.2","","""event"",""trial"",""time""
""fullscreenenter"",""1"",""1648""
""blur"",""1"",""2219""
""focus"",""2"",""7482""
""blur"",""7"",""51035""
""focus"",""7"",""54971""
","""event"",""trial"",""time""
""blur"",""1"",""2219""
""blur"",""7"",""51035""
","""event"",""trial"",""time""
""focus"",""2"",""7482""
""focus"",""7"",""54971""
","""event"",""trial"",""time""
""fullscreenenter"",""1"",""1648""
","
","","","373.8999999985099","","","23","13458","5928","&#9776;","elianto","#3366ff99"," "," ","1","+10","[1224]","1","0","1","","","","","","","",""
"pit-trial","27","364894","0.0-2.0-8.1-2.1","battery-v0.2","","""event"",""trial"",""time""
""fullscreenenter"",""1"",""1648""
""blur"",""1"",""2219""
""focus"",""2"",""7482""
""blur"",""7"",""51035""
""focus"",""7"",""54971""
","""event"",""trial"",""time""
""blur"",""1"",""2219""
""blur"",""7"",""51035""
","""event"",""trial"",""time""
""focus"",""2"",""7482""
""focus"",""7"",""54971""
","""event"",""trial"",""time""
""fullscreenenter"",""1"",""1648""
","
","","","664.5","","","23","13458","5928","&#9776;","elianto","#3366ff99"," "," ","1","+10","[1516.2999999988824]","1","0","1","","","","","","","",""
"pit-trial","28","368566","0.0-2.0-8.1-3.1","battery-v0.2","","""event"",""trial"",""time""
""fullscreenenter"",""1"",""1648""
""blur"",""1"",""2219""
""focus"",""2"",""7482""
""blur"",""7"",""51035""
""focus"",""7"",""54971""
","""event"",""trial"",""time""
""blur"",""1"",""2219""
""blur"",""7"",""51035""
","""event"",""trial"",""time""
""focus"",""2"",""7482""
""focus"",""7"",""54971""
","""event"",""trial"",""time""
""fullscreenenter"",""1"",""1648""
","
","","","817.4000000003725","","","23","13458","5928","&#9776;","elianto","#3366ff99"," "," ","1","0","[1668.2000000011176]","1","0","1","","","","","","","",""
"pit-trial","29","371916","0.0-2.0-8.1-4.1","battery-v0.2","","""event"",""trial"",""time""
""fullscreenenter"",""1"",""1648""
""blur"",""1"",""2219""
""focus"",""2"",""7482""
""blur"",""7"",""51035""
""focus"",""7"",""54971""
","""event"",""trial"",""time""
""blur"",""1"",""2219""
""blur"",""7"",""51035""
","""event"",""trial"",""time""
""focus"",""2"",""7482""
""focus"",""7"",""54971""
","""event"",""trial"",""time""
""fullscreenenter"",""1"",""1648""
","
","","","494.5","","","23","13458","5928","&#9776;","elianto","#3366ff99"," "," ","1","+10","[1345.7999999988824]","1","0","1","","","","","","","",""
"pit-trial","30","375108","0.0-2.0-8.2-0.2","battery-v0.2","","""event"",""trial"",""time""
""fullscreenenter"",""1"",""1648""
""blur"",""1"",""2219""
""focus"",""2"",""7482""
""blur"",""7"",""51035""
""focus"",""7"",""54971""
","""event"",""trial"",""time""
""blur"",""1"",""2219""
""blur"",""7"",""51035""
","""event"",""trial"",""time""
""focus"",""2"",""7482""
""focus"",""7"",""54971""
","""event"",""trial"",""time""
""fullscreenenter"",""1"",""1648""
","
","","","335.7000000011176","","","23","13458","5928","&#9776;","elianto","#3366ff99"," "," ","1","+10","[1187.9000000003725]","1","0","1","","","","","","","",""
"pit-trial","31","378714","0.0-2.0-8.2-1.2","battery-v0.2","","""event"",""trial"",""time""
""fullscreenenter"",""1"",""1648""
""blur"",""1"",""2219""
""focus"",""2"",""7482""
""blur"",""7"",""51035""
""focus"",""7"",""54971""
","""event"",""trial"",""time""
""blur"",""1"",""2219""
""blur"",""7"",""51035""
","""event"",""trial"",""time""
""focus"",""2"",""7482""
""focus"",""7"",""54971""
","""event"",""trial"",""time""
""fullscreenenter"",""1"",""1648""
","
","","","751.3000000007451","","","23","13458","5928","&#9776;","elianto","#3366ff99"," "," ","1","+10","[1602.7000000011176]","1","0","1","","","","","","","",""
"pit-trial","32","381704","0.0-2.0-8.2-2.2","battery-v0.2","","""event"",""trial"",""time""
""fullscreenenter"",""1"",""1648""
""blur"",""1"",""2219""
""focus"",""2"",""7482""
""blur"",""7"",""51035""
""focus"",""7"",""54971""
","""event"",""trial"",""time""
""blur"",""1"",""2219""
""blur"",""7"",""51035""
","""event"",""trial"",""time""
""focus"",""2"",""7482""
""focus"",""7"",""54971""
","""event"",""trial"",""time""
""fullscreenenter"",""1"",""1648""
","
","","","133.5","","","23","13458","5928","&#9776;","elianto","#3366ff99"," "," ","1","+10","[985.1999999992549]","1","0","1","","","","","","","",""
"pit-trial","33","385824","0.0-2.0-8.2-3.2","battery-v0.2","","""event"",""trial"",""time""
""fullscreenenter"",""1"",""1648""
""blur"",""1"",""2219""
""focus"",""2"",""7482""
""blur"",""7"",""51035""
""focus"",""7"",""54971""
","""event"",""trial"",""time""
""blur"",""1"",""2219""
""blur"",""7"",""51035""
","""event"",""trial"",""time""
""focus"",""2"",""7482""
""focus"",""7"",""54971""
","""event"",""trial"",""time""
""fullscreenenter"",""1"",""1648""
","
","","","1265","","","23","13458","5928","&#9776;","elianto","#3366ff99"," "," ","1","0","[2115.699999999255]","1","0","1","","","","","","","",""
"pit-trial","34","389349","0.0-2.0-8.2-4.2","battery-v0.2","","""event"",""trial"",""time""
""fullscreenenter"",""1"",""1648""
""blur"",""1"",""2219""
""focus"",""2"",""7482""
""blur"",""7"",""51035""
""focus"",""7"",""54971""
","""event"",""trial"",""time""
""blur"",""1"",""2219""
""blur"",""7"",""51035""
","""event"",""trial"",""time""
""focus"",""2"",""7482""
""focus"",""7"",""54971""
","""event"",""trial"",""time""
""fullscreenenter"",""1"",""1648""
","
","","","669.5","","","23","13458","5928","&#9776;","elianto","#3366ff99"," "," ","1","+10","[1520.6000000014901]","1","0","1","","","","","","","",""
"call-function","35","389350","0.0-2.0-9.0","battery-v0.2","","""event"",""trial"",""time""
""fullscreenenter"",""1"",""1648""
""blur"",""1"",""2219""
""focus"",""2"",""7482""
""blur"",""7"",""51035""
""focus"",""7"",""54971""
","""event"",""trial"",""time""
""blur"",""1"",""2219""
""blur"",""7"",""51035""
","""event"",""trial"",""time""
""focus"",""2"",""7482""
""focus"",""7"",""54971""
","""event"",""trial"",""time""
""fullscreenenter"",""1"",""1648""
","
","","","","","","","","","","","","","","","","","","","","","","","","","","",""
"pit-instructions","36","441041","0.0-2.0-10.0","battery-v0.2","","""event"",""trial"",""time""
""fullscreenenter"",""1"",""1648""
""blur"",""1"",""2219""
""focus"",""2"",""7482""
""blur"",""7"",""51035""
""focus"",""7"",""54971""
","""event"",""trial"",""time""
""blur"",""1"",""2219""
""blur"",""7"",""51035""
","""event"",""trial"",""time""
""focus"",""2"",""7482""
""focus"",""7"",""54971""
","""event"",""trial"",""time""
""fullscreenenter"",""1"",""1648""
","
","","[{""page_index"":0,""viewing_time"":15044.400000000373},{""page_index"":1,""viewing_time"":7681.9000000003725},{""page_index"":2,""viewing_time"":9908.199999999255},{""page_index"":3,""viewing_time"":11217},{""page_index"":4,""viewing_time"":7836.4000000003725}]","51688.5","","","","","","","","","","","","","","","","","","","","","","","",""
"pit-trial","37","445897","0.0-2.0-11.0-0.0","battery-v0.2","","""event"",""trial"",""time""
""fullscreenenter"",""1"",""1648""
""blur"",""1"",""2219""
""focus"",""2"",""7482""
""blur"",""7"",""51035""
""focus"",""7"",""54971""
","""event"",""trial"",""time""
""blur"",""1"",""2219""
""blur"",""7"",""51035""
","""event"",""trial"",""time""
""focus"",""2"",""7482""
""focus"",""7"",""54971""
","""event"",""trial"",""time""
""fullscreenenter"",""1"",""1648""
","
","","","-1","","","23","13458","5928","&#9761;","elianto","#3366ff99","-1","-1","1","+10","[]","0","0","2","","","","","","","",""
"pit-trial","38","450753","0.0-2.0-11.0-1.0","battery-v0.2","","""event"",""trial"",""time""
""fullscreenenter"",""1"",""1648""
""blur"",""1"",""2219""
""focus"",""2"",""7482""
""blur"",""7"",""51035""
""focus"",""7"",""54971""
","""event"",""trial"",""time""
""blur"",""1"",""2219""
""blur"",""7"",""51035""
","""event"",""trial"",""time""
""focus"",""2"",""7482""
""focus"",""7"",""54971""
","""event"",""trial"",""time""
""fullscreenenter"",""1"",""1648""
","
","","","-1","","","23","13458","5928","&#9761;","elianto","#3366ff99","-1","-1","1","+10","[]","0","0","2","","","","","","","",""
"pit-trial","39","455609","0.0-2.0-11.0-2.0","battery-v0.2","","""event"",""trial"",""time""
""fullscreenenter"",""1"",""1648""
""blur"",""1"",""2219""
""focus"",""2"",""7482""
""blur"",""7"",""51035""
""focus"",""7"",""54971""
","""event"",""trial"",""time""
""blur"",""1"",""2219""
""blur"",""7"",""51035""
","""event"",""trial"",""time""
""focus"",""2"",""7482""
""focus"",""7"",""54971""
","""event"",""trial"",""time""
""fullscreenenter"",""1"",""1648""
","
","","","-1","","","23","13458","5928","&#9761;","elianto","#3366ff99","-1","-1","1","+10","[]","0","0","2","","","","","","","",""
"pit-trial","40","460465","0.0-2.0-11.0-3.0","battery-v0.2","","""event"",""trial"",""time""
""fullscreenenter"",""1"",""1648""
""blur"",""1"",""2219""
""focus"",""2"",""7482""
""blur"",""7"",""51035""
""focus"",""7"",""54971""
","""event"",""trial"",""time""
""blur"",""1"",""2219""
""blur"",""7"",""51035""
","""event"",""trial"",""time""
""focus"",""2"",""7482""
""focus"",""7"",""54971""
","""event"",""trial"",""time""
""fullscreenenter"",""1"",""1648""
","
","","","-1","","","23","13458","5928","&#9761;","elianto","#3366ff99","-1","-1","1","0","[]","0","0","2","","","","","","","",""
"pit-trial","41","465321","0.0-2.0-11.0-4.0","battery-v0.2","","""event"",""trial"",""time""
""fullscreenenter"",""1"",""1648""
""blur"",""1"",""2219""
""focus"",""2"",""7482""
""blur"",""7"",""51035""
""focus"",""7"",""54971""
","""event"",""trial"",""time""
""blur"",""1"",""2219""
""blur"",""7"",""51035""
","""event"",""trial"",""time""
""focus"",""2"",""7482""
""focus"",""7"",""54971""
","""event"",""trial"",""time""
""fullscreenenter"",""1"",""1648""
","
","","","-1","","","23","13458","5928","&#9761;","elianto","#3366ff99","-1","-1","1","+10","[]","0","0","2","","","","","","","",""
"pit-trial","42","470176","0.0-2.0-11.1-0.1","battery-v0.2","","""event"",""trial"",""time""
""fullscreenenter"",""1"",""1648""
""blur"",""1"",""2219""
""focus"",""2"",""7482""
""blur"",""7"",""51035""
""focus"",""7"",""54971""
","""event"",""trial"",""time""
""blur"",""1"",""2219""
""blur"",""7"",""51035""
","""event"",""trial"",""time""
""focus"",""2"",""7482""
""focus"",""7"",""54971""
","""event"",""trial"",""time""
""fullscreenenter"",""1"",""1648""
","
","","","-1","","","23","13458","5928","&#9761;","elianto","#3366ff99","-1","-1","1","+10","[]","0","0","2","","","","","","","",""
"pit-trial","43","475032","0.0-2.0-11.1-1.1","battery-v0.2","","""event"",""trial"",""time""
""fullscreenenter"",""1"",""1648""
""blur"",""1"",""2219""
""focus"",""2"",""7482""
""blur"",""7"",""51035""
""focus"",""7"",""54971""
","""event"",""trial"",""time""
""blur"",""1"",""2219""
""blur"",""7"",""51035""
","""event"",""trial"",""time""
""focus"",""2"",""7482""
""focus"",""7"",""54971""
","""event"",""trial"",""time""
""fullscreenenter"",""1"",""1648""
","
","","","-1","","","23","13458","5928","&#9761;","elianto","#3366ff99","-1","-1","1","+10","[]","0","0","2","","","","","","","",""
"pit-trial","44","479887","0.0-2.0-11.1-2.1","battery-v0.2","","""event"",""trial"",""time""
""fullscreenenter"",""1"",""1648""
""blur"",""1"",""2219""
""focus"",""2"",""7482""
""blur"",""7"",""51035""
""focus"",""7"",""54971""
","""event"",""trial"",""time""
""blur"",""1"",""2219""
""blur"",""7"",""51035""
","""event"",""trial"",""time""
""focus"",""2"",""7482""
""focus"",""7"",""54971""
","""event"",""trial"",""time""
""fullscreenenter"",""1"",""1648""
","
","","","-1","","","23","13458","5928","&#9761;","elianto","#3366ff99","-1","-1","1","+10","[]","0","0","2","","","","","","","",""
"pit-trial","45","484743","0.0-2.0-11.1-3.1","battery-v0.2","","""event"",""trial"",""time""
""fullscreenenter"",""1"",""1648""
""blur"",""1"",""2219""
""focus"",""2"",""7482""
""blur"",""7"",""51035""
""focus"",""7"",""54971""
","""event"",""trial"",""time""
""blur"",""1"",""2219""
""blur"",""7"",""51035""
","""event"",""trial"",""time""
""focus"",""2"",""7482""
""focus"",""7"",""54971""
","""event"",""trial"",""time""
""fullscreenenter"",""1"",""1648""
","
","","","-1","","","23","13458","5928","&#9761;","elianto","#3366ff99","-1","-1","1","0","[]","0","0","2","","","","","","","",""
"pit-trial","46","489599","0.0-2.0-11.1-4.1","battery-v0.2","","""event"",""trial"",""time""
""fullscreenenter"",""1"",""1648""
""blur"",""1"",""2219""
""focus"",""2"",""7482""
""blur"",""7"",""51035""
""focus"",""7"",""54971""
","""event"",""trial"",""time""
""blur"",""1"",""2219""
""blur"",""7"",""51035""
","""event"",""trial"",""time""
""focus"",""2"",""7482""
""focus"",""7"",""54971""
","""event"",""trial"",""time""
""fullscreenenter"",""1"",""1648""
","
","","","-1","","","23","13458","5928","&#9761;","elianto","#3366ff99","-1","-1","1","+10","[]","0","0","2","","","","","","","",""
"pit-trial","47","494455","0.0-2.0-11.2-0.2","battery-v0.2","","""event"",""trial"",""time""
""fullscreenenter"",""1"",""1648""
""blur"",""1"",""2219""
""focus"",""2"",""7482""
""blur"",""7"",""51035""
""focus"",""7"",""54971""
","""event"",""trial"",""time""
""blur"",""1"",""2219""
""blur"",""7"",""51035""
","""event"",""trial"",""time""
""focus"",""2"",""7482""
""focus"",""7"",""54971""
","""event"",""trial"",""time""
""fullscreenenter"",""1"",""1648""
","
","","","-1","","","23","13458","5928","&#9761;","elianto","#3366ff99","-1","-1","1","+10","[]","0","0","2","","","","","","","",""
"pit-trial","48","499311","0.0-2.0-11.2-1.2","battery-v0.2","","""event"",""trial"",""time""
""fullscreenenter"",""1"",""1648""
""blur"",""1"",""2219""
""focus"",""2"",""7482""
""blur"",""7"",""51035""
""focus"",""7"",""54971""
","""event"",""trial"",""time""
""blur"",""1"",""2219""
""blur"",""7"",""51035""
","""event"",""trial"",""time""
""focus"",""2"",""7482""
""focus"",""7"",""54971""
","""event"",""trial"",""time""
""fullscreenenter"",""1"",""1648""
","
","","","-1","","","23","13458","5928","&#9761;","elianto","#3366ff99","-1","-1","1","+10","[]","0","0","2","","","","","","","",""
"pit-trial","49","504166","0.0-2.0-11.2-2.2","battery-v0.2","","""event"",""trial"",""time""
""fullscreenenter"",""1"",""1648""
""blur"",""1"",""2219""
""focus"",""2"",""7482""
""blur"",""7"",""51035""
""focus"",""7"",""54971""
","""event"",""trial"",""time""
""blur"",""1"",""2219""
""blur"",""7"",""51035""
","""event"",""trial"",""time""
""focus"",""2"",""7482""
""focus"",""7"",""54971""
","""event"",""trial"",""time""
""fullscreenenter"",""1"",""1648""
","
","","","-1","","","23","13458","5928","&#9761;","elianto","#3366ff99","-1","-1","1","+10","[]","0","0","2","","","","","","","",""
"pit-trial","50","509022","0.0-2.0-11.2-3.2","battery-v0.2","","""event"",""trial"",""time""
""fullscreenenter"",""1"",""1648""
""blur"",""1"",""2219""
""focus"",""2"",""7482""
""blur"",""7"",""51035""
""focus"",""7"",""54971""
","""event"",""trial"",""time""
""blur"",""1"",""2219""
""blur"",""7"",""51035""
","""event"",""trial"",""time""
""focus"",""2"",""7482""
""focus"",""7"",""54971""
","""event"",""trial"",""time""
""fullscreenenter"",""1"",""1648""
","
","","","-1","","","23","13458","5928","&#9761;","elianto","#3366ff99","-1","-1","1","0","[]","0","0","2","","","","","","","",""
"pit-trial","51","513878","0.0-2.0-11.2-4.2","battery-v0.2","","""event"",""trial"",""time""
""fullscreenenter"",""1"",""1648""
""blur"",""1"",""2219""
""focus"",""2"",""7482""
""blur"",""7"",""51035""
""focus"",""7"",""54971""
","""event"",""trial"",""time""
""blur"",""1"",""2219""
""blur"",""7"",""51035""
","""event"",""trial"",""time""
""focus"",""2"",""7482""
""focus"",""7"",""54971""
","""event"",""trial"",""time""
""fullscreenenter"",""1"",""1648""
","
","","","-1","","","23","13458","5928","&#9761;","elianto","#3366ff99","-1","-1","1","+10","[]","0","0","2","","","","","","","",""
"pit-trial","52","518733","0.0-2.0-11.3-0.3","battery-v0.2","","""event"",""trial"",""time""
""fullscreenenter"",""1"",""1648""
""blur"",""1"",""2219""
""focus"",""2"",""7482""
""blur"",""7"",""51035""
""focus"",""7"",""54971""
","""event"",""trial"",""time""
""blur"",""1"",""2219""
""blur"",""7"",""51035""
","""event"",""trial"",""time""
""focus"",""2"",""7482""
""focus"",""7"",""54971""
","""event"",""trial"",""time""
""fullscreenenter"",""1"",""1648""
","
","","","-1","","","23","13458","5928","&#9761;","elianto","#3366ff99","-1","-1","1","+10","[]","0","0","2","","","","","","","",""
"pit-trial","53","523589","0.0-2.0-11.3-1.3","battery-v0.2","","""event"",""trial"",""time""
""fullscreenenter"",""1"",""1648""
""blur"",""1"",""2219""
""focus"",""2"",""7482""
""blur"",""7"",""51035""
""focus"",""7"",""54971""
","""event"",""trial"",""time""
""blur"",""1"",""2219""
""blur"",""7"",""51035""
","""event"",""trial"",""time""
""focus"",""2"",""7482""
""focus"",""7"",""54971""
","""event"",""trial"",""time""
""fullscreenenter"",""1"",""1648""
","
","","","-1","","","23","13458","5928","&#9761;","elianto","#3366ff99","-1","-1","1","+10","[]","0","0","2","","","","","","","",""
"pit-trial","54","528445","0.0-2.0-11.3-2.3","battery-v0.2","","""event"",""trial"",""time""
""fullscreenenter"",""1"",""1648""
""blur"",""1"",""2219""
""focus"",""2"",""7482""
""blur"",""7"",""51035""
""focus"",""7"",""54971""
","""event"",""trial"",""time""
""blur"",""1"",""2219""
""blur"",""7"",""51035""
","""event"",""trial"",""time""
""focus"",""2"",""7482""
""focus"",""7"",""54971""
","""event"",""trial"",""time""
""fullscreenenter"",""1"",""1648""
","
","","","-1","","","23","13458","5928","&#9761;","elianto","#3366ff99","-1","-1","1","+10","[]","0","0","2","","","","","","","",""
"pit-trial","55","533301","0.0-2.0-11.3-3.3","battery-v0.2","","""event"",""trial"",""time""
""fullscreenenter"",""1"",""1648""
""blur"",""1"",""2219""
""focus"",""2"",""7482""
""blur"",""7"",""51035""
""focus"",""7"",""54971""
","""event"",""trial"",""time""
""blur"",""1"",""2219""
""blur"",""7"",""51035""
","""event"",""trial"",""time""
""focus"",""2"",""7482""
""focus"",""7"",""54971""
","""event"",""trial"",""time""
""fullscreenenter"",""1"",""1648""
","
","","","-1","","","23","13458","5928","&#9761;","elianto","#3366ff99","-1","-1","1","0","[]","0","0","2","","","","","","","",""
"pit-trial","56","538156","0.0-2.0-11.3-4.3","battery-v0.2","","""event"",""trial"",""time""
""fullscreenenter"",""1"",""1648""
""blur"",""1"",""2219""
""focus"",""2"",""7482""
""blur"",""7"",""51035""
""focus"",""7"",""54971""
","""event"",""trial"",""time""
""blur"",""1"",""2219""
""blur"",""7"",""51035""
","""event"",""trial"",""time""
""focus"",""2"",""7482""
""focus"",""7"",""54971""
","""event"",""trial"",""time""
""fullscreenenter"",""1"",""1648""
","
","","","-1","","","23","13458","5928","&#9761;","elianto","#3366ff99","-1","-1","1","+10","[]","0","0","2","","","","","","","",""
"call-function","57","538158","0.0-2.0-12.0","battery-v0.2","","""event"",""trial"",""time""
""fullscreenenter"",""1"",""1648""
""blur"",""1"",""2219""
""focus"",""2"",""7482""
""blur"",""7"",""51035""
""focus"",""7"",""54971""
","""event"",""trial"",""time""
""blur"",""1"",""2219""
""blur"",""7"",""51035""
","""event"",""trial"",""time""
""focus"",""2"",""7482""
""focus"",""7"",""54971""
","""event"",""trial"",""time""
""fullscreenenter"",""1"",""1648""
","
","","","","","","","","","","","","","","","","","","","","","","","","","","",""
"pit-instructions","58","583798","0.0-2.0-13.0","battery-v0.2","","""event"",""trial"",""time""
""fullscreenenter"",""1"",""1648""
""blur"",""1"",""2219""
""focus"",""2"",""7482""
""blur"",""7"",""51035""
""focus"",""7"",""54971""
","""event"",""trial"",""time""
""blur"",""1"",""2219""
""blur"",""7"",""51035""
","""event"",""trial"",""time""
""focus"",""2"",""7482""
""focus"",""7"",""54971""
","""event"",""trial"",""time""
""fullscreenenter"",""1"",""1648""
","
","","[{""page_index"":0,""viewing_time"":10147.700000001118},{""page_index"":1,""viewing_time"":8327.39999999851},{""page_index"":2,""viewing_time"":5705.300000000745},{""page_index"":3,""viewing_time"":13746.599999999627},{""page_index"":4,""viewing_time"":7710.9000000003725}]","45638.5","","","","","","","","","","","","","","","","","","","","","","","",""
"pit-trial","59","587294","0.0-2.0-14.0-0.0","battery-v0.2","","""event"",""trial"",""time""
""fullscreenenter"",""1"",""1648""
""blur"",""1"",""2219""
""focus"",""2"",""7482""
""blur"",""7"",""51035""
""focus"",""7"",""54971""
","""event"",""trial"",""time""
""blur"",""1"",""2219""
""blur"",""7"",""51035""
","""event"",""trial"",""time""
""focus"",""2"",""7482""
""focus"",""7"",""54971""
","""event"",""trial"",""time""
""fullscreenenter"",""1"",""1648""
","
","","","640.4000000003725","","","23","13458","5928","&#9826;","elianto","#f73b6a7A","-1"," ","0","-10","[1491.300000000745]","1","0","3","","","","","","","",""
"pit-trial","60","592151","0.0-2.0-14.0-1.0","battery-v0.2","","""event"",""trial"",""time""
""fullscreenenter"",""1"",""1648""
""blur"",""1"",""2219""
""focus"",""2"",""7482""
""blur"",""7"",""51035""
""focus"",""7"",""54971""
","""event"",""trial"",""time""
""blur"",""1"",""2219""
""blur"",""7"",""51035""
","""event"",""trial"",""time""
""focus"",""2"",""7482""
""focus"",""7"",""54971""
","""event"",""trial"",""time""
""fullscreenenter"",""1"",""1648""
","
","","","-1","","","23","13458","5928","&#9826;","elianto","#f73b6a7A","-1","-1","1","0","[]","0","0","3","","","","","","","",""
"pit-trial","61","597005","0.0-2.0-14.0-2.0","battery-v0.2","","""event"",""trial"",""time""
""fullscreenenter"",""1"",""1648""
""blur"",""1"",""2219""
""focus"",""2"",""7482""
""blur"",""7"",""51035""
""focus"",""7"",""54971""
","""event"",""trial"",""time""
""blur"",""1"",""2219""
""blur"",""7"",""51035""
","""event"",""trial"",""time""
""focus"",""2"",""7482""
""focus"",""7"",""54971""
","""event"",""trial"",""time""
""fullscreenenter"",""1"",""1648""
","
","","","-1","","","23","13458","5928","&#9826;","elianto","#f73b6a7A","-1","-1","1","0","[]","0","0","3","","","","","","","",""
"pit-trial","62","601860","0.0-2.0-14.0-3.0","battery-v0.2","","""event"",""trial"",""time""
""fullscreenenter"",""1"",""1648""
""blur"",""1"",""2219""
""focus"",""2"",""7482""
""blur"",""7"",""51035""
""focus"",""7"",""54971""
","""event"",""trial"",""time""
""blur"",""1"",""2219""
""blur"",""7"",""51035""
","""event"",""trial"",""time""
""focus"",""2"",""7482""
""focus"",""7"",""54971""
","""event"",""trial"",""time""
""fullscreenenter"",""1"",""1648""
","
","","","-1","","","23","13458","5928","&#9826;","elianto","#f73b6a7A","-1","-1","1","-10","[]","0","0","3","","","","","","","",""
"pit-trial","63","606715","0.0-2.0-14.0-4.0","battery-v0.2","","""event"",""trial"",""time""
""fullscreenenter"",""1"",""1648""
""blur"",""1"",""2219""
""focus"",""2"",""7482""
""blur"",""7"",""51035""
""focus"",""7"",""54971""
","""event"",""trial"",""time""
""blur"",""1"",""2219""
""blur"",""7"",""51035""
","""event"",""trial"",""time""
""focus"",""2"",""7482""
""focus"",""7"",""54971""
","""event"",""trial"",""time""
""fullscreenenter"",""1"",""1648""
","
","","","-1","","","23","13458","5928","&#9826;","elianto","#f73b6a7A","-1","-1","1","0","[]","0","0","3","","","","","","","",""
"pit-trial","64","611571","0.0-2.0-14.1-0.1","battery-v0.2","","""event"",""trial"",""time""
""fullscreenenter"",""1"",""1648""
""blur"",""1"",""2219""
""focus"",""2"",""7482""
""blur"",""7"",""51035""
""focus"",""7"",""54971""
","""event"",""trial"",""time""
""blur"",""1"",""2219""
""blur"",""7"",""51035""
","""event"",""trial"",""time""
""focus"",""2"",""7482""
""focus"",""7"",""54971""
","""event"",""trial"",""time""
""fullscreenenter"",""1"",""1648""
","
","","","-1","","","23","13458","5928","&#9826;","elianto","#f73b6a7A","-1","-1","1","0","[]","0","0","3","","","","","","","",""
"pit-trial","65","616426","0.0-2.0-14.1-1.1","battery-v0.2","","""event"",""trial"",""time""
""fullscreenenter"",""1"",""1648""
""blur"",""1"",""2219""
""focus"",""2"",""7482""
""blur"",""7"",""51035""
""focus"",""7"",""54971""
","""event"",""trial"",""time""
""blur"",""1"",""2219""
""blur"",""7"",""51035""
","""event"",""trial"",""time""
""focus"",""2"",""7482""
""focus"",""7"",""54971""
","""event"",""trial"",""time""
""fullscreenenter"",""1"",""1648""
","
","","","-1","","","23","13458","5928","&#9826;","elianto","#f73b6a7A","-1","-1","1","0","[]","0","0","3","","","","","","","",""
"pit-trial","66","621281","0.0-2.0-14.1-2.1","battery-v0.2","","""event"",""trial"",""time""
""fullscreenenter"",""1"",""1648""
""blur"",""1"",""2219""
""focus"",""2"",""7482""
""blur"",""7"",""51035""
""focus"",""7"",""54971""
","""event"",""trial"",""time""
""blur"",""1"",""2219""
""blur"",""7"",""51035""
","""event"",""trial"",""time""
""focus"",""2"",""7482""
""focus"",""7"",""54971""
","""event"",""trial"",""time""
""fullscreenenter"",""1"",""1648""
","
","","","-1","","","23","13458","5928","&#9826;","elianto","#f73b6a7A","-1","-1","1","0","[]","0","0","3","","","","","","","",""
"pit-trial","67","626138","0.0-2.0-14.1-3.1","battery-v0.2","","""event"",""trial"",""time""
""fullscreenenter"",""1"",""1648""
""blur"",""1"",""2219""
""focus"",""2"",""7482""
""blur"",""7"",""51035""
""focus"",""7"",""54971""
","""event"",""trial"",""time""
""blur"",""1"",""2219""
""blur"",""7"",""51035""
","""event"",""trial"",""time""
""focus"",""2"",""7482""
""focus"",""7"",""54971""
","""event"",""trial"",""time""
""fullscreenenter"",""1"",""1648""
","
","","","-1","","","23","13458","5928","&#9826;","elianto","#f73b6a7A","-1","-1","1","-10","[]","0","0","3","","","","","","","",""
"pit-trial","68","630993","0.0-2.0-14.1-4.1","battery-v0.2","","""event"",""trial"",""time""
""fullscreenenter"",""1"",""1648""
""blur"",""1"",""2219""
""focus"",""2"",""7482""
""blur"",""7"",""51035""
""focus"",""7"",""54971""
","""event"",""trial"",""time""
""blur"",""1"",""2219""
""blur"",""7"",""51035""
","""event"",""trial"",""time""
""focus"",""2"",""7482""
""focus"",""7"",""54971""
","""event"",""trial"",""time""
""fullscreenenter"",""1"",""1648""
","
","","","-1","","","23","13458","5928","&#9826;","elianto","#f73b6a7A","-1","-1","1","0","[]","0","0","3","","","","","","","",""
"pit-trial","69","635848","0.0-2.0-14.2-0.2","battery-v0.2","","""event"",""trial"",""time""
""fullscreenenter"",""1"",""1648""
""blur"",""1"",""2219""
""focus"",""2"",""7482""
""blur"",""7"",""51035""
""focus"",""7"",""54971""
","""event"",""trial"",""time""
""blur"",""1"",""2219""
""blur"",""7"",""51035""
","""event"",""trial"",""time""
""focus"",""2"",""7482""
""focus"",""7"",""54971""
","""event"",""trial"",""time""
""fullscreenenter"",""1"",""1648""
","
","","","-1","","","23","13458","5928","&#9826;","elianto","#f73b6a7A","-1","-1","1","0","[]","0","0","3","","","","","","","",""
"pit-trial","70","640704","0.0-2.0-14.2-1.2","battery-v0.2","","""event"",""trial"",""time""
""fullscreenenter"",""1"",""1648""
""blur"",""1"",""2219""
""focus"",""2"",""7482""
""blur"",""7"",""51035""
""focus"",""7"",""54971""
","""event"",""trial"",""time""
""blur"",""1"",""2219""
""blur"",""7"",""51035""
","""event"",""trial"",""time""
""focus"",""2"",""7482""
""focus"",""7"",""54971""
","""event"",""trial"",""time""
""fullscreenenter"",""1"",""1648""
","
","","","-1","","","23","13458","5928","&#9826;","elianto","#f73b6a7A","-1","-1","1","0","[]","0","0","3","","","","","","","",""
"pit-trial","71","645558","0.0-2.0-14.2-2.2","battery-v0.2","","""event"",""trial"",""time""
""fullscreenenter"",""1"",""1648""
""blur"",""1"",""2219""
""focus"",""2"",""7482""
""blur"",""7"",""51035""
""focus"",""7"",""54971""
","""event"",""trial"",""time""
""blur"",""1"",""2219""
""blur"",""7"",""51035""
","""event"",""trial"",""time""
""focus"",""2"",""7482""
""focus"",""7"",""54971""
","""event"",""trial"",""time""
""fullscreenenter"",""1"",""1648""
","
","","","-1","","","23","13458","5928","&#9826;","elianto","#f73b6a7A","-1","-1","1","0","[]","0","0","3","","","","","","","",""
"pit-trial","72","650413","0.0-2.0-14.2-3.2","battery-v0.2","","""event"",""trial"",""time""
""fullscreenenter"",""1"",""1648""
""blur"",""1"",""2219""
""focus"",""2"",""7482""
""blur"",""7"",""51035""
""focus"",""7"",""54971""
","""event"",""trial"",""time""
""blur"",""1"",""2219""
""blur"",""7"",""51035""
","""event"",""trial"",""time""
""focus"",""2"",""7482""
""focus"",""7"",""54971""
","""event"",""trial"",""time""
""fullscreenenter"",""1"",""1648""
","
","","","-1","","","23","13458","5928","&#9826;","elianto","#f73b6a7A","-1","-1","1","-10","[]","0","0","3","","","","","","","",""
"pit-trial","73","655268","0.0-2.0-14.2-4.2","battery-v0.2","","""event"",""trial"",""time""
""fullscreenenter"",""1"",""1648""
""blur"",""1"",""2219""
""focus"",""2"",""7482""
""blur"",""7"",""51035""
""focus"",""7"",""54971""
","""event"",""trial"",""time""
""blur"",""1"",""2219""
""blur"",""7"",""51035""
","""event"",""trial"",""time""
""focus"",""2"",""7482""
""focus"",""7"",""54971""
","""event"",""trial"",""time""
""fullscreenenter"",""1"",""1648""
","
","","","-1","","","23","13458","5928","&#9826;","elianto","#f73b6a7A","-1","-1","1","0","[]","0","0","3","","","","","","","",""
"pit-trial","74","660125","0.0-2.0-14.3-0.3","battery-v0.2","","""event"",""trial"",""time""
""fullscreenenter"",""1"",""1648""
""blur"",""1"",""2219""
""focus"",""2"",""7482""
""blur"",""7"",""51035""
""focus"",""7"",""54971""
","""event"",""trial"",""time""
""blur"",""1"",""2219""
""blur"",""7"",""51035""
","""event"",""trial"",""time""
""focus"",""2"",""7482""
""focus"",""7"",""54971""
","""event"",""trial"",""time""
""fullscreenenter"",""1"",""1648""
","
","","","-1","","","23","13458","5928","&#9826;","elianto","#f73b6a7A","-1","-1","1","0","[]","0","0","3","","","","","","","",""
"pit-trial","75","664980","0.0-2.0-14.3-1.3","battery-v0.2","","""event"",""trial"",""time""
""fullscreenenter"",""1"",""1648""
""blur"",""1"",""2219""
""focus"",""2"",""7482""
""blur"",""7"",""51035""
""focus"",""7"",""54971""
","""event"",""trial"",""time""
""blur"",""1"",""2219""
""blur"",""7"",""51035""
","""event"",""trial"",""time""
""focus"",""2"",""7482""
""focus"",""7"",""54971""
","""event"",""trial"",""time""
""fullscreenenter"",""1"",""1648""
","
","","","-1","","","23","13458","5928","&#9826;","elianto","#f73b6a7A","-1","-1","1","0","[]","0","0","3","","","","","","","",""
"pit-trial","76","669836","0.0-2.0-14.3-2.3","battery-v0.2","","""event"",""trial"",""time""
""fullscreenenter"",""1"",""1648""
""blur"",""1"",""2219""
""focus"",""2"",""7482""
""blur"",""7"",""51035""
""focus"",""7"",""54971""
","""event"",""trial"",""time""
""blur"",""1"",""2219""
""blur"",""7"",""51035""
","""event"",""trial"",""time""
""focus"",""2"",""7482""
""focus"",""7"",""54971""
","""event"",""trial"",""time""
""fullscreenenter"",""1"",""1648""
","
","","","-1","","","23","13458","5928","&#9826;","elianto","#f73b6a7A","-1","-1","1","0","[]","0","0","3","","","","","","","",""
"pit-trial","77","674691","0.0-2.0-14.3-3.3","battery-v0.2","","""event"",""trial"",""time""
""fullscreenenter"",""1"",""1648""
""blur"",""1"",""2219""
""focus"",""2"",""7482""
""blur"",""7"",""51035""
""focus"",""7"",""54971""
","""event"",""trial"",""time""
""blur"",""1"",""2219""
""blur"",""7"",""51035""
","""event"",""trial"",""time""
""focus"",""2"",""7482""
""focus"",""7"",""54971""
","""event"",""trial"",""time""
""fullscreenenter"",""1"",""1648""
","
","","","-1","","","23","13458","5928","&#9826;","elianto","#f73b6a7A","-1","-1","1","-10","[]","0","0","3","","","","","","","",""
"pit-trial","78","679546","0.0-2.0-14.3-4.3","battery-v0.2","","""event"",""trial"",""time""
""fullscreenenter"",""1"",""1648""
""blur"",""1"",""2219""
""focus"",""2"",""7482""
""blur"",""7"",""51035""
""focus"",""7"",""54971""
","""event"",""trial"",""time""
""blur"",""1"",""2219""
""blur"",""7"",""51035""
","""event"",""trial"",""time""
""focus"",""2"",""7482""
""focus"",""7"",""54971""
","""event"",""trial"",""time""
""fullscreenenter"",""1"",""1648""
","
","","","-1","","","23","13458","5928","&#9826;","elianto","#f73b6a7A","-1","-1","1","0","[]","0","0","3","","","","","","","",""
"call-function","79","679548","0.0-2.0-15.0","battery-v0.2","","""event"",""trial"",""time""
""fullscreenenter"",""1"",""1648""
""blur"",""1"",""2219""
""focus"",""2"",""7482""
""blur"",""7"",""51035""
""focus"",""7"",""54971""
","""event"",""trial"",""time""
""blur"",""1"",""2219""
""blur"",""7"",""51035""
","""event"",""trial"",""time""
""focus"",""2"",""7482""
""focus"",""7"",""54971""
","""event"",""trial"",""time""
""fullscreenenter"",""1"",""1648""
","
","","","","","","","","","","","","","","","","","","","","","","","","","","",""
"pit-instructions","80","716899","0.0-2.0-16.0","battery-v0.2","","""event"",""trial"",""time""
""fullscreenenter"",""1"",""1648""
""blur"",""1"",""2219""
""focus"",""2"",""7482""
""blur"",""7"",""51035""
""focus"",""7"",""54971""
","""event"",""trial"",""time""
""blur"",""1"",""2219""
""blur"",""7"",""51035""
","""event"",""trial"",""time""
""focus"",""2"",""7482""
""focus"",""7"",""54971""
","""event"",""trial"",""time""
""fullscreenenter"",""1"",""1648""
","
","","[{""page_index"":0,""viewing_time"":12548.699999999255},{""page_index"":1,""viewing_time"":12503.099999999627},{""page_index"":2,""viewing_time"":5608.5},{""page_index"":3,""viewing_time"":6688.9000000003725}]","37349.699999999255","","","","","","","","","","","","","","","","","","","","","","","",""
"pit-trial","81","720167","0.0-2.0-17.0-0.0","battery-v0.2","","""event"",""trial"",""time""
""fullscreenenter"",""1"",""1648""
""blur"",""1"",""2219""
""focus"",""2"",""7482""
""blur"",""7"",""51035""
""focus"",""7"",""54971""
","""event"",""trial"",""time""
""blur"",""1"",""2219""
""blur"",""7"",""51035""
","""event"",""trial"",""time""
""focus"",""2"",""7482""
""focus"",""7"",""54971""
","""event"",""trial"",""time""
""fullscreenenter"",""1"",""1648""
","
","","","411.2000000011176","","","23","13458","5928","&#9789;","elianto","#f73b6a7A"," "," ","1","0","[1263.300000000745]","1","0","4","","","","","","","",""
"pit-trial","82","723841","0.0-2.0-17.0-1.0","battery-v0.2","","""event"",""trial"",""time""
""fullscreenenter"",""1"",""1648""
""blur"",""1"",""2219""
""focus"",""2"",""7482""
""blur"",""7"",""51035""
""focus"",""7"",""54971""
","""event"",""trial"",""time""
""blur"",""1"",""2219""
""blur"",""7"",""51035""
","""event"",""trial"",""time""
""focus"",""2"",""7482""
""focus"",""7"",""54971""
","""event"",""trial"",""time""
""fullscreenenter"",""1"",""1648""
","
","","","819.1999999992549","","","23","13458","5928","&#9789;","elianto","#f73b6a7A"," "," ","1","0","[1670.2999999988824]","1","0","4","","","","","","","",""
"pit-trial","83","727768","0.0-2.0-17.0-2.0","battery-v0.2","","""event"",""trial"",""time""
""fullscreenenter"",""1"",""1648""
""blur"",""1"",""2219""
""focus"",""2"",""7482""
""blur"",""7"",""51035""
""focus"",""7"",""54971""
","""event"",""trial"",""time""
""blur"",""1"",""2219""
""blur"",""7"",""51035""
","""event"",""trial"",""time""
""focus"",""2"",""7482""
""focus"",""7"",""54971""
","""event"",""trial"",""time""
""fullscreenenter"",""1"",""1648""
","
","","","1071.5999999996275","","","23","13458","5928","&#9789;","elianto","#f73b6a7A"," "," ","1","0","[1922.699999999255]","1","0","4","","","","","","","",""
"pit-trial","84","732018","0.0-2.0-17.0-3.0","battery-v0.2","","""event"",""trial"",""time""
""fullscreenenter"",""1"",""1648""
""blur"",""1"",""2219""
""focus"",""2"",""7482""
""blur"",""7"",""51035""
""focus"",""7"",""54971""
","""event"",""trial"",""time""
""blur"",""1"",""2219""
""blur"",""7"",""51035""
","""event"",""trial"",""time""
""focus"",""2"",""7482""
""focus"",""7"",""54971""
","""event"",""trial"",""time""
""fullscreenenter"",""1"",""1648""
","
","","","1395.5999999996275","","","23","13458","5928","&#9789;","elianto","#f73b6a7A"," "," ","1","-10","[2247]","1","0","4","","","","","","","",""
"pit-trial","85","735640","0.0-2.0-17.0-4.0","battery-v0.2","","""event"",""trial"",""time""
""fullscreenenter"",""1"",""1648""
""blur"",""1"",""2219""
""focus"",""2"",""7482""
""blur"",""7"",""51035""
""focus"",""7"",""54971""
","""event"",""trial"",""time""
""blur"",""1"",""2219""
""blur"",""7"",""51035""
","""event"",""trial"",""time""
""focus"",""2"",""7482""
""focus"",""7"",""54971""
","""event"",""trial"",""time""
""fullscreenenter"",""1"",""1648""
","
","","","768.0999999996275","","","23","13458","5928","&#9789;","elianto","#f73b6a7A"," "," ","1","0","[1618.300000000745]","1","0","4","","","","","","","",""
"pit-trial","86","739078","0.0-2.0-17.1-0.1","battery-v0.2","","""event"",""trial"",""time""
""fullscreenenter"",""1"",""1648""
""blur"",""1"",""2219""
""focus"",""2"",""7482""
""blur"",""7"",""51035""
""focus"",""7"",""54971""
","""event"",""trial"",""time""
""blur"",""1"",""2219""
""blur"",""7"",""51035""
","""event"",""trial"",""time""
""focus"",""2"",""7482""
""focus"",""7"",""54971""
","""event"",""trial"",""time""
""fullscreenenter"",""1"",""1648""
","
","","","583","","","23","13458","5928","&#9789;","elianto","#f73b6a7A"," "," ","1","0","[1433.5]","1","0","4","","","","","","","",""
"pit-trial","87","742974","0.0-2.0-17.1-1.1","battery-v0.2","","""event"",""trial"",""time""
""fullscreenenter"",""1"",""1648""
""blur"",""1"",""2219""
""focus"",""2"",""7482""
""blur"",""7"",""51035""
""focus"",""7"",""54971""
","""event"",""trial"",""time""
""blur"",""1"",""2219""
""blur"",""7"",""51035""
","""event"",""trial"",""time""
""focus"",""2"",""7482""
""focus"",""7"",""54971""
","""event"",""trial"",""time""
""fullscreenenter"",""1"",""1648""
","
","","","1042.9000000003725","","","23","13458","5928","&#9789;","elianto","#f73b6a7A"," "," ","1","0","[1893.300000000745]","1","0","4","","","","","","","",""
"pit-trial","88","746096","0.0-2.0-17.1-2.1","battery-v0.2","","""event"",""trial"",""time""
""fullscreenenter"",""1"",""1648""
""blur"",""1"",""2219""
""focus"",""2"",""7482""
""blur"",""7"",""51035""
""focus"",""7"",""54971""
","""event"",""trial"",""time""
""blur"",""1"",""2219""
""blur"",""7"",""51035""
","""event"",""trial"",""time""
""focus"",""2"",""7482""
""focus"",""7"",""54971""
","""event"",""trial"",""time""
""fullscreenenter"",""1"",""1648""
","
","","","268.5","","","23","13458","5928","&#9789;","elianto","#f73b6a7A"," "," ","1","0","[1118.7999999988824]","1","0","4","","","","","","","",""
"pit-trial","89","749311","0.0-2.0-17.1-3.1","battery-v0.2","","""event"",""trial"",""time""
""fullscreenenter"",""1"",""1648""
""blur"",""1"",""2219""
""focus"",""2"",""7482""
""blur"",""7"",""51035""
""focus"",""7"",""54971""
","""event"",""trial"",""time""
""blur"",""1"",""2219""
""blur"",""7"",""51035""
","""event"",""trial"",""time""
""focus"",""2"",""7482""
""focus"",""7"",""54971""
","""event"",""trial"",""time""
""fullscreenenter"",""1"",""1648""
","
","","","360.59999999962747","","","23","13458","5928","&#9789;","elianto","#f73b6a7A"," "," ","1","-10","[1211.800000000745]","1","0","4","","","","","","","",""
"pit-trial","90","752686","0.0-2.0-17.1-4.1","battery-v0.2","","""event"",""trial"",""time""
""fullscreenenter"",""1"",""1648""
""blur"",""1"",""2219""
""focus"",""2"",""7482""
""blur"",""7"",""51035""
""focus"",""7"",""54971""
","""event"",""trial"",""time""
""blur"",""1"",""2219""
""blur"",""7"",""51035""
","""event"",""trial"",""time""
""focus"",""2"",""7482""
""focus"",""7"",""54971""
","""event"",""trial"",""time""
""fullscreenenter"",""1"",""1648""
","
","","","521.0999999996275","","","23","13458","5928","&#9789;","elianto","#f73b6a7A"," "," ","1","0","[1372.5999999996275]","1","0","4","","","","","","","",""
"pit-trial","91","756629","0.0-2.0-17.2-0.2","battery-v0.2","","""event"",""trial"",""time""
""fullscreenenter"",""1"",""1648""
""blur"",""1"",""2219""
""focus"",""2"",""7482""
""blur"",""7"",""51035""
""focus"",""7"",""54971""
","""event"",""trial"",""time""
""blur"",""1"",""2219""
""blur"",""7"",""51035""
","""event"",""trial"",""time""
""focus"",""2"",""7482""
""focus"",""7"",""54971""
","""event"",""trial"",""time""
""fullscreenenter"",""1"",""1648""
","
","","","1086.699999999255","","","23","13458","5928","&#9789;","elianto","#f73b6a7A"," "," ","1","0","[1938]","1","0","4","","","","","","","",""
"pit-trial","92","759867","0.0-2.0-17.2-1.2","battery-v0.2","","""event"",""trial"",""time""
""fullscreenenter"",""1"",""1648""
""blur"",""1"",""2219""
""focus"",""2"",""7482""
""blur"",""7"",""51035""
""focus"",""7"",""54971""
","""event"",""trial"",""time""
""blur"",""1"",""2219""
""blur"",""7"",""51035""
","""event"",""trial"",""time""
""focus"",""2"",""7482""
""focus"",""7"",""54971""
","""event"",""trial"",""time""
""fullscreenenter"",""1"",""1648""
","
","","","381.90000000037253","","","23","13458","5928","&#9789;","elianto","#f73b6a7A"," "," ","1","0","[1234]","1","0","4","","","","","","","",""
"pit-trial","93","762954","0.0-2.0-17.2-2.2","battery-v0.2","","""event"",""trial"",""time""
""fullscreenenter"",""1"",""1648""
""blur"",""1"",""2219""
""focus"",""2"",""7482""
""blur"",""7"",""51035""
""focus"",""7"",""54971""
","""event"",""trial"",""time""
""blur"",""1"",""2219""
""blur"",""7"",""51035""
","""event"",""trial"",""time""
""focus"",""2"",""7482""
""focus"",""7"",""54971""
","""event"",""trial"",""time""
""fullscreenenter"",""1"",""1648""
","
","","","231.5","","","23","13458","5928","&#9789;","elianto","#f73b6a7A"," "," ","1","0","[1082.2999999988824,1328.5]","2","0","4","","","","","","","",""
"pit-trial","94","766059","0.0-2.0-17.2-3.2","battery-v0.2","","""event"",""trial"",""time""
""fullscreenenter"",""1"",""1648""
""blur"",""1"",""2219""
""focus"",""2"",""7482""
""blur"",""7"",""51035""
""focus"",""7"",""54971""
","""event"",""trial"",""time""
""blur"",""1"",""2219""
""blur"",""7"",""51035""
","""event"",""trial"",""time""
""focus"",""2"",""7482""
""focus"",""7"",""54971""
","""event"",""trial"",""time""
""fullscreenenter"",""1"",""1648""
","
","","","251.5","","","23","13458","5928","&#9789;","elianto","#f73b6a7A"," "," ","1","-10","[1101.699999999255]","1","0","4","","","","","","","",""
"pit-trial","95","769686","0.0-2.0-17.2-4.2","battery-v0.2","","""event"",""trial"",""time""
""fullscreenenter"",""1"",""1648""
""blur"",""1"",""2219""
""focus"",""2"",""7482""
""blur"",""7"",""51035""
""focus"",""7"",""54971""
","""event"",""trial"",""time""
""blur"",""1"",""2219""
""blur"",""7"",""51035""
","""event"",""trial"",""time""
""focus"",""2"",""7482""
""focus"",""7"",""54971""
","""event"",""trial"",""time""
""fullscreenenter"",""1"",""1648""
","
","","","771.3000000007451","","","23","13458","5928","&#9789;","elianto","#f73b6a7A"," "," ","1","0","[1623.2000000011176]","1","0","4","","","","","","","",""
"pit-trial","96","773734","0.0-2.0-17.3-0.3","battery-v0.2","","""event"",""trial"",""time""
""fullscreenenter"",""1"",""1648""
""blur"",""1"",""2219""
""focus"",""2"",""7482""
""blur"",""7"",""51035""
""focus"",""7"",""54971""
","""event"",""trial"",""time""
""blur"",""1"",""2219""
""blur"",""7"",""51035""
","""event"",""trial"",""time""
""focus"",""2"",""7482""
""focus"",""7"",""54971""
","""event"",""trial"",""time""
""fullscreenenter"",""1"",""1648""
","
","","","1191.8999999985099","","","23","13458","5928","&#9789;","elianto","#f73b6a7A"," "," ","1","0","[2043.0999999996275]","1","0","4","","","","","","","",""
"pit-trial","97","777294","0.0-2.0-17.3-1.3","battery-v0.2","","""event"",""trial"",""time""
""fullscreenenter"",""1"",""1648""
""blur"",""1"",""2219""
""focus"",""2"",""7482""
""blur"",""7"",""51035""
""focus"",""7"",""54971""
","""event"",""trial"",""time""
""blur"",""1"",""2219""
""blur"",""7"",""51035""
","""event"",""trial"",""time""
""focus"",""2"",""7482""
""focus"",""7"",""54971""
","""event"",""trial"",""time""
""fullscreenenter"",""1"",""1648""
","
","","","705","","","23","13458","5928","&#9789;","elianto","#f73b6a7A"," "," ","1","0","[1556.300000000745]","1","0","4","","","","","","","",""
"pit-trial","98","781138","0.0-2.0-17.3-2.3","battery-v0.2","","""event"",""trial"",""time""
""fullscreenenter"",""1"",""1648""
""blur"",""1"",""2219""
""focus"",""2"",""7482""
""blur"",""7"",""51035""
""focus"",""7"",""54971""
","""event"",""trial"",""time""
""blur"",""1"",""2219""
""blur"",""7"",""51035""
","""event"",""trial"",""time""
""focus"",""2"",""7482""
""focus"",""7"",""54971""
","""event"",""trial"",""time""
""fullscreenenter"",""1"",""1648""
","
","","","990","","","23","13458","5928","&#9789;","elianto","#f73b6a7A"," "," ","1","0","[1839.9000000003725]","1","0","4","","","","","","","",""
"pit-trial","99","784972","0.0-2.0-17.3-3.3","battery-v0.2","","""event"",""trial"",""time""
""fullscreenenter"",""1"",""1648""
""blur"",""1"",""2219""
""focus"",""2"",""7482""
""blur"",""7"",""51035""
""focus"",""7"",""54971""
","""event"",""trial"",""time""
""blur"",""1"",""2219""
""blur"",""7"",""51035""
","""event"",""trial"",""time""
""focus"",""2"",""7482""
""focus"",""7"",""54971""
","""event"",""trial"",""time""
""fullscreenenter"",""1"",""1648""
","
","","","978.5","","","23","13458","5928","&#9789;","elianto","#f73b6a7A"," "," ","1","-10","[1830.699999999255]","1","0","4","","","","","","","",""
"pit-trial","100","788745","0.0-2.0-17.3-4.3","battery-v0.2","","""event"",""trial"",""time""
""fullscreenenter"",""1"",""1648""
""blur"",""1"",""2219""
""focus"",""2"",""7482""
""blur"",""7"",""51035""
""focus"",""7"",""54971""
","""event"",""trial"",""time""
""blur"",""1"",""2219""
""blur"",""7"",""51035""
","""event"",""trial"",""time""
""focus"",""2"",""7482""
""focus"",""7"",""54971""
","""event"",""trial"",""time""
""fullscreenenter"",""1"",""1648""
","
","","","917.5999999996275","","","23","13458","5928","&#9789;","elianto","#f73b6a7A"," "," ","1","0","[1768]","1","0","4","","","","","","","",""
"call-function","101","788747","0.0-2.0-18.0","battery-v0.2","","""event"",""trial"",""time""
""fullscreenenter"",""1"",""1648""
""blur"",""1"",""2219""
""focus"",""2"",""7482""
""blur"",""7"",""51035""
""focus"",""7"",""54971""
","""event"",""trial"",""time""
""blur"",""1"",""2219""
""blur"",""7"",""51035""
","""event"",""trial"",""time""
""focus"",""2"",""7482""
""focus"",""7"",""54971""
","""event"",""trial"",""time""
""fullscreenenter"",""1"",""1648""
","
","","","","","","","","","","","","","","","","","","","","","","","","","","",""
"pit-instructions","102","874134","0.0-2.0-19.0","battery-v0.2","","""event"",""trial"",""time""
""fullscreenenter"",""1"",""1648""
""blur"",""1"",""2219""
""focus"",""2"",""7482""
""blur"",""7"",""51035""
""focus"",""7"",""54971""
","""event"",""trial"",""time""
""blur"",""1"",""2219""
""blur"",""7"",""51035""
","""event"",""trial"",""time""
""focus"",""2"",""7482""
""focus"",""7"",""54971""
","""event"",""trial"",""time""
""fullscreenenter"",""1"",""1648""
","
","","[{""page_index"":0,""viewing_time"":7887.4000000003725},{""page_index"":1,""viewing_time"":7879.700000001118},{""page_index"":2,""viewing_time"":14813.5},{""page_index"":3,""viewing_time"":8915.5},{""page_index"":4,""viewing_time"":10117.099999999627},{""page_index"":5,""viewing_time"":11791.5},{""page_index"":6,""viewing_time"":8472.699999999255},{""page_index"":7,""viewing_time"":9638.599999999627},{""page_index"":8,""viewing_time"":5880.9000000003725}]","85397.5","","","","","","","","","","","","","","","","","","","","","","","",""
"pit-comprehension","103","879296","0.0-2.0-20.0-0.0","battery-v0.2","","""event"",""trial"",""time""
""fullscreenenter"",""1"",""1648""
""blur"",""1"",""2219""
""focus"",""2"",""7482""
""blur"",""7"",""51035""
""focus"",""7"",""54971""
","""event"",""trial"",""time""
""blur"",""1"",""2219""
""blur"",""7"",""51035""
","""event"",""trial"",""time""
""focus"",""2"",""7482""
""focus"",""7"",""54971""
","""event"",""trial"",""time""
""fullscreenenter"",""1"",""1648""
","
","","","5157.699999999255","[""SPACE""]","0","23","13458","5928","","","","","","","","","","","","","","","","","","",""
"pit-instructions","104","883138","0.0-2.0-20.0-1.0","battery-v0.2","","""event"",""trial"",""time""
""fullscreenenter"",""1"",""1648""
""blur"",""1"",""2219""
""focus"",""2"",""7482""
""blur"",""7"",""51035""
""focus"",""7"",""54971""
","""event"",""trial"",""time""
""blur"",""1"",""2219""
""blur"",""7"",""51035""
","""event"",""trial"",""time""
""focus"",""2"",""7482""
""focus"",""7"",""54971""
","""event"",""trial"",""time""
""fullscreenenter"",""1"",""1648""
","
","","[{""page_index"":0,""viewing_time"":3804.7999999988824}]","3805.2999999988824","","","","","","","","","","","","","","","","","","","","","","","",""
"pit-comprehension","105","889301","0.0-2.0-21.0-0.0","battery-v0.2","","""event"",""trial"",""time""
""fullscreenenter"",""1"",""1648""
""blur"",""1"",""2219""
""focus"",""2"",""7482""
""blur"",""7"",""51035""
""focus"",""7"",""54971""
","""event"",""trial"",""time""
""blur"",""1"",""2219""
""blur"",""7"",""51035""
","""event"",""trial"",""time""
""focus"",""2"",""7482""
""focus"",""7"",""54971""
","""event"",""trial"",""time""
""fullscreenenter"",""1"",""1648""
","
","","","6159.700000001118","[""10""]","0","23","13458","5928","","","","","","","","","","","","","","","","","","",""
"pit-instructions","106","894635","0.0-2.0-21.0-1.0","battery-v0.2","","""event"",""trial"",""time""
""fullscreenenter"",""1"",""1648""
""blur"",""1"",""2219""
""focus"",""2"",""7482""
""blur"",""7"",""51035""
""focus"",""7"",""54971""
","""event"",""trial"",""time""
""blur"",""1"",""2219""
""blur"",""7"",""51035""
","""event"",""trial"",""time""
""focus"",""2"",""7482""
""focus"",""7"",""54971""
","""event"",""trial"",""time""
""fullscreenenter"",""1"",""1648""
","
","","[{""page_index"":0,""viewing_time"":5293.9000000003725}]","5294.4000000003725","","","","","","","","","","","","","","","","","","","","","","","",""
"pit-comprehension","107","900845","0.0-2.0-22.0-0.0","battery-v0.2","","""event"",""trial"",""time""
""fullscreenenter"",""1"",""1648""
""blur"",""1"",""2219""
""focus"",""2"",""7482""
""blur"",""7"",""51035""
""focus"",""7"",""54971""
","""event"",""trial"",""time""
""blur"",""1"",""2219""
""blur"",""7"",""51035""
","""event"",""trial"",""time""
""focus"",""2"",""7482""
""focus"",""7"",""54971""
","""event"",""trial"",""time""
""fullscreenenter"",""1"",""1648""
","
","","","6205.799999998882","[""0""]","0","23","13458","5928","","","","","","","","","","","","","","","","","","",""
"pit-instructions","108","903485","0.0-2.0-22.0-1.0","battery-v0.2","","""event"",""trial"",""time""
""fullscreenenter"",""1"",""1648""
""blur"",""1"",""2219""
""focus"",""2"",""7482""
""blur"",""7"",""51035""
""focus"",""7"",""54971""
","""event"",""trial"",""time""
""blur"",""1"",""2219""
""blur"",""7"",""51035""
","""event"",""trial"",""time""
""focus"",""2"",""7482""
""focus"",""7"",""54971""
","""event"",""trial"",""time""
""fullscreenenter"",""1"",""1648""
","
","","[{""page_index"":0,""viewing_time"":2601.800000000745}]","2602.300000000745","","","","","","","","","","","","","","","","","","","","","","","",""
"pit-comprehension","109","911949","0.0-2.0-23.0-0.0","battery-v0.2","","""event"",""trial"",""time""
""fullscreenenter"",""1"",""1648""
""blur"",""1"",""2219""
""focus"",""2"",""7482""
""blur"",""7"",""51035""
""focus"",""7"",""54971""
","""event"",""trial"",""time""
""blur"",""1"",""2219""
""blur"",""7"",""51035""
","""event"",""trial"",""time""
""focus"",""2"",""7482""
""focus"",""7"",""54971""
","""event"",""trial"",""time""
""fullscreenenter"",""1"",""1648""
","
","","","8460","[""True""]","0","23","13458","5928","","","","","","","","","","","","","","","","","","",""
"pit-instructions","110","924735","0.0-2.0-23.0-1.0","battery-v0.2","","""event"",""trial"",""time""
""fullscreenenter"",""1"",""1648""
""blur"",""1"",""2219""
""focus"",""2"",""7482""
""blur"",""7"",""51035""
""focus"",""7"",""54971""
","""event"",""trial"",""time""
""blur"",""1"",""2219""
""blur"",""7"",""51035""
","""event"",""trial"",""time""
""focus"",""2"",""7482""
""focus"",""7"",""54971""
","""event"",""trial"",""time""
""fullscreenenter"",""1"",""1648""
","
","","[{""page_index"":0,""viewing_time"":12746.699999999255}]","12747.300000000745","","","","","","","","","","","","","","","","","","","","","","","",""
"pit-comprehension","111","936689","0.0-2.0-24.0-0.0","battery-v0.2","","""event"",""trial"",""time""
""fullscreenenter"",""1"",""1648""
""blur"",""1"",""2219""
""focus"",""2"",""7482""
""blur"",""7"",""51035""
""focus"",""7"",""54971""
","""event"",""trial"",""time""
""blur"",""1"",""2219""
""blur"",""7"",""51035""
","""event"",""trial"",""time""
""focus"",""2"",""7482""
""focus"",""7"",""54971""
","""event"",""trial"",""time""
""fullscreenenter"",""1"",""1648""
","
","","","11949.400000000373","[""True""]","0","23","13458","5928","","","","","","","","","","","","","","","","","","",""
"pit-instructions","112","939055","0.0-2.0-24.0-1.0","battery-v0.2","","""event"",""trial"",""time""
""fullscreenenter"",""1"",""1648""
""blur"",""1"",""2219""
""focus"",""2"",""7482""
""blur"",""7"",""51035""
""focus"",""7"",""54971""
","""event"",""trial"",""time""
""blur"",""1"",""2219""
""blur"",""7"",""51035""
","""event"",""trial"",""time""
""focus"",""2"",""7482""
""focus"",""7"",""54971""
","""event"",""trial"",""time""
""fullscreenenter"",""1"",""1648""
","
","","[{""page_index"":0,""viewing_time"":2327.300000000745}]","2327.9000000003725","","","","","","","","","","","","","","","","","","","","","","","",""
"pit-comprehension","113","945585","0.0-2.0-25.0-0.0","battery-v0.2","","""event"",""trial"",""time""
""fullscreenenter"",""1"",""1648""
""blur"",""1"",""2219""
""focus"",""2"",""7482""
""blur"",""7"",""51035""
""focus"",""7"",""54971""
","""event"",""trial"",""time""
""blur"",""1"",""2219""
""blur"",""7"",""51035""
","""event"",""trial"",""time""
""focus"",""2"",""7482""
""focus"",""7"",""54971""
","""event"",""trial"",""time""
""fullscreenenter"",""1"",""1648""
","
","","","6525.9000000003725","[""True""]","0","23","13458","5928","","","","","","","","","","","","","","","","","","",""
"pit-instructions","114","948073","0.0-2.0-25.0-1.0","battery-v0.2","","""event"",""trial"",""time""
""fullscreenenter"",""1"",""1648""
""blur"",""1"",""2219""
""focus"",""2"",""7482""
""blur"",""7"",""51035""
""focus"",""7"",""54971""
","""event"",""trial"",""time""
""blur"",""1"",""2219""
""blur"",""7"",""51035""
","""event"",""trial"",""time""
""focus"",""2"",""7482""
""focus"",""7"",""54971""
","""event"",""trial"",""time""
""fullscreenenter"",""1"",""1648""
","
","","[{""page_index"":0,""viewing_time"":2448.2000000011176}]","2448.5999999996275","","","","","","","","","","","","","","","","","","","","","","","",""
"pit-comprehension","115","952866","0.0-2.0-26.0-0.0","battery-v0.2","","""event"",""trial"",""time""
""fullscreenenter"",""1"",""1648""
""blur"",""1"",""2219""
""focus"",""2"",""7482""
""blur"",""7"",""51035""
""focus"",""7"",""54971""
","""event"",""trial"",""time""
""blur"",""1"",""2219""
""blur"",""7"",""51035""
","""event"",""trial"",""time""
""focus"",""2"",""7482""
""focus"",""7"",""54971""
","""event"",""trial"",""time""
""fullscreenenter"",""1"",""1648""
","
","","","4788.10000000149","[""False""]","0","23","13458","5928","","","","","","","","","","","","","","","","","","",""
"pit-instructions","116","958410","0.0-2.0-26.0-1.0","battery-v0.2","","""event"",""trial"",""time""
""fullscreenenter"",""1"",""1648""
""blur"",""1"",""2219""
""focus"",""2"",""7482""
""blur"",""7"",""51035""
""focus"",""7"",""54971""
","""event"",""trial"",""time""
""blur"",""1"",""2219""
""blur"",""7"",""51035""
","""event"",""trial"",""time""
""focus"",""2"",""7482""
""focus"",""7"",""54971""
","""event"",""trial"",""time""
""fullscreenenter"",""1"",""1648""
","
","","[{""page_index"":0,""viewing_time"":5503}]","5503.4000000003725","","","","","","","","","","","","","","","","","","","","","","","",""
"pit-instructions","117","1046415","0.0-3.0","battery-v0.2","","""event"",""trial"",""time""
""fullscreenenter"",""1"",""1648""
""blur"",""1"",""2219""
""focus"",""2"",""7482""
""blur"",""7"",""51035""
""focus"",""7"",""54971""
","""event"",""trial"",""time""
""blur"",""1"",""2219""
""blur"",""7"",""51035""
","""event"",""trial"",""time""
""focus"",""2"",""7482""
""focus"",""7"",""54971""
","""event"",""trial"",""time""
""fullscreenenter"",""1"",""1648""
","
","","[{""page_index"":0,""viewing_time"":4833.9000000003725},{""page_index"":1,""viewing_time"":15934.900000000373},{""page_index"":2,""viewing_time"":67231.89999999851}]","88001.19999999925","","","","","","","","","","","","","","","","","","","","","","","",""
"pit-trial","118","1050513","0.0-4.0","battery-v0.2","","""event"",""trial"",""time""
""fullscreenenter"",""1"",""1648""
""blur"",""1"",""2219""
""focus"",""2"",""7482""
""blur"",""7"",""51035""
""focus"",""7"",""54971""
","""event"",""trial"",""time""
""blur"",""1"",""2219""
""blur"",""7"",""51035""
","""event"",""trial"",""time""
""focus"",""2"",""7482""
""focus"",""7"",""54971""
","""event"",""trial"",""time""
""fullscreenenter"",""1"",""1648""
","
","","","1240.0999999996275","","","23","13458","5928","&#9752;","elianto","#f73b6a7A"," "," ","1","0","[2091.199999999255]","1","1","","","13458","1","3","3","lose","go","0"
"pit-trial","119","1054586","0.0-5.0","battery-v0.2","","""event"",""trial"",""time""
""fullscreenenter"",""1"",""1648""
""blur"",""1"",""2219""
""focus"",""2"",""7482""
""blur"",""7"",""51035""
""focus"",""7"",""54971""
","""event"",""trial"",""time""
""blur"",""1"",""2219""
""blur"",""7"",""51035""
","""event"",""trial"",""time""
""focus"",""2"",""7482""
""focus"",""7"",""54971""
","""event"",""trial"",""time""
""fullscreenenter"",""1"",""1648""
","
","","","1219.4000000003725","","","23","13458","5928","&#9728;","elianto","#f73b6a7A","-1"," ","0","-10","[2070]","1","1","","","13458","2","0","4","lose","no-go","0"
"pit-trial","120","1059043","0.0-6.0","battery-v0.2","","""event"",""trial"",""time""
""fullscreenenter"",""1"",""1648""
""blur"",""1"",""2219""
""focus"",""2"",""7482""
""blur"",""7"",""51035""
""focus"",""7"",""54971""
","""event"",""trial"",""time""
""blur"",""1"",""2219""
""blur"",""7"",""51035""
","""event"",""trial"",""time""
""focus"",""2"",""7482""
""focus"",""7"",""54971""
","""event"",""trial"",""time""
""fullscreenenter"",""1"",""1648""
","
","","","1601.5","","","23","13458","5928","&#9733;","elianto","#3366ff99","-1"," ","0","0","[2452.0999999996275]","1","1","","","13458","3","2","2","win","no-go","0"
"pit-trial","121","1063837","0.0-7.0","battery-v0.2","","""event"",""trial"",""time""
""fullscreenenter"",""1"",""1648""
""blur"",""1"",""2219""
""focus"",""2"",""7482""
""blur"",""7"",""51035""
""focus"",""7"",""54971""
","""event"",""trial"",""time""
""blur"",""1"",""2219""
""blur"",""7"",""51035""
","""event"",""trial"",""time""
""focus"",""2"",""7482""
""focus"",""7"",""54971""
","""event"",""trial"",""time""
""fullscreenenter"",""1"",""1648""
","
","","","1938.9000000003725","","","23","13458","5928","&#9730;","elianto","#3366ff99"," "," ","1","+10","[2790.300000000745]","1","1","","","13458","4","1","1","win","go","0"
"pit-trial","122","1068693","0.0-8.0","battery-v0.2","","""event"",""trial"",""time""
""fullscreenenter"",""1"",""1648""
""blur"",""1"",""2219""
""focus"",""2"",""7482""
""blur"",""7"",""51035""
""focus"",""7"",""54971""
","""event"",""trial"",""time""
""blur"",""1"",""2219""
""blur"",""7"",""51035""
","""event"",""trial"",""time""
""focus"",""2"",""7482""
""focus"",""7"",""54971""
","""event"",""trial"",""time""
""fullscreenenter"",""1"",""1648""
","
","","","-1","","","23","13458","5928","&#9733;","elianto","#3366ff99","-1","-1","1","+10","[3104.5]","1","1","","","13458","5","2","2","win","no-go","0"
"pit-trial","123","1073548","0.0-9.0","battery-v0.2","","""event"",""trial"",""time""
""fullscreenenter"",""1"",""1648""
""blur"",""1"",""2219""
""focus"",""2"",""7482""
""blur"",""7"",""51035""
""focus"",""7"",""54971""
","""event"",""trial"",""time""
""blur"",""1"",""2219""
""blur"",""7"",""51035""
","""event"",""trial"",""time""
""focus"",""2"",""7482""
""focus"",""7"",""54971""
","""event"",""trial"",""time""
""fullscreenenter"",""1"",""1648""
","
","","","-1","","","23","13458","5928","&#9730;","elianto","#3366ff99"," ","-1","0","0","[3121.5999999996275]","1","1","","","13458","6","1","1","win","go","0"
"pit-trial","124","1078403","0.0-10.0","battery-v0.2","","""event"",""trial"",""time""
""fullscreenenter"",""1"",""1648""
""blur"",""1"",""2219""
""focus"",""2"",""7482""
""blur"",""7"",""51035""
""focus"",""7"",""54971""
","""event"",""trial"",""time""
""blur"",""1"",""2219""
""blur"",""7"",""51035""
","""event"",""trial"",""time""
""focus"",""2"",""7482""
""focus"",""7"",""54971""
","""event"",""trial"",""time""
""fullscreenenter"",""1"",""1648""
","
","","","-1","","","23","13458","5928","&#9728;","elianto","#f73b6a7A","-1","-1","1","-10","[]","0","1","","","13458","7","0","4","lose","no-go","1"
"pit-trial","125","1082587","0.0-11.0","battery-v0.2","","""event"",""trial"",""time""
""fullscreenenter"",""1"",""1648""
""blur"",""1"",""2219""
""focus"",""2"",""7482""
""blur"",""7"",""51035""
""focus"",""7"",""54971""
","""event"",""trial"",""time""
""blur"",""1"",""2219""
""blur"",""7"",""51035""
","""event"",""trial"",""time""
""focus"",""2"",""7482""
""focus"",""7"",""54971""
","""event"",""trial"",""time""
""fullscreenenter"",""1"",""1648""
","
","","","1330.199999999255","","","23","13458","5928","&#9752;","elianto","#f73b6a7A"," "," ","1","0","[2180.7999999988824]","1","1","","","13458","8","3","3","lose","go","0"
"pit-trial","126","1086599","0.0-12.0","battery-v0.2","","""event"",""trial"",""time""
""fullscreenenter"",""1"",""1648""
""blur"",""1"",""2219""
""focus"",""2"",""7482""
""blur"",""7"",""51035""
""focus"",""7"",""54971""
","""event"",""trial"",""time""
""blur"",""1"",""2219""
""blur"",""7"",""51035""
","""event"",""trial"",""time""
""focus"",""2"",""7482""
""focus"",""7"",""54971""
","""event"",""trial"",""time""
""fullscreenenter"",""1"",""1648""
","
","","","1157.0999999996275","","","23","13458","5928","&#9733;","elianto","#3366ff99","-1"," ","0","0","[2007.9000000003725]","1","1","","","13458","9","2","2","win","no-go","0"
"pit-trial","127","1090819","0.0-13.0","battery-v0.2","","""event"",""trial"",""time""
""fullscreenenter"",""1"",""1648""
""blur"",""1"",""2219""
""focus"",""2"",""7482""
""blur"",""7"",""51035""
""focus"",""7"",""54971""
","""event"",""trial"",""time""
""blur"",""1"",""2219""
""blur"",""7"",""51035""
","""event"",""trial"",""time""
""focus"",""2"",""7482""
""focus"",""7"",""54971""
","""event"",""trial"",""time""
""fullscreenenter"",""1"",""1648""
","
","","","1365.9000000003725","","","23","13458","5928","&#9752;","elianto","#f73b6a7A"," "," ","1","0","[2216.300000000745]","1","1","","","13458","10","3","3","lose","go","0"
"pit-trial","128","1095675","0.0-14.0","battery-v0.2","","""event"",""trial"",""time""
""fullscreenenter"",""1"",""1648""
""blur"",""1"",""2219""
""focus"",""2"",""7482""
""blur"",""7"",""51035""
""focus"",""7"",""54971""
","""event"",""trial"",""time""
""blur"",""1"",""2219""
""blur"",""7"",""51035""
","""event"",""trial"",""time""
""focus"",""2"",""7482""
""focus"",""7"",""54971""
","""event"",""trial"",""time""
""fullscreenenter"",""1"",""1648""
","
","","","-1","","","23","13458","5928","&#9730;","elianto","#3366ff99"," ","-1","0","0","[]","0","1","","","13458","11","1","1","win","go","0"
"pit-trial","129","1100522","0.0-15.0","battery-v0.2","","""event"",""trial"",""time""
""fullscreenenter"",""1"",""1648""
""blur"",""1"",""2219""
""focus"",""2"",""7482""
""blur"",""7"",""51035""
""focus"",""7"",""54971""
","""event"",""trial"",""time""
""blur"",""1"",""2219""
""blur"",""7"",""51035""
","""event"",""trial"",""time""
""focus"",""2"",""7482""
""focus"",""7"",""54971""
","""event"",""trial"",""time""
""fullscreenenter"",""1"",""1648""
","
","","","1992.300000000745","","","23","13458","5928","&#9728;","elianto","#f73b6a7A","-1"," ","0","-10","[2842.89999999851]","1","1","","","13458","12","0","4","lose","no-go","0"
"pit-trial","130","1104521","0.0-16.0","battery-v0.2","","""event"",""trial"",""time""
""fullscreenenter"",""1"",""1648""
""blur"",""1"",""2219""
""focus"",""2"",""7482""
""blur"",""7"",""51035""
""focus"",""7"",""54971""
","""event"",""trial"",""time""
""blur"",""1"",""2219""
""blur"",""7"",""51035""
","""event"",""trial"",""time""
""focus"",""2"",""7482""
""focus"",""7"",""54971""
","""event"",""trial"",""time""
""fullscreenenter"",""1"",""1648""
","
","","","1144.199999999255","","","23","13458","5928","&#9752;","elianto","#f73b6a7A"," "," ","1","0","[1995.199999999255]","1","1","","","13458","13","3","3","lose","go","0"
"pit-trial","131","1109376","0.0-17.0","battery-v0.2","","""event"",""trial"",""time""
""fullscreenenter"",""1"",""1648""
""blur"",""1"",""2219""
""focus"",""2"",""7482""
""blur"",""7"",""51035""
""focus"",""7"",""54971""
","""event"",""trial"",""time""
""blur"",""1"",""2219""
""blur"",""7"",""51035""
","""event"",""trial"",""time""
""focus"",""2"",""7482""
""focus"",""7"",""54971""
","""event"",""trial"",""time""
""fullscreenenter"",""1"",""1648""
","
","","","-1","","","23","13458","5928","&#9733;","elianto","#3366ff99","-1","-1","1","+10","[2977.199999999255]","1","1","","","13458","14","2","2","win","no-go","0"
"pit-trial","132","1114231","0.0-18.0","battery-v0.2","","""event"",""trial"",""time""
""fullscreenenter"",""1"",""1648""
""blur"",""1"",""2219""
""focus"",""2"",""7482""
""blur"",""7"",""51035""
""focus"",""7"",""54971""
","""event"",""trial"",""time""
""blur"",""1"",""2219""
""blur"",""7"",""51035""
","""event"",""trial"",""time""
""focus"",""2"",""7482""
""focus"",""7"",""54971""
","""event"",""trial"",""time""
""fullscreenenter"",""1"",""1648""
","
","","","-1","","","23","13458","5928","&#9728;","elianto","#f73b6a7A","-1","-1","1","0","[]","0","1","","","13458","15","0","4","lose","no-go","0"
"pit-trial","133","1118671","0.0-19.0","battery-v0.2","","""event"",""trial"",""time""
""fullscreenenter"",""1"",""1648""
""blur"",""1"",""2219""
""focus"",""2"",""7482""
""blur"",""7"",""51035""
""focus"",""7"",""54971""
","""event"",""trial"",""time""
""blur"",""1"",""2219""
""blur"",""7"",""51035""
","""event"",""trial"",""time""
""focus"",""2"",""7482""
""focus"",""7"",""54971""
","""event"",""trial"",""time""
""fullscreenenter"",""1"",""1648""
","
","","","1585.5999999996275","","","23","13458","5928","&#9730;","elianto","#3366ff99"," "," ","1","+10","[2436.7999999988824]","1","1","","","13458","16","1","1","win","go","0"
"pit-trial","134","1122337","0.0-20.0","battery-v0.2","","""event"",""trial"",""time""
""fullscreenenter"",""1"",""1648""
""blur"",""1"",""2219""
""focus"",""2"",""7482""
""blur"",""7"",""51035""
""focus"",""7"",""54971""
","""event"",""trial"",""time""
""blur"",""1"",""2219""
""blur"",""7"",""51035""
","""event"",""trial"",""time""
""focus"",""2"",""7482""
""focus"",""7"",""54971""
","""event"",""trial"",""time""
""fullscreenenter"",""1"",""1648""
","
","","","813.2000000011176","","","23","13458","5928","&#9752;","elianto","#f73b6a7A"," "," ","1","0","[1663.2999999988824]","1","1","","","13458","17","3","3","lose","go","0"
"pit-trial","135","1127192","0.0-21.0","battery-v0.2","","""event"",""trial"",""time""
""fullscreenenter"",""1"",""1648""
""blur"",""1"",""2219""
""focus"",""2"",""7482""
""blur"",""7"",""51035""
""focus"",""7"",""54971""
","""event"",""trial"",""time""
""blur"",""1"",""2219""
""blur"",""7"",""51035""
","""event"",""trial"",""time""
""focus"",""2"",""7482""
""focus"",""7"",""54971""
","""event"",""trial"",""time""
""fullscreenenter"",""1"",""1648""
","
","","","-1","","","23","13458","5928","&#9728;","elianto","#f73b6a7A","-1","-1","1","0","[]","0","1","","","13458","18","0","4","lose","no-go","0"
"pit-trial","136","1131087","0.0-22.0","battery-v0.2","","""event"",""trial"",""time""
""fullscreenenter"",""1"",""1648""
""blur"",""1"",""2219""
""focus"",""2"",""7482""
""blur"",""7"",""51035""
""focus"",""7"",""54971""
","""event"",""trial"",""time""
""blur"",""1"",""2219""
""blur"",""7"",""51035""
","""event"",""trial"",""time""
""focus"",""2"",""7482""
""focus"",""7"",""54971""
","""event"",""trial"",""time""
""fullscreenenter"",""1"",""1648""
","
","","","1040.1000000014901","","","23","13458","5928","&#9730;","elianto","#3366ff99"," "," ","1","+10","[1890.3999999985099]","1","1","","","13458","19","1","1","win","go","0"
"pit-trial","137","1134627","0.0-23.0","battery-v0.2","","""event"",""trial"",""time""
""fullscreenenter"",""1"",""1648""
""blur"",""1"",""2219""
""focus"",""2"",""7482""
""blur"",""7"",""51035""
""focus"",""7"",""54971""
","""event"",""trial"",""time""
""blur"",""1"",""2219""
""blur"",""7"",""51035""
","""event"",""trial"",""time""
""focus"",""2"",""7482""
""focus"",""7"",""54971""
","""event"",""trial"",""time""
""fullscreenenter"",""1"",""1648""
","
","","","685.0999999996275","","","23","13458","5928","&#9733;","elianto","#3366ff99","-1"," ","0","0","[1536.199999999255]","1","1","","","13458","20","2","2","win","no-go","0"
"pit-instructions","138","1216144","0.0-24.0","battery-v0.2","","""event"",""trial"",""time""
""fullscreenenter"",""1"",""1648""
""blur"",""1"",""2219""
""focus"",""2"",""7482""
""blur"",""7"",""51035""
""focus"",""7"",""54971""
","""event"",""trial"",""time""
""blur"",""1"",""2219""
""blur"",""7"",""51035""
","""event"",""trial"",""time""
""focus"",""2"",""7482""
""focus"",""7"",""54971""
","""event"",""trial"",""time""
""fullscreenenter"",""1"",""1648""
","
","","[{""page_index"":0,""viewing_time"":73538.40000000037},{""page_index"":1,""viewing_time"":7975.0999999996275}]","81514","","","","","","","","","","","","","","","","","","","","","","","",""
"pit-trial","139","1220633","0.0-25.0","battery-v0.2","","""event"",""trial"",""time""
""fullscreenenter"",""1"",""1648""
""blur"",""1"",""2219""
""focus"",""2"",""7482""
""blur"",""7"",""51035""
""focus"",""7"",""54971""
","""event"",""trial"",""time""
""blur"",""1"",""2219""
""blur"",""7"",""51035""
","""event"",""trial"",""time""
""focus"",""2"",""7482""
""focus"",""7"",""54971""
","""event"",""trial"",""time""
""fullscreenenter"",""1"",""1648""
","
","","","1631.9000000003725","","","23","13458","5928","f","elianto","#3366ff99"," "," ","1","+10","[2483]","1","2","","","13458","21","1","1","win","go","0"
"pit-trial","140","1224490","0.0-26.0","battery-v0.2","","""event"",""trial"",""time""
""fullscreenenter"",""1"",""1648""
""blur"",""1"",""2219""
""focus"",""2"",""7482""
""blur"",""7"",""51035""
""focus"",""7"",""54971""
","""event"",""trial"",""time""
""blur"",""1"",""2219""
""blur"",""7"",""51035""
","""event"",""trial"",""time""
""focus"",""2"",""7482""
""focus"",""7"",""54971""
","""event"",""trial"",""time""
""fullscreenenter"",""1"",""1648""
","
","","","1002.4000000003725","","","23","13458","5928","n","elianto","#f73b6a7A","-1"," ","0","-10","[1853.5]","1","2","","","13458","22","0","4","lose","no-go","0"
"pit-trial","141","1228306","0.0-27.0","battery-v0.2","","""event"",""trial"",""time""
""fullscreenenter"",""1"",""1648""
""blur"",""1"",""2219""
""focus"",""2"",""7482""
""blur"",""7"",""51035""
""focus"",""7"",""54971""
","""event"",""trial"",""time""
""blur"",""1"",""2219""
""blur"",""7"",""51035""
","""event"",""trial"",""time""
""focus"",""2"",""7482""
""focus"",""7"",""54971""
","""event"",""trial"",""time""
""fullscreenenter"",""1"",""1648""
","
","","","960","","","23","13458","5928","b","elianto","#f73b6a7A"," "," ","1","-10","[1810.699999999255]","1","2","","","13458","23","3","3","lose","go","1"
"pit-trial","142","1232805","0.0-28.0","battery-v0.2","","""event"",""trial"",""time""
""fullscreenenter"",""1"",""1648""
""blur"",""1"",""2219""
""focus"",""2"",""7482""
""blur"",""7"",""51035""
""focus"",""7"",""54971""
","""event"",""trial"",""time""
""blur"",""1"",""2219""
""blur"",""7"",""51035""
","""event"",""trial"",""time""
""focus"",""2"",""7482""
""focus"",""7"",""54971""
","""event"",""trial"",""time""
""fullscreenenter"",""1"",""1648""
","
","","","1643.300000000745","","","23","13458","5928","t","elianto","#f73b6a7A","-1"," ","0","0","[2494.699999999255]","1","2","","","13458","24","2","4","lose","no-go","1"
"pit-trial","143","1237661","0.0-29.0","battery-v0.2","","""event"",""trial"",""time""
""fullscreenenter"",""1"",""1648""
""blur"",""1"",""2219""
""focus"",""2"",""7482""
""blur"",""7"",""51035""
""focus"",""7"",""54971""
","""event"",""trial"",""time""
""blur"",""1"",""2219""
""blur"",""7"",""51035""
","""event"",""trial"",""time""
""focus"",""2"",""7482""
""focus"",""7"",""54971""
","""event"",""trial"",""time""
""fullscreenenter"",""1"",""1648""
","
","","","-1","","","23","13458","5928","n","elianto","#f73b6a7A","-1","-1","1","0","[]","0","2","","","13458","25","0","4","lose","no-go","0"
"pit-trial","144","1242515","0.0-30.0","battery-v0.2","","""event"",""trial"",""time""
""fullscreenenter"",""1"",""1648""
""blur"",""1"",""2219""
""focus"",""2"",""7482""
""blur"",""7"",""51035""
""focus"",""7"",""54971""
","""event"",""trial"",""time""
""blur"",""1"",""2219""
""blur"",""7"",""51035""
","""event"",""trial"",""time""
""focus"",""2"",""7482""
""focus"",""7"",""54971""
","""event"",""trial"",""time""
""fullscreenenter"",""1"",""1648""
","
","","","-1","","","23","13458","5928","b","elianto","#f73b6a7A"," ","-1","0","0","[]","0","2","","","13458","26","3","3","lose","go","1"
"pit-trial","145","1246055","0.0-31.0","battery-v0.2","","""event"",""trial"",""time""
""fullscreenenter"",""1"",""1648""
""blur"",""1"",""2219""
""focus"",""2"",""7482""
""blur"",""7"",""51035""
""focus"",""7"",""54971""
","""event"",""trial"",""time""
""blur"",""1"",""2219""
""blur"",""7"",""51035""
","""event"",""trial"",""time""
""focus"",""2"",""7482""
""focus"",""7"",""54971""
","""event"",""trial"",""time""
""fullscreenenter"",""1"",""1648""
","
","","","685.5999999996275","","","23","13458","5928","f","elianto","#3366ff99"," "," ","1","+10","[1537.5]","1","2","","","13458","27","1","1","win","go","0"
"pit-trial","146","1249878","0.0-32.0","battery-v0.2","","""event"",""trial"",""time""
""fullscreenenter"",""1"",""1648""
""blur"",""1"",""2219""
""focus"",""2"",""7482""
""blur"",""7"",""51035""
""focus"",""7"",""54971""
","""event"",""trial"",""time""
""blur"",""1"",""2219""
""blur"",""7"",""51035""
","""event"",""trial"",""time""
""focus"",""2"",""7482""
""focus"",""7"",""54971""
","""event"",""trial"",""time""
""fullscreenenter"",""1"",""1648""
","
","","","968.1999999992549","","","23","13458","5928","t","elianto","#f73b6a7A","-1"," ","0","-10","[1818.7999999988824]","1","2","","","13458","28","2","4","lose","no-go","0"
"pit-trial","147","1253474","0.0-33.0","battery-v0.2","","""event"",""trial"",""time""
""fullscreenenter"",""1"",""1648""
""blur"",""1"",""2219""
""focus"",""2"",""7482""
""blur"",""7"",""51035""
""focus"",""7"",""54971""
","""event"",""trial"",""time""
""blur"",""1"",""2219""
""blur"",""7"",""51035""
","""event"",""trial"",""time""
""focus"",""2"",""7482""
""focus"",""7"",""54971""
","""event"",""trial"",""time""
""fullscreenenter"",""1"",""1648""
","
","","","740.5","","","23","13458","5928","t","elianto","#f73b6a7A","-1"," ","0","-10","[1591.5999999996275]","1","2","","","13458","29","2","4","lose","no-go","0"
"pit-trial","148","1257069","0.0-34.0","battery-v0.2","","""event"",""trial"",""time""
""fullscreenenter"",""1"",""1648""
""blur"",""1"",""2219""
""focus"",""2"",""7482""
""blur"",""7"",""51035""
""focus"",""7"",""54971""
","""event"",""trial"",""time""
""blur"",""1"",""2219""
""blur"",""7"",""51035""
","""event"",""trial"",""time""
""focus"",""2"",""7482""
""focus"",""7"",""54971""
","""event"",""trial"",""time""
""fullscreenenter"",""1"",""1648""
","
","","","740","","","23","13458","5928","f","elianto","#3366ff99"," "," ","1","+10","[1590.5]","1","2","","","13458","30","1","1","win","go","0"
"pit-trial","149","1261924","0.0-35.0","battery-v0.2","","""event"",""trial"",""time""
""fullscreenenter"",""1"",""1648""
""blur"",""1"",""2219""
""focus"",""2"",""7482""
""blur"",""7"",""51035""
""focus"",""7"",""54971""
","""event"",""trial"",""time""
""blur"",""1"",""2219""
""blur"",""7"",""51035""
","""event"",""trial"",""time""
""focus"",""2"",""7482""
""focus"",""7"",""54971""
","""event"",""trial"",""time""
""fullscreenenter"",""1"",""1648""
","
","","","-1","","","23","13458","5928","n","elianto","#f73b6a7A","-1","-1","1","0","[]","0","2","","","13458","31","0","4","lose","no-go","0"
"pit-trial","150","1266780","0.0-36.0","battery-v0.2","","""event"",""trial"",""time""
""fullscreenenter"",""1"",""1648""
""blur"",""1"",""2219""
""focus"",""2"",""7482""
""blur"",""7"",""51035""
""focus"",""7"",""54971""
","""event"",""trial"",""time""
""blur"",""1"",""2219""
""blur"",""7"",""51035""
","""event"",""trial"",""time""
""focus"",""2"",""7482""
""focus"",""7"",""54971""
","""event"",""trial"",""time""
""fullscreenenter"",""1"",""1648""
","
","","","-1","","","23","13458","5928","b","elianto","#f73b6a7A"," ","-1","0","-10","[]","0","2","","","13458","32","3","3","lose","go","0"
"pit-trial","151","1270153","0.0-37.0","battery-v0.2","","""event"",""trial"",""time""
""fullscreenenter"",""1"",""1648""
""blur"",""1"",""2219""
""focus"",""2"",""7482""
""blur"",""7"",""51035""
""focus"",""7"",""54971""
","""event"",""trial"",""time""
""blur"",""1"",""2219""
""blur"",""7"",""51035""
","""event"",""trial"",""time""
""focus"",""2"",""7482""
""focus"",""7"",""54971""
","""event"",""trial"",""time""
""fullscreenenter"",""1"",""1648""
","
","","","517.0999999996275","","","23","13458","5928","f","elianto","#3366ff99"," "," ","1","0","[1368.5]","1","2","","","13458","33","1","1","win","go","1"
"pit-trial","152","1275009","0.0-38.0","battery-v0.2","","""event"",""trial"",""time""
""fullscreenenter"",""1"",""1648""
""blur"",""1"",""2219""
""focus"",""2"",""7482""
""blur"",""7"",""51035""
""focus"",""7"",""54971""
","""event"",""trial"",""time""
""blur"",""1"",""2219""
""blur"",""7"",""51035""
","""event"",""trial"",""time""
""focus"",""2"",""7482""
""focus"",""7"",""54971""
","""event"",""trial"",""time""
""fullscreenenter"",""1"",""1648""
","
","","","-1","","","23","13458","5928","b","elianto","#f73b6a7A"," ","-1","0","0","[]","0","2","","","13458","34","3","3","lose","go","1"
"pit-trial","153","1279863","0.0-39.0","battery-v0.2","","""event"",""trial"",""time""
""fullscreenenter"",""1"",""1648""
""blur"",""1"",""2219""
""focus"",""2"",""7482""
""blur"",""7"",""51035""
""focus"",""7"",""54971""
","""event"",""trial"",""time""
""blur"",""1"",""2219""
""blur"",""7"",""51035""
","""event"",""trial"",""time""
""focus"",""2"",""7482""
""focus"",""7"",""54971""
","""event"",""trial"",""time""
""fullscreenenter"",""1"",""1648""
","
","","","-1","","","23","13458","5928","n","elianto","#f73b6a7A","-1","-1","1","-10","[]","0","2","","","13458","35","0","4","lose","no-go","1"
"pit-trial","154","1284718","0.0-40.0","battery-v0.2","","""event"",""trial"",""time""
""fullscreenenter"",""1"",""1648""
""blur"",""1"",""2219""
""focus"",""2"",""7482""
""blur"",""7"",""51035""
""focus"",""7"",""54971""
","""event"",""trial"",""time""
""blur"",""1"",""2219""
""blur"",""7"",""51035""
","""event"",""trial"",""time""
""focus"",""2"",""7482""
""focus"",""7"",""54971""
","""event"",""trial"",""time""
""fullscreenenter"",""1"",""1648""
","
","","","-1","","","23","13458","5928","t","elianto","#f73b6a7A","-1","-1","1","0","[]","0","2","","","13458","36","2","4","lose","no-go","0"
"pit-trial","155","1289574","0.0-41.0","battery-v0.2","","""event"",""trial"",""time""
""fullscreenenter"",""1"",""1648""
""blur"",""1"",""2219""
""focus"",""2"",""7482""
""blur"",""7"",""51035""
""focus"",""7"",""54971""
","""event"",""trial"",""time""
""blur"",""1"",""2219""
""blur"",""7"",""51035""
","""event"",""trial"",""time""
""focus"",""2"",""7482""
""focus"",""7"",""54971""
","""event"",""trial"",""time""
""fullscreenenter"",""1"",""1648""
","
","","","-1","","","23","13458","5928","t","elianto","#f73b6a7A","-1","-1","1","0","[]","0","2","","","13458","37","2","4","lose","no-go","0"
"pit-trial","156","1294121","0.0-42.0","battery-v0.2","","""event"",""trial"",""time""
""fullscreenenter"",""1"",""1648""
""blur"",""1"",""2219""
""focus"",""2"",""7482""
